"rt","response_timestamp","stimulus","response","trial_type","trial_index","time_elapsed","internal_node_id","run_id","condition","recorded_at","source_code_version","ip","user_agent","device","browser","browser_version","platform","platform_version","referer","accept_language","PROLIFIC_PID","STUDY_ID","SESSION_ID","WEEK","BATCH","prolific_id","week","batch","realtime","success","responses","item_order","radio_event_ids","radio_event_times","key_event_times","mouse_event_times","straightlining","zigzagging","honeypot","eventType","view_history","slider_start","which_type","canvas_config","goals_layout","control_level","trial_number","tutorial_trial_number","trial_start_time","phase1_start_time","phase2_start_time","phase3_start_time","goal_1_value","goal_1_distance","goal_2_value","goal_2_distance","goal_selected","outcome","outcome_total","participant_final_score","participant_initial_score","participant_final_score_prop","goal_choice_rt","allocated_time","allocated_time_remaining","goal_direction","counts","mouse_movements","key_presses","question_order","question_id"
"40160","1752654207846","<p style='font-size:40px;line-height:1.25'><strong>Welcome to the experiment!</strong></p><p style='font-size:1.1em;line-height:1.25'>Thank you for participanting in our experiment again! You will be asked to play the Dysfunctional Ball Game again. We will briefly recap the rules before we start.</p><p style='font-size:1.1em;line-height:1.25'>Press <strong>Next</strong> to continue.</p>","0","custom-html-button-response","0","40165","0.0-0.0","56","1","2025-07-16 08:22:40","1f75c3e559b7213887762d5229550c2b","41.150.37.74","Mozilla/5.0 (Windows NT 10.0; Win64; x64) AppleWebKit/537.36 (KHTML, like Gecko) Chrome/138.0.0.0 Safari/537.36","WebKit","Chrome","138.0.0.0","Windows","10.0","https://app.prolific.com/","en-US,en;q=0.9","67c7672373207a4fb29efe7f","686e379bc37a29ffa5cdc956","68776047a8f0660e30fc26d2","1","1","67c7672373207a4fb29efe7f","1","1","2025-07-16T08:23:27.850Z","","","","","","","","","","","","","","","","","","","","","","","","","","","","","","","","","","","","","","","","","",""
"29403","","","","fullscreen","1","70646","0.0-1.0","56","1","2025-07-16 08:22:40","1f75c3e559b7213887762d5229550c2b","41.150.37.74","Mozilla/5.0 (Windows NT 10.0; Win64; x64) AppleWebKit/537.36 (KHTML, like Gecko) Chrome/138.0.0.0 Safari/537.36","WebKit","Chrome","138.0.0.0","Windows","10.0","https://app.prolific.com/","en-US,en;q=0.9","67c7672373207a4fb29efe7f","686e379bc37a29ffa5cdc956","68776047a8f0660e30fc26d2","1","1","67c7672373207a4fb29efe7f","1","1","","true","","","","","","","","","","","","","","","","","","","","","","","","","","","","","","","","","","","","","","","","",""
"424025","1752654662358","<p style='font-size:1.1em;line-height:1.25'>In the following, we will ask you a few questions relating to your feelings in the last 24 hours.<br></p><p style='font-size:1.1em;line-height:1.25'>Press the <strong>Next</strong> button to continue.</p>","0","custom-html-button-response","2","494675","0.0-2.0-0.0","56","1","2025-07-16 08:22:40","1f75c3e559b7213887762d5229550c2b","41.150.37.74","Mozilla/5.0 (Windows NT 10.0; Win64; x64) AppleWebKit/537.36 (KHTML, like Gecko) Chrome/138.0.0.0 Safari/537.36","WebKit","Chrome","138.0.0.0","Windows","10.0","https://app.prolific.com/","en-US,en;q=0.9","67c7672373207a4fb29efe7f","686e379bc37a29ffa5cdc956","68776047a8f0660e30fc26d2","1","1","67c7672373207a4fb29efe7f","1","1","2025-07-16T08:31:02.359Z","","","","","","","","","","","","","","","","","","","","","","","","","","","","","","","","","","","","","","","","","",""
"135018.30000001192","","","","survey-template","3","629710","0.0-2.0-1.0","56","1","2025-07-16 08:22:40","1f75c3e559b7213887762d5229550c2b","41.150.37.74","Mozilla/5.0 (Windows NT 10.0; Win64; x64) AppleWebKit/537.36 (KHTML, like Gecko) Chrome/138.0.0.0 Safari/537.36","WebKit","Chrome","138.0.0.0","Windows","10.0","https://app.prolific.com/","en-US,en;q=0.9","67c7672373207a4fb29efe7f","686e379bc37a29ffa5cdc956","68776047a8f0660e30fc26d2","1","1","67c7672373207a4fb29efe7f","1","1","2025-07-16T08:33:17.394Z","","{""Q01"":""0"",""Q02"":""0"",""Q03"":""0"",""Q04"":""0"",""Q05"":""0"",""Q06"":""0"",""Q07"":""0"",""Q08"":""0"",""Q09"":""0"",""Q10"":""0"",""Q11"":""1"",""Q12"":""0"",""Q13"":""5"",""Q14"":""0"",""Q15"":""0"",""Q16"":""0"",""Q17"":""0"",""Q18"":""0"",""Q19"":""0"",""Q20"":""1"",""Q21"":""1"",""Q22"":""0""}","[0,1,2,3,4,5,6,7,8,9,10,11,12,13,14,15,16,17,18,19,20,21]","[""Q01"",""Q02"",""Q03"",""Q04"",""Q05"",""Q06"",""Q07"",""Q08"",""Q09"",""Q09"",""Q10"",""Q11"",""Q12"",""Q13"",""Q14"",""Q15"",""Q17"",""Q16"",""Q18"",""Q19"",""Q20"",""Q21"",""Q21"",""Q22""]","[11691.300000011921,12945.400000035763,14954.900000035763,16869,19129.80000001192,21108.80000001192,22689.19999998808,24928.600000023842,37310.30000001192,48888.5,68492.5,70086,71479.80000001192,74570.5,77171.90000003576,78448.90000003576,84689,86349.80000001192,97578,102417.69999998808,120435,123355.60000002384,124467.10000002384,126853.5]","[]","[7,11691.300000011921,12945.400000035763,14954.900000035763,16869,19129.80000001192,21108.80000001192,22689.19999998808,24054.100000023842,24928.600000023842,37310.30000001192,48888.5,68492.5,70086,71479.80000001192,74570.5,77171.90000003576,78448.90000003576,84689,86349.80000001192,97578,102417.69999998808,120435,123355.60000002384,124467.10000002384,126853.5,135012]","0.8181818181818182","0.2857142857142857","0","drsp","","","","","","","","","","","","","","","","","","","","","","","","","","","","","","",""
"38040.10000002384","","","","survey-template","4","667754","0.0-2.0-2.0","56","1","2025-07-16 08:22:40","1f75c3e559b7213887762d5229550c2b","41.150.37.74","Mozilla/5.0 (Windows NT 10.0; Win64; x64) AppleWebKit/537.36 (KHTML, like Gecko) Chrome/138.0.0.0 Safari/537.36","WebKit","Chrome","138.0.0.0","Windows","10.0","https://app.prolific.com/","en-US,en;q=0.9","67c7672373207a4fb29efe7f","686e379bc37a29ffa5cdc956","68776047a8f0660e30fc26d2","1","1","67c7672373207a4fb29efe7f","1","1","2025-07-16T08:33:55.438Z","","{""Q01"":""0"",""Q02"":""0"",""Q03"":""1""}","[0,1,2]","[""Q01"",""Q02"",""Q03"",""Q03""]","[26736.19999998808,29032.69999998808,34228.80000001192,35747.69999998808]","[]","[26736.19999998808,29032.69999998808,32694.600000023842,34228.80000001192,35747.69999998808,38037.90000003576]","0.3333333333333333","0.5","0","stress","","","","","","","","","","","","","","","","","","","","","","","","","","","","","","",""
"58215","","","","instructions","5","725973","0.0-3.0-0.0","56","1","2025-07-16 08:22:40","1f75c3e559b7213887762d5229550c2b","41.150.37.74","Mozilla/5.0 (Windows NT 10.0; Win64; x64) AppleWebKit/537.36 (KHTML, like Gecko) Chrome/138.0.0.0 Safari/537.36","WebKit","Chrome","138.0.0.0","Windows","10.0","https://app.prolific.com/","en-US,en;q=0.9","67c7672373207a4fb29efe7f","686e379bc37a29ffa5cdc956","68776047a8f0660e30fc26d2","1","1","67c7672373207a4fb29efe7f","1","1","","","","","","","","","","","","","[{""page_index"":0,""viewing_time"":58214}]","","","","","","","","","","","","","","","","","","","","","","","","","","","","","",""
"21051","","<p>Before you start with this game please answer the following three questions yourself. </p>
  <p>Through this game, we measure several aspects of your cognitive performance, such as reaction times, multi-tasking capabilities </p>
  <p>and the ability to assess the situation you are in.</p>
  <p></p>
  <p><b>How good do you usually are in such tasks?</b></p>","100","html-slider-response","6","747048","0.0-4.0-0.0","56","1","2025-07-16 08:22:40","1f75c3e559b7213887762d5229550c2b","41.150.37.74","Mozilla/5.0 (Windows NT 10.0; Win64; x64) AppleWebKit/537.36 (KHTML, like Gecko) Chrome/138.0.0.0 Safari/537.36","WebKit","Chrome","138.0.0.0","Windows","10.0","https://app.prolific.com/","en-US,en;q=0.9","67c7672373207a4fb29efe7f","686e379bc37a29ffa5cdc956","68776047a8f0660e30fc26d2","1","1","67c7672373207a4fb29efe7f","1","1","2025-07-16T08:35:14.732Z","","","","","","","","","","","PreSkillQ","","50","","","","","","","","","","","","","","","","","","","","","","","","","","","","",""
"16448","","<div style=""width:500px;"">
  <p>How well do you think you will perform in this task compared to other participants?</p>
  </div>","79","html-slider-response","7","763502","0.0-4.0-1.0","56","1","2025-07-16 08:22:40","1f75c3e559b7213887762d5229550c2b","41.150.37.74","Mozilla/5.0 (Windows NT 10.0; Win64; x64) AppleWebKit/537.36 (KHTML, like Gecko) Chrome/138.0.0.0 Safari/537.36","WebKit","Chrome","138.0.0.0","Windows","10.0","https://app.prolific.com/","en-US,en;q=0.9","67c7672373207a4fb29efe7f","686e379bc37a29ffa5cdc956","68776047a8f0660e30fc26d2","1","1","67c7672373207a4fb29efe7f","1","1","2025-07-16T08:35:31.186Z","","","","","","","","","","","PrePerfQ","","50","","","","","","","","","","","","","","","","","","","","","","","","","","","","",""
"16187","","<div style=""width:500px;"">
  <p>What best describes how you currently feel?</p>
  </div>","98","html-slider-response","8","779694","0.0-4.0-2.0","56","1","2025-07-16 08:22:40","1f75c3e559b7213887762d5229550c2b","41.150.37.74","Mozilla/5.0 (Windows NT 10.0; Win64; x64) AppleWebKit/537.36 (KHTML, like Gecko) Chrome/138.0.0.0 Safari/537.36","WebKit","Chrome","138.0.0.0","Windows","10.0","https://app.prolific.com/","en-US,en;q=0.9","67c7672373207a4fb29efe7f","686e379bc37a29ffa5cdc956","68776047a8f0660e30fc26d2","1","1","67c7672373207a4fb29efe7f","1","1","2025-07-16T08:35:47.378Z","","","","","","","","","","","PreMotivationQ","","50","","","","","","","","","","","","","","","","","","","","","","","","","","","","",""
"","","","","ctl-task-cpt","9","819602","0.0-5.0-0.0","56","1","2025-07-16 08:22:40","1f75c3e559b7213887762d5229550c2b","41.150.37.74","Mozilla/5.0 (Windows NT 10.0; Win64; x64) AppleWebKit/537.36 (KHTML, like Gecko) Chrome/138.0.0.0 Safari/537.36","WebKit","Chrome","138.0.0.0","Windows","10.0","https://app.prolific.com/","en-US,en;q=0.9","67c7672373207a4fb29efe7f","686e379bc37a29ffa5cdc956","68776047a8f0660e30fc26d2","1","1","67c7672373207a4fb29efe7f","1","1","2025-07-16T08:36:27.287Z","","","","","","","","","","","","","","win-only","1","g1:NE,g2:SW","1","1","0","793308.5","4308.4","9312.4","36850.2","1","4","8","6","2","8","8","8","0","0.06060606060606061","2724.9","3000","1145","[""down"",""left""]","{""num_key_presses"":6,""num_perfect"":6,""num_errors"":0,""num_randdir"":0,""num_randdir_good_moves"":0,""num_whilered"":0,""num_whileblue"":0,""num_blue"":3,""num_good_moves"":6}","[288.22232142857143,297.12857142857143,19.9,288.22232142857143,297.12857142857143,103.9,288.22232142857143,297.12857142857143,217.3,288.22232142857143,297.12857142857143,322.6,288.22232142857143,297.12857142857143,422.8,288.22232142857143,297.12857142857143,529.2,288.22232142857143,297.12857142857143,638.5,288.22232142857143,297.12857142857143,738.6,288.22232142857143,297.12857142857143,839.6,288.22232142857143,297.12857142857143,948.9,288.22232142857143,297.12857142857143,1054.3,304.22232142857143,282.12857142857143,1156.4,338.22232142857143,265.12857142857143,1266.9,339.22232142857143,264.12857142857143,1367.5,339.22232142857143,269.12857142857143,1468.3,241.22232142857143,367.12857142857143,1573.5,199.22232142857143,388.12857142857143,1688.5,199.22232142857143,388.12857142857143,1789,199.22232142857143,388.12857142857143,1893.2,178.22232142857143,410.12857142857143,1998.1,102.22232142857143,514.1285714285714,2105.3,96.22232142857143,527.1285714285714,2210.6,88.22232142857143,533.1285714285714,2321.2,61.222321428571426,534.1285714285714,2426.9,60.222321428571426,534.1285714285714,2539.8,60.222321428571426,534.1285714285714,2647.5,60.222321428571426,534.1285714285714,2756.1,60.222321428571426,534.1285714285714,2859.3,60.222321428571426,534.1285714285714,2960,60.222321428571426,534.1285714285714,3063.7,60.222321428571426,534.1285714285714,3167.7,60.222321428571426,534.1285714285714,3272.9,60.222321428571426,534.1285714285714,3376.1,60.222321428571426,534.1285714285714,3490.1,60.222321428571426,534.1285714285714,3590.7,60.222321428571426,534.1285714285714,3693.7,60.222321428571426,534.1285714285714,3806.4,60.222321428571426,534.1285714285714,3906.9,60.222321428571426,534.1285714285714,4007,60.222321428571426,534.1285714285714,4108.4,60.222321428571426,534.1285714285714,4208.7,60.222321428571426,534.1285714285714,4317.3,60.222321428571426,534.1285714285714,4417.5,60.222321428571426,534.1285714285714,4517.5,60.222321428571426,534.1285714285714,4617.8,60.222321428571426,534.1285714285714,4725,60.222321428571426,534.1285714285714,4825.3,60.222321428571426,534.1285714285714,4927.9]","[8933,8926,2830.4,5456.2,646.4,""smooth"",""down"",""down"",""good_move"",11876.9,2941.8,2190.2,8935.1,751.6,""smooth"",""left"",""left"",""good_move"",18210.9,6333.3,2916.8,14796.2,498,""smooth"",""left"",""left"",""good_move"",21583.4,3368.3,2826.2,18215.1,542.1,""smooth"",""left"",""left"",""good_move"",24849.3,3264.2,2745.6,21585.4,518.4,""smooth"",""down"",""down"",""good_move"",27417.7,2566.2,2102.6,24851.5,463.6,""smooth"",""down"",""down"",""good_move""]","",""
"4104","","<div style=""width:500px;"">
  <p>What determined the result of this run?</p>
  </div>","98","html-slider-response","10","823710","0.0-5.0-1.0","56","1","2025-07-16 08:22:40","1f75c3e559b7213887762d5229550c2b","41.150.37.74","Mozilla/5.0 (Windows NT 10.0; Win64; x64) AppleWebKit/537.36 (KHTML, like Gecko) Chrome/138.0.0.0 Safari/537.36","WebKit","Chrome","138.0.0.0","Windows","10.0","https://app.prolific.com/","en-US,en;q=0.9","67c7672373207a4fb29efe7f","686e379bc37a29ffa5cdc956","68776047a8f0660e30fc26d2","1","1","67c7672373207a4fb29efe7f","1","1","2025-07-16T08:36:31.394Z","","","","","","","","","","","AttribQ","","50","","","","","","","","","","","","","","","","","","","","","","","","","","","","",""
"8481","","<div style=""width:500px;"">
  <p>How much control did you have over the ball?</p>
  </div>","100","html-slider-response","11","832197","0.0-5.0-2.0","56","1","2025-07-16 08:22:40","1f75c3e559b7213887762d5229550c2b","41.150.37.74","Mozilla/5.0 (Windows NT 10.0; Win64; x64) AppleWebKit/537.36 (KHTML, like Gecko) Chrome/138.0.0.0 Safari/537.36","WebKit","Chrome","138.0.0.0","Windows","10.0","https://app.prolific.com/","en-US,en;q=0.9","67c7672373207a4fb29efe7f","686e379bc37a29ffa5cdc956","68776047a8f0660e30fc26d2","1","1","67c7672373207a4fb29efe7f","1","1","2025-07-16T08:36:39.882Z","","","","","","","","","","","ControlQ","","50","","","","","","","","","","","","","","","","","","","","","","","","","","","","",""
"18019","","<div style=""width:500px;"">
  <p>How would you describe your current emotional state?</p>
  </div>","0","html-slider-response","12","850225","0.0-5.0-3.0","56","1","2025-07-16 08:22:40","1f75c3e559b7213887762d5229550c2b","41.150.37.74","Mozilla/5.0 (Windows NT 10.0; Win64; x64) AppleWebKit/537.36 (KHTML, like Gecko) Chrome/138.0.0.0 Safari/537.36","WebKit","Chrome","138.0.0.0","Windows","10.0","https://app.prolific.com/","en-US,en;q=0.9","67c7672373207a4fb29efe7f","686e379bc37a29ffa5cdc956","68776047a8f0660e30fc26d2","1","1","67c7672373207a4fb29efe7f","1","1","2025-07-16T08:36:57.909Z","","","","","","","","","","","StressQ","","50","","","","","","","","","","","","","","","","","","","","","","","","","","","","",""
"3691","","<div style=""width:500px;"">
  <p>What best describes how you currently feel?</p>
  </div>","100","html-slider-response","13","853920","0.0-5.0-4.0","56","1","2025-07-16 08:22:40","1f75c3e559b7213887762d5229550c2b","41.150.37.74","Mozilla/5.0 (Windows NT 10.0; Win64; x64) AppleWebKit/537.36 (KHTML, like Gecko) Chrome/138.0.0.0 Safari/537.36","WebKit","Chrome","138.0.0.0","Windows","10.0","https://app.prolific.com/","en-US,en;q=0.9","67c7672373207a4fb29efe7f","686e379bc37a29ffa5cdc956","68776047a8f0660e30fc26d2","1","1","67c7672373207a4fb29efe7f","1","1","2025-07-16T08:37:01.604Z","","","","","","","","","","","MotivationQ","","50","","","","","","","","","","","","","","","","","","","","","","","","","","","","",""
"","","","","ctl-task-cpt","14","875704","0.0-5.0-0.1","56","1","2025-07-16 08:22:40","1f75c3e559b7213887762d5229550c2b","41.150.37.74","Mozilla/5.0 (Windows NT 10.0; Win64; x64) AppleWebKit/537.36 (KHTML, like Gecko) Chrome/138.0.0.0 Safari/537.36","WebKit","Chrome","138.0.0.0","Windows","10.0","https://app.prolific.com/","en-US,en;q=0.9","67c7672373207a4fb29efe7f","686e379bc37a29ffa5cdc956","68776047a8f0660e30fc26d2","1","1","67c7672373207a4fb29efe7f","1","1","2025-07-16T08:37:23.389Z","","","","","","","","","","","","","","win-only","2","g1:SE,g2:NW","0.9","2","0","867480.7","1947.3","6950.5","18767.1","1","4","4","6","1","1","1","9","8","0.06818181818181818","2044.3","3000","365","[""down"",""right""]","{""num_key_presses"":4,""num_perfect"":4,""num_errors"":0,""num_randdir"":0,""num_randdir_good_moves"":0,""num_whilered"":0,""num_whileblue"":0,""num_blue"":0,""num_good_moves"":4}","[291.22232142857143,301.12857142857143,0.7,291.22232142857143,301.12857142857143,105.5,291.22232142857143,301.12857142857143,209,291.22232142857143,301.12857142857143,309.4,291.22232142857143,301.12857142857143,410.4,291.22232142857143,301.12857142857143,514.1,291.22232142857143,301.12857142857143,621.4,291.22232142857143,301.12857142857143,721.6,291.22232142857143,301.12857142857143,822,288.22232142857143,298.12857142857143,926.3,279.22232142857143,282.12857142857143,1030.4,213.22232142857143,199.12857142857143,1134.2,200.22232142857143,178.12857142857143,1241.7,206.22232142857143,182.12857142857143,1343.3,435.22232142857143,417.12857142857143,1451.8,527.2223214285714,533.1285714285714,1560.6,529.2223214285714,538.1285714285714,1664.1,529.2223214285714,543.1285714285714,1771.1,529.2223214285714,543.1285714285714,1872.6,529.2223214285714,543.1285714285714,1977.2,529.2223214285714,543.1285714285714,2080.4,529.2223214285714,543.1285714285714,2194,529.2223214285714,543.1285714285714,2295.6,529.2223214285714,543.1285714285714,2402.8,529.2223214285714,543.1285714285714,2512.3,529.2223214285714,543.1285714285714,2613.8,529.2223214285714,543.1285714285714,2721.2,529.2223214285714,543.1285714285714,2821.6,529.2223214285714,543.1285714285714,2922,529.2223214285714,543.1285714285714,3026.4,529.2223214285714,543.1285714285714,3127.9,529.2223214285714,543.1285714285714,3229.1,529.2223214285714,543.1285714285714,3330.2,529.2223214285714,543.1285714285714,3433.8,522.2223214285714,535.1285714285714,3544.1,516.2223214285714,529.1285714285714,3644.6,516.2223214285714,528.1285714285714,3752.2,516.2223214285714,528.1285714285714,3860.9,516.2223214285714,528.1285714285714,3962.5,516.2223214285714,528.1285714285714,4067.2,516.2223214285714,528.1285714285714,4172.2,516.2223214285714,528.1285714285714,4276.9,516.2223214285714,528.1285714285714,4378,516.2223214285714,528.1285714285714,4479.2,516.2223214285714,528.1285714285714,4581.4,516.2223214285714,528.1285714285714,4682.2,516.2223214285714,528.1285714285714,4793.1,516.2223214285714,528.1285714285714,4894.7]","[2598,2598,1000,0,1598,""smooth"",""right"",""right"",""good_move"",5764.4,3164.7,2295.4,2599.7,869.4,""smooth"",""right"",""right"",""good_move"",8701.2,2935.9,2130.3,5765.4,805.5,""smooth"",""down"",""down"",""good_move"",11706.7,3004.6,2472.7,8702.1,531.9,""smooth"",""down"",""down"",""good_move""]","",""
"10396","","<div style=""width:500px;"">
  <p>What determined the result of this run?</p>
  </div>","95","html-slider-response","15","886103","0.0-5.0-1.1","56","1","2025-07-16 08:22:40","1f75c3e559b7213887762d5229550c2b","41.150.37.74","Mozilla/5.0 (Windows NT 10.0; Win64; x64) AppleWebKit/537.36 (KHTML, like Gecko) Chrome/138.0.0.0 Safari/537.36","WebKit","Chrome","138.0.0.0","Windows","10.0","https://app.prolific.com/","en-US,en;q=0.9","67c7672373207a4fb29efe7f","686e379bc37a29ffa5cdc956","68776047a8f0660e30fc26d2","1","1","67c7672373207a4fb29efe7f","1","1","2025-07-16T08:37:33.787Z","","","","","","","","","","","AttribQ","","50","","","","","","","","","","","","","","","","","","","","","","","","","","","","",""
"7509","","<div style=""width:500px;"">
  <p>How much control did you have over the ball?</p>
  </div>","98","html-slider-response","16","893618","0.0-5.0-2.1","56","1","2025-07-16 08:22:40","1f75c3e559b7213887762d5229550c2b","41.150.37.74","Mozilla/5.0 (Windows NT 10.0; Win64; x64) AppleWebKit/537.36 (KHTML, like Gecko) Chrome/138.0.0.0 Safari/537.36","WebKit","Chrome","138.0.0.0","Windows","10.0","https://app.prolific.com/","en-US,en;q=0.9","67c7672373207a4fb29efe7f","686e379bc37a29ffa5cdc956","68776047a8f0660e30fc26d2","1","1","67c7672373207a4fb29efe7f","1","1","2025-07-16T08:37:41.302Z","","","","","","","","","","","ControlQ","","50","","","","","","","","","","","","","","","","","","","","","","","","","","","","",""
"4268","","<div style=""width:500px;"">
  <p>How would you describe your current emotional state?</p>
  </div>","11","html-slider-response","17","897891","0.0-5.0-3.1","56","1","2025-07-16 08:22:40","1f75c3e559b7213887762d5229550c2b","41.150.37.74","Mozilla/5.0 (Windows NT 10.0; Win64; x64) AppleWebKit/537.36 (KHTML, like Gecko) Chrome/138.0.0.0 Safari/537.36","WebKit","Chrome","138.0.0.0","Windows","10.0","https://app.prolific.com/","en-US,en;q=0.9","67c7672373207a4fb29efe7f","686e379bc37a29ffa5cdc956","68776047a8f0660e30fc26d2","1","1","67c7672373207a4fb29efe7f","1","1","2025-07-16T08:37:45.575Z","","","","","","","","","","","StressQ","","50","","","","","","","","","","","","","","","","","","","","","","","","","","","","",""
"3168","","<div style=""width:500px;"">
  <p>What best describes how you currently feel?</p>
  </div>","85","html-slider-response","18","901064","0.0-5.0-4.1","56","1","2025-07-16 08:22:40","1f75c3e559b7213887762d5229550c2b","41.150.37.74","Mozilla/5.0 (Windows NT 10.0; Win64; x64) AppleWebKit/537.36 (KHTML, like Gecko) Chrome/138.0.0.0 Safari/537.36","WebKit","Chrome","138.0.0.0","Windows","10.0","https://app.prolific.com/","en-US,en;q=0.9","67c7672373207a4fb29efe7f","686e379bc37a29ffa5cdc956","68776047a8f0660e30fc26d2","1","1","67c7672373207a4fb29efe7f","1","1","2025-07-16T08:37:48.748Z","","","","","","","","","","","MotivationQ","","50","","","","","","","","","","","","","","","","","","","","","","","","","","","","",""
"","","","","ctl-task-cpt","19","929198","0.0-5.0-0.2","56","1","2025-07-16 08:22:40","1f75c3e559b7213887762d5229550c2b","41.150.37.74","Mozilla/5.0 (Windows NT 10.0; Win64; x64) AppleWebKit/537.36 (KHTML, like Gecko) Chrome/138.0.0.0 Safari/537.36","WebKit","Chrome","138.0.0.0","Windows","10.0","https://app.prolific.com/","en-US,en;q=0.9","67c7672373207a4fb29efe7f","686e379bc37a29ffa5cdc956","68776047a8f0660e30fc26d2","1","1","67c7672373207a4fb29efe7f","1","1","2025-07-16T08:38:16.882Z","","","","","","","","","","","","","","win-only","3","g1:SW,g2:NE","0.8","3","0","914630","1451.2","6466.9","25107.1","1","4","4","6","1","1","1","10","9","0.07575757575757576","2128.2","3000","1270","[""down"",""left""]","{""num_key_presses"":4,""num_perfect"":3,""num_errors"":0,""num_randdir"":1,""num_randdir_good_moves"":1,""num_whilered"":0,""num_whileblue"":0,""num_blue"":2,""num_good_moves"":4}","[287.22232142857143,297.12857142857143,0.8,287.22232142857143,297.12857142857143,106.5,287.22232142857143,297.12857142857143,218.6,287.22232142857143,297.12857142857143,322.7,287.22232142857143,297.12857142857143,427,287.22232142857143,297.12857142857143,529.5,287.22232142857143,297.12857142857143,630.3,287.22232142857143,297.12857142857143,738.4,287.22232142857143,297.12857142857143,838.5,287.22232142857143,297.12857142857143,939.1,287.22232142857143,297.12857142857143,1039.4,287.22232142857143,297.12857142857143,1145.6,287.22232142857143,297.12857142857143,1257.9,278.22232142857143,298.12857142857143,1364.1,125.22232142857143,439.12857142857143,1469.6,71.22232142857143,499.12857142857143,1570.4,53.222321428571426,512.1285714285714,1681.3,47.222321428571426,517.1285714285714,1787.8,44.222321428571426,521.1285714285714,1888.2,44.222321428571426,521.1285714285714,1988.7,44.222321428571426,521.1285714285714,2089.4,44.222321428571426,521.1285714285714,2195.4,44.222321428571426,521.1285714285714,2296.8,44.222321428571426,521.1285714285714,2407.4,44.222321428571426,521.1285714285714,2510.5,44.222321428571426,521.1285714285714,2611.7,44.222321428571426,521.1285714285714,2713,44.222321428571426,521.1285714285714,2818.8,44.222321428571426,521.1285714285714,2928.6,44.222321428571426,521.1285714285714,3030.5,44.222321428571426,521.1285714285714,3130.8,44.222321428571426,521.1285714285714,3237.6,44.222321428571426,521.1285714285714,3338.1,44.222321428571426,521.1285714285714,3446.7,44.222321428571426,521.1285714285714,3552.7,44.222321428571426,521.1285714285714,3658.6,44.222321428571426,521.1285714285714,3761.5,44.222321428571426,521.1285714285714,3861.5,44.222321428571426,521.1285714285714,3962.6,44.222321428571426,521.1285714285714,4063,44.222321428571426,521.1285714285714,4178.9,44.222321428571426,521.1285714285714,4280.2,44.222321428571426,521.1285714285714,4385.8,44.222321428571426,521.1285714285714,4488.4,44.222321428571426,521.1285714285714,4589.3,44.222321428571426,521.1285714285714,4697.3,44.222321428571426,521.1285714285714,4798.8,44.222321428571426,521.1285714285714,4907.9]","[8420.8,8420.8,3052.8,4815.8,552.2,""smooth"",""down"",""down"",""good_move"",12172.5,3749.9,3037.7,8422.6,712.2,""smooth"",""down"",""down"",""good_move"",15346.4,3172.7,2358.8,12173.7,813.9,""smooth"",""left"",""left"",""good_move"",18493.6,3145.8,2633,15347.8,512.8,""oops"",""left"",""left"",""good_move""]","",""
"3823","","<div style=""width:500px;"">
  <p>What determined the result of this run?</p>
  </div>","100","html-slider-response","20","933024","0.0-5.0-1.2","56","1","2025-07-16 08:22:40","1f75c3e559b7213887762d5229550c2b","41.150.37.74","Mozilla/5.0 (Windows NT 10.0; Win64; x64) AppleWebKit/537.36 (KHTML, like Gecko) Chrome/138.0.0.0 Safari/537.36","WebKit","Chrome","138.0.0.0","Windows","10.0","https://app.prolific.com/","en-US,en;q=0.9","67c7672373207a4fb29efe7f","686e379bc37a29ffa5cdc956","68776047a8f0660e30fc26d2","1","1","67c7672373207a4fb29efe7f","1","1","2025-07-16T08:38:20.708Z","","","","","","","","","","","AttribQ","","50","","","","","","","","","","","","","","","","","","","","","","","","","","","","",""
"3298","","<div style=""width:500px;"">
  <p>How much control did you have over the ball?</p>
  </div>","94","html-slider-response","21","936325","0.0-5.0-2.2","56","1","2025-07-16 08:22:40","1f75c3e559b7213887762d5229550c2b","41.150.37.74","Mozilla/5.0 (Windows NT 10.0; Win64; x64) AppleWebKit/537.36 (KHTML, like Gecko) Chrome/138.0.0.0 Safari/537.36","WebKit","Chrome","138.0.0.0","Windows","10.0","https://app.prolific.com/","en-US,en;q=0.9","67c7672373207a4fb29efe7f","686e379bc37a29ffa5cdc956","68776047a8f0660e30fc26d2","1","1","67c7672373207a4fb29efe7f","1","1","2025-07-16T08:38:24.009Z","","","","","","","","","","","ControlQ","","50","","","","","","","","","","","","","","","","","","","","","","","","","","","","",""
"4002","","<div style=""width:500px;"">
  <p>How would you describe your current emotional state?</p>
  </div>","1","html-slider-response","22","940331","0.0-5.0-3.2","56","1","2025-07-16 08:22:40","1f75c3e559b7213887762d5229550c2b","41.150.37.74","Mozilla/5.0 (Windows NT 10.0; Win64; x64) AppleWebKit/537.36 (KHTML, like Gecko) Chrome/138.0.0.0 Safari/537.36","WebKit","Chrome","138.0.0.0","Windows","10.0","https://app.prolific.com/","en-US,en;q=0.9","67c7672373207a4fb29efe7f","686e379bc37a29ffa5cdc956","68776047a8f0660e30fc26d2","1","1","67c7672373207a4fb29efe7f","1","1","2025-07-16T08:38:28.016Z","","","","","","","","","","","StressQ","","50","","","","","","","","","","","","","","","","","","","","","","","","","","","","",""
"3626","","<div style=""width:500px;"">
  <p>What best describes how you currently feel?</p>
  </div>","100","html-slider-response","23","943962","0.0-5.0-4.2","56","1","2025-07-16 08:22:40","1f75c3e559b7213887762d5229550c2b","41.150.37.74","Mozilla/5.0 (Windows NT 10.0; Win64; x64) AppleWebKit/537.36 (KHTML, like Gecko) Chrome/138.0.0.0 Safari/537.36","WebKit","Chrome","138.0.0.0","Windows","10.0","https://app.prolific.com/","en-US,en;q=0.9","67c7672373207a4fb29efe7f","686e379bc37a29ffa5cdc956","68776047a8f0660e30fc26d2","1","1","67c7672373207a4fb29efe7f","1","1","2025-07-16T08:38:31.646Z","","","","","","","","","","","MotivationQ","","50","","","","","","","","","","","","","","","","","","","","","","","","","","","","",""
"","","","","ctl-task-cpt","24","981271","0.0-5.0-0.3","56","1","2025-07-16 08:22:40","1f75c3e559b7213887762d5229550c2b","41.150.37.74","Mozilla/5.0 (Windows NT 10.0; Win64; x64) AppleWebKit/537.36 (KHTML, like Gecko) Chrome/138.0.0.0 Safari/537.36","WebKit","Chrome","138.0.0.0","Windows","10.0","https://app.prolific.com/","en-US,en;q=0.9","67c7672373207a4fb29efe7f","686e379bc37a29ffa5cdc956","68776047a8f0660e30fc26d2","1","1","67c7672373207a4fb29efe7f","1","1","2025-07-16T08:39:08.956Z","","","","","","","","","","","","","","win-only","2","g1:SE,g2:NW","0.7","4","0","957527.8","2083.4","7092","34291.4","1","4","8","6","2","-8","-8","2","10","0.015151515151515152","2519.3","3000","-2165","[""left"",""up""]","{""num_key_presses"":7,""num_perfect"":5,""num_errors"":0,""num_randdir"":2,""num_randdir_good_moves"":0,""num_whilered"":0,""num_whileblue"":0,""num_blue"":1,""num_good_moves"":5}","[297.22232142857143,300.12857142857143,0.8,297.22232142857143,300.12857142857143,101.1,297.22232142857143,300.12857142857143,201.1,297.22232142857143,300.12857142857143,304,297.22232142857143,300.12857142857143,404.2,297.22232142857143,300.12857142857143,507.9,297.22232142857143,300.12857142857143,617.6,297.22232142857143,300.12857142857143,717.7,297.22232142857143,300.12857142857143,823.8,297.22232142857143,300.12857142857143,924.3,313.22232142857143,314.12857142857143,1035.3,381.22232142857143,374.12857142857143,1141.4,382.22232142857143,382.12857142857143,1243.2,169.22232142857143,211.12857142857143,1347.2,162.22232142857143,203.12857142857143,1449.9,160.22232142857143,195.12857142857143,1556.4,123.22232142857143,108.12857142857143,1666.7,123.22232142857143,108.12857142857143,1773.7,123.22232142857143,108.12857142857143,1883.4,107.22232142857143,96.12857142857143,1984.1,68.22232142857143,65.12857142857143,2085.3,64.22232142857143,63.128571428571426,2186.2,55.222321428571426,58.128571428571426,2287.3,55.222321428571426,58.128571428571426,2389.4,55.222321428571426,58.128571428571426,2499.9,55.222321428571426,58.128571428571426,2601.3,55.222321428571426,58.128571428571426,2701.7,55.222321428571426,58.128571428571426,2803.4,55.222321428571426,58.128571428571426,2911.4,55.222321428571426,58.128571428571426,3011.6,55.222321428571426,58.128571428571426,3119.1,55.222321428571426,58.128571428571426,3224.7,55.222321428571426,58.128571428571426,3328.8,55.222321428571426,58.128571428571426,3431.6,55.222321428571426,58.128571428571426,3535.2,55.222321428571426,58.128571428571426,3641.4,55.222321428571426,58.128571428571426,3750.7,55.222321428571426,58.128571428571426,3853.3,55.222321428571426,58.128571428571426,3954.3,55.222321428571426,58.128571428571426,4057.8,55.222321428571426,58.128571428571426,4167.3,55.222321428571426,58.128571428571426,4267.6,55.222321428571426,58.128571428571426,4369,55.222321428571426,58.128571428571426,4476.6,55.222321428571426,58.128571428571426,4581.8,55.222321428571426,58.128571428571426,4684.1,55.222321428571426,58.128571428571426,4787.5,55.222321428571426,58.128571428571426,4893.3,55.222321428571426,58.128571428571426,4997.4]","[2128.4,2128.4,1000,0,1128.4,""smooth"",""up"",""up"",""good_move"",5225.6,3095.8,2524.9,2129.8,570.9,""smooth"",""up"",""up"",""good_move"",8241.9,3012.5,2290.4,5229.4,722.1,""smooth"",""left"",""left"",""good_move"",11387.5,3141.2,2680.4,8246.3,460.8,""smooth"",""left"",""left"",""good_move"",13990.5,2602.5,2075.7,11388,526.8,""smooth"",""left"",""left"",""good_move"",20664.7,6673.1,2298.5,17836.5,529.7,""oops"",""up"",""down"",""bad_move"",24415.7,3749.9,3102.6,20665.8,647.3,""oops"",""up"",""right"",""bad_move""]","",""
"5523","","<div style=""width:500px;"">
  <p>What determined the result of this run?</p>
  </div>","29","html-slider-response","25","986798","0.0-5.0-1.3","56","1","2025-07-16 08:22:40","1f75c3e559b7213887762d5229550c2b","41.150.37.74","Mozilla/5.0 (Windows NT 10.0; Win64; x64) AppleWebKit/537.36 (KHTML, like Gecko) Chrome/138.0.0.0 Safari/537.36","WebKit","Chrome","138.0.0.0","Windows","10.0","https://app.prolific.com/","en-US,en;q=0.9","67c7672373207a4fb29efe7f","686e379bc37a29ffa5cdc956","68776047a8f0660e30fc26d2","1","1","67c7672373207a4fb29efe7f","1","1","2025-07-16T08:39:14.482Z","","","","","","","","","","","AttribQ","","50","","","","","","","","","","","","","","","","","","","","","","","","","","","","",""
"4793","","<div style=""width:500px;"">
  <p>How much control did you have over the ball?</p>
  </div>","81","html-slider-response","26","991594","0.0-5.0-2.3","56","1","2025-07-16 08:22:40","1f75c3e559b7213887762d5229550c2b","41.150.37.74","Mozilla/5.0 (Windows NT 10.0; Win64; x64) AppleWebKit/537.36 (KHTML, like Gecko) Chrome/138.0.0.0 Safari/537.36","WebKit","Chrome","138.0.0.0","Windows","10.0","https://app.prolific.com/","en-US,en;q=0.9","67c7672373207a4fb29efe7f","686e379bc37a29ffa5cdc956","68776047a8f0660e30fc26d2","1","1","67c7672373207a4fb29efe7f","1","1","2025-07-16T08:39:19.278Z","","","","","","","","","","","ControlQ","","50","","","","","","","","","","","","","","","","","","","","","","","","","","","","",""
"3436","","<div style=""width:500px;"">
  <p>How would you describe your current emotional state?</p>
  </div>","21","html-slider-response","27","995032","0.0-5.0-3.3","56","1","2025-07-16 08:22:40","1f75c3e559b7213887762d5229550c2b","41.150.37.74","Mozilla/5.0 (Windows NT 10.0; Win64; x64) AppleWebKit/537.36 (KHTML, like Gecko) Chrome/138.0.0.0 Safari/537.36","WebKit","Chrome","138.0.0.0","Windows","10.0","https://app.prolific.com/","en-US,en;q=0.9","67c7672373207a4fb29efe7f","686e379bc37a29ffa5cdc956","68776047a8f0660e30fc26d2","1","1","67c7672373207a4fb29efe7f","1","1","2025-07-16T08:39:22.717Z","","","","","","","","","","","StressQ","","50","","","","","","","","","","","","","","","","","","","","","","","","","","","","",""
"5483","","<div style=""width:500px;"">
  <p>What best describes how you currently feel?</p>
  </div>","85","html-slider-response","28","1000517","0.0-5.0-4.3","56","1","2025-07-16 08:22:40","1f75c3e559b7213887762d5229550c2b","41.150.37.74","Mozilla/5.0 (Windows NT 10.0; Win64; x64) AppleWebKit/537.36 (KHTML, like Gecko) Chrome/138.0.0.0 Safari/537.36","WebKit","Chrome","138.0.0.0","Windows","10.0","https://app.prolific.com/","en-US,en;q=0.9","67c7672373207a4fb29efe7f","686e379bc37a29ffa5cdc956","68776047a8f0660e30fc26d2","1","1","67c7672373207a4fb29efe7f","1","1","2025-07-16T08:39:28.201Z","","","","","","","","","","","MotivationQ","","50","","","","","","","","","","","","","","","","","","","","","","","","","","","","",""
"","","","","ctl-task-cpt","29","1033244","0.0-5.0-0.4","56","1","2025-07-16 08:22:40","1f75c3e559b7213887762d5229550c2b","41.150.37.74","Mozilla/5.0 (Windows NT 10.0; Win64; x64) AppleWebKit/537.36 (KHTML, like Gecko) Chrome/138.0.0.0 Safari/537.36","WebKit","Chrome","138.0.0.0","Windows","10.0","https://app.prolific.com/","en-US,en;q=0.9","67c7672373207a4fb29efe7f","686e379bc37a29ffa5cdc956","68776047a8f0660e30fc26d2","1","1","67c7672373207a4fb29efe7f","1","1","2025-07-16T08:40:00.928Z","","","","","","","","","","","","","","win-only","2","g1:SE,g2:NW","0.6","5","0","1014080.1","1796.2","6812.7","29695.7","1","4","4","6","1","1","1","3","2","0.022727272727272728","1973.8","3000","1150","[""down"",""right""]","{""num_key_presses"":6,""num_perfect"":3,""num_errors"":0,""num_randdir"":3,""num_randdir_good_moves"":2,""num_whilered"":0,""num_whileblue"":0,""num_blue"":2,""num_good_moves"":5}","[293.22232142857143,298.12857142857143,1.2,293.22232142857143,298.12857142857143,109.7,293.22232142857143,298.12857142857143,210.1,293.22232142857143,298.12857142857143,324.3,293.22232142857143,298.12857142857143,429.4,293.22232142857143,298.12857142857143,533.1,293.22232142857143,298.12857142857143,653.7,293.22232142857143,298.12857142857143,758,293.22232142857143,298.12857142857143,864.4,293.22232142857143,298.12857142857143,966.4,323.22232142857143,319.12857142857143,1090.3,497.22232142857143,444.12857142857143,1195.5,530.2223214285714,487.12857142857143,1339.5,530.2223214285714,487.12857142857143,1445,530.2223214285714,487.12857142857143,1547.1,535.2223214285714,545.1285714285714,1649.8,534.2223214285714,555.1285714285714,1751.2,534.2223214285714,555.1285714285714,1857.1,534.2223214285714,555.1285714285714,1961.3,534.2223214285714,555.1285714285714,2061.5,534.2223214285714,555.1285714285714,2164.6,534.2223214285714,555.1285714285714,2295.8,534.2223214285714,555.1285714285714,2397.3,534.2223214285714,555.1285714285714,2501.9,534.2223214285714,555.1285714285714,2610.4,534.2223214285714,555.1285714285714,2713.9,534.2223214285714,555.1285714285714,2819.2,534.2223214285714,555.1285714285714,2939.1,534.2223214285714,555.1285714285714,3042.8,534.2223214285714,555.1285714285714,3148.3,534.2223214285714,555.1285714285714,3250.9,534.2223214285714,555.1285714285714,3362,534.2223214285714,555.1285714285714,3477.9,534.2223214285714,555.1285714285714,3594.5,534.2223214285714,555.1285714285714,3699.3,534.2223214285714,555.1285714285714,3802.3,534.2223214285714,555.1285714285714,3913.2,534.2223214285714,555.1285714285714,4014.5,534.2223214285714,555.1285714285714,4124.6,534.2223214285714,555.1285714285714,4230.3,534.2223214285714,555.1285714285714,4349.9,534.2223214285714,555.1285714285714,4450.7,534.2223214285714,555.1285714285714,4563.6,534.2223214285714,555.1285714285714,4667.6,534.2223214285714,555.1285714285714,4782.2,534.2223214285714,555.1285714285714,4893.6]","[1798.2,1798.2,1000,0,798.2,""oops"",""down"",""up"",""bad_move"",4644.7,2844.7,2161.3,1800.1,683.4,""oops"",""down"",""right"",""good_move"",7351.5,2703.8,2117.4,4647.7,586.4,""smooth"",""down"",""down"",""good_move"",16635.3,9282.3,1856,14239.8,539.6,""oops"",""down"",""right"",""good_move"",19640.2,3004,2479.2,16636.3,524.7,""smooth"",""down"",""down"",""good_move"",22712.8,3072,2521.9,19640.9,550,""smooth"",""down"",""down"",""good_move""]","",""
"6830","","<div style=""width:500px;"">
  <p>What determined the result of this run?</p>
  </div>","86","html-slider-response","30","1040076","0.0-5.0-1.4","56","1","2025-07-16 08:22:40","1f75c3e559b7213887762d5229550c2b","41.150.37.74","Mozilla/5.0 (Windows NT 10.0; Win64; x64) AppleWebKit/537.36 (KHTML, like Gecko) Chrome/138.0.0.0 Safari/537.36","WebKit","Chrome","138.0.0.0","Windows","10.0","https://app.prolific.com/","en-US,en;q=0.9","67c7672373207a4fb29efe7f","686e379bc37a29ffa5cdc956","68776047a8f0660e30fc26d2","1","1","67c7672373207a4fb29efe7f","1","1","2025-07-16T08:40:07.760Z","","","","","","","","","","","AttribQ","","50","","","","","","","","","","","","","","","","","","","","","","","","","","","","",""
"4539","","<div style=""width:500px;"">
  <p>How much control did you have over the ball?</p>
  </div>","45","html-slider-response","31","1044618","0.0-5.0-2.4","56","1","2025-07-16 08:22:40","1f75c3e559b7213887762d5229550c2b","41.150.37.74","Mozilla/5.0 (Windows NT 10.0; Win64; x64) AppleWebKit/537.36 (KHTML, like Gecko) Chrome/138.0.0.0 Safari/537.36","WebKit","Chrome","138.0.0.0","Windows","10.0","https://app.prolific.com/","en-US,en;q=0.9","67c7672373207a4fb29efe7f","686e379bc37a29ffa5cdc956","68776047a8f0660e30fc26d2","1","1","67c7672373207a4fb29efe7f","1","1","2025-07-16T08:40:12.302Z","","","","","","","","","","","ControlQ","","50","","","","","","","","","","","","","","","","","","","","","","","","","","","","",""
"5368","","<div style=""width:500px;"">
  <p>How would you describe your current emotional state?</p>
  </div>","27","html-slider-response","32","1049989","0.0-5.0-3.4","56","1","2025-07-16 08:22:40","1f75c3e559b7213887762d5229550c2b","41.150.37.74","Mozilla/5.0 (Windows NT 10.0; Win64; x64) AppleWebKit/537.36 (KHTML, like Gecko) Chrome/138.0.0.0 Safari/537.36","WebKit","Chrome","138.0.0.0","Windows","10.0","https://app.prolific.com/","en-US,en;q=0.9","67c7672373207a4fb29efe7f","686e379bc37a29ffa5cdc956","68776047a8f0660e30fc26d2","1","1","67c7672373207a4fb29efe7f","1","1","2025-07-16T08:40:17.673Z","","","","","","","","","","","StressQ","","50","","","","","","","","","","","","","","","","","","","","","","","","","","","","",""
"3594","","<div style=""width:500px;"">
  <p>What best describes how you currently feel?</p>
  </div>","83","html-slider-response","33","1053586","0.0-5.0-4.4","56","1","2025-07-16 08:22:40","1f75c3e559b7213887762d5229550c2b","41.150.37.74","Mozilla/5.0 (Windows NT 10.0; Win64; x64) AppleWebKit/537.36 (KHTML, like Gecko) Chrome/138.0.0.0 Safari/537.36","WebKit","Chrome","138.0.0.0","Windows","10.0","https://app.prolific.com/","en-US,en;q=0.9","67c7672373207a4fb29efe7f","686e379bc37a29ffa5cdc956","68776047a8f0660e30fc26d2","1","1","67c7672373207a4fb29efe7f","1","1","2025-07-16T08:40:21.270Z","","","","","","","","","","","MotivationQ","","50","","","","","","","","","","","","","","","","","","","","","","","","","","","","",""
"","","","","ctl-task-cpt","34","1101480","0.0-5.0-0.5","56","1","2025-07-16 08:22:40","1f75c3e559b7213887762d5229550c2b","41.150.37.74","Mozilla/5.0 (Windows NT 10.0; Win64; x64) AppleWebKit/537.36 (KHTML, like Gecko) Chrome/138.0.0.0 Safari/537.36","WebKit","Chrome","138.0.0.0","Windows","10.0","https://app.prolific.com/","en-US,en;q=0.9","67c7672373207a4fb29efe7f","686e379bc37a29ffa5cdc956","68776047a8f0660e30fc26d2","1","1","67c7672373207a4fb29efe7f","1","1","2025-07-16T08:41:09.164Z","","","","","","","","","","","","","","win-only","0","g1:NW,g2:SE","0.5","6","0","1067149.4","1978.5","6992.4","44882.9","1","4","8","6","2","-8","-8","0","3","0","1916.5","3000","-1600","[""down"",""right""]","{""num_key_presses"":10,""num_perfect"":5,""num_errors"":0,""num_randdir"":5,""num_randdir_good_moves"":2,""num_whilered"":0,""num_whileblue"":0,""num_blue"":1,""num_good_moves"":7}","[299.22232142857143,291.12857142857143,1,299.22232142857143,291.12857142857143,112.5,299.22232142857143,291.12857142857143,266.4,299.22232142857143,291.12857142857143,370.6,299.22232142857143,291.12857142857143,475.4,299.22232142857143,291.12857142857143,581.3,299.22232142857143,291.12857142857143,685.2,299.22232142857143,291.12857142857143,807.3,299.22232142857143,291.12857142857143,907.4,299.22232142857143,291.12857142857143,1009.5,299.22232142857143,291.12857142857143,1109.9,364.22232142857143,361.12857142857143,1215.4,473.22232142857143,492.12857142857143,1321.4,494.22232142857143,510.12857142857143,1435.7,513.2223214285714,522.1285714285714,1550.5,528.2223214285714,530.1285714285714,1652.1,529.2223214285714,530.1285714285714,1754.3,529.2223214285714,530.1285714285714,1919.5,529.2223214285714,530.1285714285714,2021.6,529.2223214285714,530.1285714285714,2122.8,529.2223214285714,530.1285714285714,2227.5,529.2223214285714,530.1285714285714,2334.4,529.2223214285714,530.1285714285714,2452.4,513.2223214285714,518.1285714285714,2554.8,491.22232142857143,502.12857142857143,2659.1,485.22232142857143,496.12857142857143,2804.6,485.22232142857143,496.12857142857143,2911.6,485.22232142857143,496.12857142857143,3118,485.22232142857143,496.12857142857143,3230.4,485.22232142857143,496.12857142857143,3330.4,485.22232142857143,496.12857142857143,3433.9,485.22232142857143,496.12857142857143,3536.1,484.22232142857143,495.12857142857143,3645.9,395.22232142857143,439.12857142857143,3759.4,331.22232142857143,392.12857142857143,3860.4,331.22232142857143,392.12857142857143,3971.1,331.22232142857143,392.12857142857143,4073.6,331.22232142857143,392.12857142857143,4178.3,331.22232142857143,392.12857142857143,4279.7,331.22232142857143,392.12857142857143,4385.4,331.22232142857143,392.12857142857143,4485.4,331.22232142857143,392.12857142857143,4590.9,331.22232142857143,392.12857142857143,4697.9,331.22232142857143,392.12857142857143,4831.3,331.22232142857143,392.12857142857143,4959.7]","[1745,1745,1000,0,745,""smooth"",""down"",""down"",""good_move"",4840.6,3094.3,2433.3,1746.3,661,""smooth"",""down"",""down"",""good_move"",11615.6,6769,2842,8277.6,496,""oops"",""right"",""left"",""bad_move"",14807.1,3190.4,2585.3,11616.7,605.1,""smooth"",""down"",""down"",""good_move"",17930.7,3119.6,2456.1,14811.1,663.5,""oops"",""right"",""right"",""good_move"",21349.8,3417.4,2932.5,17932.4,484.9,""smooth"",""right"",""right"",""good_move"",24659.1,3307.9,2809.6,21351.3,498.2,""smooth"",""right"",""right"",""good_move"",27785.2,3124.9,2669.2,24660.4,455.6,""oops"",""right"",""left"",""bad_move"",31522.9,3732.9,3278.9,27790,454,""oops"",""right"",""right"",""good_move"",34593.7,3069.7,2615.3,31524.1,454.3,""oops"",""right"",""up"",""bad_move""]","",""
"3773","","<div style=""width:500px;"">
  <p>What determined the result of this run?</p>
  </div>","27","html-slider-response","35","1105256","0.0-5.0-1.5","56","1","2025-07-16 08:22:40","1f75c3e559b7213887762d5229550c2b","41.150.37.74","Mozilla/5.0 (Windows NT 10.0; Win64; x64) AppleWebKit/537.36 (KHTML, like Gecko) Chrome/138.0.0.0 Safari/537.36","WebKit","Chrome","138.0.0.0","Windows","10.0","https://app.prolific.com/","en-US,en;q=0.9","67c7672373207a4fb29efe7f","686e379bc37a29ffa5cdc956","68776047a8f0660e30fc26d2","1","1","67c7672373207a4fb29efe7f","1","1","2025-07-16T08:41:12.940Z","","","","","","","","","","","AttribQ","","50","","","","","","","","","","","","","","","","","","","","","","","","","","","","",""
"5096","","<div style=""width:500px;"">
  <p>How much control did you have over the ball?</p>
  </div>","19","html-slider-response","36","1110354","0.0-5.0-2.5","56","1","2025-07-16 08:22:40","1f75c3e559b7213887762d5229550c2b","41.150.37.74","Mozilla/5.0 (Windows NT 10.0; Win64; x64) AppleWebKit/537.36 (KHTML, like Gecko) Chrome/138.0.0.0 Safari/537.36","WebKit","Chrome","138.0.0.0","Windows","10.0","https://app.prolific.com/","en-US,en;q=0.9","67c7672373207a4fb29efe7f","686e379bc37a29ffa5cdc956","68776047a8f0660e30fc26d2","1","1","67c7672373207a4fb29efe7f","1","1","2025-07-16T08:41:18.039Z","","","","","","","","","","","ControlQ","","50","","","","","","","","","","","","","","","","","","","","","","","","","","","","",""
"2746","","<div style=""width:500px;"">
  <p>How would you describe your current emotional state?</p>
  </div>","29","html-slider-response","37","1113103","0.0-5.0-3.5","56","1","2025-07-16 08:22:40","1f75c3e559b7213887762d5229550c2b","41.150.37.74","Mozilla/5.0 (Windows NT 10.0; Win64; x64) AppleWebKit/537.36 (KHTML, like Gecko) Chrome/138.0.0.0 Safari/537.36","WebKit","Chrome","138.0.0.0","Windows","10.0","https://app.prolific.com/","en-US,en;q=0.9","67c7672373207a4fb29efe7f","686e379bc37a29ffa5cdc956","68776047a8f0660e30fc26d2","1","1","67c7672373207a4fb29efe7f","1","1","2025-07-16T08:41:20.787Z","","","","","","","","","","","StressQ","","50","","","","","","","","","","","","","","","","","","","","","","","","","","","","",""
"4124","","<div style=""width:500px;"">
  <p>What best describes how you currently feel?</p>
  </div>","70","html-slider-response","38","1117229","0.0-5.0-4.5","56","1","2025-07-16 08:22:40","1f75c3e559b7213887762d5229550c2b","41.150.37.74","Mozilla/5.0 (Windows NT 10.0; Win64; x64) AppleWebKit/537.36 (KHTML, like Gecko) Chrome/138.0.0.0 Safari/537.36","WebKit","Chrome","138.0.0.0","Windows","10.0","https://app.prolific.com/","en-US,en;q=0.9","67c7672373207a4fb29efe7f","686e379bc37a29ffa5cdc956","68776047a8f0660e30fc26d2","1","1","67c7672373207a4fb29efe7f","1","1","2025-07-16T08:41:24.913Z","","","","","","","","","","","MotivationQ","","50","","","","","","","","","","","","","","","","","","","","","","","","","","","","",""
"","","","","ctl-task-cpt","39","1170899","0.0-5.0-0.6","56","1","2025-07-16 08:22:40","1f75c3e559b7213887762d5229550c2b","41.150.37.74","Mozilla/5.0 (Windows NT 10.0; Win64; x64) AppleWebKit/537.36 (KHTML, like Gecko) Chrome/138.0.0.0 Safari/537.36","WebKit","Chrome","138.0.0.0","Windows","10.0","https://app.prolific.com/","en-US,en;q=0.9","67c7672373207a4fb29efe7f","686e379bc37a29ffa5cdc956","68776047a8f0660e30fc26d2","1","1","67c7672373207a4fb29efe7f","1","1","2025-07-16T08:42:18.583Z","","","","","","","","","","","","","","win-only","3","g1:SW,g2:NE","0.4","7","0","1130793.4","4268.9","9278.3","50645.1","1","4","8","6","1","-1","-3","0","0","0","2400.7","3000","-1460","[""down"",""left""]","{""num_key_presses"":11,""num_perfect"":4,""num_errors"":2,""num_randdir"":5,""num_randdir_good_moves"":0,""num_whilered"":0,""num_whileblue"":1,""num_blue"":3,""num_good_moves"":5}","[295.22232142857143,290.12857142857143,1,295.22232142857143,290.12857142857143,114.3,295.22232142857143,290.12857142857143,214.9,295.22232142857143,290.12857142857143,322.9,295.22232142857143,290.12857142857143,428.7,295.22232142857143,290.12857142857143,535.2,295.22232142857143,290.12857142857143,653.1,295.22232142857143,290.12857142857143,780,295.22232142857143,290.12857142857143,882.8,295.22232142857143,290.12857142857143,994.3,295.22232142857143,290.12857142857143,1110.9,295.22232142857143,290.12857142857143,1212.9,263.22232142857143,300.12857142857143,1314.4,162.22232142857143,375.12857142857143,1422.4,162.22232142857143,375.12857142857143,1538.1,162.22232142857143,375.12857142857143,1644.8,133.22232142857143,441.12857142857143,1755.1,95.22232142857143,509.12857142857143,1861.1,81.22232142857143,524.1285714285714,1963.6,68.22232142857143,529.1285714285714,2069.4,58.222321428571426,529.1285714285714,2184.5,58.222321428571426,529.1285714285714,2299.6,58.222321428571426,529.1285714285714,2419.1,58.222321428571426,529.1285714285714,2519.4,58.222321428571426,529.1285714285714,2624.3,58.222321428571426,529.1285714285714,2733.1,58.222321428571426,529.1285714285714,2841.6,58.222321428571426,529.1285714285714,2941.7,58.222321428571426,529.1285714285714,3052.9,58.222321428571426,529.1285714285714,3164.8,58.222321428571426,529.1285714285714,3273.4,58.222321428571426,529.1285714285714,3383.5,58.222321428571426,529.1285714285714,3505.7,58.222321428571426,529.1285714285714,3607.1,58.222321428571426,529.1285714285714,3716.8,58.222321428571426,529.1285714285714,3819.2,58.222321428571426,529.1285714285714,3922.8,58.222321428571426,529.1285714285714,4023.5,58.222321428571426,529.1285714285714,4131.2,58.222321428571426,529.1285714285714,4234.1,58.222321428571426,529.1285714285714,4338.2,58.222321428571426,529.1285714285714,4438.7,58.222321428571426,529.1285714285714,4547.1,58.222321428571426,529.1285714285714,4653.2,58.222321428571426,529.1285714285714,4774.1,58.222321428571426,529.1285714285714,4879.6,58.222321428571426,529.1285714285714,4984.8]","[1889.3,1889.3,1000,0,889.3,""smooth"",""down"",""down"",""good_move"",9254.1,7363.4,2849.3,5823.1,581.8,""smooth"",""down"",""down"",""good_move"",12142.2,2887.3,2337.4,9254.9,549.9,""oops"",""left"",""up"",""bad_move"",15406,3262,2659.1,12144,602.9,""oops"",""left"",""up"",""bad_move"",18470,3061.2,2405.1,15408.9,656.1,""oops"",""left"",""up"",""bad_move"",21869.6,3398.5,2994.6,18471.3,403.8,""while_blue"",""down"",""down"",""good_move"",25007.9,3136.6,2355.9,21871.3,780.7,""smooth"",""down"",""down"",""good_move"",28254.1,3245.6,2433.5,25008.6,812,""oops"",""down"",""up"",""bad_move"",31527.2,3272.1,2428.5,31503.8,-2405.1,""error"",""-"",""-"",""no_move"",36158.6,4629.9,2809.1,32529.8,819.7,""smooth"",""down"",""down"",""good_move"",38909.1,2749.8,2079.8,36159.3,670,""oops"",""down"",""right"",""bad_move""]","",""
"6955","","<div style=""width:500px;"">
  <p>What determined the result of this run?</p>
  </div>","58","html-slider-response","40","1177858","0.0-5.0-1.6","56","1","2025-07-16 08:22:40","1f75c3e559b7213887762d5229550c2b","41.150.37.74","Mozilla/5.0 (Windows NT 10.0; Win64; x64) AppleWebKit/537.36 (KHTML, like Gecko) Chrome/138.0.0.0 Safari/537.36","WebKit","Chrome","138.0.0.0","Windows","10.0","https://app.prolific.com/","en-US,en;q=0.9","67c7672373207a4fb29efe7f","686e379bc37a29ffa5cdc956","68776047a8f0660e30fc26d2","1","1","67c7672373207a4fb29efe7f","1","1","2025-07-16T08:42:25.542Z","","","","","","","","","","","AttribQ","","50","","","","","","","","","","","","","","","","","","","","","","","","","","","","",""
"7842","","<div style=""width:500px;"">
  <p>How much control did you have over the ball?</p>
  </div>","21","html-slider-response","41","1185703","0.0-5.0-2.6","56","1","2025-07-16 08:22:40","1f75c3e559b7213887762d5229550c2b","41.150.37.74","Mozilla/5.0 (Windows NT 10.0; Win64; x64) AppleWebKit/537.36 (KHTML, like Gecko) Chrome/138.0.0.0 Safari/537.36","WebKit","Chrome","138.0.0.0","Windows","10.0","https://app.prolific.com/","en-US,en;q=0.9","67c7672373207a4fb29efe7f","686e379bc37a29ffa5cdc956","68776047a8f0660e30fc26d2","1","1","67c7672373207a4fb29efe7f","1","1","2025-07-16T08:42:33.387Z","","","","","","","","","","","ControlQ","","50","","","","","","","","","","","","","","","","","","","","","","","","","","","","",""
"4278","","<div style=""width:500px;"">
  <p>How would you describe your current emotional state?</p>
  </div>","65","html-slider-response","42","1189984","0.0-5.0-3.6","56","1","2025-07-16 08:22:40","1f75c3e559b7213887762d5229550c2b","41.150.37.74","Mozilla/5.0 (Windows NT 10.0; Win64; x64) AppleWebKit/537.36 (KHTML, like Gecko) Chrome/138.0.0.0 Safari/537.36","WebKit","Chrome","138.0.0.0","Windows","10.0","https://app.prolific.com/","en-US,en;q=0.9","67c7672373207a4fb29efe7f","686e379bc37a29ffa5cdc956","68776047a8f0660e30fc26d2","1","1","67c7672373207a4fb29efe7f","1","1","2025-07-16T08:42:37.668Z","","","","","","","","","","","StressQ","","50","","","","","","","","","","","","","","","","","","","","","","","","","","","","",""
"4012","","<div style=""width:500px;"">
  <p>What best describes how you currently feel?</p>
  </div>","70","html-slider-response","43","1193998","0.0-5.0-4.6","56","1","2025-07-16 08:22:40","1f75c3e559b7213887762d5229550c2b","41.150.37.74","Mozilla/5.0 (Windows NT 10.0; Win64; x64) AppleWebKit/537.36 (KHTML, like Gecko) Chrome/138.0.0.0 Safari/537.36","WebKit","Chrome","138.0.0.0","Windows","10.0","https://app.prolific.com/","en-US,en;q=0.9","67c7672373207a4fb29efe7f","686e379bc37a29ffa5cdc956","68776047a8f0660e30fc26d2","1","1","67c7672373207a4fb29efe7f","1","1","2025-07-16T08:42:41.682Z","","","","","","","","","","","MotivationQ","","50","","","","","","","","","","","","","","","","","","","","","","","","","","","","",""
"","","","","ctl-task-cpt","44","1248857","0.0-5.0-0.7","56","1","2025-07-16 08:22:40","1f75c3e559b7213887762d5229550c2b","41.150.37.74","Mozilla/5.0 (Windows NT 10.0; Win64; x64) AppleWebKit/537.36 (KHTML, like Gecko) Chrome/138.0.0.0 Safari/537.36","WebKit","Chrome","138.0.0.0","Windows","10.0","https://app.prolific.com/","en-US,en;q=0.9","67c7672373207a4fb29efe7f","686e379bc37a29ffa5cdc956","68776047a8f0660e30fc26d2","1","1","67c7672373207a4fb29efe7f","1","1","2025-07-16T08:43:36.542Z","","","","","","","","","","","","","","win-only","3","g1:SW,g2:NE","0.3","8","0","1207561.9","1877.4","6889.6","51837.5","1","4","4","6","1","-1","-1","0","0","0","1853.6","3000","-1255","[""down"",""left""]","{""num_key_presses"":10,""num_perfect"":3,""num_errors"":0,""num_randdir"":7,""num_randdir_good_moves"":2,""num_whilered"":0,""num_whileblue"":0,""num_blue"":2,""num_good_moves"":5}","[300.22232142857143,294.12857142857143,0.5,300.22232142857143,294.12857142857143,102.2,300.22232142857143,294.12857142857143,205.9,300.22232142857143,294.12857142857143,306.5,300.22232142857143,294.12857142857143,415.3,300.22232142857143,294.12857142857143,519.3,300.22232142857143,294.12857142857143,624.1,300.22232142857143,294.12857142857143,818.9,300.22232142857143,294.12857142857143,927.5,287.22232142857143,289.12857142857143,1031.3,41.222321428571426,394.12857142857143,1146.3,10.222321428571426,432.12857142857143,1267.7,15.222321428571426,452.12857142857143,1377.6,30.222321428571426,537.1285714285714,1489.1,45.222321428571426,557.1285714285714,1594.7,45.222321428571426,557.1285714285714,1696,45.222321428571426,557.1285714285714,1805.9,45.222321428571426,557.1285714285714,1908.9,45.222321428571426,557.1285714285714,2021.5,45.222321428571426,557.1285714285714,2122.3,45.222321428571426,557.1285714285714,2222.5,45.222321428571426,557.1285714285714,2330.9,45.222321428571426,557.1285714285714,2442.7,45.222321428571426,557.1285714285714,2552.7,45.222321428571426,557.1285714285714,2672.5,45.222321428571426,557.1285714285714,2773.5,45.222321428571426,557.1285714285714,2877.8,45.222321428571426,557.1285714285714,2983.8,45.222321428571426,557.1285714285714,3091.3,45.222321428571426,557.1285714285714,3201.2,45.222321428571426,557.1285714285714,3304.4,45.222321428571426,557.1285714285714,3411.8,45.222321428571426,557.1285714285714,3513.1,45.222321428571426,557.1285714285714,3634.6,45.222321428571426,557.1285714285714,3741.2,45.222321428571426,557.1285714285714,3848.2,45.222321428571426,557.1285714285714,3956.3,45.222321428571426,557.1285714285714,4075.1,45.222321428571426,557.1285714285714,4187,45.222321428571426,557.1285714285714,4288.2,45.222321428571426,557.1285714285714,4391.5,45.222321428571426,557.1285714285714,4506,45.222321428571426,557.1285714285714,4606.4,45.222321428571426,557.1285714285714,4712.5,45.222321428571426,557.1285714285714,4814.6,45.222321428571426,557.1285714285714,4927.1]","[2014.2,2014.2,1000,0,1014.2,""smooth"",""down"",""down"",""good_move"",4847.6,2830.2,2300.4,2017.4,529.8,""smooth"",""left"",""left"",""good_move"",8180.4,3331.1,2680.8,4849.3,650.3,""oops"",""left"",""down"",""good_move"",14393.2,6211.8,2441.4,11073,878.8,""oops"",""left"",""up"",""bad_move"",18394.9,3997.3,3261.9,14397.6,735.4,""oops"",""left"",""right"",""bad_move"",22534.2,4135.4,2999.7,18398.8,1135.7,""oops"",""down"",""up"",""bad_move"",31379.2,8844,2818.2,27977.1,583.9,""oops"",""left"",""down"",""good_move"",35274.2,3894.4,2992.2,31379.9,902.2,""oops"",""left"",""up"",""bad_move"",38744,3468.5,2353.3,35275.5,1115.2,""smooth"",""left"",""left"",""good_move"",41770.3,3020.6,1864.7,38749.7,1155.9,""oops"",""left"",""up"",""bad_move""]","",""
"5347","","<div style=""width:500px;"">
  <p>What determined the result of this run?</p>
  </div>","40","html-slider-response","45","1254208","0.0-5.0-1.7","56","1","2025-07-16 08:22:40","1f75c3e559b7213887762d5229550c2b","41.150.37.74","Mozilla/5.0 (Windows NT 10.0; Win64; x64) AppleWebKit/537.36 (KHTML, like Gecko) Chrome/138.0.0.0 Safari/537.36","WebKit","Chrome","138.0.0.0","Windows","10.0","https://app.prolific.com/","en-US,en;q=0.9","67c7672373207a4fb29efe7f","686e379bc37a29ffa5cdc956","68776047a8f0660e30fc26d2","1","1","67c7672373207a4fb29efe7f","1","1","2025-07-16T08:43:41.892Z","","","","","","","","","","","AttribQ","","50","","","","","","","","","","","","","","","","","","","","","","","","","","","","",""
"4189","","<div style=""width:500px;"">
  <p>How much control did you have over the ball?</p>
  </div>","36","html-slider-response","46","1258400","0.0-5.0-2.7","56","1","2025-07-16 08:22:40","1f75c3e559b7213887762d5229550c2b","41.150.37.74","Mozilla/5.0 (Windows NT 10.0; Win64; x64) AppleWebKit/537.36 (KHTML, like Gecko) Chrome/138.0.0.0 Safari/537.36","WebKit","Chrome","138.0.0.0","Windows","10.0","https://app.prolific.com/","en-US,en;q=0.9","67c7672373207a4fb29efe7f","686e379bc37a29ffa5cdc956","68776047a8f0660e30fc26d2","1","1","67c7672373207a4fb29efe7f","1","1","2025-07-16T08:43:46.084Z","","","","","","","","","","","ControlQ","","50","","","","","","","","","","","","","","","","","","","","","","","","","","","","",""
"3225","","<div style=""width:500px;"">
  <p>How would you describe your current emotional state?</p>
  </div>","31","html-slider-response","47","1261629","0.0-5.0-3.7","56","1","2025-07-16 08:22:40","1f75c3e559b7213887762d5229550c2b","41.150.37.74","Mozilla/5.0 (Windows NT 10.0; Win64; x64) AppleWebKit/537.36 (KHTML, like Gecko) Chrome/138.0.0.0 Safari/537.36","WebKit","Chrome","138.0.0.0","Windows","10.0","https://app.prolific.com/","en-US,en;q=0.9","67c7672373207a4fb29efe7f","686e379bc37a29ffa5cdc956","68776047a8f0660e30fc26d2","1","1","67c7672373207a4fb29efe7f","1","1","2025-07-16T08:43:49.314Z","","","","","","","","","","","StressQ","","50","","","","","","","","","","","","","","","","","","","","","","","","","","","","",""
"5223","","<div style=""width:500px;"">
  <p>What best describes how you currently feel?</p>
  </div>","68","html-slider-response","48","1266858","0.0-5.0-4.7","56","1","2025-07-16 08:22:40","1f75c3e559b7213887762d5229550c2b","41.150.37.74","Mozilla/5.0 (Windows NT 10.0; Win64; x64) AppleWebKit/537.36 (KHTML, like Gecko) Chrome/138.0.0.0 Safari/537.36","WebKit","Chrome","138.0.0.0","Windows","10.0","https://app.prolific.com/","en-US,en;q=0.9","67c7672373207a4fb29efe7f","686e379bc37a29ffa5cdc956","68776047a8f0660e30fc26d2","1","1","67c7672373207a4fb29efe7f","1","1","2025-07-16T08:43:54.542Z","","","","","","","","","","","MotivationQ","","50","","","","","","","","","","","","","","","","","","","","","","","","","","","","",""
"","","","","ctl-task-cpt","49","1369379","0.0-5.0-0.8","56","1","2025-07-16 08:22:40","1f75c3e559b7213887762d5229550c2b","41.150.37.74","Mozilla/5.0 (Windows NT 10.0; Win64; x64) AppleWebKit/537.36 (KHTML, like Gecko) Chrome/138.0.0.0 Safari/537.36","WebKit","Chrome","138.0.0.0","Windows","10.0","https://app.prolific.com/","en-US,en;q=0.9","67c7672373207a4fb29efe7f","686e379bc37a29ffa5cdc956","68776047a8f0660e30fc26d2","1","1","67c7672373207a4fb29efe7f","1","1","2025-07-16T08:45:37.064Z","","","","","","","","","","","","","","win-only","3","g1:SW,g2:NE","0.2","9","0","1280425.1","2137.3","7145.8","99488.2","1","4","8","6","1","-1","-1","0","0","0","2214.8","3000","-770","[""down"",""left""]","{""num_key_presses"":18,""num_perfect"":4,""num_errors"":0,""num_randdir"":14,""num_randdir_good_moves"":6,""num_whilered"":0,""num_whileblue"":0,""num_blue"":4,""num_good_moves"":10}","[292.22232142857143,291.12857142857143,0.8,292.22232142857143,291.12857142857143,132.4,292.22232142857143,291.12857142857143,266.8,292.22232142857143,291.12857142857143,398.1,292.22232142857143,291.12857142857143,532.6,292.22232142857143,291.12857142857143,654,292.22232142857143,291.12857142857143,770.3,292.22232142857143,291.12857142857143,897.9,86.22232142857143,493.12857142857143,1014.9,86.22232142857143,493.12857142857143,1145.6,86.22232142857143,493.12857142857143,1280.8,76.22232142857143,503.12857142857143,1388.1,-32.777678571428574,595.1285714285714,1506.4,-40.777678571428574,601.1285714285714,1611.9,-38.777678571428574,599.1285714285714,1716.2,-2.7776785714285737,575.1285714285714,1836.5,7.222321428571426,568.1285714285714,1954.2,10.222321428571426,566.1285714285714,2093.1,10.222321428571426,566.1285714285714,2198.1,10.222321428571426,566.1285714285714,2305.7,10.222321428571426,566.1285714285714,2408.9,10.222321428571426,566.1285714285714,2512.7,10.222321428571426,566.1285714285714,2614.7,10.222321428571426,566.1285714285714,2750.2,46.222321428571426,539.1285714285714,2875,57.222321428571426,527.1285714285714,2991.5,57.222321428571426,526.1285714285714,3100.8,57.222321428571426,526.1285714285714,3202.8,57.222321428571426,526.1285714285714,3331.6,57.222321428571426,526.1285714285714,3445.5,57.222321428571426,526.1285714285714,3546.2,57.222321428571426,526.1285714285714,3669.8,57.222321428571426,526.1285714285714,3788,57.222321428571426,526.1285714285714,3908.8,57.222321428571426,526.1285714285714,4029.5,57.222321428571426,526.1285714285714,4131.1,57.222321428571426,526.1285714285714,4255.3,57.222321428571426,526.1285714285714,4381.9,57.222321428571426,526.1285714285714,4506.7,57.222321428571426,526.1285714285714,4627.6,57.222321428571426,526.1285714285714,4752,57.222321428571426,526.1285714285714,4857.2,57.222321428571426,526.1285714285714,4975.6]","[9993.5,9993.6,2688.2,6323.7,981.7,""smooth"",""down"",""down"",""good_move"",13156.6,3161.8,2265.2,9994.8,896.6,""oops"",""left"",""left"",""good_move"",22443.5,9282.6,1867,13161,7415.5,""smooth"",""down"",""down"",""good_move"",25584,3139.7,2496.8,22444.3,642.9,""oops"",""left"",""right"",""bad_move"",28480.2,2894.1,2196.2,25586.2,697.9,""oops"",""left"",""right"",""bad_move"",31641.9,3157.2,2352.3,28484.7,804.9,""oops"",""left"",""left"",""good_move"",34643.1,3000,2424.3,31643.2,575.6,""oops"",""left"",""up"",""bad_move"",38412.3,3765.7,2572,34646.6,1193.7,""oops"",""left"",""left"",""good_move"",42455.2,4041.4,2436.9,38413.9,1604.4,""oops"",""left"",""right"",""bad_move"",49031.5,6575,2010.8,46293.4,727.3,""oops"",""left"",""down"",""good_move"",52930.1,3897.5,3155.9,49032.6,741.7,""oops"",""left"",""left"",""good_move"",59072,6139.8,2496.4,52932.3,3643.3,""oops"",""left"",""right"",""bad_move"",62585.9,3513.3,2671.5,59072.8,841.6,""oops"",""left"",""right"",""bad_move"",65916,3328.8,2556.8,62587.4,771.9,""oops"",""left"",""left"",""good_move"",72227.1,6309.2,2204.1,65917.9,4105.1,""smooth"",""left"",""left"",""good_move"",77597.5,5369.8,2985.4,72227.7,2384.4,""oops"",""left"",""up"",""bad_move"",81664.1,4062,3328.8,77602.1,733.3,""smooth"",""left"",""left"",""good_move"",88607.4,6941,2938.4,85233.3,435.7,""oops"",""down"",""right"",""bad_move""]","",""
"6284","","<div style=""width:500px;"">
  <p>What determined the result of this run?</p>
  </div>","9","html-slider-response","50","1375668","0.0-5.0-1.8","56","1","2025-07-16 08:22:40","1f75c3e559b7213887762d5229550c2b","41.150.37.74","Mozilla/5.0 (Windows NT 10.0; Win64; x64) AppleWebKit/537.36 (KHTML, like Gecko) Chrome/138.0.0.0 Safari/537.36","WebKit","Chrome","138.0.0.0","Windows","10.0","https://app.prolific.com/","en-US,en;q=0.9","67c7672373207a4fb29efe7f","686e379bc37a29ffa5cdc956","68776047a8f0660e30fc26d2","1","1","67c7672373207a4fb29efe7f","1","1","2025-07-16T08:45:43.352Z","","","","","","","","","","","AttribQ","","50","","","","","","","","","","","","","","","","","","","","","","","","","","","","",""
"2773","","<div style=""width:500px;"">
  <p>How much control did you have over the ball?</p>
  </div>","25","html-slider-response","51","1378445","0.0-5.0-2.8","56","1","2025-07-16 08:22:40","1f75c3e559b7213887762d5229550c2b","41.150.37.74","Mozilla/5.0 (Windows NT 10.0; Win64; x64) AppleWebKit/537.36 (KHTML, like Gecko) Chrome/138.0.0.0 Safari/537.36","WebKit","Chrome","138.0.0.0","Windows","10.0","https://app.prolific.com/","en-US,en;q=0.9","67c7672373207a4fb29efe7f","686e379bc37a29ffa5cdc956","68776047a8f0660e30fc26d2","1","1","67c7672373207a4fb29efe7f","1","1","2025-07-16T08:45:46.129Z","","","","","","","","","","","ControlQ","","50","","","","","","","","","","","","","","","","","","","","","","","","","","","","",""
"5126","","<div style=""width:500px;"">
  <p>How would you describe your current emotional state?</p>
  </div>","54","html-slider-response","52","1383576","0.0-5.0-3.8","56","1","2025-07-16 08:22:40","1f75c3e559b7213887762d5229550c2b","41.150.37.74","Mozilla/5.0 (Windows NT 10.0; Win64; x64) AppleWebKit/537.36 (KHTML, like Gecko) Chrome/138.0.0.0 Safari/537.36","WebKit","Chrome","138.0.0.0","Windows","10.0","https://app.prolific.com/","en-US,en;q=0.9","67c7672373207a4fb29efe7f","686e379bc37a29ffa5cdc956","68776047a8f0660e30fc26d2","1","1","67c7672373207a4fb29efe7f","1","1","2025-07-16T08:45:51.260Z","","","","","","","","","","","StressQ","","50","","","","","","","","","","","","","","","","","","","","","","","","","","","","",""
"3298","","<div style=""width:500px;"">
  <p>What best describes how you currently feel?</p>
  </div>","34","html-slider-response","53","1386883","0.0-5.0-4.8","56","1","2025-07-16 08:22:40","1f75c3e559b7213887762d5229550c2b","41.150.37.74","Mozilla/5.0 (Windows NT 10.0; Win64; x64) AppleWebKit/537.36 (KHTML, like Gecko) Chrome/138.0.0.0 Safari/537.36","WebKit","Chrome","138.0.0.0","Windows","10.0","https://app.prolific.com/","en-US,en;q=0.9","67c7672373207a4fb29efe7f","686e379bc37a29ffa5cdc956","68776047a8f0660e30fc26d2","1","1","67c7672373207a4fb29efe7f","1","1","2025-07-16T08:45:54.567Z","","","","","","","","","","","MotivationQ","","50","","","","","","","","","","","","","","","","","","","","","","","","","","","","",""
"","","","","ctl-task-cpt","54","1464364","0.0-5.0-0.9","56","1","2025-07-16 08:22:40","1f75c3e559b7213887762d5229550c2b","41.150.37.74","Mozilla/5.0 (Windows NT 10.0; Win64; x64) AppleWebKit/537.36 (KHTML, like Gecko) Chrome/138.0.0.0 Safari/537.36","WebKit","Chrome","138.0.0.0","Windows","10.0","https://app.prolific.com/","en-US,en;q=0.9","67c7672373207a4fb29efe7f","686e379bc37a29ffa5cdc956","68776047a8f0660e30fc26d2","1","1","67c7672373207a4fb29efe7f","1","1","2025-07-16T08:47:12.049Z","","","","","","","","","","","","","","win-only","0","g1:NW,g2:SE","0.4","10","0","1400448.6","2093.7","7134.3","74449.5","1","4","4","6","2","4","4","4","0","0.030303030303030304","2322.2","3000","1215","[""down"",""right""]","{""num_key_presses"":12,""num_perfect"":5,""num_errors"":0,""num_randdir"":7,""num_randdir_good_moves"":4,""num_whilered"":0,""num_whileblue"":0,""num_blue"":7,""num_good_moves"":9}","[294.22232142857143,299.12857142857143,1.5,294.22232142857143,299.12857142857143,108.8,294.22232142857143,299.12857142857143,227.6,294.22232142857143,299.12857142857143,342.8,294.22232142857143,299.12857142857143,461.6,294.22232142857143,299.12857142857143,578.3,294.22232142857143,299.12857142857143,686.4,294.22232142857143,299.12857142857143,790.7,294.22232142857143,299.12857142857143,895.6,298.22232142857143,310.12857142857143,1021.4,323.22232142857143,373.12857142857143,1160.7,386.22232142857143,463.12857142857143,1305.7,395.22232142857143,471.12857142857143,1424.7,395.22232142857143,471.12857142857143,1536.2,404.22232142857143,475.12857142857143,1651.4,489.22232142857143,521.1285714285714,1786.9,518.2223214285714,539.1285714285714,1927.1,534.2223214285714,545.1285714285714,2053.1,534.2223214285714,545.1285714285714,2175.9,534.2223214285714,545.1285714285714,2296.3,534.2223214285714,545.1285714285714,2415,534.2223214285714,545.1285714285714,2534,534.2223214285714,545.1285714285714,2645.2,534.2223214285714,545.1285714285714,2757.6,534.2223214285714,545.1285714285714,2872.5,534.2223214285714,545.1285714285714,2982.1,516.2223214285714,523.1285714285714,3111.6,477.22232142857143,476.12857142857143,3216.9,460.22232142857143,463.12857142857143,3334,460.22232142857143,463.12857142857143,3462.3,459.22232142857143,463.12857142857143,3579.3,459.22232142857143,463.12857142857143,3695,459.22232142857143,463.12857142857143,3808.9,459.22232142857143,463.12857142857143,3922.2,459.22232142857143,463.12857142857143,4045.8,459.22232142857143,463.12857142857143,4161.4,459.22232142857143,463.12857142857143,4282.9,459.22232142857143,463.12857142857143,4395.5,458.22232142857143,462.12857142857143,4525.9,458.22232142857143,462.12857142857143,4638.8,458.22232142857143,462.12857142857143,4756.6,458.22232142857143,462.12857142857143,4873.9,458.22232142857143,462.12857142857143,4998]","[2068.5,2068.5,1000,0,1068.5,""oops"",""down"",""down"",""good_move"",6116.6,4047.1,3186.9,2069.6,860.2,""oops"",""down"",""right"",""good_move"",9519.1,3392.9,2108.4,6126.2,1284.5,""smooth"",""down"",""down"",""good_move"",15715.1,6194.9,1573.8,13502,639.3,""oops"",""right"",""up"",""bad_move"",19091,3374.7,2545,15716.3,829.7,""smooth"",""down"",""down"",""good_move"",21642.1,2549.8,1918.4,19092.3,631.4,""oops"",""down"",""right"",""good_move"",24666.4,3022.5,2398.8,21643.9,623.7,""smooth"",""down"",""down"",""good_move"",37464.7,12795.7,3007.3,33817.5,639.9,""oops"",""right"",""left"",""bad_move"",46327.2,8861.2,2664.1,43076.7,586.4,""smooth"",""right"",""right"",""good_move"",53503.6,7174.2,2421.8,50483.6,598.2,""oops"",""right"",""left"",""bad_move"",59968.6,6464.2,2919.8,53504.6,3544.2,""oops"",""right"",""right"",""good_move"",67044.2,7074.8,2479.9,64004.4,559.9,""smooth"",""right"",""right"",""good_move""]","",""
"4182","","<div style=""width:500px;"">
  <p>What determined the result of this run?</p>
  </div>","80","html-slider-response","55","1468553","0.0-5.0-1.9","56","1","2025-07-16 08:22:40","1f75c3e559b7213887762d5229550c2b","41.150.37.74","Mozilla/5.0 (Windows NT 10.0; Win64; x64) AppleWebKit/537.36 (KHTML, like Gecko) Chrome/138.0.0.0 Safari/537.36","WebKit","Chrome","138.0.0.0","Windows","10.0","https://app.prolific.com/","en-US,en;q=0.9","67c7672373207a4fb29efe7f","686e379bc37a29ffa5cdc956","68776047a8f0660e30fc26d2","1","1","67c7672373207a4fb29efe7f","1","1","2025-07-16T08:47:16.238Z","","","","","","","","","","","AttribQ","","50","","","","","","","","","","","","","","","","","","","","","","","","","","","","",""
"3598","","<div style=""width:500px;"">
  <p>How much control did you have over the ball?</p>
  </div>","35","html-slider-response","56","1472156","0.0-5.0-2.9","56","1","2025-07-16 08:22:40","1f75c3e559b7213887762d5229550c2b","41.150.37.74","Mozilla/5.0 (Windows NT 10.0; Win64; x64) AppleWebKit/537.36 (KHTML, like Gecko) Chrome/138.0.0.0 Safari/537.36","WebKit","Chrome","138.0.0.0","Windows","10.0","https://app.prolific.com/","en-US,en;q=0.9","67c7672373207a4fb29efe7f","686e379bc37a29ffa5cdc956","68776047a8f0660e30fc26d2","1","1","67c7672373207a4fb29efe7f","1","1","2025-07-16T08:47:19.840Z","","","","","","","","","","","ControlQ","","50","","","","","","","","","","","","","","","","","","","","","","","","","","","","",""
"2675","","<div style=""width:500px;"">
  <p>How would you describe your current emotional state?</p>
  </div>","40","html-slider-response","57","1474835","0.0-5.0-3.9","56","1","2025-07-16 08:22:40","1f75c3e559b7213887762d5229550c2b","41.150.37.74","Mozilla/5.0 (Windows NT 10.0; Win64; x64) AppleWebKit/537.36 (KHTML, like Gecko) Chrome/138.0.0.0 Safari/537.36","WebKit","Chrome","138.0.0.0","Windows","10.0","https://app.prolific.com/","en-US,en;q=0.9","67c7672373207a4fb29efe7f","686e379bc37a29ffa5cdc956","68776047a8f0660e30fc26d2","1","1","67c7672373207a4fb29efe7f","1","1","2025-07-16T08:47:22.519Z","","","","","","","","","","","StressQ","","50","","","","","","","","","","","","","","","","","","","","","","","","","","","","",""
"3616","","<div style=""width:500px;"">
  <p>What best describes how you currently feel?</p>
  </div>","60","html-slider-response","58","1478456","0.0-5.0-4.9","56","1","2025-07-16 08:22:40","1f75c3e559b7213887762d5229550c2b","41.150.37.74","Mozilla/5.0 (Windows NT 10.0; Win64; x64) AppleWebKit/537.36 (KHTML, like Gecko) Chrome/138.0.0.0 Safari/537.36","WebKit","Chrome","138.0.0.0","Windows","10.0","https://app.prolific.com/","en-US,en;q=0.9","67c7672373207a4fb29efe7f","686e379bc37a29ffa5cdc956","68776047a8f0660e30fc26d2","1","1","67c7672373207a4fb29efe7f","1","1","2025-07-16T08:47:26.140Z","","","","","","","","","","","MotivationQ","","50","","","","","","","","","","","","","","","","","","","","","","","","","","","","",""
"","","","","ctl-task-cpt","59","1536922","0.0-5.0-0.10","56","1","2025-07-16 08:22:40","1f75c3e559b7213887762d5229550c2b","41.150.37.74","Mozilla/5.0 (Windows NT 10.0; Win64; x64) AppleWebKit/537.36 (KHTML, like Gecko) Chrome/138.0.0.0 Safari/537.36","WebKit","Chrome","138.0.0.0","Windows","10.0","https://app.prolific.com/","en-US,en;q=0.9","67c7672373207a4fb29efe7f","686e379bc37a29ffa5cdc956","68776047a8f0660e30fc26d2","1","1","67c7672373207a4fb29efe7f","1","1","2025-07-16T08:48:24.606Z","","","","","","","","","","","","","","win-only","3","g1:SW,g2:NE","0.5","11","0","1492020","3571.1","8583.7","55423.3","1","4","4","6","1","1","1","5","4","0.03787878787878788","1829.8","3000","1225","[""down"",""left""]","{""num_key_presses"":12,""num_perfect"":6,""num_errors"":0,""num_randdir"":6,""num_randdir_good_moves"":2,""num_whilered"":0,""num_whileblue"":0,""num_blue"":2,""num_good_moves"":8}","[295.22232142857143,293.12857142857143,2,295.22232142857143,293.12857142857143,107,295.22232142857143,293.12857142857143,214.9,295.22232142857143,293.12857142857143,321.1,295.22232142857143,293.12857142857143,445.2,295.22232142857143,293.12857142857143,548.3,295.22232142857143,293.12857142857143,655.6,295.22232142857143,293.12857142857143,756.5,295.22232142857143,293.12857142857143,868.7,282.22232142857143,303.12857142857143,978.1,132.22232142857143,450.12857142857143,1081.2,102.22232142857143,478.12857142857143,1185.3,93.22232142857143,486.12857142857143,1287.6,77.22232142857143,508.12857142857143,1390.6,54.222321428571426,540.1285714285714,1501,54.222321428571426,540.1285714285714,1607.1,54.222321428571426,540.1285714285714,1837.3,54.222321428571426,540.1285714285714,1953.6,54.222321428571426,540.1285714285714,2054.7,54.222321428571426,540.1285714285714,2164.4,54.222321428571426,540.1285714285714,2323.1,54.222321428571426,540.1285714285714,2432.3,54.222321428571426,540.1285714285714,2534.2,54.222321428571426,540.1285714285714,2636.3,56.222321428571426,539.1285714285714,2753.5,56.222321428571426,539.1285714285714,2881.1,56.222321428571426,539.1285714285714,2986.8,57.222321428571426,539.1285714285714,3102.6,59.222321428571426,539.1285714285714,3205,60.222321428571426,537.1285714285714,3306.9,60.222321428571426,537.1285714285714,3420.2,60.222321428571426,537.1285714285714,3591.2,60.222321428571426,537.1285714285714,3697.4,60.222321428571426,537.1285714285714,3807.1,60.222321428571426,537.1285714285714,3907.3,60.222321428571426,537.1285714285714,4012.9,60.222321428571426,537.1285714285714,4121.7,60.222321428571426,537.1285714285714,4242.5,60.222321428571426,537.1285714285714,4350.1,60.222321428571426,537.1285714285714,4540.8,60.222321428571426,537.1285714285714,4658.3,60.222321428571426,537.1285714285714,4763,60.222321428571426,537.1285714285714,4866.6,60.222321428571426,537.1285714285714,4977.2]","[2068.7,2068.7,1000,0,1068.7,""smooth"",""down"",""down"",""good_move"",5593.6,3523.5,2783.7,2070.1,739.8,""oops"",""left"",""down"",""good_move"",8475.4,2880.7,2382.7,5594.9,497.9,""oops"",""left"",""right"",""bad_move"",10639.7,2162.2,1623.7,8477.5,538.5,""smooth"",""left"",""left"",""good_move"",17760.4,7098.2,2353,14819.8,587.7,""oops"",""left"",""right"",""bad_move"",20675.4,2914.2,2300.4,17761.4,613.6,""oops"",""left"",""right"",""bad_move"",27501.3,6824,2637.2,24288.4,575.7,""smooth"",""left"",""left"",""good_move"",31039,3537.3,2503.9,27502.1,1033.3,""smooth"",""left"",""left"",""good_move"",34919.1,3878.5,1681.4,31040.7,2197,""smooth"",""left"",""left"",""good_move"",39270.7,4350.3,1918.9,34920.5,2431.3,""oops"",""left"",""up"",""bad_move"",42913.1,3640.4,2246.5,39272.7,1393.9,""oops"",""left"",""left"",""good_move"",46408.9,3494.1,3053.3,42914.8,440.8,""smooth"",""down"",""down"",""good_move""]","",""
"3230","","<div style=""width:500px;"">
  <p>What determined the result of this run?</p>
  </div>","77","html-slider-response","60","1540157","0.0-5.0-1.10","56","1","2025-07-16 08:22:40","1f75c3e559b7213887762d5229550c2b","41.150.37.74","Mozilla/5.0 (Windows NT 10.0; Win64; x64) AppleWebKit/537.36 (KHTML, like Gecko) Chrome/138.0.0.0 Safari/537.36","WebKit","Chrome","138.0.0.0","Windows","10.0","https://app.prolific.com/","en-US,en;q=0.9","67c7672373207a4fb29efe7f","686e379bc37a29ffa5cdc956","68776047a8f0660e30fc26d2","1","1","67c7672373207a4fb29efe7f","1","1","2025-07-16T08:48:27.841Z","","","","","","","","","","","AttribQ","","50","","","","","","","","","","","","","","","","","","","","","","","","","","","","",""
"2098","","<div style=""width:500px;"">
  <p>How much control did you have over the ball?</p>
  </div>","30","html-slider-response","61","1542260","0.0-5.0-2.10","56","1","2025-07-16 08:22:40","1f75c3e559b7213887762d5229550c2b","41.150.37.74","Mozilla/5.0 (Windows NT 10.0; Win64; x64) AppleWebKit/537.36 (KHTML, like Gecko) Chrome/138.0.0.0 Safari/537.36","WebKit","Chrome","138.0.0.0","Windows","10.0","https://app.prolific.com/","en-US,en;q=0.9","67c7672373207a4fb29efe7f","686e379bc37a29ffa5cdc956","68776047a8f0660e30fc26d2","1","1","67c7672373207a4fb29efe7f","1","1","2025-07-16T08:48:29.944Z","","","","","","","","","","","ControlQ","","50","","","","","","","","","","","","","","","","","","","","","","","","","","","","",""
"2971","","<div style=""width:500px;"">
  <p>How would you describe your current emotional state?</p>
  </div>","39","html-slider-response","62","1545236","0.0-5.0-3.10","56","1","2025-07-16 08:22:40","1f75c3e559b7213887762d5229550c2b","41.150.37.74","Mozilla/5.0 (Windows NT 10.0; Win64; x64) AppleWebKit/537.36 (KHTML, like Gecko) Chrome/138.0.0.0 Safari/537.36","WebKit","Chrome","138.0.0.0","Windows","10.0","https://app.prolific.com/","en-US,en;q=0.9","67c7672373207a4fb29efe7f","686e379bc37a29ffa5cdc956","68776047a8f0660e30fc26d2","1","1","67c7672373207a4fb29efe7f","1","1","2025-07-16T08:48:32.920Z","","","","","","","","","","","StressQ","","50","","","","","","","","","","","","","","","","","","","","","","","","","","","","",""
"2816","","<div style=""width:500px;"">
  <p>What best describes how you currently feel?</p>
  </div>","59","html-slider-response","63","1548058","0.0-5.0-4.10","56","1","2025-07-16 08:22:40","1f75c3e559b7213887762d5229550c2b","41.150.37.74","Mozilla/5.0 (Windows NT 10.0; Win64; x64) AppleWebKit/537.36 (KHTML, like Gecko) Chrome/138.0.0.0 Safari/537.36","WebKit","Chrome","138.0.0.0","Windows","10.0","https://app.prolific.com/","en-US,en;q=0.9","67c7672373207a4fb29efe7f","686e379bc37a29ffa5cdc956","68776047a8f0660e30fc26d2","1","1","67c7672373207a4fb29efe7f","1","1","2025-07-16T08:48:35.742Z","","","","","","","","","","","MotivationQ","","50","","","","","","","","","","","","","","","","","","","","","","","","","","","","",""
"","","","","ctl-task-cpt","64","1583815","0.0-5.0-0.11","56","1","2025-07-16 08:22:40","1f75c3e559b7213887762d5229550c2b","41.150.37.74","Mozilla/5.0 (Windows NT 10.0; Win64; x64) AppleWebKit/537.36 (KHTML, like Gecko) Chrome/138.0.0.0 Safari/537.36","WebKit","Chrome","138.0.0.0","Windows","10.0","https://app.prolific.com/","en-US,en;q=0.9","67c7672373207a4fb29efe7f","686e379bc37a29ffa5cdc956","68776047a8f0660e30fc26d2","1","1","67c7672373207a4fb29efe7f","1","1","2025-07-16T08:49:11.499Z","","","","","","","","","","","","","","win-only","0","g1:NW,g2:SE","0.6","12","0","1561623.3","2503","7508.1","32729.1","1","4","8","6","2","8","8","13","5","0.09848484848484848","1840","3000","1750","[""down"",""right""]","{""num_key_presses"":8,""num_perfect"":6,""num_errors"":0,""num_randdir"":2,""num_randdir_good_moves"":1,""num_whilered"":0,""num_whileblue"":0,""num_blue"":0,""num_good_moves"":7}","[295.22232142857143,303.12857142857143,1.2,295.22232142857143,303.12857142857143,117.9,295.22232142857143,303.12857142857143,259.9,295.22232142857143,303.12857142857143,394.1,295.22232142857143,303.12857142857143,529.4,295.22232142857143,303.12857142857143,655.8,296.22232142857143,303.12857142857143,790.2,296.22232142857143,304.12857142857143,948.4,305.22232142857143,319.12857142857143,1058.1,469.22232142857143,537.1285714285714,1162.4,492.22232142857143,556.1285714285714,1262.7,504.22232142857143,558.1285714285714,1378.1,519.2223214285714,556.1285714285714,1496.5,521.2223214285714,553.1285714285714,1601,521.2223214285714,553.1285714285714,1702.1,521.2223214285714,553.1285714285714,1809.3,521.2223214285714,553.1285714285714,1915,521.2223214285714,553.1285714285714,2028.8,521.2223214285714,553.1285714285714,2189.6,521.2223214285714,553.1285714285714,2290.5,521.2223214285714,553.1285714285714,2399.8,521.2223214285714,553.1285714285714,2506.8,521.2223214285714,553.1285714285714,2615.5,521.2223214285714,553.1285714285714,2736.4,521.2223214285714,553.1285714285714,2950.5,521.2223214285714,553.1285714285714,3053.5,521.2223214285714,553.1285714285714,3162.3,521.2223214285714,553.1285714285714,3265.6,521.2223214285714,553.1285714285714,3451.5,521.2223214285714,553.1285714285714,3556.5,521.2223214285714,553.1285714285714,3665.5,521.2223214285714,553.1285714285714,3766.1,521.2223214285714,553.1285714285714,3977,521.2223214285714,553.1285714285714,4090.3,521.2223214285714,553.1285714285714,4193.6,521.2223214285714,553.1285714285714,4296.6,521.2223214285714,553.1285714285714,4400.5,521.2223214285714,553.1285714285714,4503.2,521.2223214285714,553.1285714285714,4607.5,521.2223214285714,553.1285714285714,4712.3,521.2223214285714,553.1285714285714,4824.4,521.2223214285714,553.1285714285714,4994.2]","[2306.5,2306.5,1000,0,1306.5,""smooth"",""down"",""down"",""good_move"",5715.7,3406.9,2758.4,2308.8,648.5,""smooth"",""right"",""right"",""good_move"",9175.1,3457.8,2912.7,5717.4,545,""oops"",""right"",""left"",""bad_move"",12832.6,3654.1,2429.3,9178.5,1224.8,""smooth"",""right"",""right"",""good_move"",15718,2884.1,2374.5,12833.9,509.6,""smooth"",""right"",""right"",""good_move"",18090,2370.5,1752.1,15719.7,618.3,""smooth"",""right"",""right"",""good_move"",21034.5,2940,2243.4,18094.5,696.6,""oops"",""down"",""down"",""good_move"",24411,3375.5,2186.8,21035.5,1188.7,""smooth"",""down"",""down"",""good_move""]","",""
"4705","","<div style=""width:500px;"">
  <p>What determined the result of this run?</p>
  </div>","86","html-slider-response","65","1588523","0.0-5.0-1.11","56","1","2025-07-16 08:22:40","1f75c3e559b7213887762d5229550c2b","41.150.37.74","Mozilla/5.0 (Windows NT 10.0; Win64; x64) AppleWebKit/537.36 (KHTML, like Gecko) Chrome/138.0.0.0 Safari/537.36","WebKit","Chrome","138.0.0.0","Windows","10.0","https://app.prolific.com/","en-US,en;q=0.9","67c7672373207a4fb29efe7f","686e379bc37a29ffa5cdc956","68776047a8f0660e30fc26d2","1","1","67c7672373207a4fb29efe7f","1","1","2025-07-16T08:49:16.207Z","","","","","","","","","","","AttribQ","","50","","","","","","","","","","","","","","","","","","","","","","","","","","","","",""
"5386","","<div style=""width:500px;"">
  <p>How much control did you have over the ball?</p>
  </div>","64","html-slider-response","66","1593913","0.0-5.0-2.11","56","1","2025-07-16 08:22:40","1f75c3e559b7213887762d5229550c2b","41.150.37.74","Mozilla/5.0 (Windows NT 10.0; Win64; x64) AppleWebKit/537.36 (KHTML, like Gecko) Chrome/138.0.0.0 Safari/537.36","WebKit","Chrome","138.0.0.0","Windows","10.0","https://app.prolific.com/","en-US,en;q=0.9","67c7672373207a4fb29efe7f","686e379bc37a29ffa5cdc956","68776047a8f0660e30fc26d2","1","1","67c7672373207a4fb29efe7f","1","1","2025-07-16T08:49:21.598Z","","","","","","","","","","","ControlQ","","50","","","","","","","","","","","","","","","","","","","","","","","","","","","","",""
"3376","","<div style=""width:500px;"">
  <p>How would you describe your current emotional state?</p>
  </div>","41","html-slider-response","67","1597294","0.0-5.0-3.11","56","1","2025-07-16 08:22:40","1f75c3e559b7213887762d5229550c2b","41.150.37.74","Mozilla/5.0 (Windows NT 10.0; Win64; x64) AppleWebKit/537.36 (KHTML, like Gecko) Chrome/138.0.0.0 Safari/537.36","WebKit","Chrome","138.0.0.0","Windows","10.0","https://app.prolific.com/","en-US,en;q=0.9","67c7672373207a4fb29efe7f","686e379bc37a29ffa5cdc956","68776047a8f0660e30fc26d2","1","1","67c7672373207a4fb29efe7f","1","1","2025-07-16T08:49:24.978Z","","","","","","","","","","","StressQ","","50","","","","","","","","","","","","","","","","","","","","","","","","","","","","",""
"4532","","<div style=""width:500px;"">
  <p>What best describes how you currently feel?</p>
  </div>","65","html-slider-response","68","1601831","0.0-5.0-4.11","56","1","2025-07-16 08:22:40","1f75c3e559b7213887762d5229550c2b","41.150.37.74","Mozilla/5.0 (Windows NT 10.0; Win64; x64) AppleWebKit/537.36 (KHTML, like Gecko) Chrome/138.0.0.0 Safari/537.36","WebKit","Chrome","138.0.0.0","Windows","10.0","https://app.prolific.com/","en-US,en;q=0.9","67c7672373207a4fb29efe7f","686e379bc37a29ffa5cdc956","68776047a8f0660e30fc26d2","1","1","67c7672373207a4fb29efe7f","1","1","2025-07-16T08:49:29.515Z","","","","","","","","","","","MotivationQ","","50","","","","","","","","","","","","","","","","","","","","","","","","","","","","",""
"","","","","ctl-task-cpt","69","1651602","0.0-5.0-0.12","56","1","2025-07-16 08:22:40","1f75c3e559b7213887762d5229550c2b","41.150.37.74","Mozilla/5.0 (Windows NT 10.0; Win64; x64) AppleWebKit/537.36 (KHTML, like Gecko) Chrome/138.0.0.0 Safari/537.36","WebKit","Chrome","138.0.0.0","Windows","10.0","https://app.prolific.com/","en-US,en;q=0.9","67c7672373207a4fb29efe7f","686e379bc37a29ffa5cdc956","68776047a8f0660e30fc26d2","1","1","67c7672373207a4fb29efe7f","1","1","2025-07-16T08:50:19.286Z","","","","","","","","","","","","","","win-only","0","g1:NW,g2:SE","0.7","13","0","1615395.5","4206.7","9228.8","46719.5","1","4","8","6","2","8","8","21","13","0.1590909090909091","1650.3","3000","1840","[""down"",""right""]","{""num_key_presses"":10,""num_perfect"":7,""num_errors"":0,""num_randdir"":3,""num_randdir_good_moves"":1,""num_whilered"":0,""num_whileblue"":0,""num_blue"":1,""num_good_moves"":8}","[302.22232142857143,297.12857142857143,0.8,302.22232142857143,297.12857142857143,133.5,302.22232142857143,297.12857142857143,257,302.22232142857143,297.12857142857143,410.2,298.22232142857143,295.12857142857143,560.9,284.22232142857143,294.12857142857143,667.2,302.22232142857143,334.12857142857143,777.7,476.22232142857143,490.12857142857143,892,524.2223214285714,514.1285714285714,994.9,524.2223214285714,514.1285714285714,1139.7,529.2223214285714,518.1285714285714,1245.5,550.2223214285714,536.1285714285714,1372.4,552.2223214285714,537.1285714285714,1523.8,552.2223214285714,537.1285714285714,1683.4,552.2223214285714,537.1285714285714,1783.4,552.2223214285714,537.1285714285714,1926.1,552.2223214285714,537.1285714285714,2070.7,552.2223214285714,537.1285714285714,2211.6,552.2223214285714,537.1285714285714,2347.3,552.2223214285714,537.1285714285714,2476.5,552.2223214285714,537.1285714285714,2614.6,552.2223214285714,537.1285714285714,2748.1,552.2223214285714,537.1285714285714,2877.5,552.2223214285714,537.1285714285714,3009.1,552.2223214285714,537.1285714285714,3145.7,552.2223214285714,537.1285714285714,3282.2,552.2223214285714,537.1285714285714,3412.2,552.2223214285714,537.1285714285714,3546.4,552.2223214285714,537.1285714285714,3674,552.2223214285714,537.1285714285714,3804.8,552.2223214285714,537.1285714285714,3936.4,552.2223214285714,537.1285714285714,4067.8,552.2223214285714,537.1285714285714,4207.2,552.2223214285714,537.1285714285714,4345.2,552.2223214285714,537.1285714285714,4481.6,552.2223214285714,537.1285714285714,4614.3,552.2223214285714,537.1285714285714,4749.5,552.2223214285714,537.1285714285714,4882.6]","[2242.6,2242.6,1000,0,1242.7,""smooth"",""down"",""down"",""good_move"",5132.7,2887.8,1798.4,2244.9,1089.4,""smooth"",""right"",""right"",""good_move"",7538.4,2401.1,1720.1,5137.3,681,""smooth"",""right"",""right"",""good_move"",10064.2,2524.7,1901.1,7539.5,623.6,""oops"",""right"",""up"",""bad_move"",13863.3,3796.3,2115.5,10067.1,1680.7,""smooth"",""right"",""right"",""good_move"",16443,2577.7,1914,13865.3,663.7,""smooth"",""down"",""down"",""good_move"",19347.8,2902,2280.1,16445.8,621.9,""oops"",""down"",""down"",""good_move"",25557.9,6209.1,1943.9,22963.8,650.2,""oops"",""down"",""up"",""bad_move"",33256.2,7697.5,2572.1,25558.8,5125.3,""smooth"",""down"",""down"",""good_move"",36210.3,2953.3,2067.9,33257,885.4,""smooth"",""down"",""down"",""good_move""]","",""
"4690","","<div style=""width:500px;"">
  <p>What determined the result of this run?</p>
  </div>","83","html-slider-response","70","1656296","0.0-5.0-1.12","56","1","2025-07-16 08:22:40","1f75c3e559b7213887762d5229550c2b","41.150.37.74","Mozilla/5.0 (Windows NT 10.0; Win64; x64) AppleWebKit/537.36 (KHTML, like Gecko) Chrome/138.0.0.0 Safari/537.36","WebKit","Chrome","138.0.0.0","Windows","10.0","https://app.prolific.com/","en-US,en;q=0.9","67c7672373207a4fb29efe7f","686e379bc37a29ffa5cdc956","68776047a8f0660e30fc26d2","1","1","67c7672373207a4fb29efe7f","1","1","2025-07-16T08:50:23.980Z","","","","","","","","","","","AttribQ","","50","","","","","","","","","","","","","","","","","","","","","","","","","","","","",""
"3692","","<div style=""width:500px;"">
  <p>How much control did you have over the ball?</p>
  </div>","78","html-slider-response","71","1659991","0.0-5.0-2.12","56","1","2025-07-16 08:22:40","1f75c3e559b7213887762d5229550c2b","41.150.37.74","Mozilla/5.0 (Windows NT 10.0; Win64; x64) AppleWebKit/537.36 (KHTML, like Gecko) Chrome/138.0.0.0 Safari/537.36","WebKit","Chrome","138.0.0.0","Windows","10.0","https://app.prolific.com/","en-US,en;q=0.9","67c7672373207a4fb29efe7f","686e379bc37a29ffa5cdc956","68776047a8f0660e30fc26d2","1","1","67c7672373207a4fb29efe7f","1","1","2025-07-16T08:50:27.675Z","","","","","","","","","","","ControlQ","","50","","","","","","","","","","","","","","","","","","","","","","","","","","","","",""
"3305","","<div style=""width:500px;"">
  <p>How would you describe your current emotional state?</p>
  </div>","18","html-slider-response","72","1663300","0.0-5.0-3.12","56","1","2025-07-16 08:22:40","1f75c3e559b7213887762d5229550c2b","41.150.37.74","Mozilla/5.0 (Windows NT 10.0; Win64; x64) AppleWebKit/537.36 (KHTML, like Gecko) Chrome/138.0.0.0 Safari/537.36","WebKit","Chrome","138.0.0.0","Windows","10.0","https://app.prolific.com/","en-US,en;q=0.9","67c7672373207a4fb29efe7f","686e379bc37a29ffa5cdc956","68776047a8f0660e30fc26d2","1","1","67c7672373207a4fb29efe7f","1","1","2025-07-16T08:50:30.984Z","","","","","","","","","","","StressQ","","50","","","","","","","","","","","","","","","","","","","","","","","","","","","","",""
"3803","","<div style=""width:500px;"">
  <p>What best describes how you currently feel?</p>
  </div>","81","html-slider-response","73","1667106","0.0-5.0-4.12","56","1","2025-07-16 08:22:40","1f75c3e559b7213887762d5229550c2b","41.150.37.74","Mozilla/5.0 (Windows NT 10.0; Win64; x64) AppleWebKit/537.36 (KHTML, like Gecko) Chrome/138.0.0.0 Safari/537.36","WebKit","Chrome","138.0.0.0","Windows","10.0","https://app.prolific.com/","en-US,en;q=0.9","67c7672373207a4fb29efe7f","686e379bc37a29ffa5cdc956","68776047a8f0660e30fc26d2","1","1","67c7672373207a4fb29efe7f","1","1","2025-07-16T08:50:34.790Z","","","","","","","","","","","MotivationQ","","50","","","","","","","","","","","","","","","","","","","","","","","","","","","","",""
"","","","","ctl-task-cpt","74","1696273","0.0-5.0-0.13","56","1","2025-07-16 08:22:40","1f75c3e559b7213887762d5229550c2b","41.150.37.74","Mozilla/5.0 (Windows NT 10.0; Win64; x64) AppleWebKit/537.36 (KHTML, like Gecko) Chrome/138.0.0.0 Safari/537.36","WebKit","Chrome","138.0.0.0","Windows","10.0","https://app.prolific.com/","en-US,en;q=0.9","67c7672373207a4fb29efe7f","686e379bc37a29ffa5cdc956","68776047a8f0660e30fc26d2","1","1","67c7672373207a4fb29efe7f","1","1","2025-07-16T08:51:03.957Z","","","","","","","","","","","","","","win-only","3","g1:SW,g2:NE","0.8","14","0","1680671.2","1889.8","6895.1","26116.3","1","4","4","6","1","1","1","22","21","0.16666666666666666","2619.3","3000","2400","[""down"",""left""]","{""num_key_presses"":4,""num_perfect"":3,""num_errors"":0,""num_randdir"":1,""num_randdir_good_moves"":1,""num_whilered"":0,""num_whileblue"":0,""num_blue"":1,""num_good_moves"":4}","[299.22232142857143,292.12857142857143,1.4,299.22232142857143,292.12857142857143,110.3,299.22232142857143,292.12857142857143,219.8,299.22232142857143,292.12857142857143,320.7,299.22232142857143,292.12857142857143,502.2,299.22232142857143,288.12857142857143,621,299.22232142857143,282.12857142857143,726.4,300.22232142857143,278.12857142857143,837,300.22232142857143,278.12857142857143,942.8,302.22232142857143,276.12857142857143,1052.9,404.22232142857143,158.12857142857143,1163.5,405.22232142857143,157.12857142857143,1273.8,405.22232142857143,157.12857142857143,1412.6,405.22232142857143,157.12857142857143,1523.4,159.22232142857143,421.12857142857143,1666.3,116.22232142857143,491.12857142857143,1779,58.222321428571426,609.1285714285714,1882.6,58.222321428571426,609.1285714285714,1997.3,58.222321428571426,609.1285714285714,2109.6,58.222321428571426,566.1285714285714,2222.1,58.222321428571426,524.1285714285714,2331,58.222321428571426,522.1285714285714,2432.7,58.222321428571426,522.1285714285714,2538.9,58.222321428571426,522.1285714285714,2647.5,58.222321428571426,522.1285714285714,2751.2,58.222321428571426,522.1285714285714,2855,58.222321428571426,522.1285714285714,2970.1,58.222321428571426,522.1285714285714,3082.4,58.222321428571426,522.1285714285714,3192.1,58.222321428571426,522.1285714285714,3300.9,58.222321428571426,521.1285714285714,3418.5,63.222321428571426,516.1285714285714,3522.7,64.22232142857143,516.1285714285714,3630.2,64.22232142857143,516.1285714285714,3730.5,64.22232142857143,516.1285714285714,3832.8,64.22232142857143,516.1285714285714,3950,64.22232142857143,516.1285714285714,4056.4,64.22232142857143,516.1285714285714,4172.2,64.22232142857143,516.1285714285714,4284.9,64.22232142857143,516.1285714285714,4388.1,64.22232142857143,516.1285714285714,4488.7,64.22232142857143,516.1285714285714,4610.9,64.22232142857143,516.1285714285714,4717.2,64.22232142857143,516.1285714285714,4819.9,64.22232142857143,516.1285714285714,4926.9]","[5346.2,5346.2,2665.3,2125.7,555.2,""smooth"",""down"",""down"",""good_move"",8184.8,2837.3,1896.8,5347.5,940.5,""smooth"",""down"",""down"",""good_move"",10937,2751.1,2039.7,8185.9,711.4,""smooth"",""left"",""left"",""good_move"",18868.4,7929.9,2882.2,10938.5,5047.7,""oops"",""left"",""left"",""good_move""]","",""
"4248","","<div style=""width:500px;"">
  <p>What determined the result of this run?</p>
  </div>","88","html-slider-response","75","1700524","0.0-5.0-1.13","56","1","2025-07-16 08:22:40","1f75c3e559b7213887762d5229550c2b","41.150.37.74","Mozilla/5.0 (Windows NT 10.0; Win64; x64) AppleWebKit/537.36 (KHTML, like Gecko) Chrome/138.0.0.0 Safari/537.36","WebKit","Chrome","138.0.0.0","Windows","10.0","https://app.prolific.com/","en-US,en;q=0.9","67c7672373207a4fb29efe7f","686e379bc37a29ffa5cdc956","68776047a8f0660e30fc26d2","1","1","67c7672373207a4fb29efe7f","1","1","2025-07-16T08:51:08.208Z","","","","","","","","","","","AttribQ","","50","","","","","","","","","","","","","","","","","","","","","","","","","","","","",""
"4393","","<div style=""width:500px;"">
  <p>How much control did you have over the ball?</p>
  </div>","73","html-slider-response","76","1704921","0.0-5.0-2.13","56","1","2025-07-16 08:22:40","1f75c3e559b7213887762d5229550c2b","41.150.37.74","Mozilla/5.0 (Windows NT 10.0; Win64; x64) AppleWebKit/537.36 (KHTML, like Gecko) Chrome/138.0.0.0 Safari/537.36","WebKit","Chrome","138.0.0.0","Windows","10.0","https://app.prolific.com/","en-US,en;q=0.9","67c7672373207a4fb29efe7f","686e379bc37a29ffa5cdc956","68776047a8f0660e30fc26d2","1","1","67c7672373207a4fb29efe7f","1","1","2025-07-16T08:51:12.605Z","","","","","","","","","","","ControlQ","","50","","","","","","","","","","","","","","","","","","","","","","","","","","","","",""
"3828","","<div style=""width:500px;"">
  <p>How would you describe your current emotional state?</p>
  </div>","38","html-slider-response","77","1708755","0.0-5.0-3.13","56","1","2025-07-16 08:22:40","1f75c3e559b7213887762d5229550c2b","41.150.37.74","Mozilla/5.0 (Windows NT 10.0; Win64; x64) AppleWebKit/537.36 (KHTML, like Gecko) Chrome/138.0.0.0 Safari/537.36","WebKit","Chrome","138.0.0.0","Windows","10.0","https://app.prolific.com/","en-US,en;q=0.9","67c7672373207a4fb29efe7f","686e379bc37a29ffa5cdc956","68776047a8f0660e30fc26d2","1","1","67c7672373207a4fb29efe7f","1","1","2025-07-16T08:51:16.439Z","","","","","","","","","","","StressQ","","50","","","","","","","","","","","","","","","","","","","","","","","","","","","","",""
"5718","","<div style=""width:500px;"">
  <p>What best describes how you currently feel?</p>
