"rt","response_timestamp","stimulus","response","trial_type","trial_index","time_elapsed","internal_node_id","run_id","condition","recorded_at","source_code_version","ip","user_agent","device","browser","browser_version","platform","platform_version","referer","accept_language","PROLIFIC_PID","STUDY_ID","SESSION_ID","WEEK","BATCH","prolific_id","week","batch","realtime","success","responses","item_order","radio_event_ids","radio_event_times","key_event_times","mouse_event_times","straightlining","zigzagging","honeypot","eventType","view_history","slider_start","which_type","canvas_config","goals_layout","control_level","trial_number","tutorial_trial_number","trial_start_time","phase1_start_time","phase2_start_time","phase3_start_time","goal_1_value","goal_1_distance","goal_2_value","goal_2_distance","goal_selected","outcome","outcome_total","participant_final_score","participant_initial_score","participant_final_score_prop","goal_choice_rt","allocated_time","allocated_time_remaining","goal_direction","counts","mouse_movements","key_presses","question_order","question_id"
"2903","1752662780130","<p style='font-size:40px;line-height:1.25'><strong>Welcome to the experiment!</strong></p><p style='font-size:1.1em;line-height:1.25'>Thank you for participanting in our experiment again! You will be asked to play the Dysfunctional Ball Game again. We will briefly recap the rules before we start.</p><p style='font-size:1.1em;line-height:1.25'>Press <strong>Next</strong> to continue.</p>","0","custom-html-button-response","0","2921","0.0-0.0","103","1","2025-07-16 10:46:11","1f75c3e559b7213887762d5229550c2b","14.201.163.64","Mozilla/5.0 (Windows NT 10.0; Win64; x64; rv:140.0) Gecko/20100101 Firefox/140.0","","Firefox","140.0","Windows","10.0","https://app.prolific.com/","en-US,en;q=0.5","642cb1f7f42c4e0a6c5d4eef","686e379bc37a29ffa5cdc956","687782e1b40655a8275e97b9","1","1","642cb1f7f42c4e0a6c5d4eef","1","1","2025-07-16T10:46:20.132Z","","","","","","","","","","","","","","","","","","","","","","","","","","","","","","","","","","","","","","","","","",""
"3134","","","","fullscreen","1","7072","0.0-1.0","103","1","2025-07-16 10:46:11","1f75c3e559b7213887762d5229550c2b","14.201.163.64","Mozilla/5.0 (Windows NT 10.0; Win64; x64; rv:140.0) Gecko/20100101 Firefox/140.0","","Firefox","140.0","Windows","10.0","https://app.prolific.com/","en-US,en;q=0.5","642cb1f7f42c4e0a6c5d4eef","686e379bc37a29ffa5cdc956","687782e1b40655a8275e97b9","1","1","642cb1f7f42c4e0a6c5d4eef","1","1","","true","","","","","","","","","","","","","","","","","","","","","","","","","","","","","","","","","","","","","","","","",""
"1817","1752662786103","<p style='font-size:1.1em;line-height:1.25'>In the following, we will ask you a few questions relating to your feelings in the last 24 hours.<br></p><p style='font-size:1.1em;line-height:1.25'>Press the <strong>Next</strong> button to continue.</p>","0","custom-html-button-response","2","8892","0.0-2.0-0.0","103","1","2025-07-16 10:46:11","1f75c3e559b7213887762d5229550c2b","14.201.163.64","Mozilla/5.0 (Windows NT 10.0; Win64; x64; rv:140.0) Gecko/20100101 Firefox/140.0","","Firefox","140.0","Windows","10.0","https://app.prolific.com/","en-US,en;q=0.5","642cb1f7f42c4e0a6c5d4eef","686e379bc37a29ffa5cdc956","687782e1b40655a8275e97b9","1","1","642cb1f7f42c4e0a6c5d4eef","1","1","2025-07-16T10:46:26.103Z","","","","","","","","","","","","","","","","","","","","","","","","","","","","","","","","","","","","","","","","","",""
"47589","","","","survey-template","3","56488","0.0-2.0-1.0","103","1","2025-07-16 10:46:11","1f75c3e559b7213887762d5229550c2b","14.201.163.64","Mozilla/5.0 (Windows NT 10.0; Win64; x64; rv:140.0) Gecko/20100101 Firefox/140.0","","Firefox","140.0","Windows","10.0","https://app.prolific.com/","en-US,en;q=0.5","642cb1f7f42c4e0a6c5d4eef","686e379bc37a29ffa5cdc956","687782e1b40655a8275e97b9","1","1","642cb1f7f42c4e0a6c5d4eef","1","1","2025-07-16T10:47:13.699Z","","{""Q01"":""1"",""Q02"":""1"",""Q03"":""0"",""Q04"":""2"",""Q05"":""0"",""Q06"":""0"",""Q07"":""0"",""Q08"":""0"",""Q09"":""0"",""Q10"":""3"",""Q11"":""0"",""Q12"":""0"",""Q13"":""5"",""Q14"":""0"",""Q15"":""0"",""Q16"":""1"",""Q17"":""0"",""Q18"":""0"",""Q19"":""0"",""Q20"":""3"",""Q21"":""0"",""Q22"":""0""}","[0,1,2,3,4,5,6,7,8,9,10,11,12,13,14,15,16,17,18,19,20,21]","[""Q01"",""Q02"",""Q03"",""Q04"",""Q04"",""Q05"",""Q06"",""Q07"",""Q08"",""Q09"",""Q10"",""Q11"",""Q12"",""Q13"",""Q14"",""Q15"",""Q16"",""Q17"",""Q18"",""Q19"",""Q20"",""Q20"",""Q21"",""Q22""]","[3224,5578,6756,12216,13186,14368,15515,17191,18145,19195,20659,23373,24572,26808,28573,29944,31282,33104,34625,36578,38123,41243,43745,45130]","[]","[0,3224,4641,5578,6756,11344,12216,13186,14368,15515,16376,17191,18145,19195,20659,23373,24572,26808,28573,29944,31282,33104,34625,36578,38123,41243,43745,45130,47586]","0.6818181818181818","0.23809523809523808","0","drsp","","","","","","","","","","","","","","","","","","","","","","","","","","","","","","",""
"11633","","","","survey-template","4","68127","0.0-2.0-2.0","103","1","2025-07-16 10:46:11","1f75c3e559b7213887762d5229550c2b","14.201.163.64","Mozilla/5.0 (Windows NT 10.0; Win64; x64; rv:140.0) Gecko/20100101 Firefox/140.0","","Firefox","140.0","Windows","10.0","https://app.prolific.com/","en-US,en;q=0.5","642cb1f7f42c4e0a6c5d4eef","686e379bc37a29ffa5cdc956","687782e1b40655a8275e97b9","1","1","642cb1f7f42c4e0a6c5d4eef","1","1","2025-07-16T10:47:25.338Z","","{""Q01"":""2"",""Q02"":""3"",""Q03"":""1""}","[0,1,2]","[""Q01"",""Q02"",""Q03"",""Q03""]","[2236,7097,8449,10297]","[]","[2236,5262,7097,8449,10297,11633]","0.6666666666666666","0.5","0","stress","","","","","","","","","","","","","","","","","","","","","","","","","","","","","","",""
"10480","","","","instructions","5","78612","0.0-3.0-0.0","103","1","2025-07-16 10:46:11","1f75c3e559b7213887762d5229550c2b","14.201.163.64","Mozilla/5.0 (Windows NT 10.0; Win64; x64; rv:140.0) Gecko/20100101 Firefox/140.0","","Firefox","140.0","Windows","10.0","https://app.prolific.com/","en-US,en;q=0.5","642cb1f7f42c4e0a6c5d4eef","686e379bc37a29ffa5cdc956","687782e1b40655a8275e97b9","1","1","642cb1f7f42c4e0a6c5d4eef","1","1","","","","","","","","","","","","","[{""page_index"":0,""viewing_time"":10480}]","","","","","","","","","","","","","","","","","","","","","","","","","","","","","",""
"8885","","<p>Before you start with this game please answer the following three questions yourself. </p>
  <p>Through this game, we measure several aspects of your cognitive performance, such as reaction times, multi-tasking capabilities </p>
  <p>and the ability to assess the situation you are in.</p>
  <p></p>
  <p><b>How good do you usually are in such tasks?</b></p>","73","html-slider-response","6","87498","0.0-4.0-0.0","103","1","2025-07-16 10:46:11","1f75c3e559b7213887762d5229550c2b","14.201.163.64","Mozilla/5.0 (Windows NT 10.0; Win64; x64; rv:140.0) Gecko/20100101 Firefox/140.0","","Firefox","140.0","Windows","10.0","https://app.prolific.com/","en-US,en;q=0.5","642cb1f7f42c4e0a6c5d4eef","686e379bc37a29ffa5cdc956","687782e1b40655a8275e97b9","1","1","642cb1f7f42c4e0a6c5d4eef","1","1","2025-07-16T10:47:44.709Z","","","","","","","","","","","PreSkillQ","","50","","","","","","","","","","","","","","","","","","","","","","","","","","","","",""
"4299","","<div style=""width:500px;"">
  <p>How well do you think you will perform in this task compared to other participants?</p>
  </div>","50","html-slider-response","7","91799","0.0-4.0-1.0","103","1","2025-07-16 10:46:11","1f75c3e559b7213887762d5229550c2b","14.201.163.64","Mozilla/5.0 (Windows NT 10.0; Win64; x64; rv:140.0) Gecko/20100101 Firefox/140.0","","Firefox","140.0","Windows","10.0","https://app.prolific.com/","en-US,en;q=0.5","642cb1f7f42c4e0a6c5d4eef","686e379bc37a29ffa5cdc956","687782e1b40655a8275e97b9","1","1","642cb1f7f42c4e0a6c5d4eef","1","1","2025-07-16T10:47:49.010Z","","","","","","","","","","","PrePerfQ","","50","","","","","","","","","","","","","","","","","","","","","","","","","","","","",""
"3173","","<div style=""width:500px;"">
  <p>What best describes how you currently feel?</p>
  </div>","39","html-slider-response","8","94976","0.0-4.0-2.0","103","1","2025-07-16 10:46:11","1f75c3e559b7213887762d5229550c2b","14.201.163.64","Mozilla/5.0 (Windows NT 10.0; Win64; x64; rv:140.0) Gecko/20100101 Firefox/140.0","","Firefox","140.0","Windows","10.0","https://app.prolific.com/","en-US,en;q=0.5","642cb1f7f42c4e0a6c5d4eef","686e379bc37a29ffa5cdc956","687782e1b40655a8275e97b9","1","1","642cb1f7f42c4e0a6c5d4eef","1","1","2025-07-16T10:47:52.187Z","","","","","","","","","","","PreMotivationQ","","50","","","","","","","","","","","","","","","","","","","","","","","","","","","","",""
"","","","","ctl-task-cpt","9","137284","0.0-5.0-0.0","103","1","2025-07-16 10:46:11","1f75c3e559b7213887762d5229550c2b","14.201.163.64","Mozilla/5.0 (Windows NT 10.0; Win64; x64; rv:140.0) Gecko/20100101 Firefox/140.0","","Firefox","140.0","Windows","10.0","https://app.prolific.com/","en-US,en;q=0.5","642cb1f7f42c4e0a6c5d4eef","686e379bc37a29ffa5cdc956","687782e1b40655a8275e97b9","1","1","642cb1f7f42c4e0a6c5d4eef","1","1","2025-07-16T10:48:34.495Z","","","","","","","","","","","","","","win-only","2","g1:SE,g2:NW","1","1","0","101747","1481","6484","39291","1","4","4","6","2","4","4","4","0","0.030303030303030304","4889","3000","2205","[""left"",""up""]","{""num_key_presses"":6,""num_perfect"":6,""num_errors"":0,""num_randdir"":0,""num_randdir_good_moves"":0,""num_whilered"":0,""num_whileblue"":0,""num_blue"":4,""num_good_moves"":6}","[406.5714133126395,410.0714362008231,0,406.5714133126395,410.0714362008231,116,406.5714133126395,410.0714362008231,225,406.5714133126395,410.0714362008231,339,406.5714133126395,410.0714362008231,451,957.8214133126395,341.3214362008231,562,1016.5714133126395,357.5714362008231,673,1016.5714133126395,357.5714362008231,783,1016.5714133126395,357.5714362008231,896,1016.5714133126395,357.5714362008231,1007,907.8214133126395,341.3214362008231,1118,194.0714133126395,18.8214362008231,1229,191.5714133126395,31.3214362008231,1341,147.8214133126395,46.3214362008231,1452,110.3214133126395,53.8214362008231,1564,101.5714133126395,53.8214362008231,1677,100.3214133126395,53.8214362008231,1789,104.0714133126395,55.0714362008231,1901,104.0714133126395,55.0714362008231,2013,104.0714133126395,55.0714362008231,2124,104.0714133126395,55.0714362008231,2235,104.0714133126395,55.0714362008231,2347,104.0714133126395,55.0714362008231,2458,104.0714133126395,55.0714362008231,2568,104.0714133126395,55.0714362008231,2679,104.0714133126395,55.0714362008231,2792,104.0714133126395,55.0714362008231,2902,104.0714133126395,55.0714362008231,3015,104.0714133126395,55.0714362008231,3127,101.5714133126395,55.0714362008231,3228,101.5714133126395,55.0714362008231,3337,101.5714133126395,55.0714362008231,3448,101.5714133126395,56.3214362008231,3561,100.3214133126395,57.5714362008231,3672,99.0714133126395,57.5714362008231,3784,99.0714133126395,57.5714362008231,3895,96.5714133126395,57.5714362008231,4008,95.3214133126395,57.5714362008231,4120,94.0714133126395,57.5714362008231,4234,94.0714133126395,57.5714362008231,4347,92.8214133126395,57.5714362008231,4458,91.5714133126395,57.5714362008231,4570,87.8214133126395,56.3214362008231,4684,82.8214133126395,56.3214362008231,4796,82.8214133126395,56.3214362008231,4908]","[4998,4998,2432.5,2024,541.5,""smooth"",""left"",""left"",""good_move"",8133,3134,2372.2,4999,761.8,""smooth"",""up"",""up"",""good_move"",11202,3069,2540.9,8134,527.1,""smooth"",""left"",""left"",""good_move"",21490,10288,2536.3,18583,370.7,""smooth"",""up"",""up"",""good_move"",29332,7842,3706.4,25205,420.6,""smooth"",""left"",""left"",""good_move"",32527,3195,2711,29332,484,""smooth"",""up"",""up"",""good_move""]","",""
"3598","","<div style=""width:500px;"">
  <p>What determined the result of this run?</p>
  </div>","74","html-slider-response","10","140884","0.0-5.0-1.0","103","1","2025-07-16 10:46:11","1f75c3e559b7213887762d5229550c2b","14.201.163.64","Mozilla/5.0 (Windows NT 10.0; Win64; x64; rv:140.0) Gecko/20100101 Firefox/140.0","","Firefox","140.0","Windows","10.0","https://app.prolific.com/","en-US,en;q=0.5","642cb1f7f42c4e0a6c5d4eef","686e379bc37a29ffa5cdc956","687782e1b40655a8275e97b9","1","1","642cb1f7f42c4e0a6c5d4eef","1","1","2025-07-16T10:48:38.095Z","","","","","","","","","","","AttribQ","","50","","","","","","","","","","","","","","","","","","","","","","","","","","","","",""
"3527","","<div style=""width:500px;"">
  <p>How much control did you have over the ball?</p>
  </div>","89","html-slider-response","11","144415","0.0-5.0-2.0","103","1","2025-07-16 10:46:11","1f75c3e559b7213887762d5229550c2b","14.201.163.64","Mozilla/5.0 (Windows NT 10.0; Win64; x64; rv:140.0) Gecko/20100101 Firefox/140.0","","Firefox","140.0","Windows","10.0","https://app.prolific.com/","en-US,en;q=0.5","642cb1f7f42c4e0a6c5d4eef","686e379bc37a29ffa5cdc956","687782e1b40655a8275e97b9","1","1","642cb1f7f42c4e0a6c5d4eef","1","1","2025-07-16T10:48:41.626Z","","","","","","","","","","","ControlQ","","50","","","","","","","","","","","","","","","","","","","","","","","","","","","","",""
"2692","","<div style=""width:500px;"">
  <p>How would you describe your current emotional state?</p>
  </div>","50","html-slider-response","12","147108","0.0-5.0-3.0","103","1","2025-07-16 10:46:11","1f75c3e559b7213887762d5229550c2b","14.201.163.64","Mozilla/5.0 (Windows NT 10.0; Win64; x64; rv:140.0) Gecko/20100101 Firefox/140.0","","Firefox","140.0","Windows","10.0","https://app.prolific.com/","en-US,en;q=0.5","642cb1f7f42c4e0a6c5d4eef","686e379bc37a29ffa5cdc956","687782e1b40655a8275e97b9","1","1","642cb1f7f42c4e0a6c5d4eef","1","1","2025-07-16T10:48:44.319Z","","","","","","","","","","","StressQ","","50","","","","","","","","","","","","","","","","","","","","","","","","","","","","",""
"2930","","<div style=""width:500px;"">
  <p>What best describes how you currently feel?</p>
  </div>","35","html-slider-response","13","150041","0.0-5.0-4.0","103","1","2025-07-16 10:46:11","1f75c3e559b7213887762d5229550c2b","14.201.163.64","Mozilla/5.0 (Windows NT 10.0; Win64; x64; rv:140.0) Gecko/20100101 Firefox/140.0","","Firefox","140.0","Windows","10.0","https://app.prolific.com/","en-US,en;q=0.5","642cb1f7f42c4e0a6c5d4eef","686e379bc37a29ffa5cdc956","687782e1b40655a8275e97b9","1","1","642cb1f7f42c4e0a6c5d4eef","1","1","2025-07-16T10:48:47.252Z","","","","","","","","","","","MotivationQ","","50","","","","","","","","","","","","","","","","","","","","","","","","","","","","",""
"","","","","ctl-task-cpt","14","199059","0.0-5.0-0.1","103","1","2025-07-16 10:46:11","1f75c3e559b7213887762d5229550c2b","14.201.163.64","Mozilla/5.0 (Windows NT 10.0; Win64; x64; rv:140.0) Gecko/20100101 Firefox/140.0","","Firefox","140.0","Windows","10.0","https://app.prolific.com/","en-US,en;q=0.5","642cb1f7f42c4e0a6c5d4eef","686e379bc37a29ffa5cdc956","687782e1b40655a8275e97b9","1","1","642cb1f7f42c4e0a6c5d4eef","1","1","2025-07-16T10:49:36.270Z","","","","","","","","","","","","","","win-only","3","g1:SW,g2:NE","0.9","2","0","156808","1748","6749","46002","1","4","8","6","2","8","8","12","4","0.09090909090909091","1087","3000","2255","[""up"",""right""]","{""num_key_presses"":6,""num_perfect"":6,""num_errors"":0,""num_randdir"":0,""num_randdir_good_moves"":0,""num_whilered"":0,""num_whileblue"":0,""num_blue"":6,""num_good_moves"":6}","[415.3214133126395,413.8214362008231,0,415.3214133126395,413.8214362008231,101,415.3214133126395,413.8214362008231,211,415.3214133126395,413.8214362008231,323,415.3214133126395,413.8214362008231,434,620.3214133126395,133.8214362008231,544,855.3214133126395,-21.1785637991769,654,831.5714133126395,28.8214362008231,766,781.5714133126395,53.8214362008231,874,774.0714133126395,55.0714362008231,987,774.0714133126395,55.0714362008231,1098,774.0714133126395,55.0714362008231,1210,774.0714133126395,55.0714362008231,1323,774.0714133126395,55.0714362008231,1434,774.0714133126395,55.0714362008231,1543,774.0714133126395,55.0714362008231,1655,774.0714133126395,55.0714362008231,1767,774.0714133126395,55.0714362008231,1878,774.0714133126395,55.0714362008231,1990,774.0714133126395,55.0714362008231,2101,774.0714133126395,55.0714362008231,2217,774.0714133126395,55.0714362008231,2326,774.0714133126395,55.0714362008231,2438,774.0714133126395,55.0714362008231,2548,774.0714133126395,55.0714362008231,2659,774.0714133126395,55.0714362008231,2773,774.0714133126395,55.0714362008231,2885,774.0714133126395,55.0714362008231,2997,774.0714133126395,55.0714362008231,3109,774.0714133126395,55.0714362008231,3223,774.0714133126395,55.0714362008231,3334,774.0714133126395,55.0714362008231,3446,774.0714133126395,55.0714362008231,3556,774.0714133126395,55.0714362008231,3668,774.0714133126395,55.0714362008231,3779,774.0714133126395,55.0714362008231,3892,774.0714133126395,55.0714362008231,4003,774.0714133126395,55.0714362008231,4114,774.0714133126395,55.0714362008231,4224,774.0714133126395,55.0714362008231,4336,774.0714133126395,55.0714362008231,4450,774.0714133126395,55.0714362008231,4560,774.0714133126395,55.0714362008231,4670,774.0714133126395,55.0714362008231,4780,774.0714133126395,55.0714362008231,4890]","[1442,1442,1000,0,442,""smooth"",""up"",""up"",""good_move"",11660,10218,2427,8876,357,""smooth"",""up"",""up"",""good_move"",18126,6466,1951.6,15815,359.4,""smooth"",""up"",""up"",""good_move"",28854,10727,2891.4,25608,354.6,""smooth"",""right"",""right"",""good_move"",31772,2918,2348.3,28854,569.7,""smooth"",""right"",""right"",""good_move"",38964,7192,2841.5,35715,407.5,""smooth"",""right"",""right"",""good_move""]","",""
"3501","","<div style=""width:500px;"">
  <p>What determined the result of this run?</p>
  </div>","82","html-slider-response","15","202560","0.0-5.0-1.1","103","1","2025-07-16 10:46:11","1f75c3e559b7213887762d5229550c2b","14.201.163.64","Mozilla/5.0 (Windows NT 10.0; Win64; x64; rv:140.0) Gecko/20100101 Firefox/140.0","","Firefox","140.0","Windows","10.0","https://app.prolific.com/","en-US,en;q=0.5","642cb1f7f42c4e0a6c5d4eef","686e379bc37a29ffa5cdc956","687782e1b40655a8275e97b9","1","1","642cb1f7f42c4e0a6c5d4eef","1","1","2025-07-16T10:49:39.771Z","","","","","","","","","","","AttribQ","","50","","","","","","","","","","","","","","","","","","","","","","","","","","","","",""
"3033","","<div style=""width:500px;"">
  <p>How much control did you have over the ball?</p>
  </div>","85","html-slider-response","16","205595","0.0-5.0-2.1","103","1","2025-07-16 10:46:11","1f75c3e559b7213887762d5229550c2b","14.201.163.64","Mozilla/5.0 (Windows NT 10.0; Win64; x64; rv:140.0) Gecko/20100101 Firefox/140.0","","Firefox","140.0","Windows","10.0","https://app.prolific.com/","en-US,en;q=0.5","642cb1f7f42c4e0a6c5d4eef","686e379bc37a29ffa5cdc956","687782e1b40655a8275e97b9","1","1","642cb1f7f42c4e0a6c5d4eef","1","1","2025-07-16T10:49:42.806Z","","","","","","","","","","","ControlQ","","50","","","","","","","","","","","","","","","","","","","","","","","","","","","","",""
"3035","","<div style=""width:500px;"">
  <p>How would you describe your current emotional state?</p>
  </div>","50","html-slider-response","17","208632","0.0-5.0-3.1","103","1","2025-07-16 10:46:11","1f75c3e559b7213887762d5229550c2b","14.201.163.64","Mozilla/5.0 (Windows NT 10.0; Win64; x64; rv:140.0) Gecko/20100101 Firefox/140.0","","Firefox","140.0","Windows","10.0","https://app.prolific.com/","en-US,en;q=0.5","642cb1f7f42c4e0a6c5d4eef","686e379bc37a29ffa5cdc956","687782e1b40655a8275e97b9","1","1","642cb1f7f42c4e0a6c5d4eef","1","1","2025-07-16T10:49:45.843Z","","","","","","","","","","","StressQ","","50","","","","","","","","","","","","","","","","","","","","","","","","","","","","",""
"3457","","<div style=""width:500px;"">
  <p>What best describes how you currently feel?</p>
  </div>","34","html-slider-response","18","212089","0.0-5.0-4.1","103","1","2025-07-16 10:46:11","1f75c3e559b7213887762d5229550c2b","14.201.163.64","Mozilla/5.0 (Windows NT 10.0; Win64; x64; rv:140.0) Gecko/20100101 Firefox/140.0","","Firefox","140.0","Windows","10.0","https://app.prolific.com/","en-US,en;q=0.5","642cb1f7f42c4e0a6c5d4eef","686e379bc37a29ffa5cdc956","687782e1b40655a8275e97b9","1","1","642cb1f7f42c4e0a6c5d4eef","1","1","2025-07-16T10:49:49.300Z","","","","","","","","","","","MotivationQ","","50","","","","","","","","","","","","","","","","","","","","","","","","","","","","",""
"","","","","ctl-task-cpt","19","239374","0.0-5.0-0.2","103","1","2025-07-16 10:46:11","1f75c3e559b7213887762d5229550c2b","14.201.163.64","Mozilla/5.0 (Windows NT 10.0; Win64; x64; rv:140.0) Gecko/20100101 Firefox/140.0","","Firefox","140.0","Windows","10.0","https://app.prolific.com/","en-US,en;q=0.5","642cb1f7f42c4e0a6c5d4eef","686e379bc37a29ffa5cdc956","687782e1b40655a8275e97b9","1","1","642cb1f7f42c4e0a6c5d4eef","1","1","2025-07-16T10:50:16.585Z","","","","","","","","","","","","","","win-only","1","g1:NE,g2:SW","0.8","3","0","218857","1178","6184","24273","1","4","4","6","2","4","4","16","12","0.12121212121212122","1298","3000","2340","[""down"",""left""]","{""num_key_presses"":6,""num_perfect"":6,""num_errors"":0,""num_randdir"":0,""num_randdir_good_moves"":0,""num_whilered"":0,""num_whileblue"":0,""num_blue"":0,""num_good_moves"":6}","[419.0714133126395,418.8214362008231,0,419.0714133126395,418.8214362008231,115,419.0714133126395,418.8214362008231,229,419.0714133126395,418.8214362008231,340,419.0714133126395,418.8214362008231,451,382.8214133126395,438.8214362008231,562,17.821413312639507,833.8214362008231,673,-10.928586687360493,838.8214362008231,784,-10.928586687360493,831.3214362008231,894,-3.428586687360493,823.8214362008231,1007,29.071413312639507,803.8214362008231,1116,29.071413312639507,803.8214362008231,1228,29.071413312639507,803.8214362008231,1341,29.071413312639507,803.8214362008231,1450,29.071413312639507,803.8214362008231,1562,29.071413312639507,803.8214362008231,1674,29.071413312639507,803.8214362008231,1783,29.071413312639507,803.8214362008231,1896,29.071413312639507,803.8214362008231,2009,29.071413312639507,803.8214362008231,2122,29.071413312639507,803.8214362008231,2234,29.071413312639507,803.8214362008231,2345,29.071413312639507,803.8214362008231,2457,29.071413312639507,803.8214362008231,2569,29.071413312639507,803.8214362008231,2683,29.071413312639507,803.8214362008231,2793,29.071413312639507,803.8214362008231,2905,29.071413312639507,803.8214362008231,3015,29.071413312639507,803.8214362008231,3126,29.071413312639507,803.8214362008231,3242,29.071413312639507,803.8214362008231,3350,29.071413312639507,803.8214362008231,3460,29.071413312639507,803.8214362008231,3574,29.071413312639507,803.8214362008231,3686,29.071413312639507,803.8214362008231,3798,29.071413312639507,803.8214362008231,3910,29.071413312639507,803.8214362008231,4022,29.071413312639507,803.8214362008231,4132,29.071413312639507,803.8214362008231,4244,29.071413312639507,803.8214362008231,4355,29.071413312639507,803.8214362008231,4465,29.071413312639507,803.8214362008231,4577,29.071413312639507,803.8214362008231,4688,29.071413312639507,803.8214362008231,4799,29.071413312639507,803.8214362008231,4911]","[1397,1397,1000,0,397,""smooth"",""down"",""down"",""good_move"",4160,2762,2363.4,1398,398.6,""smooth"",""down"",""down"",""good_move"",7381,3221,2819.2,4160,401.8,""smooth"",""down"",""down"",""good_move"",10620,3238,2914.7,7382,323.3,""smooth"",""left"",""left"",""good_move"",14343,3723,3401.4,10620,321.6,""smooth"",""left"",""left"",""good_move"",17814,3471,3144.2,14343,326.8,""smooth"",""left"",""left"",""good_move""]","",""
"4337","","<div style=""width:500px;"">
  <p>What determined the result of this run?</p>
  </div>","75","html-slider-response","20","243713","0.0-5.0-1.2","103","1","2025-07-16 10:46:11","1f75c3e559b7213887762d5229550c2b","14.201.163.64","Mozilla/5.0 (Windows NT 10.0; Win64; x64; rv:140.0) Gecko/20100101 Firefox/140.0","","Firefox","140.0","Windows","10.0","https://app.prolific.com/","en-US,en;q=0.5","642cb1f7f42c4e0a6c5d4eef","686e379bc37a29ffa5cdc956","687782e1b40655a8275e97b9","1","1","642cb1f7f42c4e0a6c5d4eef","1","1","2025-07-16T10:50:20.924Z","","","","","","","","","","","AttribQ","","50","","","","","","","","","","","","","","","","","","","","","","","","","","","","",""
"3016","","<div style=""width:500px;"">
  <p>How much control did you have over the ball?</p>
  </div>","76","html-slider-response","21","246731","0.0-5.0-2.2","103","1","2025-07-16 10:46:11","1f75c3e559b7213887762d5229550c2b","14.201.163.64","Mozilla/5.0 (Windows NT 10.0; Win64; x64; rv:140.0) Gecko/20100101 Firefox/140.0","","Firefox","140.0","Windows","10.0","https://app.prolific.com/","en-US,en;q=0.5","642cb1f7f42c4e0a6c5d4eef","686e379bc37a29ffa5cdc956","687782e1b40655a8275e97b9","1","1","642cb1f7f42c4e0a6c5d4eef","1","1","2025-07-16T10:50:23.942Z","","","","","","","","","","","ControlQ","","50","","","","","","","","","","","","","","","","","","","","","","","","","","","","",""
"3539","","<div style=""width:500px;"">
  <p>How would you describe your current emotional state?</p>
  </div>","51","html-slider-response","22","250272","0.0-5.0-3.2","103","1","2025-07-16 10:46:11","1f75c3e559b7213887762d5229550c2b","14.201.163.64","Mozilla/5.0 (Windows NT 10.0; Win64; x64; rv:140.0) Gecko/20100101 Firefox/140.0","","Firefox","140.0","Windows","10.0","https://app.prolific.com/","en-US,en;q=0.5","642cb1f7f42c4e0a6c5d4eef","686e379bc37a29ffa5cdc956","687782e1b40655a8275e97b9","1","1","642cb1f7f42c4e0a6c5d4eef","1","1","2025-07-16T10:50:27.483Z","","","","","","","","","","","StressQ","","50","","","","","","","","","","","","","","","","","","","","","","","","","","","","",""
"2535","","<div style=""width:500px;"">
  <p>What best describes how you currently feel?</p>
  </div>","37","html-slider-response","23","252807","0.0-5.0-4.2","103","1","2025-07-16 10:46:11","1f75c3e559b7213887762d5229550c2b","14.201.163.64","Mozilla/5.0 (Windows NT 10.0; Win64; x64; rv:140.0) Gecko/20100101 Firefox/140.0","","Firefox","140.0","Windows","10.0","https://app.prolific.com/","en-US,en;q=0.5","642cb1f7f42c4e0a6c5d4eef","686e379bc37a29ffa5cdc956","687782e1b40655a8275e97b9","1","1","642cb1f7f42c4e0a6c5d4eef","1","1","2025-07-16T10:50:30.018Z","","","","","","","","","","","MotivationQ","","50","","","","","","","","","","","","","","","","","","","","","","","","","","","","",""
"","","","","ctl-task-cpt","24","286292","0.0-5.0-0.3","103","1","2025-07-16 10:46:11","1f75c3e559b7213887762d5229550c2b","14.201.163.64","Mozilla/5.0 (Windows NT 10.0; Win64; x64; rv:140.0) Gecko/20100101 Firefox/140.0","","Firefox","140.0","Windows","10.0","https://app.prolific.com/","en-US,en;q=0.5","642cb1f7f42c4e0a6c5d4eef","686e379bc37a29ffa5cdc956","687782e1b40655a8275e97b9","1","1","642cb1f7f42c4e0a6c5d4eef","1","1","2025-07-16T10:51:03.503Z","","","","","","","","","","","","","","win-only","1","g1:NE,g2:SW","0.7","4","0","259576","1096","6102","30469","1","4","8","6","2","8","8","24","16","0.18181818181818182","1226","3000","2240","[""down"",""left""]","{""num_key_presses"":6,""num_perfect"":4,""num_errors"":0,""num_randdir"":2,""num_randdir_good_moves"":2,""num_whilered"":0,""num_whileblue"":0,""num_blue"":2,""num_good_moves"":6}","[424.0714133126395,425.0714362008231,0,424.0714133126395,425.0714362008231,107,424.0714133126395,425.0714362008231,219,424.0714133126395,425.0714362008231,330,424.0714133126395,425.0714362008231,442,350.3214133126395,467.5714362008231,554,22.821413312639507,783.8214362008231,664,11.571413312639507,792.5714362008231,775,-83.4285866873605,823.8214362008231,886,82.8214133126395,765.0714362008231,996,86.5714133126395,761.3214362008231,1108,86.5714133126395,761.3214362008231,1220,86.5714133126395,761.3214362008231,1331,86.5714133126395,761.3214362008231,1445,86.5714133126395,761.3214362008231,1557,86.5714133126395,761.3214362008231,1669,86.5714133126395,761.3214362008231,1781,86.5714133126395,761.3214362008231,1893,86.5714133126395,761.3214362008231,2005,86.5714133126395,761.3214362008231,2116,86.5714133126395,761.3214362008231,2229,86.5714133126395,761.3214362008231,2341,86.5714133126395,761.3214362008231,2452,86.5714133126395,761.3214362008231,2564,86.5714133126395,761.3214362008231,2675,86.5714133126395,761.3214362008231,2789,86.5714133126395,761.3214362008231,2900,86.5714133126395,761.3214362008231,3011,86.5714133126395,761.3214362008231,3121,86.5714133126395,761.3214362008231,3233,86.5714133126395,761.3214362008231,3345,86.5714133126395,761.3214362008231,3456,86.5714133126395,761.3214362008231,3569,86.5714133126395,761.3214362008231,3678,86.5714133126395,761.3214362008231,3790,86.5714133126395,761.3214362008231,3902,86.5714133126395,761.3214362008231,4014,86.5714133126395,761.3214362008231,4125,86.5714133126395,761.3214362008231,4239,86.5714133126395,761.3214362008231,4351,86.5714133126395,761.3214362008231,4460,86.5714133126395,761.3214362008231,4573,86.5714133126395,761.3214362008231,4673,86.5714133126395,761.3214362008231,4782,86.5714133126395,761.3214362008231,4895]","[5424,5424,2981.8,2021,421.2,""smooth"",""down"",""down"",""good_move"",8636,3212,2713.4,5424,498.6,""oops"",""down"",""down"",""good_move"",11630,2993,2651.3,8637,341.7,""oops"",""down"",""down"",""good_move"",17766,6136,2370,15044,352,""smooth"",""left"",""left"",""good_move"",20996,3230,2179.5,17766,1050.5,""smooth"",""left"",""left"",""good_move"",24078,3082,2543.7,20996,538.3,""smooth"",""left"",""left"",""good_move""]","",""
"4012","","<div style=""width:500px;"">
  <p>What determined the result of this run?</p>
  </div>","80","html-slider-response","25","290307","0.0-5.0-1.3","103","1","2025-07-16 10:46:11","1f75c3e559b7213887762d5229550c2b","14.201.163.64","Mozilla/5.0 (Windows NT 10.0; Win64; x64; rv:140.0) Gecko/20100101 Firefox/140.0","","Firefox","140.0","Windows","10.0","https://app.prolific.com/","en-US,en;q=0.5","642cb1f7f42c4e0a6c5d4eef","686e379bc37a29ffa5cdc956","687782e1b40655a8275e97b9","1","1","642cb1f7f42c4e0a6c5d4eef","1","1","2025-07-16T10:51:07.518Z","","","","","","","","","","","AttribQ","","50","","","","","","","","","","","","","","","","","","","","","","","","","","","","",""
"2989","","<div style=""width:500px;"">
  <p>How much control did you have over the ball?</p>
  </div>","76","html-slider-response","26","293299","0.0-5.0-2.3","103","1","2025-07-16 10:46:11","1f75c3e559b7213887762d5229550c2b","14.201.163.64","Mozilla/5.0 (Windows NT 10.0; Win64; x64; rv:140.0) Gecko/20100101 Firefox/140.0","","Firefox","140.0","Windows","10.0","https://app.prolific.com/","en-US,en;q=0.5","642cb1f7f42c4e0a6c5d4eef","686e379bc37a29ffa5cdc956","687782e1b40655a8275e97b9","1","1","642cb1f7f42c4e0a6c5d4eef","1","1","2025-07-16T10:51:10.510Z","","","","","","","","","","","ControlQ","","50","","","","","","","","","","","","","","","","","","","","","","","","","","","","",""
"2089","","<div style=""width:500px;"">
  <p>How would you describe your current emotional state?</p>
  </div>","50","html-slider-response","27","295391","0.0-5.0-3.3","103","1","2025-07-16 10:46:11","1f75c3e559b7213887762d5229550c2b","14.201.163.64","Mozilla/5.0 (Windows NT 10.0; Win64; x64; rv:140.0) Gecko/20100101 Firefox/140.0","","Firefox","140.0","Windows","10.0","https://app.prolific.com/","en-US,en;q=0.5","642cb1f7f42c4e0a6c5d4eef","686e379bc37a29ffa5cdc956","687782e1b40655a8275e97b9","1","1","642cb1f7f42c4e0a6c5d4eef","1","1","2025-07-16T10:51:12.602Z","","","","","","","","","","","StressQ","","50","","","","","","","","","","","","","","","","","","","","","","","","","","","","",""
"2854","","<div style=""width:500px;"">
  <p>What best describes how you currently feel?</p>
  </div>","39","html-slider-response","28","298248","0.0-5.0-4.3","103","1","2025-07-16 10:46:11","1f75c3e559b7213887762d5229550c2b","14.201.163.64","Mozilla/5.0 (Windows NT 10.0; Win64; x64; rv:140.0) Gecko/20100101 Firefox/140.0","","Firefox","140.0","Windows","10.0","https://app.prolific.com/","en-US,en;q=0.5","642cb1f7f42c4e0a6c5d4eef","686e379bc37a29ffa5cdc956","687782e1b40655a8275e97b9","1","1","642cb1f7f42c4e0a6c5d4eef","1","1","2025-07-16T10:51:15.459Z","","","","","","","","","","","MotivationQ","","50","","","","","","","","","","","","","","","","","","","","","","","","","","","","",""
"","","","","ctl-task-cpt","29","331359","0.0-5.0-0.4","103","1","2025-07-16 10:46:11","1f75c3e559b7213887762d5229550c2b","14.201.163.64","Mozilla/5.0 (Windows NT 10.0; Win64; x64; rv:140.0) Gecko/20100101 Firefox/140.0","","Firefox","140.0","Windows","10.0","https://app.prolific.com/","en-US,en;q=0.5","642cb1f7f42c4e0a6c5d4eef","686e379bc37a29ffa5cdc956","687782e1b40655a8275e97b9","1","1","642cb1f7f42c4e0a6c5d4eef","1","1","2025-07-16T10:51:48.570Z","","","","","","","","","","","","","","win-only","3","g1:SW,g2:NE","0.6","5","0","305016","1097","6099","30100","1","4","4","6","2","4","4","28","24","0.21212121212121213","1152","3000","2335","[""up"",""right""]","{""num_key_presses"":6,""num_perfect"":5,""num_errors"":0,""num_randdir"":1,""num_randdir_good_moves"":1,""num_whilered"":0,""num_whileblue"":0,""num_blue"":2,""num_good_moves"":6}","[424.0714133126395,417.5714362008231,0,424.0714133126395,417.5714362008231,102,424.0714133126395,417.5714362008231,214,424.0714133126395,417.5714362008231,323,424.0714133126395,417.5714362008231,436,124.0714133126395,696.3214362008231,548,195.3214133126395,602.5714362008231,659,701.5714133126395,100.0714362008231,769,725.3214133126395,83.8214362008231,882,754.0714133126395,68.8214362008231,991,754.0714133126395,68.8214362008231,1103,754.0714133126395,68.8214362008231,1217,754.0714133126395,68.8214362008231,1327,754.0714133126395,68.8214362008231,1439,754.0714133126395,68.8214362008231,1549,754.0714133126395,68.8214362008231,1662,754.0714133126395,68.8214362008231,1773,754.0714133126395,68.8214362008231,1883,754.0714133126395,68.8214362008231,1996,754.0714133126395,68.8214362008231,2108,754.0714133126395,68.8214362008231,2218,754.0714133126395,68.8214362008231,2330,754.0714133126395,68.8214362008231,2442,754.0714133126395,68.8214362008231,2554,754.0714133126395,68.8214362008231,2667,754.0714133126395,68.8214362008231,2777,754.0714133126395,68.8214362008231,2889,754.0714133126395,68.8214362008231,3000,754.0714133126395,68.8214362008231,3111,754.0714133126395,68.8214362008231,3222,754.0714133126395,68.8214362008231,3333,754.0714133126395,68.8214362008231,3444,754.0714133126395,68.8214362008231,3554,754.0714133126395,68.8214362008231,3667,754.0714133126395,68.8214362008231,3778,754.0714133126395,68.8214362008231,3888,754.0714133126395,68.8214362008231,3999,754.0714133126395,68.8214362008231,4109,754.0714133126395,68.8214362008231,4222,754.0714133126395,68.8214362008231,4334,754.0714133126395,68.8214362008231,4445,754.0714133126395,68.8214362008231,4560,754.0714133126395,68.8214362008231,4668,754.0714133126395,68.8214362008231,4780,754.0714133126395,68.8214362008231,4890]","[4566,4566,2230.6,2008,327.4,""smooth"",""up"",""up"",""good_move"",7713,3147,2601.6,4566,545.4,""smooth"",""up"",""up"",""good_move"",10781,3068,2487,7713,581,""smooth"",""up"",""up"",""good_move"",14069,3288,2963,10781,325,""smooth"",""right"",""right"",""good_move"",16682,2612,2242.6,14070,369.4,""smooth"",""right"",""right"",""good_move"",23713,7031,2809,20546,358,""oops"",""right"",""right"",""good_move""]","",""
"4562","","<div style=""width:500px;"">
  <p>What determined the result of this run?</p>
  </div>","82","html-slider-response","30","335922","0.0-5.0-1.4","103","1","2025-07-16 10:46:11","1f75c3e559b7213887762d5229550c2b","14.201.163.64","Mozilla/5.0 (Windows NT 10.0; Win64; x64; rv:140.0) Gecko/20100101 Firefox/140.0","","Firefox","140.0","Windows","10.0","https://app.prolific.com/","en-US,en;q=0.5","642cb1f7f42c4e0a6c5d4eef","686e379bc37a29ffa5cdc956","687782e1b40655a8275e97b9","1","1","642cb1f7f42c4e0a6c5d4eef","1","1","2025-07-16T10:51:53.133Z","","","","","","","","","","","AttribQ","","50","","","","","","","","","","","","","","","","","","","","","","","","","","","","",""
"3327","","<div style=""width:500px;"">
  <p>How much control did you have over the ball?</p>
  </div>","82","html-slider-response","31","339251","0.0-5.0-2.4","103","1","2025-07-16 10:46:11","1f75c3e559b7213887762d5229550c2b","14.201.163.64","Mozilla/5.0 (Windows NT 10.0; Win64; x64; rv:140.0) Gecko/20100101 Firefox/140.0","","Firefox","140.0","Windows","10.0","https://app.prolific.com/","en-US,en;q=0.5","642cb1f7f42c4e0a6c5d4eef","686e379bc37a29ffa5cdc956","687782e1b40655a8275e97b9","1","1","642cb1f7f42c4e0a6c5d4eef","1","1","2025-07-16T10:51:56.462Z","","","","","","","","","","","ControlQ","","50","","","","","","","","","","","","","","","","","","","","","","","","","","","","",""
"1941","","<div style=""width:500px;"">
  <p>How would you describe your current emotional state?</p>
  </div>","50","html-slider-response","32","341194","0.0-5.0-3.4","103","1","2025-07-16 10:46:11","1f75c3e559b7213887762d5229550c2b","14.201.163.64","Mozilla/5.0 (Windows NT 10.0; Win64; x64; rv:140.0) Gecko/20100101 Firefox/140.0","","Firefox","140.0","Windows","10.0","https://app.prolific.com/","en-US,en;q=0.5","642cb1f7f42c4e0a6c5d4eef","686e379bc37a29ffa5cdc956","687782e1b40655a8275e97b9","1","1","642cb1f7f42c4e0a6c5d4eef","1","1","2025-07-16T10:51:58.405Z","","","","","","","","","","","StressQ","","50","","","","","","","","","","","","","","","","","","","","","","","","","","","","",""
"1777","","<div style=""width:500px;"">
  <p>What best describes how you currently feel?</p>
  </div>","40","html-slider-response","33","342974","0.0-5.0-4.4","103","1","2025-07-16 10:46:11","1f75c3e559b7213887762d5229550c2b","14.201.163.64","Mozilla/5.0 (Windows NT 10.0; Win64; x64; rv:140.0) Gecko/20100101 Firefox/140.0","","Firefox","140.0","Windows","10.0","https://app.prolific.com/","en-US,en;q=0.5","642cb1f7f42c4e0a6c5d4eef","686e379bc37a29ffa5cdc956","687782e1b40655a8275e97b9","1","1","642cb1f7f42c4e0a6c5d4eef","1","1","2025-07-16T10:52:00.185Z","","","","","","","","","","","MotivationQ","","50","","","","","","","","","","","","","","","","","","","","","","","","","","","","",""
"","","","","ctl-task-cpt","34","403600","0.0-5.0-0.5","103","1","2025-07-16 10:46:11","1f75c3e559b7213887762d5229550c2b","14.201.163.64","Mozilla/5.0 (Windows NT 10.0; Win64; x64; rv:140.0) Gecko/20100101 Firefox/140.0","","Firefox","140.0","Windows","10.0","https://app.prolific.com/","en-US,en;q=0.5","642cb1f7f42c4e0a6c5d4eef","686e379bc37a29ffa5cdc956","687782e1b40655a8275e97b9","1","1","642cb1f7f42c4e0a6c5d4eef","1","1","2025-07-16T10:53:00.811Z","","","","","","","","","","","","","","win-only","2","g1:SE,g2:NW","0.5","6","0","349742","1048","6062","57614","1","4","8","6","2","8","8","36","28","0.2727272727272727","912","3000","1245","[""left"",""up""]","{""num_key_presses"":16,""num_perfect"":9,""num_errors"":0,""num_randdir"":7,""num_randdir_good_moves"":2,""num_whilered"":0,""num_whileblue"":0,""num_blue"":1,""num_good_moves"":11}","[417.8214133126395,415.0714362008231,0,417.8214133126395,415.0714362008231,110,417.8214133126395,415.0714362008231,222,417.8214133126395,415.0714362008231,333,312.8214133126395,318.8214362008231,444,90.3214133126395,87.5714362008231,558,77.8214133126395,73.8214362008231,669,69.0714133126395,66.3214362008231,780,69.0714133126395,66.3214362008231,893,69.0714133126395,66.3214362008231,1007,69.0714133126395,66.3214362008231,1119,69.0714133126395,66.3214362008231,1231,69.0714133126395,66.3214362008231,1342,69.0714133126395,66.3214362008231,1442,69.0714133126395,66.3214362008231,1542,69.0714133126395,66.3214362008231,1655,69.0714133126395,66.3214362008231,1766,69.0714133126395,66.3214362008231,1879,69.0714133126395,66.3214362008231,1990,69.0714133126395,66.3214362008231,2101,69.0714133126395,66.3214362008231,2212,69.0714133126395,66.3214362008231,2324,69.0714133126395,66.3214362008231,2434,69.0714133126395,66.3214362008231,2547,69.0714133126395,66.3214362008231,2660,69.0714133126395,66.3214362008231,2773,69.0714133126395,66.3214362008231,2884,69.0714133126395,66.3214362008231,2995,69.0714133126395,66.3214362008231,3105,69.0714133126395,66.3214362008231,3216,69.0714133126395,66.3214362008231,3329,69.0714133126395,66.3214362008231,3436,69.0714133126395,66.3214362008231,3547,69.0714133126395,66.3214362008231,3659,69.0714133126395,66.3214362008231,3771,69.0714133126395,66.3214362008231,3881,69.0714133126395,66.3214362008231,3993,69.0714133126395,66.3214362008231,4104,69.0714133126395,66.3214362008231,4216,69.0714133126395,66.3214362008231,4328,69.0714133126395,66.3214362008231,4439,69.0714133126395,66.3214362008231,4552,69.0714133126395,66.3214362008231,4664,69.0714133126395,66.3214362008231,4777,69.0714133126395,66.3214362008231,4887,69.0714133126395,66.3214362008231,4998]","[1380,1380,1000,0,380,""smooth"",""up"",""up"",""good_move"",4693,3313,2941.2,1380,371.8,""smooth"",""up"",""up"",""good_move"",7762,3069,1854.5,4693,1214.5,""oops"",""up"",""up"",""good_move"",10788,3026,2307.4,7762,718.6,""smooth"",""left"",""left"",""good_move"",14104,3316,3006.3,10788,309.7,""smooth"",""left"",""left"",""good_move"",17901,3797,3451.7,14104,345.3,""oops"",""left"",""right"",""bad_move"",20738,2837,2502.5,17901,334.5,""smooth"",""left"",""left"",""good_move"",24103,3365,2981,20738,384,""oops"",""left"",""right"",""bad_move"",30413,6310,2331.4,27688,393.6,""oops"",""left"",""down"",""bad_move"",33196,2782,2340.4,30414,441.6,""oops"",""left"",""right"",""bad_move"",36059,2863,2513.9,33196,349.1,""smooth"",""left"",""left"",""good_move"",39113,3054,1865.6,36059,1188.4,""smooth"",""left"",""left"",""good_move"",42140,3027,2533.5,39113,493.5,""oops"",""left"",""left"",""good_move"",45175,3035,2122.8,42140,913.2,""oops"",""up"",""down"",""bad_move"",48135,2959,2598,45176,361,""smooth"",""up"",""up"",""good_move"",51271,3135,2294.3,48136,840.7,""smooth"",""up"",""up"",""good_move""]","",""
"4402","","<div style=""width:500px;"">
  <p>What determined the result of this run?</p>
  </div>","54","html-slider-response","35","408004","0.0-5.0-1.5","103","1","2025-07-16 10:46:11","1f75c3e559b7213887762d5229550c2b","14.201.163.64","Mozilla/5.0 (Windows NT 10.0; Win64; x64; rv:140.0) Gecko/20100101 Firefox/140.0","","Firefox","140.0","Windows","10.0","https://app.prolific.com/","en-US,en;q=0.5","642cb1f7f42c4e0a6c5d4eef","686e379bc37a29ffa5cdc956","687782e1b40655a8275e97b9","1","1","642cb1f7f42c4e0a6c5d4eef","1","1","2025-07-16T10:53:05.215Z","","","","","","","","","","","AttribQ","","50","","","","","","","","","","","","","","","","","","","","","","","","","","","","",""
"2705","","<div style=""width:500px;"">
  <p>How much control did you have over the ball?</p>
  </div>","58","html-slider-response","36","410709","0.0-5.0-2.5","103","1","2025-07-16 10:46:11","1f75c3e559b7213887762d5229550c2b","14.201.163.64","Mozilla/5.0 (Windows NT 10.0; Win64; x64; rv:140.0) Gecko/20100101 Firefox/140.0","","Firefox","140.0","Windows","10.0","https://app.prolific.com/","en-US,en;q=0.5","642cb1f7f42c4e0a6c5d4eef","686e379bc37a29ffa5cdc956","687782e1b40655a8275e97b9","1","1","642cb1f7f42c4e0a6c5d4eef","1","1","2025-07-16T10:53:07.920Z","","","","","","","","","","","ControlQ","","50","","","","","","","","","","","","","","","","","","","","","","","","","","","","",""
"3415","","<div style=""width:500px;"">
  <p>How would you describe your current emotional state?</p>
  </div>","50","html-slider-response","37","414125","0.0-5.0-3.5","103","1","2025-07-16 10:46:11","1f75c3e559b7213887762d5229550c2b","14.201.163.64","Mozilla/5.0 (Windows NT 10.0; Win64; x64; rv:140.0) Gecko/20100101 Firefox/140.0","","Firefox","140.0","Windows","10.0","https://app.prolific.com/","en-US,en;q=0.5","642cb1f7f42c4e0a6c5d4eef","686e379bc37a29ffa5cdc956","687782e1b40655a8275e97b9","1","1","642cb1f7f42c4e0a6c5d4eef","1","1","2025-07-16T10:53:11.337Z","","","","","","","","","","","StressQ","","50","","","","","","","","","","","","","","","","","","","","","","","","","","","","",""
"2320","","<div style=""width:500px;"">
  <p>What best describes how you currently feel?</p>
  </div>","33","html-slider-response","38","416447","0.0-5.0-4.5","103","1","2025-07-16 10:46:11","1f75c3e559b7213887762d5229550c2b","14.201.163.64","Mozilla/5.0 (Windows NT 10.0; Win64; x64; rv:140.0) Gecko/20100101 Firefox/140.0","","Firefox","140.0","Windows","10.0","https://app.prolific.com/","en-US,en;q=0.5","642cb1f7f42c4e0a6c5d4eef","686e379bc37a29ffa5cdc956","687782e1b40655a8275e97b9","1","1","642cb1f7f42c4e0a6c5d4eef","1","1","2025-07-16T10:53:13.659Z","","","","","","","","","","","MotivationQ","","50","","","","","","","","","","","","","","","","","","","","","","","","","","","","",""
"","","","","ctl-task-cpt","39","589822","0.0-5.0-0.6","103","1","2025-07-16 10:46:11","1f75c3e559b7213887762d5229550c2b","14.201.163.64","Mozilla/5.0 (Windows NT 10.0; Win64; x64; rv:140.0) Gecko/20100101 Firefox/140.0","","Firefox","140.0","Windows","10.0","https://app.prolific.com/","en-US,en;q=0.5","642cb1f7f42c4e0a6c5d4eef","686e379bc37a29ffa5cdc956","687782e1b40655a8275e97b9","1","1","642cb1f7f42c4e0a6c5d4eef","1","1","2025-07-16T10:56:07.034Z","","","","","","","","","","","","","","win-only","2","g1:SE,g2:NW","0.4","7","0","423217","69062","74073","170369","1","4","8","6","2","-8","-9","27","36","0.20454545454545456","1666","3000","-945","[""left"",""up""]","{""num_key_presses"":26,""num_perfect"":8,""num_errors"":1,""num_randdir"":17,""num_randdir_good_moves"":5,""num_whilered"":0,""num_whileblue"":1,""num_blue"":6,""num_good_moves"":14}","[419.0714133126395,410.0714362008231,1,419.0714133126395,410.0714362008231,105,419.0714133126395,410.0714362008231,218,419.0714133126395,410.0714362008231,329,419.0714133126395,410.0714362008231,442,817.8214133126395,332.5714362008231,551,945.3214133126395,330.0714362008231,663,945.3214133126395,330.0714362008231,776,945.3214133126395,330.0714362008231,884,189.0714133126395,163.8214362008231,996,-54.67858668736049,82.5714362008231,1109,-85.9285866873605,52.5714362008231,1220,-28.428586687360493,46.3214362008231,1332,105.3214133126395,63.8214362008231,1444,105.3214133126395,63.8214362008231,1555,105.3214133126395,63.8214362008231,1668,105.3214133126395,63.8214362008231,1779,105.3214133126395,63.8214362008231,1894,105.3214133126395,63.8214362008231,2002,105.3214133126395,63.8214362008231,2115,105.3214133126395,63.8214362008231,2225,105.3214133126395,63.8214362008231,2336,105.3214133126395,63.8214362008231,2450,105.3214133126395,63.8214362008231,2561,105.3214133126395,63.8214362008231,2673,105.3214133126395,63.8214362008231,2785,105.3214133126395,63.8214362008231,2894,105.3214133126395,63.8214362008231,3008,105.3214133126395,63.8214362008231,3116,105.3214133126395,63.8214362008231,3229,105.3214133126395,63.8214362008231,3338,105.3214133126395,63.8214362008231,3451,105.3214133126395,63.8214362008231,3564,105.3214133126395,63.8214362008231,3676,105.3214133126395,63.8214362008231,3787,105.3214133126395,63.8214362008231,3898,105.3214133126395,63.8214362008231,4008,105.3214133126395,63.8214362008231,4118,105.3214133126395,63.8214362008231,4228,105.3214133126395,63.8214362008231,4342,105.3214133126395,63.8214362008231,4453,105.3214133126395,63.8214362008231,4564,105.3214133126395,63.8214362008231,4677,105.3214133126395,63.8214362008231,4787,105.3214133126395,63.8214362008231,4898]","[1370,1370,1000,0,370,""oops"",""up"",""up"",""good_move"",4461,3091,2738.6,1370,352.4,""smooth"",""up"",""up"",""good_move"",7466,3005,2513.9,4461,491.1,""oops"",""up"",""down"",""bad_move"",10181,2714,2373.8,7467,340.2,""smooth"",""up"",""up"",""good_move"",13199,3018,1776.5,10181,1241.5,""oops"",""up"",""right"",""bad_move"",15741,2541,2136.7,13200,404.3,""smooth"",""up"",""up"",""good_move"",22840,7099,2962,19465,413,""smooth"",""left"",""left"",""good_move"",25974,3134,2593.7,22840,540.3,""oops"",""left"",""right"",""bad_move"",28260,2286,1881.8,25974,404.2,""oops"",""left"",""down"",""bad_move"",37942,9682,2438.6,35074,429.4,""oops"",""left"",""up"",""good_move"",41011,3069,1728.2,37942,1340.8,""oops"",""left"",""right"",""bad_move"",43812,2801,2377.3,41011,423.7,""oops"",""left"",""left"",""good_move"",46842,3030,2570.3,43812,459.7,""smooth"",""left"",""left"",""good_move"",49884,3042,2086.8,46842,955.2,""oops"",""left"",""right"",""bad_move"",52568,2684,2292.6,49884,391.4,""oops"",""left"",""right"",""bad_move"",55824,3256,2943.4,52568,312.6,""oops"",""left"",""down"",""bad_move"",58824,3000,2652.2,55824,347.8,""oops"",""left"",""down"",""bad_move"",61564,2740,2379.1,58824,360.9,""smooth"",""left"",""left"",""good_move"",64552,2988,2712,61564,276,""while_blue"",""left"",""left"",""good_move"",68072,3520,3130.6,64552,389.4,""smooth"",""left"",""left"",""good_move"",78226,10154,2646.3,75202,377.7,""smooth"",""left"",""left"",""good_move"",81384,3158,2699.3,78226,458.7,""oops"",""left"",""left"",""good_move"",84475,3090,2526.1,81385,563.9,""oops"",""up"",""down"",""bad_move"",87833,3358,2926.5,84475,431.5,""oops"",""up"",""down"",""bad_move"",90958,3124,2733.2,87834,390.8,""oops"",""up"",""up"",""good_move"",94030,3072,2447,90958,625,""oops"",""up"",""down"",""bad_move""]","",""
"4490","","<div style=""width:500px;"">
  <p>What determined the result of this run?</p>
  </div>","18","html-slider-response","40","594313","0.0-5.0-1.6","103","1","2025-07-16 10:46:11","1f75c3e559b7213887762d5229550c2b","14.201.163.64","Mozilla/5.0 (Windows NT 10.0; Win64; x64; rv:140.0) Gecko/20100101 Firefox/140.0","","Firefox","140.0","Windows","10.0","https://app.prolific.com/","en-US,en;q=0.5","642cb1f7f42c4e0a6c5d4eef","686e379bc37a29ffa5cdc956","687782e1b40655a8275e97b9","1","1","642cb1f7f42c4e0a6c5d4eef","1","1","2025-07-16T10:56:11.525Z","","","","","","","","","","","AttribQ","","50","","","","","","","","","","","","","","","","","","","","","","","","","","","","",""
"2701","","<div style=""width:500px;"">
  <p>How much control did you have over the ball?</p>
  </div>","19","html-slider-response","41","597017","0.0-5.0-2.6","103","1","2025-07-16 10:46:11","1f75c3e559b7213887762d5229550c2b","14.201.163.64","Mozilla/5.0 (Windows NT 10.0; Win64; x64; rv:140.0) Gecko/20100101 Firefox/140.0","","Firefox","140.0","Windows","10.0","https://app.prolific.com/","en-US,en;q=0.5","642cb1f7f42c4e0a6c5d4eef","686e379bc37a29ffa5cdc956","687782e1b40655a8275e97b9","1","1","642cb1f7f42c4e0a6c5d4eef","1","1","2025-07-16T10:56:14.228Z","","","","","","","","","","","ControlQ","","50","","","","","","","","","","","","","","","","","","","","","","","","","","","","",""
"3366","","<div style=""width:500px;"">
  <p>How would you describe your current emotional state?</p>
  </div>","50","html-slider-response","42","600385","0.0-5.0-3.6","103","1","2025-07-16 10:46:11","1f75c3e559b7213887762d5229550c2b","14.201.163.64","Mozilla/5.0 (Windows NT 10.0; Win64; x64; rv:140.0) Gecko/20100101 Firefox/140.0","","Firefox","140.0","Windows","10.0","https://app.prolific.com/","en-US,en;q=0.5","642cb1f7f42c4e0a6c5d4eef","686e379bc37a29ffa5cdc956","687782e1b40655a8275e97b9","1","1","642cb1f7f42c4e0a6c5d4eef","1","1","2025-07-16T10:56:17.597Z","","","","","","","","","","","StressQ","","50","","","","","","","","","","","","","","","","","","","","","","","","","","","","",""
"4783","","<div style=""width:500px;"">
  <p>What best describes how you currently feel?</p>
  </div>","29","html-slider-response","43","605170","0.0-5.0-4.6","103","1","2025-07-16 10:46:11","1f75c3e559b7213887762d5229550c2b","14.201.163.64","Mozilla/5.0 (Windows NT 10.0; Win64; x64; rv:140.0) Gecko/20100101 Firefox/140.0","","Firefox","140.0","Windows","10.0","https://app.prolific.com/","en-US,en;q=0.5","642cb1f7f42c4e0a6c5d4eef","686e379bc37a29ffa5cdc956","687782e1b40655a8275e97b9","1","1","642cb1f7f42c4e0a6c5d4eef","1","1","2025-07-16T10:56:22.382Z","","","","","","","","","","","MotivationQ","","50","","","","","","","","","","","","","","","","","","","","","","","","","","","","",""
"","","","","ctl-task-cpt","44","667722","0.0-5.0-0.7","103","1","2025-07-16 10:46:11","1f75c3e559b7213887762d5229550c2b","14.201.163.64","Mozilla/5.0 (Windows NT 10.0; Win64; x64; rv:140.0) Gecko/20100101 Firefox/140.0","","Firefox","140.0","Windows","10.0","https://app.prolific.com/","en-US,en;q=0.5","642cb1f7f42c4e0a6c5d4eef","686e379bc37a29ffa5cdc956","687782e1b40655a8275e97b9","1","1","642cb1f7f42c4e0a6c5d4eef","1","1","2025-07-16T10:57:24.933Z","","","","","","","","","","","","","","win-only","1","g1:NE,g2:SW","0.3","8","0","611945","1407","6413","59538","1","4","4","6","2","4","3","30","27","0.22727272727272727","1312","3000","1455","[""down"",""left""]","{""num_key_presses"":14,""num_perfect"":5,""num_errors"":1,""num_randdir"":8,""num_randdir_good_moves"":4,""num_whilered"":0,""num_whileblue"":1,""num_blue"":4,""num_good_moves"":10}","[425.3214133126395,418.8214362008231,0,425.3214133126395,418.8214362008231,111,425.3214133126395,418.8214362008231,218,425.3214133126395,418.8214362008231,329,425.3214133126395,418.8214362008231,443,677.8214133126395,218.8214362008231,552,689.0714133126395,206.3214362008231,662,594.0714133126395,291.3214362008231,773,0.3214133126395069,866.3214362008231,884,-3.428586687360493,866.3214362008231,994,67.8214133126395,808.8214362008231,1106,89.0714133126395,793.8214362008231,1216,89.0714133126395,793.8214362008231,1328,89.0714133126395,793.8214362008231,1441,89.0714133126395,793.8214362008231,1549,89.0714133126395,793.8214362008231,1664,89.0714133126395,793.8214362008231,1774,89.0714133126395,793.8214362008231,1884,89.0714133126395,793.8214362008231,1995,89.0714133126395,793.8214362008231,2107,89.0714133126395,793.8214362008231,2217,89.0714133126395,793.8214362008231,2328,89.0714133126395,793.8214362008231,2440,89.0714133126395,793.8214362008231,2549,89.0714133126395,793.8214362008231,2662,89.0714133126395,793.8214362008231,2774,89.0714133126395,793.8214362008231,2884,89.0714133126395,793.8214362008231,2997,89.0714133126395,793.8214362008231,3108,89.0714133126395,793.8214362008231,3224,89.0714133126395,793.8214362008231,3333,89.0714133126395,793.8214362008231,3443,89.0714133126395,793.8214362008231,3554,89.0714133126395,793.8214362008231,3667,89.0714133126395,793.8214362008231,3779,89.0714133126395,793.8214362008231,3893,89.0714133126395,793.8214362008231,4002,89.0714133126395,793.8214362008231,4114,89.0714133126395,793.8214362008231,4226,89.0714133126395,793.8214362008231,4337,89.0714133126395,793.8214362008231,4446,89.0714133126395,793.8214362008231,4559,89.0714133126395,793.8214362008231,4670,89.0714133126395,793.8214362008231,4782,89.0714133126395,793.8214362008231,4893]","[9621,9621,2952.5,6251,417.5,""oops"",""down"",""right"",""bad_move"",12073,2452,2040.8,9621,411.2,""smooth"",""down"",""down"",""good_move"",15466,3393,3093,12073,300,""while_blue"",""down"",""left"",""good_move"",18582,3116,2742.3,15466,373.7,""smooth"",""down"",""down"",""good_move"",22056,3474,3042.9,18582,431.1,""oops"",""down"",""down"",""good_move"",25022,2966,2573.6,22056,392.4,""smooth"",""left"",""left"",""good_move"",31623,6602,2491,28732,401,""oops"",""left"",""left"",""good_move"",34859,3235,2735.4,31624,499.6,""oops"",""left"",""right"",""bad_move"",37239,2380,1987.7,34859,392.3,""oops"",""left"",""up"",""bad_move"",40511,3272,2925.1,37239,346.9,""oops"",""left"",""right"",""bad_move"",43644,3133,2769.1,40511,363.9,""oops"",""left"",""left"",""good_move"",46719,3075,2525.7,43644,549.3,""smooth"",""left"",""left"",""good_move"",49799,3080,2699.7,46719,380.3,""oops"",""left"",""left"",""good_move"",52828,3028,2563.7,49800,464.3,""smooth"",""down"",""down"",""good_move""]","",""
"3984","","<div style=""width:500px;"">
  <p>What determined the result of this run?</p>
  </div>","62","html-slider-response","45","671707","0.0-5.0-1.7","103","1","2025-07-16 10:46:11","1f75c3e559b7213887762d5229550c2b","14.201.163.64","Mozilla/5.0 (Windows NT 10.0; Win64; x64; rv:140.0) Gecko/20100101 Firefox/140.0","","Firefox","140.0","Windows","10.0","https://app.prolific.com/","en-US,en;q=0.5","642cb1f7f42c4e0a6c5d4eef","686e379bc37a29ffa5cdc956","687782e1b40655a8275e97b9","1","1","642cb1f7f42c4e0a6c5d4eef","1","1","2025-07-16T10:57:28.919Z","","","","","","","","","","","AttribQ","","50","","","","","","","","","","","","","","","","","","","","","","","","","","","","",""
"2916","","<div style=""width:500px;"">
  <p>How much control did you have over the ball?</p>
  </div>","61","html-slider-response","46","674625","0.0-5.0-2.7","103","1","2025-07-16 10:46:11","1f75c3e559b7213887762d5229550c2b","14.201.163.64","Mozilla/5.0 (Windows NT 10.0; Win64; x64; rv:140.0) Gecko/20100101 Firefox/140.0","","Firefox","140.0","Windows","10.0","https://app.prolific.com/","en-US,en;q=0.5","642cb1f7f42c4e0a6c5d4eef","686e379bc37a29ffa5cdc956","687782e1b40655a8275e97b9","1","1","642cb1f7f42c4e0a6c5d4eef","1","1","2025-07-16T10:57:31.836Z","","","","","","","","","","","ControlQ","","50","","","","","","","","","","","","","","","","","","","","","","","","","","","","",""
"3922","","<div style=""width:500px;"">
  <p>How would you describe your current emotional state?</p>
  </div>","51","html-slider-response","47","678548","0.0-5.0-3.7","103","1","2025-07-16 10:46:11","1f75c3e559b7213887762d5229550c2b","14.201.163.64","Mozilla/5.0 (Windows NT 10.0; Win64; x64; rv:140.0) Gecko/20100101 Firefox/140.0","","Firefox","140.0","Windows","10.0","https://app.prolific.com/","en-US,en;q=0.5","642cb1f7f42c4e0a6c5d4eef","686e379bc37a29ffa5cdc956","687782e1b40655a8275e97b9","1","1","642cb1f7f42c4e0a6c5d4eef","1","1","2025-07-16T10:57:35.759Z","","","","","","","","","","","StressQ","","50","","","","","","","","","","","","","","","","","","","","","","","","","","","","",""
"4255","","<div style=""width:500px;"">
  <p>What best describes how you currently feel?</p>
  </div>","25","html-slider-response","48","682804","0.0-5.0-4.7","103","1","2025-07-16 10:46:11","1f75c3e559b7213887762d5229550c2b","14.201.163.64","Mozilla/5.0 (Windows NT 10.0; Win64; x64; rv:140.0) Gecko/20100101 Firefox/140.0","","Firefox","140.0","Windows","10.0","https://app.prolific.com/","en-US,en;q=0.5","642cb1f7f42c4e0a6c5d4eef","686e379bc37a29ffa5cdc956","687782e1b40655a8275e97b9","1","1","642cb1f7f42c4e0a6c5d4eef","1","1","2025-07-16T10:57:40.016Z","","","","","","","","","","","MotivationQ","","50","","","","","","","","","","","","","","","","","","","","","","","","","","","","",""
"","","","","ctl-task-cpt","49","776680","0.0-5.0-0.8","103","1","2025-07-16 10:46:11","1f75c3e559b7213887762d5229550c2b","14.201.163.64","Mozilla/5.0 (Windows NT 10.0; Win64; x64; rv:140.0) Gecko/20100101 Firefox/140.0","","Firefox","140.0","Windows","10.0","https://app.prolific.com/","en-US,en;q=0.5","642cb1f7f42c4e0a6c5d4eef","686e379bc37a29ffa5cdc956","687782e1b40655a8275e97b9","1","1","642cb1f7f42c4e0a6c5d4eef","1","1","2025-07-16T10:59:13.891Z","","","","","","","","","","","","","","win-only","0","g1:NW,g2:SE","0.2","9","0","689581","1760","6768","90863","1","4","4","6","2","4","3","33","30","0.25","1301","3000","530","[""down"",""right""]","{""num_key_presses"":22,""num_perfect"":4,""num_errors"":1,""num_randdir"":17,""num_randdir_good_moves"":10,""num_whilered"":0,""num_whileblue"":1,""num_blue"":7,""num_good_moves"":14}","[425.3214133126395,413.8214362008231,0,425.3214133126395,413.8214362008231,113,425.3214133126395,413.8214362008231,224,425.3214133126395,413.8214362008231,334,359.0714133126395,333.8214362008231,447,209.0714133126395,130.0714362008231,558,216.5714133126395,143.8214362008231,669,562.8214133126395,587.5714362008231,781,655.3214133126395,728.8214362008231,893,750.3214133126395,793.8214362008231,1006,766.5714133126395,798.8214362008231,1116,766.5714133126395,798.8214362008231,1229,766.5714133126395,798.8214362008231,1339,766.5714133126395,798.8214362008231,1452,766.5714133126395,798.8214362008231,1563,766.5714133126395,798.8214362008231,1676,766.5714133126395,798.8214362008231,1788,766.5714133126395,798.8214362008231,1901,766.5714133126395,798.8214362008231,2012,766.5714133126395,798.8214362008231,2124,766.5714133126395,798.8214362008231,2224,766.5714133126395,798.8214362008231,2332,766.5714133126395,798.8214362008231,2442,766.5714133126395,798.8214362008231,2556,766.5714133126395,798.8214362008231,2667,766.5714133126395,798.8214362008231,2778,766.5714133126395,798.8214362008231,2890,766.5714133126395,798.8214362008231,3002,766.5714133126395,798.8214362008231,3113,766.5714133126395,798.8214362008231,3225,766.5714133126395,798.8214362008231,3337,766.5714133126395,798.8214362008231,3449,766.5714133126395,798.8214362008231,3561,766.5714133126395,798.8214362008231,3673,766.5714133126395,798.8214362008231,3783,766.5714133126395,798.8214362008231,3894,766.5714133126395,798.8214362008231,4004,766.5714133126395,798.8214362008231,4116,766.5714133126395,798.8214362008231,4227,766.5714133126395,798.8214362008231,4339,766.5714133126395,798.8214362008231,4448,766.5714133126395,798.8214362008231,4559,766.5714133126395,798.8214362008231,4670,766.5714133126395,798.8214362008231,4783,766.5714133126395,798.8214362008231,4895]","[4826,4826,2477.9,2007,341.1,""oops"",""right"",""up"",""bad_move"",8003,3177,1870.1,4826,1306.9,""smooth"",""right"",""right"",""good_move"",11168,3165,2763.3,8003,401.7,""smooth"",""right"",""right"",""good_move"",14220,3052,2678.8,11168,373.2,""oops"",""down"",""down"",""good_move"",20145,5924,2876.7,16842,426.3,""oops"",""down"",""left"",""bad_move"",23207,3062,1842.3,20145,1219.7,""oops"",""down"",""right"",""good_move"",25423,2215,1816.6,23208,398.4,""oops"",""down"",""up"",""bad_move"",28528,3105,2793,25423,312,""while_blue"",""down"",""left"",""bad_move"",42326,13798,2530.9,39350,445.1,""oops"",""right"",""down"",""good_move"",45353,3027,2592,42326,435,""oops"",""right"",""down"",""good_move"",47933,2580,2190,45353,390,""oops"",""right"",""down"",""good_move"",51229,3296,2849.5,47933,446.5,""oops"",""right"",""left"",""bad_move"",54319,3089,2169.4,51230,919.6,""smooth"",""right"",""right"",""good_move"",56892,2573,2169.8,54319,403.2,""smooth"",""right"",""right"",""good_move"",59903,3011,2671.1,56892,339.9,""oops"",""right"",""up"",""bad_move"",62938,3035,2162,59903,873,""oops"",""right"",""right"",""good_move"",65257,2318,1941,62939,377,""oops"",""down"",""up"",""bad_move"",68319,3062,2721.1,65257,340.9,""oops"",""down"",""down"",""good_move"",71436,3117,2762.4,68319,354.6,""oops"",""down"",""down"",""good_move"",77586,6150,1822.8,75407,356.2,""oops"",""down"",""up"",""bad_move"",81008,3422,3047.1,77586,374.9,""oops"",""down"",""down"",""good_move"",83808,2800,2436,81008,364,""oops"",""down"",""down"",""good_move""]","",""
"3661","","<div style=""width:500px;"">
  <p>What determined the result of this run?</p>
  </div>","65","html-slider-response","50","780343","0.0-5.0-1.8","103","1","2025-07-16 10:46:11","1f75c3e559b7213887762d5229550c2b","14.201.163.64","Mozilla/5.0 (Windows NT 10.0; Win64; x64; rv:140.0) Gecko/20100101 Firefox/140.0","","Firefox","140.0","Windows","10.0","https://app.prolific.com/","en-US,en;q=0.5","642cb1f7f42c4e0a6c5d4eef","686e379bc37a29ffa5cdc956","687782e1b40655a8275e97b9","1","1","642cb1f7f42c4e0a6c5d4eef","1","1","2025-07-16T10:59:17.554Z","","","","","","","","","","","AttribQ","","50","","","","","","","","","","","","","","","","","","","","","","","","","","","","",""
"2933","","<div style=""width:500px;"">
  <p>How much control did you have over the ball?</p>
  </div>","64","html-slider-response","51","783277","0.0-5.0-2.8","103","1","2025-07-16 10:46:11","1f75c3e559b7213887762d5229550c2b","14.201.163.64","Mozilla/5.0 (Windows NT 10.0; Win64; x64; rv:140.0) Gecko/20100101 Firefox/140.0","","Firefox","140.0","Windows","10.0","https://app.prolific.com/","en-US,en;q=0.5","642cb1f7f42c4e0a6c5d4eef","686e379bc37a29ffa5cdc956","687782e1b40655a8275e97b9","1","1","642cb1f7f42c4e0a6c5d4eef","1","1","2025-07-16T10:59:20.488Z","","","","","","","","","","","ControlQ","","50","","","","","","","","","","","","","","","","","","","","","","","","","","","","",""
"2235","","<div style=""width:500px;"">
  <p>How would you describe your current emotional state?</p>
  </div>","49","html-slider-response","52","785515","0.0-5.0-3.8","103","1","2025-07-16 10:46:11","1f75c3e559b7213887762d5229550c2b","14.201.163.64","Mozilla/5.0 (Windows NT 10.0; Win64; x64; rv:140.0) Gecko/20100101 Firefox/140.0","","Firefox","140.0","Windows","10.0","https://app.prolific.com/","en-US,en;q=0.5","642cb1f7f42c4e0a6c5d4eef","686e379bc37a29ffa5cdc956","687782e1b40655a8275e97b9","1","1","642cb1f7f42c4e0a6c5d4eef","1","1","2025-07-16T10:59:22.726Z","","","","","","","","","","","StressQ","","50","","","","","","","","","","","","","","","","","","","","","","","","","","","","",""
"2267","","<div style=""width:500px;"">
  <p>What best describes how you currently feel?</p>
  </div>","29","html-slider-response","53","787784","0.0-5.0-4.8","103","1","2025-07-16 10:46:11","1f75c3e559b7213887762d5229550c2b","14.201.163.64","Mozilla/5.0 (Windows NT 10.0; Win64; x64; rv:140.0) Gecko/20100101 Firefox/140.0","","Firefox","140.0","Windows","10.0","https://app.prolific.com/","en-US,en;q=0.5","642cb1f7f42c4e0a6c5d4eef","686e379bc37a29ffa5cdc956","687782e1b40655a8275e97b9","1","1","642cb1f7f42c4e0a6c5d4eef","1","1","2025-07-16T10:59:24.995Z","","","","","","","","","","","MotivationQ","","50","","","","","","","","","","","","","","","","","","","","","","","","","","","","",""
"","","","","ctl-task-cpt","54","848778","0.0-5.0-0.9","103","1","2025-07-16 10:46:11","1f75c3e559b7213887762d5229550c2b","14.201.163.64","Mozilla/5.0 (Windows NT 10.0; Win64; x64; rv:140.0) Gecko/20100101 Firefox/140.0","","Firefox","140.0","Windows","10.0","https://app.prolific.com/","en-US,en;q=0.5","642cb1f7f42c4e0a6c5d4eef","686e379bc37a29ffa5cdc956","687782e1b40655a8275e97b9","1","1","642cb1f7f42c4e0a6c5d4eef","1","1","2025-07-16T11:00:25.989Z","","","","","","","","","","","","","","win-only","1","g1:NE,g2:SW","0.4","10","0","794563","1263","6267","57991","1","4","8","6","2","8","7","40","33","0.30303030303030304","1368","3000","1260","[""down"",""left""]","{""num_key_presses"":16,""num_perfect"":8,""num_errors"":1,""num_randdir"":7,""num_randdir_good_moves"":3,""num_whilered"":0,""num_whileblue"":1,""num_blue"":2,""num_good_moves"":11}","[419.0714133126395,413.8214362008231,0,419.0714133126395,413.8214362008231,112,419.0714133126395,413.8214362008231,221,419.0714133126395,413.8214362008231,331,419.0714133126395,413.8214362008231,444,485.3214133126395,378.8214362008231,553,575.3214133126395,325.0714362008231,664,37.82141331263951,811.3214362008231,776,12.821413312639507,830.0714362008231,887,-0.9285866873604931,833.8214362008231,997,49.07141331263951,783.8214362008231,1109,59.07141331263951,777.5714362008231,1221,59.07141331263951,777.5714362008231,1334,59.07141331263951,777.5714362008231,1445,59.07141331263951,777.5714362008231,1547,59.07141331263951,777.5714362008231,1651,59.07141331263951,777.5714362008231,1763,59.07141331263951,777.5714362008231,1876,59.07141331263951,777.5714362008231,1987,59.07141331263951,777.5714362008231,2097,59.07141331263951,777.5714362008231,2209,59.07141331263951,777.5714362008231,2320,59.07141331263951,777.5714362008231,2432,59.07141331263951,777.5714362008231,2546,59.07141331263951,777.5714362008231,2661,59.07141331263951,777.5714362008231,2769,59.07141331263951,777.5714362008231,2882,59.07141331263951,777.5714362008231,2994,59.07141331263951,777.5714362008231,3102,59.07141331263951,777.5714362008231,3215,59.07141331263951,777.5714362008231,3326,59.07141331263951,777.5714362008231,3439,59.07141331263951,777.5714362008231,3551,59.07141331263951,777.5714362008231,3663,59.07141331263951,777.5714362008231,3778,59.07141331263951,777.5714362008231,3889,59.07141331263951,777.5714362008231,4000,59.07141331263951,777.5714362008231,4111,59.07141331263951,777.5714362008231,4222,59.07141331263951,777.5714362008231,4333,59.07141331263951,777.5714362008231,4446,59.07141331263951,777.5714362008231,4561,59.07141331263951,777.5714362008231,4670,59.07141331263951,777.5714362008231,4781,59.07141331263951,777.5714362008231,4894]","[1401,1401,1000,0,401,""smooth"",""down"",""down"",""good_move"",4866,3465,3124,1401,341,""while_blue"",""down"",""up"",""bad_move"",7946,3079,2260.7,4867,818.3,""smooth"",""down"",""down"",""good_move"",11434,3488,3049.4,7946,438.6,""oops"",""down"",""left"",""good_move"",14835,3401,3059.3,11434,341.7,""smooth"",""down"",""down"",""good_move"",17446,2611,2208.6,14835,402.4,""smooth"",""down"",""down"",""good_move"",20300,2853,2510.5,17447,342.5,""oops"",""left"",""right"",""bad_move"",23243,2943,2556.4,20300,386.6,""oops"",""left"",""right"",""bad_move"",26730,3487,3165.8,23243,321.2,""oops"",""left"",""right"",""bad_move"",29067,2337,1920.7,26730,416.3,""oops"",""left"",""up"",""bad_move"",32143,3076,2520.9,29067,555.1,""oops"",""left"",""left"",""good_move"",39055,6912,2349.2,36148,557.8,""smooth"",""left"",""left"",""good_move"",42110,3055,2609.9,39055,445.1,""smooth"",""left"",""left"",""good_move"",45176,3066,2251.7,42110,814.3,""smooth"",""left"",""left"",""good_move"",48403,3227,2856.5,45176,370.5,""smooth"",""left"",""left"",""good_move"",51431,3028,1690.4,48403,1337.6,""oops"",""down"",""down"",""good_move""]","",""
"5589","","<div style=""width:500px;"">
  <p>What determined the result of this run?</p>
  </div>","62","html-slider-response","55","854369","0.0-5.0-1.9","103","1","2025-07-16 10:46:11","1f75c3e559b7213887762d5229550c2b","14.201.163.64","Mozilla/5.0 (Windows NT 10.0; Win64; x64; rv:140.0) Gecko/20100101 Firefox/140.0","","Firefox","140.0","Windows","10.0","https://app.prolific.com/","en-US,en;q=0.5","642cb1f7f42c4e0a6c5d4eef","686e379bc37a29ffa5cdc956","687782e1b40655a8275e97b9","1","1","642cb1f7f42c4e0a6c5d4eef","1","1","2025-07-16T11:00:31.580Z","","","","","","","","","","","AttribQ","","50","","","","","","","","","","","","","","","","","","","","","","","","","","","","",""
"3644","","<div style=""width:500px;"">
  <p>How much control did you have over the ball?</p>
  </div>","69","html-slider-response","56","858013","0.0-5.0-2.9","103","1","2025-07-16 10:46:11","1f75c3e559b7213887762d5229550c2b","14.201.163.64","Mozilla/5.0 (Windows NT 10.0; Win64; x64; rv:140.0) Gecko/20100101 Firefox/140.0","","Firefox","140.0","Windows","10.0","https://app.prolific.com/","en-US,en;q=0.5","642cb1f7f42c4e0a6c5d4eef","686e379bc37a29ffa5cdc956","687782e1b40655a8275e97b9","1","1","642cb1f7f42c4e0a6c5d4eef","1","1","2025-07-16T11:00:35.225Z","","","","","","","","","","","ControlQ","","50","","","","","","","","","","","","","","","","","","","","","","","","","","","","",""
"2097","","<div style=""width:500px;"">
  <p>How would you describe your current emotional state?</p>
  </div>","50","html-slider-response","57","860112","0.0-5.0-3.9","103","1","2025-07-16 10:46:11","1f75c3e559b7213887762d5229550c2b","14.201.163.64","Mozilla/5.0 (Windows NT 10.0; Win64; x64; rv:140.0) Gecko/20100101 Firefox/140.0","","Firefox","140.0","Windows","10.0","https://app.prolific.com/","en-US,en;q=0.5","642cb1f7f42c4e0a6c5d4eef","686e379bc37a29ffa5cdc956","687782e1b40655a8275e97b9","1","1","642cb1f7f42c4e0a6c5d4eef","1","1","2025-07-16T11:00:37.323Z","","","","","","","","","","","StressQ","","50","","","","","","","","","","","","","","","","","","","","","","","","","","","","",""
"4015","","<div style=""width:500px;"">
  <p>What best describes how you currently feel?</p>
  </div>","31","html-slider-response","58","864129","0.0-5.0-4.9","103","1","2025-07-16 10:46:11","1f75c3e559b7213887762d5229550c2b","14.201.163.64","Mozilla/5.0 (Windows NT 10.0; Win64; x64; rv:140.0) Gecko/20100101 Firefox/140.0","","Firefox","140.0","Windows","10.0","https://app.prolific.com/","en-US,en;q=0.5","642cb1f7f42c4e0a6c5d4eef","686e379bc37a29ffa5cdc956","687782e1b40655a8275e97b9","1","1","642cb1f7f42c4e0a6c5d4eef","1","1","2025-07-16T11:00:41.340Z","","","","","","","","","","","MotivationQ","","50","","","","","","","","","","","","","","","","","","","","","","","","","","","","",""
"","","","","ctl-task-cpt","59","951402","0.0-5.0-0.10","103","1","2025-07-16 10:46:11","1f75c3e559b7213887762d5229550c2b","14.201.163.64","Mozilla/5.0 (Windows NT 10.0; Win64; x64; rv:140.0) Gecko/20100101 Firefox/140.0","","Firefox","140.0","Windows","10.0","https://app.prolific.com/","en-US,en;q=0.5","642cb1f7f42c4e0a6c5d4eef","686e379bc37a29ffa5cdc956","687782e1b40655a8275e97b9","1","1","642cb1f7f42c4e0a6c5d4eef","1","1","2025-07-16T11:02:08.613Z","","","","","","","","","","","","","","win-only","2","g1:SE,g2:NW","0.5","11","0","870908","1394","6407","84261","1","4","8","6","2","8","8","48","40","0.36363636363636365","930","3000","775","[""left"",""up""]","{""num_key_presses"":18,""num_perfect"":10,""num_errors"":0,""num_randdir"":8,""num_randdir_good_moves"":2,""num_whilered"":0,""num_whileblue"":0,""num_blue"":7,""num_good_moves"":12}","[421.5714133126395,417.5714362008231,0,421.5714133126395,417.5714362008231,112,421.5714133126395,417.5714362008231,223,421.5714133126395,417.5714362008231,336,421.5714133126395,417.5714362008231,447,160.3214133126395,103.8214362008231,559,105.3214133126395,31.3214362008231,671,104.0714133126395,31.3214362008231,781,104.0714133126395,31.3214362008231,893,104.0714133126395,31.3214362008231,1006,104.0714133126395,31.3214362008231,1116,104.0714133126395,31.3214362008231,1228,104.0714133126395,31.3214362008231,1341,104.0714133126395,31.3214362008231,1452,104.0714133126395,31.3214362008231,1563,104.0714133126395,31.3214362008231,1674,104.0714133126395,31.3214362008231,1788,104.0714133126395,31.3214362008231,1899,104.0714133126395,31.3214362008231,2011,104.0714133126395,31.3214362008231,2124,104.0714133126395,31.3214362008231,2234,104.0714133126395,31.3214362008231,2338,104.0714133126395,31.3214362008231,2443,104.0714133126395,31.3214362008231,2555,104.0714133126395,31.3214362008231,2666,104.0714133126395,31.3214362008231,2780,104.0714133126395,31.3214362008231,2891,104.0714133126395,31.3214362008231,3005,104.0714133126395,31.3214362008231,3114,104.0714133126395,31.3214362008231,3226,104.0714133126395,31.3214362008231,3342,104.0714133126395,31.3214362008231,3450,104.0714133126395,31.3214362008231,3561,104.0714133126395,31.3214362008231,3661,104.0714133126395,31.3214362008231,3772,104.0714133126395,31.3214362008231,3875,104.0714133126395,31.3214362008231,3979,104.0714133126395,31.3214362008231,4091,104.0714133126395,31.3214362008231,4203,104.0714133126395,31.3214362008231,4313,104.0714133126395,31.3214362008231,4424,104.0714133126395,31.3214362008231,4536,104.0714133126395,31.3214362008231,4646,104.0714133126395,31.3214362008231,4758,104.0714133126395,31.3214362008231,4871,104.0714133126395,31.3214362008231,4980]","[1360,1360,1000,0,360,""smooth"",""up"",""up"",""good_move"",16655,15294,2711.3,13468,475.7,""smooth"",""up"",""up"",""good_move"",22820,6165,1937.2,20337,545.8,""smooth"",""up"",""up"",""good_move"",25979,3159,2086.8,22820,1072.2,""smooth"",""left"",""left"",""good_move"",29091,3111,2576.5,25980,534.5,""smooth"",""left"",""left"",""good_move"",32137,3046,2725.4,29091,320.6,""oops"",""left"",""down"",""bad_move"",34552,2415,2024.5,32137,390.5,""oops"",""left"",""down"",""bad_move"",40504,5953,2222.1,37870,412.9,""oops"",""up"",""down"",""bad_move"",43120,2615,2109.9,40505,505.1,""oops"",""up"",""right"",""bad_move"",46093,2973,2588.6,43120,384.4,""oops"",""up"",""down"",""bad_move"",52230,6137,2029.1,49798,402.9,""oops"",""up"",""up"",""good_move"",55505,3275,2279.9,52230,995.1,""oops"",""up"",""down"",""bad_move"",62030,6525,2433.1,59244,352.9,""smooth"",""up"",""up"",""good_move"",65155,3125,2394.4,62030,730.6,""smooth"",""up"",""up"",""good_move"",68168,3013,2470.1,65155,542.9,""smooth"",""up"",""up"",""good_move"",71192,3024,1978.8,68168,1045.2,""oops"",""up"",""up"",""good_move"",74399,3207,2870,71192,337,""smooth"",""left"",""left"",""good_move"",77566,3167,2847.8,74399,319.2,""smooth"",""left"",""left"",""good_move""]","",""
"3265","","<div style=""width:500px;"">
  <p>What determined the result of this run?</p>
  </div>","59","html-slider-response","60","954670","0.0-5.0-1.10","103","1","2025-07-16 10:46:11","1f75c3e559b7213887762d5229550c2b","14.201.163.64","Mozilla/5.0 (Windows NT 10.0; Win64; x64; rv:140.0) Gecko/20100101 Firefox/140.0","","Firefox","140.0","Windows","10.0","https://app.prolific.com/","en-US,en;q=0.5","642cb1f7f42c4e0a6c5d4eef","686e379bc37a29ffa5cdc956","687782e1b40655a8275e97b9","1","1","642cb1f7f42c4e0a6c5d4eef","1","1","2025-07-16T11:02:11.881Z","","","","","","","","","","","AttribQ","","50","","","","","","","","","","","","","","","","","","","","","","","","","","","","",""
"2405","","<div style=""width:500px;"">
  <p>How much control did you have over the ball?</p>
  </div>","62","html-slider-response","61","957076","0.0-5.0-2.10","103","1","2025-07-16 10:46:11","1f75c3e559b7213887762d5229550c2b","14.201.163.64","Mozilla/5.0 (Windows NT 10.0; Win64; x64; rv:140.0) Gecko/20100101 Firefox/140.0","","Firefox","140.0","Windows","10.0","https://app.prolific.com/","en-US,en;q=0.5","642cb1f7f42c4e0a6c5d4eef","686e379bc37a29ffa5cdc956","687782e1b40655a8275e97b9","1","1","642cb1f7f42c4e0a6c5d4eef","1","1","2025-07-16T11:02:14.287Z","","","","","","","","","","","ControlQ","","50","","","","","","","","","","","","","","","","","","","","","","","","","","","","",""
"3857","","<div style=""width:500px;"">
  <p>How would you describe your current emotional state?</p>
  </div>","50","html-slider-response","62","960935","0.0-5.0-3.10","103","1","2025-07-16 10:46:11","1f75c3e559b7213887762d5229550c2b","14.201.163.64","Mozilla/5.0 (Windows NT 10.0; Win64; x64; rv:140.0) Gecko/20100101 Firefox/140.0","","Firefox","140.0","Windows","10.0","https://app.prolific.com/","en-US,en;q=0.5","642cb1f7f42c4e0a6c5d4eef","686e379bc37a29ffa5cdc956","687782e1b40655a8275e97b9","1","1","642cb1f7f42c4e0a6c5d4eef","1","1","2025-07-16T11:02:18.146Z","","","","","","","","","","","StressQ","","50","","","","","","","","","","","","","","","","","","","","","","","","","","","","",""
"2308","","<div style=""width:500px;"">
  <p>What best describes how you currently feel?</p>
  </div>","30","html-slider-response","63","963247","0.0-5.0-4.10","103","1","2025-07-16 10:46:11","1f75c3e559b7213887762d5229550c2b","14.201.163.64","Mozilla/5.0 (Windows NT 10.0; Win64; x64; rv:140.0) Gecko/20100101 Firefox/140.0","","Firefox","140.0","Windows","10.0","https://app.prolific.com/","en-US,en;q=0.5","642cb1f7f42c4e0a6c5d4eef","686e379bc37a29ffa5cdc956","687782e1b40655a8275e97b9","1","1","642cb1f7f42c4e0a6c5d4eef","1","1","2025-07-16T11:02:20.458Z","","","","","","","","","","","MotivationQ","","50","","","","","","","","","","","","","","","","","","","","","","","","","","","","",""
"","","","","ctl-task-cpt","64","1048684","0.0-5.0-0.11","103","1","2025-07-16 10:46:11","1f75c3e559b7213887762d5229550c2b","14.201.163.64","Mozilla/5.0 (Windows NT 10.0; Win64; x64; rv:140.0) Gecko/20100101 Firefox/140.0","","Firefox","140.0","Windows","10.0","https://app.prolific.com/","en-US,en;q=0.5","642cb1f7f42c4e0a6c5d4eef","686e379bc37a29ffa5cdc956","687782e1b40655a8275e97b9","1","1","642cb1f7f42c4e0a6c5d4eef","1","1","2025-07-16T11:03:45.897Z","","","","","","","","","","","","","","win-only","1","g1:NE,g2:SW","0.6","12","0","970028","1490","6501","82431","1","4","4","6","2","4","3","51","48","0.38636363636363635","1212","3000","920","[""down"",""left""]","{""num_key_presses"":18,""num_perfect"":11,""num_errors"":1,""num_randdir"":6,""num_randdir_good_moves"":1,""num_whilered"":0,""num_whileblue"":1,""num_blue"":8,""num_good_moves"":12}","[416.5714133126395,421.3214362008231,0,416.5714133126395,421.3214362008231,103,416.5714133126395,421.3214362008231,214,416.5714133126395,421.3214362008231,322,430.3214133126395,391.3214362008231,434,574.0714133126395,208.8214362008231,548,47.82141331263951,810.0714362008231,659,9.071413312639507,855.0714362008231,768,-0.9285866873604931,852.5714362008231,879,57.82141331263951,777.5714362008231,992,64.0714133126395,771.3214362008231,1104,64.0714133126395,771.3214362008231,1216,64.0714133126395,771.3214362008231,1328,64.0714133126395,771.3214362008231,1437,64.0714133126395,771.3214362008231,1549,64.0714133126395,771.3214362008231,1661,64.0714133126395,771.3214362008231,1762,64.0714133126395,771.3214362008231,1868,64.0714133126395,771.3214362008231,1978,64.0714133126395,771.3214362008231,2088,64.0714133126395,771.3214362008231,2200,64.0714133126395,771.3214362008231,2311,64.0714133126395,771.3214362008231,2422,64.0714133126395,771.3214362008231,2534,64.0714133126395,771.3214362008231,2645,64.0714133126395,771.3214362008231,2757,64.0714133126395,771.3214362008231,2870,64.0714133126395,771.3214362008231,2982,64.0714133126395,771.3214362008231,3092,64.0714133126395,771.3214362008231,3205,64.0714133126395,771.3214362008231,3316,64.0714133126395,771.3214362008231,3426,64.0714133126395,771.3214362008231,3544,64.0714133126395,771.3214362008231,3652,64.0714133126395,771.3214362008231,3765,64.0714133126395,771.3214362008231,3877,64.0714133126395,771.3214362008231,3989,64.0714133126395,771.3214362008231,4099,64.0714133126395,771.3214362008231,4213,64.0714133126395,771.3214362008231,4325,64.0714133126395,771.3214362008231,4429,64.0714133126395,771.3214362008231,4529,64.0714133126395,771.3214362008231,4640,64.0714133126395,771.3214362008231,4753,64.0714133126395,771.3214362008231,4867,64.0714133126395,771.3214362008231,4978]","[1387,1387,1000,0,387,""oops"",""down"",""right"",""bad_move"",4236,2848,2496.4,1388,351.6,""smooth"",""down"",""down"",""good_move"",7237,3001,2677,4236,324,""oops"",""down"",""right"",""bad_move"",16274,9036,2063.3,13781,429.7,""smooth"",""down"",""down"",""good_move"",19076,2802,2308.3,16274,493.7,""smooth"",""down"",""down"",""good_move"",22211,3135,2751.8,19076,383.2,""smooth"",""left"",""left"",""good_move"",25252,3040,2538.6,22212,501.4,""smooth"",""left"",""left"",""good_move"",28332,3080,2567.2,25252,512.8,""smooth"",""left"",""left"",""good_move"",31424,3092,1856.9,28333,1234.1,""oops"",""left"",""right"",""bad_move"",34209,2785,2467,31424,318,""while_blue"",""left"",""right"",""bad_move"",36853,2644,2235.8,34209,408.2,""oops"",""left"",""right"",""bad_move"",46071,9218,2703.1,42953,414.9,""smooth"",""left"",""left"",""good_move"",52394,6323,2059.6,49769,565.4,""smooth"",""left"",""left"",""good_move"",59397,7002,2848.4,56111,437.6,""smooth"",""left"",""left"",""good_move"",66350,6953,2866.1,63100,383.9,""smooth"",""left"",""left"",""good_move"",69488,3138,1903.2,66350,1234.8,""oops"",""left"",""up"",""bad_move"",72617,3128,2044.9,69489,1083.1,""smooth"",""left"",""left"",""good_move"",75643,3026,2114.2,72617,911.8,""oops"",""down"",""down"",""good_move""]","",""
"5900","","<div style=""width:500px;"">
  <p>What determined the result of this run?</p>
  </div>","64","html-slider-response","65","1054589","0.0-5.0-1.11","103","1","2025-07-16 10:46:11","1f75c3e559b7213887762d5229550c2b","14.201.163.64","Mozilla/5.0 (Windows NT 10.0; Win64; x64; rv:140.0) Gecko/20100101 Firefox/140.0","","Firefox","140.0","Windows","10.0","https://app.prolific.com/","en-US,en;q=0.5","642cb1f7f42c4e0a6c5d4eef","686e379bc37a29ffa5cdc956","687782e1b40655a8275e97b9","1","1","642cb1f7f42c4e0a6c5d4eef","1","1","2025-07-16T11:03:51.800Z","","","","","","","","","","","AttribQ","","50","","","","","","","","","","","","","","","","","","","","","","","","","","","","",""
"2134","","<div style=""width:500px;"">
  <p>How much control did you have over the ball?</p>
  </div>","61","html-slider-response","66","1056726","0.0-5.0-2.11","103","1","2025-07-16 10:46:11","1f75c3e559b7213887762d5229550c2b","14.201.163.64","Mozilla/5.0 (Windows NT 10.0; Win64; x64; rv:140.0) Gecko/20100101 Firefox/140.0","","Firefox","140.0","Windows","10.0","https://app.prolific.com/","en-US,en;q=0.5","642cb1f7f42c4e0a6c5d4eef","686e379bc37a29ffa5cdc956","687782e1b40655a8275e97b9","1","1","642cb1f7f42c4e0a6c5d4eef","1","1","2025-07-16T11:03:53.937Z","","","","","","","","","","","ControlQ","","50","","","","","","","","","","","","","","","","","","","","","","","","","","","","",""
"2130","","<div style=""width:500px;"">
  <p>How would you describe your current emotional state?</p>
  </div>","49","html-slider-response","67","1058857","0.0-5.0-3.11","103","1","2025-07-16 10:46:11","1f75c3e559b7213887762d5229550c2b","14.201.163.64","Mozilla/5.0 (Windows NT 10.0; Win64; x64; rv:140.0) Gecko/20100101 Firefox/140.0","","Firefox","140.0","Windows","10.0","https://app.prolific.com/","en-US,en;q=0.5","642cb1f7f42c4e0a6c5d4eef","686e379bc37a29ffa5cdc956","687782e1b40655a8275e97b9","1","1","642cb1f7f42c4e0a6c5d4eef","1","1","2025-07-16T11:03:56.069Z","","","","","","","","","","","StressQ","","50","","","","","","","","","","","","","","","","","","","","","","","","","","","","",""
"2932","","<div style=""width:500px;"">
  <p>What best describes how you currently feel?</p>
  </div>","25","html-slider-response","68","1061792","0.0-5.0-4.11","103","1","2025-07-16 10:46:11","1f75c3e559b7213887762d5229550c2b","14.201.163.64","Mozilla/5.0 (Windows NT 10.0; Win64; x64; rv:140.0) Gecko/20100101 Firefox/140.0","","Firefox","140.0","Windows","10.0","https://app.prolific.com/","en-US,en;q=0.5","642cb1f7f42c4e0a6c5d4eef","686e379bc37a29ffa5cdc956","687782e1b40655a8275e97b9","1","1","642cb1f7f42c4e0a6c5d4eef","1","1","2025-07-16T11:03:59.003Z","","","","","","","","","","","MotivationQ","","50","","","","","","","","","","","","","","","","","","","","","","","","","","","","",""
"","","","","ctl-task-cpt","69","1092143","0.0-5.0-0.12","103","1","2025-07-16 10:46:11","1f75c3e559b7213887762d5229550c2b","14.201.163.64","Mozilla/5.0 (Windows NT 10.0; Win64; x64; rv:140.0) Gecko/20100101 Firefox/140.0","","Firefox","140.0","Windows","10.0","https://app.prolific.com/","en-US,en;q=0.5","642cb1f7f42c4e0a6c5d4eef","686e379bc37a29ffa5cdc956","687782e1b40655a8275e97b9","1","1","642cb1f7f42c4e0a6c5d4eef","1","1","2025-07-16T11:04:29.354Z","","","","","","","","","","","","","","win-only","1","g1:NE,g2:SW","0.7","13","0","1068573","1611","6622","27345","1","4","4","6","2","4","4","55","51","0.4166666666666667","1420","3000","2380","[""down"",""left""]","{""num_key_presses"":6,""num_perfect"":6,""num_errors"":0,""num_randdir"":0,""num_randdir_good_moves"":0,""num_whilered"":0,""num_whileblue"":0,""num_blue"":1,""num_good_moves"":6}","[427.8214133126395,418.8214362008231,0,427.8214133126395,418.8214362008231,100,427.8214133126395,418.8214362008231,207,427.8214133126395,418.8214362008231,319,427.8214133126395,418.8214362008231,432,481.5714133126395,373.8214362008231,543,574.0714133126395,311.3214362008231,658,471.5714133126395,463.8214362008231,766,222.8214133126395,675.0714362008231,878,155.3214133126395,740.0714362008231,988,131.5714133126395,761.3214362008231,1099,122.8214133126395,773.8214362008231,1202,120.3214133126395,778.8214362008231,1305,120.3214133126395,778.8214362008231,1417,120.3214133126395,778.8214362008231,1529,120.3214133126395,778.8214362008231,1640,120.3214133126395,778.8214362008231,1750,120.3214133126395,778.8214362008231,1862,120.3214133126395,778.8214362008231,1972,120.3214133126395,778.8214362008231,2083,120.3214133126395,778.8214362008231,2194,120.3214133126395,778.8214362008231,2305,120.3214133126395,778.8214362008231,2416,120.3214133126395,778.8214362008231,2531,120.3214133126395,778.8214362008231,2641,120.3214133126395,778.8214362008231,2754,120.3214133126395,778.8214362008231,2867,120.3214133126395,778.8214362008231,2979,120.3214133126395,778.8214362008231,3089,120.3214133126395,778.8214362008231,3189,120.3214133126395,778.8214362008231,3300,120.3214133126395,778.8214362008231,3415,120.3214133126395,778.8214362008231,3524,120.3214133126395,778.8214362008231,3636,120.3214133126395,778.8214362008231,3749,120.3214133126395,778.8214362008231,3859,120.3214133126395,778.8214362008231,3973,120.3214133126395,778.8214362008231,4085,120.3214133126395,778.8214362008231,4198,120.3214133126395,778.8214362008231,4308,120.3214133126395,778.8214362008231,4419,120.3214133126395,778.8214362008231,4529,120.3214133126395,778.8214362008231,4641,120.3214133126395,778.8214362008231,4754,120.3214133126395,778.8214362008231,4868,120.3214133126395,778.8214362008231,4979]","[1374,1374,1000,0,374,""smooth"",""left"",""left"",""good_move"",4437,3063,2725.4,1374,337.6,""smooth"",""left"",""left"",""good_move"",7860,3423,3082.8,4437,340.2,""smooth"",""left"",""left"",""good_move"",11028,3168,2855.2,7860,312.8,""smooth"",""down"",""down"",""good_move"",17507,6479,2930.4,14229,347.6,""smooth"",""down"",""down"",""good_move"",20434,2927,2577.4,17507,349.6,""smooth"",""down"",""down"",""good_move""]","",""
"10310","","<div style=""width:500px;"">
  <p>What determined the result of this run?</p>
  </div>","72","html-slider-response","70","1102460","0.0-5.0-1.12","103","1","2025-07-16 10:46:11","1f75c3e559b7213887762d5229550c2b","14.201.163.64","Mozilla/5.0 (Windows NT 10.0; Win64; x64; rv:140.0) Gecko/20100101 Firefox/140.0","","Firefox","140.0","Windows","10.0","https://app.prolific.com/","en-US,en;q=0.5","642cb1f7f42c4e0a6c5d4eef","686e379bc37a29ffa5cdc956","687782e1b40655a8275e97b9","1","1","642cb1f7f42c4e0a6c5d4eef","1","1","2025-07-16T11:04:39.671Z","","","","","","","","","","","AttribQ","","50","","","","","","","","","","","","","","","","","","","","","","","","","","","","",""
"2916","","<div style=""width:500px;"">
  <p>How much control did you have over the ball?</p>
  </div>","71","html-slider-response","71","1105379","0.0-5.0-2.12","103","1","2025-07-16 10:46:11","1f75c3e559b7213887762d5229550c2b","14.201.163.64","Mozilla/5.0 (Windows NT 10.0; Win64; x64; rv:140.0) Gecko/20100101 Firefox/140.0","","Firefox","140.0","Windows","10.0","https://app.prolific.com/","en-US,en;q=0.5","642cb1f7f42c4e0a6c5d4eef","686e379bc37a29ffa5cdc956","687782e1b40655a8275e97b9","1","1","642cb1f7f42c4e0a6c5d4eef","1","1","2025-07-16T11:04:42.591Z","","","","","","","","","","","ControlQ","","50","","","","","","","","","","","","","","","","","","","","","","","","","","","","",""
"2370","","<div style=""width:500px;"">
  <p>How would you describe your current emotional state?</p>
  </div>","49","html-slider-response","72","1107750","0.0-5.0-3.12","103","1","2025-07-16 10:46:11","1f75c3e559b7213887762d5229550c2b","14.201.163.64","Mozilla/5.0 (Windows NT 10.0; Win64; x64; rv:140.0) Gecko/20100101 Firefox/140.0","","Firefox","140.0","Windows","10.0","https://app.prolific.com/","en-US,en;q=0.5","642cb1f7f42c4e0a6c5d4eef","686e379bc37a29ffa5cdc956","687782e1b40655a8275e97b9","1","1","642cb1f7f42c4e0a6c5d4eef","1","1","2025-07-16T11:04:44.961Z","","","","","","","","","","","StressQ","","50","","","","","","","","","","","","","","","","","","","","","","","","","","","","",""
"2100","","<div style=""width:500px;"">
  <p>What best describes how you currently feel?</p>
  </div>","26","html-slider-response","73","1109851","0.0-5.0-4.12","103","1","2025-07-16 10:46:11","1f75c3e559b7213887762d5229550c2b","14.201.163.64","Mozilla/5.0 (Windows NT 10.0; Win64; x64; rv:140.0) Gecko/20100101 Firefox/140.0","","Firefox","140.0","Windows","10.0","https://app.prolific.com/","en-US,en;q=0.5","642cb1f7f42c4e0a6c5d4eef","686e379bc37a29ffa5cdc956","687782e1b40655a8275e97b9","1","1","642cb1f7f42c4e0a6c5d4eef","1","1","2025-07-16T11:04:47.062Z","","","","","","","","","","","MotivationQ","","50","","","","","","","","","","","","","","","","","","","","","","","","","","","","",""
"","","","","ctl-task-cpt","74","1146569","0.0-5.0-0.13","103","1","2025-07-16 10:46:11","1f75c3e559b7213887762d5229550c2b","14.201.163.64","Mozilla/5.0 (Windows NT 10.0; Win64; x64; rv:140.0) Gecko/20100101 Firefox/140.0","","Firefox","140.0","Windows","10.0","https://app.prolific.com/","en-US,en;q=0.5","642cb1f7f42c4e0a6c5d4eef","686e379bc37a29ffa5cdc956","687782e1b40655a8275e97b9","1","1","642cb1f7f42c4e0a6c5d4eef","1","1","2025-07-16T11:05:23.780Z","","","","","","","","","","","","","","win-only","0","g1:NW,g2:SE","0.8","14","0","1116634","2122","7124","33713","1","4","8","6","2","8","8","63","55","0.4772727272727273","1457","3000","2275","[""down"",""right""]","{""num_key_presses"":6,""num_perfect"":6,""num_errors"":0,""num_randdir"":0,""num_randdir_good_moves"":0,""num_whilered"":0,""num_whileblue"":0,""num_blue"":3,""num_good_moves"":6}","[419.0714133126395,413.8214362008231,0,419.0714133126395,413.8214362008231,101,419.0714133126395,413.8214362008231,214,419.0714133126395,413.8214362008231,329,419.0714133126395,413.8214362008231,440,419.0714133126395,413.8214362008231,552,399.0714133126395,397.5714362008231,664,449.0714133126395,395.0714362008231,776,990.3214133126395,793.8214362008231,885,871.5714133126395,753.8214362008231,1000,826.5714133126395,756.3214362008231,1108,804.0714133126395,757.5714362008231,1217,800.3214133126395,758.8214362008231,1328,800.3214133126395,758.8214362008231,1440,800.3214133126395,758.8214362008231,1550,800.3214133126395,758.8214362008231,1662,800.3214133126395,758.8214362008231,1774,800.3214133126395,758.8214362008231,1885,800.3214133126395,758.8214362008231,1999,800.3214133126395,758.8214362008231,2108,800.3214133126395,758.8214362008231,2218,800.3214133126395,758.8214362008231,2329,800.3214133126395,758.8214362008231,2442,800.3214133126395,758.8214362008231,2553,800.3214133126395,758.8214362008231,2665,800.3214133126395,758.8214362008231,2777,800.3214133126395,758.8214362008231,2887,800.3214133126395,758.8214362008231,2998,800.3214133126395,758.8214362008231,3098,800.3214133126395,758.8214362008231,3205,800.3214133126395,758.8214362008231,3317,800.3214133126395,758.8214362008231,3428,800.3214133126395,758.8214362008231,3538,800.3214133126395,758.8214362008231,3651,800.3214133126395,758.8214362008231,3761,800.3214133126395,758.8214362008231,3872,800.3214133126395,758.8214362008231,3983,800.3214133126395,758.8214362008231,4084,800.3214133126395,758.8214362008231,4189,800.3214133126395,758.8214362008231,4300,800.3214133126395,758.8214362008231,4412,800.3214133126395,758.8214362008231,4525,800.3214133126395,758.8214362008231,4636,800.3214133126395,758.8214362008231,4749,800.3214133126395,758.8214362008231,4860,800.3214133126395,758.8214362008231,4970]","[1421,1421,1000,0,421,""smooth"",""right"",""right"",""good_move"",4008,2587,2172.3,1421,414.7,""smooth"",""right"",""right"",""good_move"",10742,6734,2991.5,7341,409.5,""smooth"",""right"",""right"",""good_move"",13964,3222,2860.4,10742,361.6,""smooth"",""down"",""down"",""good_move"",20650,6686,2581.1,17640,428.9,""smooth"",""down"",""down"",""good_move"",26316,5666,1941.6,24020,354.4,""smooth"",""down"",""down"",""good_move""]","",""
"3108","","<div style=""width:500px;"">
  <p>What determined the result of this run?</p>
  </div>","71","html-slider-response","75","1149678","0.0-5.0-1.13","103","1","2025-07-16 10:46:11","1f75c3e559b7213887762d5229550c2b","14.201.163.64","Mozilla/5.0 (Windows NT 10.0; Win64; x64; rv:140.0) Gecko/20100101 Firefox/140.0","","Firefox","140.0","Windows","10.0","https://app.prolific.com/","en-US,en;q=0.5","642cb1f7f42c4e0a6c5d4eef","686e379bc37a29ffa5cdc956","687782e1b40655a8275e97b9","1","1","642cb1f7f42c4e0a6c5d4eef","1","1","2025-07-16T11:05:26.889Z","","","","","","","","","","","AttribQ","","50","","","","","","","","","","","","","","","","","","","","","","","","","","","","",""
"2188","","<div style=""width:500px;"">
  <p>How much control did you have over the ball?</p>
  </div>","67","html-slider-response","76","1151867","0.0-5.0-2.13","103","1","2025-07-16 10:46:11","1f75c3e559b7213887762d5229550c2b","14.201.163.64","Mozilla/5.0 (Windows NT 10.0; Win64; x64; rv:140.0) Gecko/20100101 Firefox/140.0","","Firefox","140.0","Windows","10.0","https://app.prolific.com/","en-US,en;q=0.5","642cb1f7f42c4e0a6c5d4eef","686e379bc37a29ffa5cdc956","687782e1b40655a8275e97b9","1","1","642cb1f7f42c4e0a6c5d4eef","1","1","2025-07-16T11:05:29.079Z","","","","","","","","","","","ControlQ","","50","","","","","","","","","","","","","","","","","","","","","","","","","","","","",""
"2162","","<div style=""width:500px;"">
  <p>How would you describe your current emotional state?</p>
  </div>","50","html-slider-response","77","1154031","0.0-5.0-3.13","103","1","2025-07-16 10:46:11","1f75c3e559b7213887762d5229550c2b","14.201.163.64","Mozilla/5.0 (Windows NT 10.0; Win64; x64; rv:140.0) Gecko/20100101 Firefox/140.0","","Firefox","140.0","Windows","10.0","https://app.prolific.com/","en-US,en;q=0.5","642cb1f7f42c4e0a6c5d4eef","686e379bc37a29ffa5cdc956","687782e1b40655a8275e97b9","1","1","642cb1f7f42c4e0a6c5d4eef","1","1","2025-07-16T11:05:31.242Z","","","","","","","","","","","StressQ","","50","","","","","","","","","","","","","","","","","","","","","","","","","","","","",""
"4222","","<div style=""width:500px;"">
  <p>What best describes how you currently feel?</p>
  </div>","29","html-slider-response","78","1158254","0.0-5.0-4.13","103","1","2025-07-16 10:46:11","1f75c3e559b7213887762d5229550c2b","14.201.163.64","Mozilla/5.0 (Windows NT 10.0; Win64; x64; rv:140.0) Gecko/20100101 Firefox/140.0","","Firefox","140.0","Windows","10.0","https://app.prolific.com/","en-US,en;q=0.5","642cb1f7f42c4e0a6c5d4eef","686e379bc37a29ffa5cdc956","687782e1b40655a8275e97b9","1","1","642cb1f7f42c4e0a6c5d4eef","1","1","2025-07-16T11:05:35.465Z","","","","","","","","","","","MotivationQ","","50","","","","","","","","","","","","","","","","","","","","","","","","","","","","",""
