"rt","response_timestamp","stimulus","response","trial_type","trial_index","time_elapsed","internal_node_id","run_id","condition","recorded_at","source_code_version","ip","user_agent","device","browser","browser_version","platform","platform_version","referer","accept_language","PROLIFIC_PID","STUDY_ID","SESSION_ID","WEEK","BATCH","prolific_id","week","batch","realtime","success","responses","item_order","radio_event_ids","radio_event_times","key_event_times","mouse_event_times","straightlining","zigzagging","honeypot","eventType","view_history","slider_start","which_type","canvas_config","goals_layout","control_level","trial_number","tutorial_trial_number","trial_start_time","phase1_start_time","phase2_start_time","phase3_start_time","goal_1_value","goal_1_distance","goal_2_value","goal_2_distance","goal_selected","outcome","outcome_total","participant_final_score","participant_initial_score","participant_final_score_prop","goal_choice_rt","allocated_time","allocated_time_remaining","goal_direction","counts","mouse_movements","key_presses","question_order","question_id"
"13695","1753258003236","<p style='font-size:40px;line-height:1.25'><strong>Welcome to the experiment!</strong></p><p style='font-size:1.1em;line-height:1.25'>Thank you for participanting in our experiment again! You will be asked to play the Dysfunctional Ball Game again. We will briefly recap the rules before we start.</p><p style='font-size:1.1em;line-height:1.25'>Press <strong>Next</strong> to continue.</p>","0","custom-html-button-response","0","13698","0.0-0.0","190","1","2025-07-23 08:06:28","1f75c3e559b7213887762d5229550c2b","41.114.217.78","Mozilla/5.0 (Windows NT 10.0; Win64; x64) AppleWebKit/537.36 (KHTML, like Gecko) Chrome/138.0.0.0 Safari/537.36","WebKit","Chrome","138.0.0.0","Windows","10.0","https://app.prolific.com/","en-ZA,en-GB;q=0.9,en-US;q=0.8,en;q=0.7","61601e9a6b8306196d2a129c","683db9eb0562dbf637994deb","688097ff07f9843c6e60df55","2","1","61601e9a6b8306196d2a129c","2","1","2025-07-23T08:06:43.237Z","","","","","","","","","","","","","","","","","","","","","","","","","","","","","","","","","","","","","","","","","",""
"4591","","","","fullscreen","1","19304","0.0-1.0","190","1","2025-07-23 08:06:28","1f75c3e559b7213887762d5229550c2b","41.114.217.78","Mozilla/5.0 (Windows NT 10.0; Win64; x64) AppleWebKit/537.36 (KHTML, like Gecko) Chrome/138.0.0.0 Safari/537.36","WebKit","Chrome","138.0.0.0","Windows","10.0","https://app.prolific.com/","en-ZA,en-GB;q=0.9,en-US;q=0.8,en;q=0.7","61601e9a6b8306196d2a129c","683db9eb0562dbf637994deb","688097ff07f9843c6e60df55","2","1","61601e9a6b8306196d2a129c","2","1","","true","","","","","","","","","","","","","","","","","","","","","","","","","","","","","","","","","","","","","","","","",""
"1632","1753258010476","<p style='font-size:1.1em;line-height:1.25'>In the following, we will ask you a few questions relating to your feelings in the last 24 hours.<br></p><p style='font-size:1.1em;line-height:1.25'>Press the <strong>Next</strong> button to continue.</p>","0","custom-html-button-response","2","20937","0.0-2.0-0.0","190","1","2025-07-23 08:06:28","1f75c3e559b7213887762d5229550c2b","41.114.217.78","Mozilla/5.0 (Windows NT 10.0; Win64; x64) AppleWebKit/537.36 (KHTML, like Gecko) Chrome/138.0.0.0 Safari/537.36","WebKit","Chrome","138.0.0.0","Windows","10.0","https://app.prolific.com/","en-ZA,en-GB;q=0.9,en-US;q=0.8,en;q=0.7","61601e9a6b8306196d2a129c","683db9eb0562dbf637994deb","688097ff07f9843c6e60df55","2","1","61601e9a6b8306196d2a129c","2","1","2025-07-23T08:06:50.476Z","","","","","","","","","","","","","","","","","","","","","","","","","","","","","","","","","","","","","","","","","",""
"95688.90000000037","","","","survey-template","3","116631","0.0-2.0-1.0","190","1","2025-07-23 08:06:28","1f75c3e559b7213887762d5229550c2b","41.114.217.78","Mozilla/5.0 (Windows NT 10.0; Win64; x64) AppleWebKit/537.36 (KHTML, like Gecko) Chrome/138.0.0.0 Safari/537.36","WebKit","Chrome","138.0.0.0","Windows","10.0","https://app.prolific.com/","en-ZA,en-GB;q=0.9,en-US;q=0.8,en;q=0.7","61601e9a6b8306196d2a129c","683db9eb0562dbf637994deb","688097ff07f9843c6e60df55","2","1","61601e9a6b8306196d2a129c","2","1","2025-07-23T08:08:26.170Z","","{""Q01"":""1"",""Q02"":""1"",""Q03"":""2"",""Q04"":""0"",""Q05"":""2"",""Q06"":""1"",""Q07"":""1"",""Q08"":""1"",""Q09"":""4"",""Q10"":""3"",""Q11"":""5"",""Q12"":""1"",""Q13"":""5"",""Q14"":""1"",""Q15"":""3"",""Q16"":""4"",""Q17"":""5"",""Q18"":""3"",""Q19"":""1"",""Q20"":""1"",""Q21"":""1"",""Q22"":""1""}","[0,1,2,3,4,5,6,7,8,9,10,11,12,13,14,15,16,17,18,19,20,21]","[""Q01"",""Q02"",""Q03"",""Q04"",""Q05"",""Q06"",""Q07"",""Q08"",""Q09"",""Q10"",""Q11"",""Q12"",""Q13"",""Q14"",""Q15"",""Q16"",""Q17"",""Q18"",""Q19"",""Q20"",""Q21"",""Q22""]","[9909.400000000373,13053.5,20645.800000000745,24285.700000001118,27661.300000000745,30821.400000000373,35030.20000000112,35965.59999999963,40069.40000000037,44461.800000000745,46541.70000000112,51549.5,54405.59999999963,56981.59999999963,61789.5,67933.70000000112,72277.80000000075,75621.59999999963,83949.40000000037,88189.90000000037,92341.70000000112,94646]","[]","[1.200000001117587,9909.400000000373,13053.5,18893.700000001118,19733.700000001118,20645.800000000745,24285.700000001118,27661.300000000745,30821.400000000373,33317.59999999963,35030.20000000112,35965.59999999963,40069.40000000037,44461.800000000745,46541.70000000112,51549.5,54405.59999999963,56981.59999999963,61789.5,67933.70000000112,72277.80000000075,75621.59999999963,83949.40000000037,88189.90000000037,92341.70000000112,94646,95686.09999999963]","0.5","0.23809523809523808","0","drsp","","","","","","","","","","","","","","","","","","","","","","","","","","","","","","",""
"21218.299999998882","","","","survey-template","4","137851","0.0-2.0-2.0","190","1","2025-07-23 08:06:28","1f75c3e559b7213887762d5229550c2b","41.114.217.78","Mozilla/5.0 (Windows NT 10.0; Win64; x64) AppleWebKit/537.36 (KHTML, like Gecko) Chrome/138.0.0.0 Safari/537.36","WebKit","Chrome","138.0.0.0","Windows","10.0","https://app.prolific.com/","en-ZA,en-GB;q=0.9,en-US;q=0.8,en;q=0.7","61601e9a6b8306196d2a129c","683db9eb0562dbf637994deb","688097ff07f9843c6e60df55","2","1","61601e9a6b8306196d2a129c","2","1","2025-07-23T08:08:47.390Z","","{""Q01"":""2"",""Q02"":""5"",""Q03"":""3""}","[0,1,2]","[""Q01"",""Q02"",""Q02"",""Q03"",""Q03""]","[5281.5,9129.699999999255,12233.599999999627,16313.5,20193.799999998882]","[]","[5281.5,9129.699999999255,12233.599999999627,16313.5,20193.799999998882,21217.699999999255]","0.3333333333333333","0","0","stress","","","","","","","","","","","","","","","","","","","","","","","","","","","","","","",""
"26734","","","","instructions","5","164586","0.0-3.0-0.0","190","1","2025-07-23 08:06:28","1f75c3e559b7213887762d5229550c2b","41.114.217.78","Mozilla/5.0 (Windows NT 10.0; Win64; x64) AppleWebKit/537.36 (KHTML, like Gecko) Chrome/138.0.0.0 Safari/537.36","WebKit","Chrome","138.0.0.0","Windows","10.0","https://app.prolific.com/","en-ZA,en-GB;q=0.9,en-US;q=0.8,en;q=0.7","61601e9a6b8306196d2a129c","683db9eb0562dbf637994deb","688097ff07f9843c6e60df55","2","1","61601e9a6b8306196d2a129c","2","1","","","","","","","","","","","","","[{""page_index"":0,""viewing_time"":26734}]","","","","","","","","","","","","","","","","","","","","","","","","","","","","","",""
"11982","","<p>Before you start with this game please answer the following three questions yourself. </p>
  <p>Through this game, we measure several aspects of your cognitive performance, such as reaction times, multi-tasking capabilities </p>
  <p>and the ability to assess the situation you are in.</p>
  <p></p>
  <p><b>How good do you usually are in such tasks?</b></p>","50","html-slider-response","6","176571","0.0-4.0-0.0","190","1","2025-07-23 08:06:28","1f75c3e559b7213887762d5229550c2b","41.114.217.78","Mozilla/5.0 (Windows NT 10.0; Win64; x64) AppleWebKit/537.36 (KHTML, like Gecko) Chrome/138.0.0.0 Safari/537.36","WebKit","Chrome","138.0.0.0","Windows","10.0","https://app.prolific.com/","en-ZA,en-GB;q=0.9,en-US;q=0.8,en;q=0.7","61601e9a6b8306196d2a129c","683db9eb0562dbf637994deb","688097ff07f9843c6e60df55","2","1","61601e9a6b8306196d2a129c","2","1","2025-07-23T08:09:26.110Z","","","","","","","","","","","PreSkillQ","","50","","","","","","","","","","","","","","","","","","","","","","","","","","","","",""
"3727","","<div style=""width:500px;"">
  <p>How well do you think you will perform in this task compared to other participants?</p>
  </div>","50","html-slider-response","7","180298","0.0-4.0-1.0","190","1","2025-07-23 08:06:28","1f75c3e559b7213887762d5229550c2b","41.114.217.78","Mozilla/5.0 (Windows NT 10.0; Win64; x64) AppleWebKit/537.36 (KHTML, like Gecko) Chrome/138.0.0.0 Safari/537.36","WebKit","Chrome","138.0.0.0","Windows","10.0","https://app.prolific.com/","en-ZA,en-GB;q=0.9,en-US;q=0.8,en;q=0.7","61601e9a6b8306196d2a129c","683db9eb0562dbf637994deb","688097ff07f9843c6e60df55","2","1","61601e9a6b8306196d2a129c","2","1","2025-07-23T08:09:29.838Z","","","","","","","","","","","PrePerfQ","","50","","","","","","","","","","","","","","","","","","","","","","","","","","","","",""
"6247","","<div style=""width:500px;"">
  <p>What best describes how you currently feel?</p>
  </div>","13","html-slider-response","8","186547","0.0-4.0-2.0","190","1","2025-07-23 08:06:28","1f75c3e559b7213887762d5229550c2b","41.114.217.78","Mozilla/5.0 (Windows NT 10.0; Win64; x64) AppleWebKit/537.36 (KHTML, like Gecko) Chrome/138.0.0.0 Safari/537.36","WebKit","Chrome","138.0.0.0","Windows","10.0","https://app.prolific.com/","en-ZA,en-GB;q=0.9,en-US;q=0.8,en;q=0.7","61601e9a6b8306196d2a129c","683db9eb0562dbf637994deb","688097ff07f9843c6e60df55","2","1","61601e9a6b8306196d2a129c","2","1","2025-07-23T08:09:36.086Z","","","","","","","","","","","PreMotivationQ","","50","","","","","","","","","","","","","","","","","","","","","","","","","","","","",""
"","","","","ctl-task-cpt","9","207305","0.0-5.0-0.0","190","1","2025-07-23 08:06:28","1f75c3e559b7213887762d5229550c2b","41.114.217.78","Mozilla/5.0 (Windows NT 10.0; Win64; x64) AppleWebKit/537.36 (KHTML, like Gecko) Chrome/138.0.0.0 Safari/537.36","WebKit","Chrome","138.0.0.0","Windows","10.0","https://app.prolific.com/","en-ZA,en-GB;q=0.9,en-US;q=0.8,en;q=0.7","61601e9a6b8306196d2a129c","683db9eb0562dbf637994deb","688097ff07f9843c6e60df55","2","1","61601e9a6b8306196d2a129c","2","1","2025-07-23T08:09:56.844Z","","","","","","","","","","","","","","win-only","1","g1:NE,g2:SW","1","1","0","189546.5","2694.3","7697.2","17754.3","1","4","4","6","1","1","1","1","0","0.007575757575757576","1929.6","3000","1445","[""up"",""right""]","{""num_key_presses"":4,""num_perfect"":4,""num_errors"":0,""num_randdir"":0,""num_randdir_good_moves"":0,""num_whilered"":0,""num_whileblue"":0,""num_blue"":0,""num_good_moves"":4}","[416.57142857142856,413.1808016640799,0.3,416.57142857142856,413.1808016640799,101.1,416.57142857142856,413.1808016640799,201.2,416.57142857142856,413.1808016640799,301.2,416.57142857142856,413.1808016640799,402.3,416.57142857142856,413.1808016640799,507.2,416.57142857142856,413.1808016640799,607.2,416.57142857142856,413.1808016640799,711.2,416.57142857142856,413.1808016640799,811.2,416.57142857142856,413.1808016640799,917,416.57142857142856,413.1808016640799,1017,416.57142857142856,413.1808016640799,1117,416.57142857142856,413.1808016640799,1222.3,416.57142857142856,413.1808016640799,1326.1,416.57142857142856,413.1808016640799,1431,647.5714285714286,248.18080166407992,1537,767.5714285714286,119.18080166407994,1637,773.5714285714286,101.18080166407994,1741.8,773.5714285714286,86.18080166407994,1846.1,773.5714285714286,83.18080166407994,1947.2,775.0714285714286,83.18080166407994,2051.6,775.0714285714286,83.18080166407994,2157.1,775.0714285714286,83.18080166407994,2257.3,775.0714285714286,83.18080166407994,2361.1,776.5714285714286,83.18080166407994,2462.3,1340.5714285714287,287.1808016640799,2562.6,1375.0714285714287,338.1808016640799,2667.2,1375.0714285714287,338.1808016640799,2771.5,1375.0714285714287,338.1808016640799,2871.6,1375.0714285714287,338.1808016640799,2972.5,1375.0714285714287,338.1808016640799,3076.3,1375.0714285714287,338.1808016640799,3176.3,1375.0714285714287,338.1808016640799,3276.3,1375.0714285714287,338.1808016640799,3376.4,1375.0714285714287,338.1808016640799,3476.4,1375.0714285714287,338.1808016640799,3577.5,1375.0714285714287,338.1808016640799,3682.5,1375.0714285714287,338.1808016640799,3787.5,1375.0714285714287,338.1808016640799,3892.5,1375.0714285714287,338.1808016640799,3996.4,1375.0714285714287,338.1808016640799,4096.4,1375.0714285714287,338.1808016640799,4196.4,1375.0714285714287,338.1808016640799,4296.6,1375.0714285714287,338.1808016640799,4397.5,1375.0714285714287,338.1808016640799,4497.5,1375.0714285714287,338.1808016640799,4602.6,1375.0714285714287,338.1808016640799,4702.6,1375.0714285714287,338.1808016640799,4806.4,1375.0714285714287,338.1808016640799,4907.5]","[1399.1,1399,1000,0.1,399,""smooth"",""up"",""up"",""good_move"",4006.4,2606.7,2200.9,1399.7,405.8,""smooth"",""up"",""up"",""good_move"",6776.6,2769.9,2367.5,4006.7,402.4,""smooth"",""right"",""right"",""good_move"",9918.3,3141.2,2751.9,6777.1,389.3,""smooth"",""right"",""right"",""good_move""]","",""
"5656","","<div style=""width:500px;"">
  <p>What determined the result of this run?</p>
  </div>","96","html-slider-response","10","212962","0.0-5.0-1.0","190","1","2025-07-23 08:06:28","1f75c3e559b7213887762d5229550c2b","41.114.217.78","Mozilla/5.0 (Windows NT 10.0; Win64; x64) AppleWebKit/537.36 (KHTML, like Gecko) Chrome/138.0.0.0 Safari/537.36","WebKit","Chrome","138.0.0.0","Windows","10.0","https://app.prolific.com/","en-ZA,en-GB;q=0.9,en-US;q=0.8,en;q=0.7","61601e9a6b8306196d2a129c","683db9eb0562dbf637994deb","688097ff07f9843c6e60df55","2","1","61601e9a6b8306196d2a129c","2","1","2025-07-23T08:10:02.502Z","","","","","","","","","","","AttribQ","","50","","","","","","","","","","","","","","","","","","","","","","","","","","","","",""
"2599","","<div style=""width:500px;"">
  <p>How much control did you have over the ball?</p>
  </div>","100","html-slider-response","11","215562","0.0-5.0-2.0","190","1","2025-07-23 08:06:28","1f75c3e559b7213887762d5229550c2b","41.114.217.78","Mozilla/5.0 (Windows NT 10.0; Win64; x64) AppleWebKit/537.36 (KHTML, like Gecko) Chrome/138.0.0.0 Safari/537.36","WebKit","Chrome","138.0.0.0","Windows","10.0","https://app.prolific.com/","en-ZA,en-GB;q=0.9,en-US;q=0.8,en;q=0.7","61601e9a6b8306196d2a129c","683db9eb0562dbf637994deb","688097ff07f9843c6e60df55","2","1","61601e9a6b8306196d2a129c","2","1","2025-07-23T08:10:05.101Z","","","","","","","","","","","ControlQ","","50","","","","","","","","","","","","","","","","","","","","","","","","","","","","",""
"3751","","<div style=""width:500px;"">
  <p>How would you describe your current emotional state?</p>
  </div>","50","html-slider-response","12","219314","0.0-5.0-3.0","190","1","2025-07-23 08:06:28","1f75c3e559b7213887762d5229550c2b","41.114.217.78","Mozilla/5.0 (Windows NT 10.0; Win64; x64) AppleWebKit/537.36 (KHTML, like Gecko) Chrome/138.0.0.0 Safari/537.36","WebKit","Chrome","138.0.0.0","Windows","10.0","https://app.prolific.com/","en-ZA,en-GB;q=0.9,en-US;q=0.8,en;q=0.7","61601e9a6b8306196d2a129c","683db9eb0562dbf637994deb","688097ff07f9843c6e60df55","2","1","61601e9a6b8306196d2a129c","2","1","2025-07-23T08:10:08.853Z","","","","","","","","","","","StressQ","","50","","","","","","","","","","","","","","","","","","","","","","","","","","","","",""
"4639","","<div style=""width:500px;"">
  <p>What best describes how you currently feel?</p>
  </div>","26","html-slider-response","13","223955","0.0-5.0-4.0","190","1","2025-07-23 08:06:28","1f75c3e559b7213887762d5229550c2b","41.114.217.78","Mozilla/5.0 (Windows NT 10.0; Win64; x64) AppleWebKit/537.36 (KHTML, like Gecko) Chrome/138.0.0.0 Safari/537.36","WebKit","Chrome","138.0.0.0","Windows","10.0","https://app.prolific.com/","en-ZA,en-GB;q=0.9,en-US;q=0.8,en;q=0.7","61601e9a6b8306196d2a129c","683db9eb0562dbf637994deb","688097ff07f9843c6e60df55","2","1","61601e9a6b8306196d2a129c","2","1","2025-07-23T08:10:13.494Z","","","","","","","","","","","MotivationQ","","50","","","","","","","","","","","","","","","","","","","","","","","","","","","","",""
"","","","","ctl-task-cpt","14","246813","0.0-5.0-0.1","190","1","2025-07-23 08:06:28","1f75c3e559b7213887762d5229550c2b","41.114.217.78","Mozilla/5.0 (Windows NT 10.0; Win64; x64) AppleWebKit/537.36 (KHTML, like Gecko) Chrome/138.0.0.0 Safari/537.36","WebKit","Chrome","138.0.0.0","Windows","10.0","https://app.prolific.com/","en-ZA,en-GB;q=0.9,en-US;q=0.8,en;q=0.7","61601e9a6b8306196d2a129c","683db9eb0562dbf637994deb","688097ff07f9843c6e60df55","2","1","61601e9a6b8306196d2a129c","2","1","2025-07-23T08:10:36.352Z","","","","","","","","","","","","","","win-only","2","g1:SE,g2:NW","0.9","2","0","226953.5","2007.3","7011.1","19840.6","1","4","8","6","1","1","1","2","1","0.015151515151515152","1671.9","3000","1320","[""down"",""right""]","{""num_key_presses"":4,""num_perfect"":4,""num_errors"":0,""num_randdir"":0,""num_randdir_good_moves"":0,""num_whilered"":0,""num_whileblue"":0,""num_blue"":1,""num_good_moves"":4}","[413.57142857142856,420.6808016640799,0.2,413.57142857142856,420.6808016640799,103.4,413.57142857142856,420.6808016640799,203.4,413.57142857142856,420.6808016640799,304.2,413.57142857142856,420.6808016640799,409.3,413.57142857142856,420.6808016640799,513.6,413.57142857142856,420.6808016640799,614.9,413.57142857142856,420.6808016640799,714.9,413.57142857142856,420.6808016640799,814.9,611.5714285714286,644.1808016640799,919.3,677.5714285714286,692.1808016640799,1019.8,815.5714285714286,783.6808016640799,1123.8,817.0714285714286,788.1808016640799,1228.1,817.0714285714286,788.1808016640799,1334,814.0714285714286,788.1808016640799,1434.9,812.5714285714286,788.1808016640799,1538.2,812.5714285714286,788.1808016640799,1644.9,812.5714285714286,788.1808016640799,1749.9,812.5714285714286,788.1808016640799,1853.9,812.5714285714286,788.1808016640799,1958.9,1013.5714285714286,659.1808016640799,2059,1375.0714285714287,497.1808016640799,2163.1,1375.0714285714287,497.1808016640799,2263.1,1375.0714285714287,497.1808016640799,2363.1,1375.0714285714287,497.1808016640799,2468.1,1375.0714285714287,497.1808016640799,2569,1375.0714285714287,497.1808016640799,2669,1375.0714285714287,497.1808016640799,2769,1375.0714285714287,497.1808016640799,2872.9,1375.0714285714287,497.1808016640799,2974.5,1375.0714285714287,497.1808016640799,3074.8,1375.0714285714287,497.1808016640799,3179,1375.0714285714287,497.1808016640799,3284.8,1375.0714285714287,497.1808016640799,3389.2,1375.0714285714287,497.1808016640799,3489.7,1375.0714285714287,497.1808016640799,3593.7,1375.0714285714287,497.1808016640799,3694.4,1375.0714285714287,497.1808016640799,3794.9,1375.0714285714287,497.1808016640799,3898.2,1375.0714285714287,497.1808016640799,3998.2,1375.0714285714287,497.1808016640799,4104,1375.0714285714287,497.1808016640799,4204.4,1375.0714285714287,497.1808016640799,4304.9,1375.0714285714287,497.1808016640799,4407.9,1375.0714285714287,497.1808016640799,4509.2,1375.0714285714287,497.1808016640799,4609.2,1375.0714285714287,497.1808016640799,4714.5,1375.0714285714287,497.1808016640799,4818,1375.0714285714287,497.1808016640799,4918.1]","[1423.5,1423.5,1000,0,423.5,""smooth"",""down"",""down"",""good_move"",3901.8,2478.1,2103.8,1423.7,374.3,""smooth"",""down"",""down"",""good_move"",10165.7,6263.8,2793,6905.4,467.3,""smooth"",""right"",""right"",""good_move"",12741.9,2576.1,2140.3,10165.8,435.8,""smooth"",""right"",""right"",""good_move""]","",""
"4965","","<div style=""width:500px;"">
  <p>What determined the result of this run?</p>
  </div>","89","html-slider-response","15","251779","0.0-5.0-1.1","190","1","2025-07-23 08:06:28","1f75c3e559b7213887762d5229550c2b","41.114.217.78","Mozilla/5.0 (Windows NT 10.0; Win64; x64) AppleWebKit/537.36 (KHTML, like Gecko) Chrome/138.0.0.0 Safari/537.36","WebKit","Chrome","138.0.0.0","Windows","10.0","https://app.prolific.com/","en-ZA,en-GB;q=0.9,en-US;q=0.8,en;q=0.7","61601e9a6b8306196d2a129c","683db9eb0562dbf637994deb","688097ff07f9843c6e60df55","2","1","61601e9a6b8306196d2a129c","2","1","2025-07-23T08:10:41.318Z","","","","","","","","","","","AttribQ","","50","","","","","","","","","","","","","","","","","","","","","","","","","","","","",""
"2631","","<div style=""width:500px;"">
  <p>How much control did you have over the ball?</p>
  </div>","100","html-slider-response","16","254411","0.0-5.0-2.1","190","1","2025-07-23 08:06:28","1f75c3e559b7213887762d5229550c2b","41.114.217.78","Mozilla/5.0 (Windows NT 10.0; Win64; x64) AppleWebKit/537.36 (KHTML, like Gecko) Chrome/138.0.0.0 Safari/537.36","WebKit","Chrome","138.0.0.0","Windows","10.0","https://app.prolific.com/","en-ZA,en-GB;q=0.9,en-US;q=0.8,en;q=0.7","61601e9a6b8306196d2a129c","683db9eb0562dbf637994deb","688097ff07f9843c6e60df55","2","1","61601e9a6b8306196d2a129c","2","1","2025-07-23T08:10:43.950Z","","","","","","","","","","","ControlQ","","50","","","","","","","","","","","","","","","","","","","","","","","","","","","","",""
"7759","","<div style=""width:500px;"">
  <p>How would you describe your current emotional state?</p>
  </div>","51","html-slider-response","17","262171","0.0-5.0-3.1","190","1","2025-07-23 08:06:28","1f75c3e559b7213887762d5229550c2b","41.114.217.78","Mozilla/5.0 (Windows NT 10.0; Win64; x64) AppleWebKit/537.36 (KHTML, like Gecko) Chrome/138.0.0.0 Safari/537.36","WebKit","Chrome","138.0.0.0","Windows","10.0","https://app.prolific.com/","en-ZA,en-GB;q=0.9,en-US;q=0.8,en;q=0.7","61601e9a6b8306196d2a129c","683db9eb0562dbf637994deb","688097ff07f9843c6e60df55","2","1","61601e9a6b8306196d2a129c","2","1","2025-07-23T08:10:51.710Z","","","","","","","","","","","StressQ","","50","","","","","","","","","","","","","","","","","","","","","","","","","","","","",""
"3550","","<div style=""width:500px;"">
  <p>What best describes how you currently feel?</p>
  </div>","22","html-slider-response","18","265723","0.0-5.0-4.1","190","1","2025-07-23 08:06:28","1f75c3e559b7213887762d5229550c2b","41.114.217.78","Mozilla/5.0 (Windows NT 10.0; Win64; x64) AppleWebKit/537.36 (KHTML, like Gecko) Chrome/138.0.0.0 Safari/537.36","WebKit","Chrome","138.0.0.0","Windows","10.0","https://app.prolific.com/","en-ZA,en-GB;q=0.9,en-US;q=0.8,en;q=0.7","61601e9a6b8306196d2a129c","683db9eb0562dbf637994deb","688097ff07f9843c6e60df55","2","1","61601e9a6b8306196d2a129c","2","1","2025-07-23T08:10:55.262Z","","","","","","","","","","","MotivationQ","","50","","","","","","","","","","","","","","","","","","","","","","","","","","","","",""
"","","","","ctl-task-cpt","19","301807","0.0-5.0-0.2","190","1","2025-07-23 08:06:28","1f75c3e559b7213887762d5229550c2b","41.114.217.78","Mozilla/5.0 (Windows NT 10.0; Win64; x64) AppleWebKit/537.36 (KHTML, like Gecko) Chrome/138.0.0.0 Safari/537.36","WebKit","Chrome","138.0.0.0","Windows","10.0","https://app.prolific.com/","en-ZA,en-GB;q=0.9,en-US;q=0.8,en;q=0.7","61601e9a6b8306196d2a129c","683db9eb0562dbf637994deb","688097ff07f9843c6e60df55","2","1","61601e9a6b8306196d2a129c","2","1","2025-07-23T08:11:31.346Z","","","","","","","","","","","","","","win-only","2","g1:SE,g2:NW","0.8","3","0","268723","2230","7231.3","33066.5","1","4","4","6","1","1","1","3","2","0.022727272727272728","1216.8","3000","1140","[""down"",""right""]","{""num_key_presses"":4,""num_perfect"":4,""num_errors"":0,""num_randdir"":0,""num_randdir_good_moves"":0,""num_whilered"":0,""num_whileblue"":0,""num_blue"":4,""num_good_moves"":4}","[416.57142857142856,417.6808016640799,0.2,416.57142857142856,417.6808016640799,101.1,416.57142857142856,417.6808016640799,201.2,416.57142857142856,417.6808016640799,301.4,416.57142857142856,417.6808016640799,402.4,416.57142857142856,417.6808016640799,505.8,416.57142857142856,417.6808016640799,605.8,641.5714285714286,680.1808016640799,706.7,698.5714285714286,753.6808016640799,810.7,740.5714285714286,786.6808016640799,912.1,757.0714285714286,797.1808016640799,1016.3,791.5714285714286,771.6808016640799,1122,791.5714285714286,771.6808016640799,1225.6,791.5714285714286,770.1808016640799,1326.7,791.5714285714286,765.6808016640799,1432.1,1036.0714285714287,537.6808016640799,1537,1070.5714285714287,497.1808016640799,1641.9,1099.0714285714287,497.1808016640799,1745.5,1099.0714285714287,497.1808016640799,1850.6,1099.0714285714287,497.1808016640799,1952.5,1099.0714285714287,497.1808016640799,2055.4,1099.0714285714287,497.1808016640799,2160.1,1099.0714285714287,497.1808016640799,2260.5,1099.0714285714287,497.1808016640799,2360.6,1099.0714285714287,497.1808016640799,2465.1,1099.0714285714287,497.1808016640799,2565.5,1099.0714285714287,497.1808016640799,2665.7,1099.0714285714287,497.1808016640799,2765.7,1099.0714285714287,497.1808016640799,2865.7,1099.0714285714287,497.1808016640799,2971.8,1099.0714285714287,497.1808016640799,3075.5,1099.0714285714287,497.1808016640799,3175.6,1099.0714285714287,497.1808016640799,3275.6,1099.0714285714287,497.1808016640799,3376.2,1099.0714285714287,497.1808016640799,3480.1,1099.0714285714287,497.1808016640799,3582,1099.0714285714287,497.1808016640799,3686.6,1099.0714285714287,497.1808016640799,3786.7,1099.0714285714287,497.1808016640799,3886.7,1099.0714285714287,497.1808016640799,3987,1099.0714285714287,497.1808016640799,4090.1,1099.0714285714287,497.1808016640799,4190.2,1099.0714285714287,497.1808016640799,4290.6,1099.0714285714287,497.1808016640799,4396.5,1099.0714285714287,497.1808016640799,4496.6,1099.0714285714287,497.1808016640799,4600.7,1099.0714285714287,497.1808016640799,4701.6,1099.0714285714287,497.1808016640799,4805.3,1099.0714285714287,497.1808016640799,4905.6]","[1536.4,1536.4,1000,0,536.4,""smooth"",""down"",""down"",""good_move"",8728.3,7191.5,2891.2,5434.4,402.7,""smooth"",""down"",""down"",""good_move"",15217.8,6489.3,2508,12254.4,455.4,""smooth"",""right"",""right"",""good_move"",25736.5,10518.4,2781,22469.1,486.4,""smooth"",""right"",""right"",""good_move""]","",""
"7667","","<div style=""width:500px;"">
  <p>What determined the result of this run?</p>
  </div>","99","html-slider-response","20","309475","0.0-5.0-1.2","190","1","2025-07-23 08:06:28","1f75c3e559b7213887762d5229550c2b","41.114.217.78","Mozilla/5.0 (Windows NT 10.0; Win64; x64) AppleWebKit/537.36 (KHTML, like Gecko) Chrome/138.0.0.0 Safari/537.36","WebKit","Chrome","138.0.0.0","Windows","10.0","https://app.prolific.com/","en-ZA,en-GB;q=0.9,en-US;q=0.8,en;q=0.7","61601e9a6b8306196d2a129c","683db9eb0562dbf637994deb","688097ff07f9843c6e60df55","2","1","61601e9a6b8306196d2a129c","2","1","2025-07-23T08:11:39.014Z","","","","","","","","","","","AttribQ","","50","","","","","","","","","","","","","","","","","","","","","","","","","","","","",""
"29655","","<div style=""width:500px;"">
  <p>How much control did you have over the ball?</p>
  </div>","100","html-slider-response","21","339131","0.0-5.0-2.2","190","1","2025-07-23 08:06:28","1f75c3e559b7213887762d5229550c2b","41.114.217.78","Mozilla/5.0 (Windows NT 10.0; Win64; x64) AppleWebKit/537.36 (KHTML, like Gecko) Chrome/138.0.0.0 Safari/537.36","WebKit","Chrome","138.0.0.0","Windows","10.0","https://app.prolific.com/","en-ZA,en-GB;q=0.9,en-US;q=0.8,en;q=0.7","61601e9a6b8306196d2a129c","683db9eb0562dbf637994deb","688097ff07f9843c6e60df55","2","1","61601e9a6b8306196d2a129c","2","1","2025-07-23T08:12:08.671Z","","","","","","","","","","","ControlQ","","50","","","","","","","","","","","","","","","","","","","","","","","","","","","","",""
"12927","","<div style=""width:500px;"">
  <p>How would you describe your current emotional state?</p>
  </div>","58","html-slider-response","22","352059","0.0-5.0-3.2","190","1","2025-07-23 08:06:28","1f75c3e559b7213887762d5229550c2b","41.114.217.78","Mozilla/5.0 (Windows NT 10.0; Win64; x64) AppleWebKit/537.36 (KHTML, like Gecko) Chrome/138.0.0.0 Safari/537.36","WebKit","Chrome","138.0.0.0","Windows","10.0","https://app.prolific.com/","en-ZA,en-GB;q=0.9,en-US;q=0.8,en;q=0.7","61601e9a6b8306196d2a129c","683db9eb0562dbf637994deb","688097ff07f9843c6e60df55","2","1","61601e9a6b8306196d2a129c","2","1","2025-07-23T08:12:21.599Z","","","","","","","","","","","StressQ","","50","","","","","","","","","","","","","","","","","","","","","","","","","","","","",""
"2887","","<div style=""width:500px;"">
  <p>What best describes how you currently feel?</p>
  </div>","13","html-slider-response","23","354947","0.0-5.0-4.2","190","1","2025-07-23 08:06:28","1f75c3e559b7213887762d5229550c2b","41.114.217.78","Mozilla/5.0 (Windows NT 10.0; Win64; x64) AppleWebKit/537.36 (KHTML, like Gecko) Chrome/138.0.0.0 Safari/537.36","WebKit","Chrome","138.0.0.0","Windows","10.0","https://app.prolific.com/","en-ZA,en-GB;q=0.9,en-US;q=0.8,en;q=0.7","61601e9a6b8306196d2a129c","683db9eb0562dbf637994deb","688097ff07f9843c6e60df55","2","1","61601e9a6b8306196d2a129c","2","1","2025-07-23T08:12:24.486Z","","","","","","","","","","","MotivationQ","","50","","","","","","","","","","","","","","","","","","","","","","","","","","","","",""
"","","","","ctl-task-cpt","24","386906","0.0-5.0-0.3","190","1","2025-07-23 08:06:28","1f75c3e559b7213887762d5229550c2b","41.114.217.78","Mozilla/5.0 (Windows NT 10.0; Win64; x64) AppleWebKit/537.36 (KHTML, like Gecko) Chrome/138.0.0.0 Safari/537.36","WebKit","Chrome","138.0.0.0","Windows","10.0","https://app.prolific.com/","en-ZA,en-GB;q=0.9,en-US;q=0.8,en;q=0.7","61601e9a6b8306196d2a129c","683db9eb0562dbf637994deb","688097ff07f9843c6e60df55","2","1","61601e9a6b8306196d2a129c","2","1","2025-07-23T08:12:56.445Z","","","","","","","","","","","","","","win-only","3","g1:SW,g2:NE","0.7","4","0","357947.1","1150.6","6150.9","28950.9","1","4","8","6","2","8","8","11","3","0.08333333333333333","1360.3","3000","840","[""up"",""right""]","{""num_key_presses"":6,""num_perfect"":3,""num_errors"":0,""num_randdir"":3,""num_randdir_good_moves"":3,""num_whilered"":0,""num_whileblue"":0,""num_blue"":2,""num_good_moves"":6}","[410.57142857142856,422.1808016640799,0.3,410.57142857142856,422.1808016640799,101,410.57142857142856,422.1808016640799,208.4,410.57142857142856,422.1808016640799,311.1,410.57142857142856,422.1808016640799,411.1,410.57142857142856,422.1808016640799,515.4,410.57142857142856,422.1808016640799,616,410.57142857142856,422.1808016640799,724.7,410.57142857142856,420.6808016640799,825,662.5714285714286,191.18080166407992,930.4,731.5714285714286,74.18080166407994,1036.5,746.5714285714286,50.18080166407994,1141.5,749.5714285714286,45.68080166407994,1241.6,751.0714285714286,45.68080166407994,1345.3,752.5714285714286,45.68080166407994,1454.6,752.5714285714286,45.68080166407994,1559.4,752.5714285714286,45.68080166407994,1659.6,752.5714285714286,47.18080166407994,1759.6,836.5714285714286,188.18080166407992,1861.2,836.5714285714286,188.18080166407992,1966.1,836.5714285714286,188.18080166407992,2074.3,836.5714285714286,188.18080166407992,2176.4,836.5714285714286,188.18080166407992,2281.2,836.5714285714286,188.18080166407992,2392.1,836.5714285714286,188.18080166407992,2500.2,836.5714285714286,188.18080166407992,2601.1,836.5714285714286,188.18080166407992,2707.7,836.5714285714286,188.18080166407992,2808.6,836.5714285714286,188.18080166407992,2910.7,836.5714285714286,188.18080166407992,3011.3,836.5714285714286,188.18080166407992,3111.4,836.5714285714286,188.18080166407992,3211.5,836.5714285714286,188.18080166407992,3316.3,836.5714285714286,188.18080166407992,3423.9,836.5714285714286,188.18080166407992,3526.1,836.5714285714286,188.18080166407992,3630,836.5714285714286,188.18080166407992,3730.9,836.5714285714286,188.18080166407992,3840.9,836.5714285714286,188.18080166407992,3941.3,836.5714285714286,188.18080166407992,4041.3,836.5714285714286,188.18080166407992,4141.8,836.5714285714286,188.18080166407992,4252,836.5714285714286,188.18080166407992,4358.7,836.5714285714286,188.18080166407992,4459.2,836.5714285714286,188.18080166407992,4560.4,836.5714285714286,188.18080166407992,4665.3,836.5714285714286,188.18080166407992,4765.7,836.5714285714286,188.18080166407992,4866.2,836.5714285714286,188.18080166407992,4973.8]","[1407.9,1407.9,1000,0,407.9,""smooth"",""up"",""up"",""good_move"",4225.7,2817.5,2377.5,1408.2,440,""oops"",""up"",""up"",""good_move"",7481.3,3255.4,2859.8,4225.9,395.6,""smooth"",""up"",""up"",""good_move"",13488.6,6007.2,2765.8,10265.4,457.4,""smooth"",""right"",""right"",""good_move"",16929.6,3440.7,3021.1,13488.9,419.6,""oops"",""right"",""right"",""good_move"",22705.2,5775.4,2069.1,20245.7,390.4,""oops"",""right"",""right"",""good_move""]","",""
"4473","","<div style=""width:500px;"">
  <p>What determined the result of this run?</p>
  </div>","50","html-slider-response","25","391380","0.0-5.0-1.3","190","1","2025-07-23 08:06:28","1f75c3e559b7213887762d5229550c2b","41.114.217.78","Mozilla/5.0 (Windows NT 10.0; Win64; x64) AppleWebKit/537.36 (KHTML, like Gecko) Chrome/138.0.0.0 Safari/537.36","WebKit","Chrome","138.0.0.0","Windows","10.0","https://app.prolific.com/","en-ZA,en-GB;q=0.9,en-US;q=0.8,en;q=0.7","61601e9a6b8306196d2a129c","683db9eb0562dbf637994deb","688097ff07f9843c6e60df55","2","1","61601e9a6b8306196d2a129c","2","1","2025-07-23T08:13:00.919Z","","","","","","","","","","","AttribQ","","50","","","","","","","","","","","","","","","","","","","","","","","","","","","","",""
"3703","","<div style=""width:500px;"">
  <p>How much control did you have over the ball?</p>
  </div>","83","html-slider-response","26","395084","0.0-5.0-2.3","190","1","2025-07-23 08:06:28","1f75c3e559b7213887762d5229550c2b","41.114.217.78","Mozilla/5.0 (Windows NT 10.0; Win64; x64) AppleWebKit/537.36 (KHTML, like Gecko) Chrome/138.0.0.0 Safari/537.36","WebKit","Chrome","138.0.0.0","Windows","10.0","https://app.prolific.com/","en-ZA,en-GB;q=0.9,en-US;q=0.8,en;q=0.7","61601e9a6b8306196d2a129c","683db9eb0562dbf637994deb","688097ff07f9843c6e60df55","2","1","61601e9a6b8306196d2a129c","2","1","2025-07-23T08:13:04.623Z","","","","","","","","","","","ControlQ","","50","","","","","","","","","","","","","","","","","","","","","","","","","","","","",""
"4119","","<div style=""width:500px;"">
  <p>How would you describe your current emotional state?</p>
  </div>","80","html-slider-response","27","399204","0.0-5.0-3.3","190","1","2025-07-23 08:06:28","1f75c3e559b7213887762d5229550c2b","41.114.217.78","Mozilla/5.0 (Windows NT 10.0; Win64; x64) AppleWebKit/537.36 (KHTML, like Gecko) Chrome/138.0.0.0 Safari/537.36","WebKit","Chrome","138.0.0.0","Windows","10.0","https://app.prolific.com/","en-ZA,en-GB;q=0.9,en-US;q=0.8,en;q=0.7","61601e9a6b8306196d2a129c","683db9eb0562dbf637994deb","688097ff07f9843c6e60df55","2","1","61601e9a6b8306196d2a129c","2","1","2025-07-23T08:13:08.743Z","","","","","","","","","","","StressQ","","50","","","","","","","","","","","","","","","","","","","","","","","","","","","","",""
"3879","","<div style=""width:500px;"">
  <p>What best describes how you currently feel?</p>
  </div>","27","html-slider-response","28","403084","0.0-5.0-4.3","190","1","2025-07-23 08:06:28","1f75c3e559b7213887762d5229550c2b","41.114.217.78","Mozilla/5.0 (Windows NT 10.0; Win64; x64) AppleWebKit/537.36 (KHTML, like Gecko) Chrome/138.0.0.0 Safari/537.36","WebKit","Chrome","138.0.0.0","Windows","10.0","https://app.prolific.com/","en-ZA,en-GB;q=0.9,en-US;q=0.8,en;q=0.7","61601e9a6b8306196d2a129c","683db9eb0562dbf637994deb","688097ff07f9843c6e60df55","2","1","61601e9a6b8306196d2a129c","2","1","2025-07-23T08:13:12.623Z","","","","","","","","","","","MotivationQ","","50","","","","","","","","","","","","","","","","","","","","","","","","","","","","",""
"","","","","ctl-task-cpt","29","424571","0.0-5.0-0.4","190","1","2025-07-23 08:06:28","1f75c3e559b7213887762d5229550c2b","41.114.217.78","Mozilla/5.0 (Windows NT 10.0; Win64; x64) AppleWebKit/537.36 (KHTML, like Gecko) Chrome/138.0.0.0 Safari/537.36","WebKit","Chrome","138.0.0.0","Windows","10.0","https://app.prolific.com/","en-ZA,en-GB;q=0.9,en-US;q=0.8,en;q=0.7","61601e9a6b8306196d2a129c","683db9eb0562dbf637994deb","688097ff07f9843c6e60df55","2","1","61601e9a6b8306196d2a129c","2","1","2025-07-23T08:13:34.110Z","","","","","","","","","","","","","","win-only","2","g1:SE,g2:NW","0.6","5","0","406084.5","1189.9","6191.4","18466.2","1","4","8","6","1","1","1","12","11","0.09090909090909091","1544.1","3000","1255","[""down"",""right""]","{""num_key_presses"":4,""num_perfect"":4,""num_errors"":0,""num_randdir"":0,""num_randdir_good_moves"":0,""num_whilered"":0,""num_whileblue"":0,""num_blue"":1,""num_good_moves"":4}","[421.07142857142856,416.1808016640799,0.2,421.07142857142856,416.1808016640799,100.9,421.07142857142856,416.1808016640799,200.9,421.07142857142856,416.1808016640799,306.6,421.07142857142856,416.1808016640799,414.1,421.07142857142856,416.1808016640799,515.7,421.07142857142856,416.1808016640799,615.7,421.07142857142856,416.1808016640799,721.6,421.07142857142856,416.1808016640799,826.6,421.07142857142856,416.1808016640799,926.6,706.0714285714286,726.6808016640799,1030.8,823.0714285714286,809.1808016640799,1132,823.0714285714286,809.1808016640799,1236.4,802.0714285714286,792.6808016640799,1337.4,779.5714285714286,782.1808016640799,1441.5,779.5714285714286,782.1808016640799,1542,779.5714285714286,782.1808016640799,1642.5,779.5714285714286,779.1808016640799,1746.2,1169.5714285714287,686.1808016640799,1846.9,1256.5714285714287,663.6808016640799,1952,1256.5714285714287,663.6808016640799,2056.2,1256.5714285714287,663.6808016640799,2161.8,1256.5714285714287,663.6808016640799,2263.6,1256.5714285714287,663.6808016640799,2365.7,1256.5714285714287,663.6808016640799,2471.7,1256.5714285714287,663.6808016640799,2571.7,1256.5714285714287,663.6808016640799,2676.3,1256.5714285714287,663.6808016640799,2776.4,1256.5714285714287,663.6808016640799,2877.1,1256.5714285714287,663.6808016640799,2980.3,1256.5714285714287,663.6808016640799,3081.4,1256.5714285714287,663.6808016640799,3186,1256.5714285714287,663.6808016640799,3286.6,1256.5714285714287,663.6808016640799,3390.8,1256.5714285714287,663.6808016640799,3491.7,1256.5714285714287,663.6808016640799,3596.7,1256.5714285714287,663.6808016640799,3701.4,1256.5714285714287,663.6808016640799,3801.7,1256.5714285714287,663.6808016640799,3902,1256.5714285714287,663.6808016640799,4002.1,1256.5714285714287,663.6808016640799,4102.1,1256.5714285714287,663.6808016640799,4205.8,1256.5714285714287,663.6808016640799,4306.5,1256.5714285714287,663.6808016640799,4414.5,1256.5714285714287,663.6808016640799,4515.7,1256.5714285714287,663.6808016640799,4616.3,1256.5714285714287,663.6808016640799,4716.6,1256.5714285714287,663.6808016640799,4816.6,1256.5714285714287,663.6808016640799,4921.3]","[1431.9,1431.9,1000,0,431.9,""smooth"",""down"",""down"",""good_move"",7279.9,5847.7,2156.8,4664.4,458.7,""smooth"",""right"",""right"",""good_move"",9959.5,2679.3,2198.6,7280.2,480.7,""smooth"",""down"",""down"",""good_move"",12183.6,2223.8,1821,9959.8,402.8,""smooth"",""right"",""right"",""good_move""]","",""
"3105","","<div style=""width:500px;"">
  <p>What determined the result of this run?</p>
  </div>","98","html-slider-response","30","427677","0.0-5.0-1.4","190","1","2025-07-23 08:06:28","1f75c3e559b7213887762d5229550c2b","41.114.217.78","Mozilla/5.0 (Windows NT 10.0; Win64; x64) AppleWebKit/537.36 (KHTML, like Gecko) Chrome/138.0.0.0 Safari/537.36","WebKit","Chrome","138.0.0.0","Windows","10.0","https://app.prolific.com/","en-ZA,en-GB;q=0.9,en-US;q=0.8,en;q=0.7","61601e9a6b8306196d2a129c","683db9eb0562dbf637994deb","688097ff07f9843c6e60df55","2","1","61601e9a6b8306196d2a129c","2","1","2025-07-23T08:13:37.216Z","","","","","","","","","","","AttribQ","","50","","","","","","","","","","","","","","","","","","","","","","","","","","","","",""
"1886","","<div style=""width:500px;"">
  <p>How much control did you have over the ball?</p>
  </div>","100","html-slider-response","31","429564","0.0-5.0-2.4","190","1","2025-07-23 08:06:28","1f75c3e559b7213887762d5229550c2b","41.114.217.78","Mozilla/5.0 (Windows NT 10.0; Win64; x64) AppleWebKit/537.36 (KHTML, like Gecko) Chrome/138.0.0.0 Safari/537.36","WebKit","Chrome","138.0.0.0","Windows","10.0","https://app.prolific.com/","en-ZA,en-GB;q=0.9,en-US;q=0.8,en;q=0.7","61601e9a6b8306196d2a129c","683db9eb0562dbf637994deb","688097ff07f9843c6e60df55","2","1","61601e9a6b8306196d2a129c","2","1","2025-07-23T08:13:39.103Z","","","","","","","","","","","ControlQ","","50","","","","","","","","","","","","","","","","","","","","","","","","","","","","",""
"9839","","<div style=""width:500px;"">
  <p>How would you describe your current emotional state?</p>
  </div>","75","html-slider-response","32","439404","0.0-5.0-3.4","190","1","2025-07-23 08:06:28","1f75c3e559b7213887762d5229550c2b","41.114.217.78","Mozilla/5.0 (Windows NT 10.0; Win64; x64) AppleWebKit/537.36 (KHTML, like Gecko) Chrome/138.0.0.0 Safari/537.36","WebKit","Chrome","138.0.0.0","Windows","10.0","https://app.prolific.com/","en-ZA,en-GB;q=0.9,en-US;q=0.8,en;q=0.7","61601e9a6b8306196d2a129c","683db9eb0562dbf637994deb","688097ff07f9843c6e60df55","2","1","61601e9a6b8306196d2a129c","2","1","2025-07-23T08:13:48.943Z","","","","","","","","","","","StressQ","","50","","","","","","","","","","","","","","","","","","","","","","","","","","","","",""
"3519","","<div style=""width:500px;"">
  <p>What best describes how you currently feel?</p>
  </div>","16","html-slider-response","33","442924","0.0-5.0-4.4","190","1","2025-07-23 08:06:28","1f75c3e559b7213887762d5229550c2b","41.114.217.78","Mozilla/5.0 (Windows NT 10.0; Win64; x64) AppleWebKit/537.36 (KHTML, like Gecko) Chrome/138.0.0.0 Safari/537.36","WebKit","Chrome","138.0.0.0","Windows","10.0","https://app.prolific.com/","en-ZA,en-GB;q=0.9,en-US;q=0.8,en;q=0.7","61601e9a6b8306196d2a129c","683db9eb0562dbf637994deb","688097ff07f9843c6e60df55","2","1","61601e9a6b8306196d2a129c","2","1","2025-07-23T08:13:52.463Z","","","","","","","","","","","MotivationQ","","50","","","","","","","","","","","","","","","","","","","","","","","","","","","","",""
"","","","","ctl-task-cpt","34","480277","0.0-5.0-0.5","190","1","2025-07-23 08:06:28","1f75c3e559b7213887762d5229550c2b","41.114.217.78","Mozilla/5.0 (Windows NT 10.0; Win64; x64) AppleWebKit/537.36 (KHTML, like Gecko) Chrome/138.0.0.0 Safari/537.36","WebKit","Chrome","138.0.0.0","Windows","10.0","https://app.prolific.com/","en-ZA,en-GB;q=0.9,en-US;q=0.8,en;q=0.7","61601e9a6b8306196d2a129c","683db9eb0562dbf637994deb","688097ff07f9843c6e60df55","2","1","61601e9a6b8306196d2a129c","2","1","2025-07-23T08:14:29.816Z","","","","","","","","","","","","","","win-only","2","g1:SE,g2:NW","0.5","6","0","445924.2","1410.6","6411.9","34335.7","1","4","4","6","2","-4","-4","8","12","0.06060606060606061","1811.7","3000","-3005","[""left"",""up""]","{""num_key_presses"":7,""num_perfect"":3,""num_errors"":0,""num_randdir"":4,""num_randdir_good_moves"":3,""num_whilered"":0,""num_whileblue"":0,""num_blue"":2,""num_good_moves"":6}","[413.57142857142856,422.1808016640799,0.3,413.57142857142856,422.1808016640799,100.7,413.57142857142856,422.1808016640799,202.6,413.57142857142856,422.1808016640799,305.1,413.57142857142856,422.1808016640799,410.7,413.57142857142856,422.1808016640799,519.1,413.57142857142856,422.1808016640799,619.8,413.57142857142856,422.1808016640799,720.2,413.57142857142856,422.1808016640799,821,413.57142857142856,422.1808016640799,925.4,329.57142857142856,335.1808016640799,1025.8,211.07142857142856,251.18080166407992,1126,118.07142857142857,203.18080166407992,1226.2,-45.42857142857143,131.18080166407992,1334.7,-61.92857142857143,96.68080166407994,1434.9,-36.42857142857143,77.18080166407994,1534.9,2.5714285714285694,75.68080166407994,1636.3,25.07142857142857,75.68080166407994,1740,28.07142857142857,75.68080166407994,1840.1,28.07142857142857,75.68080166407994,1940.1,743.5714285714286,197.18080166407992,2040.1,1375.0714285714287,509.1808016640799,2140.4,1375.0714285714287,509.1808016640799,2244,1375.0714285714287,509.1808016640799,2344.7,1375.0714285714287,509.1808016640799,2453.2,1375.0714285714287,509.1808016640799,2563.2,1375.0714285714287,509.1808016640799,2669,1375.0714285714287,509.1808016640799,2769.9,1375.0714285714287,509.1808016640799,2870.4,1375.0714285714287,509.1808016640799,2970.9,1375.0714285714287,509.1808016640799,3074.7,1375.0714285714287,509.1808016640799,3175.4,1375.0714285714287,509.1808016640799,3276,1375.0714285714287,509.1808016640799,3379.9,1375.0714285714287,509.1808016640799,3480.2,1375.0714285714287,509.1808016640799,3580.9,1375.0714285714287,509.1808016640799,3684.6,1375.0714285714287,509.1808016640799,3784.8,1375.0714285714287,509.1808016640799,3886,1375.0714285714287,509.1808016640799,3990,1375.0714285714287,509.1808016640799,4090.1,1375.0714285714287,509.1808016640799,4190.3,1375.0714285714287,509.1808016640799,4295.8,1375.0714285714287,509.1808016640799,4396.5,1375.0714285714287,509.1808016640799,4500.7,1375.0714285714287,509.1808016640799,4600.8,1375.0714285714287,509.1808016640799,4704.6,1375.0714285714287,509.1808016640799,4805.1,1375.0714285714287,509.1808016640799,4906.3]","[8356.3,8356.3,2472.6,5495.8,387.9,""oops"",""up"",""up"",""good_move"",10459.8,2103.1,1695.4,8356.7,407.7,""smooth"",""up"",""up"",""good_move"",13308,2848,2451.5,10460,396.5,""smooth"",""up"",""up"",""good_move"",15387.7,2079.5,1646.3,13308.2,433.2,""oops"",""left"",""left"",""good_move"",18459.9,3071.8,2696,15388.1,375.8,""oops"",""left"",""left"",""good_move"",21528,3068,2678.6,18460.1,389.3,""oops"",""left"",""right"",""bad_move"",25003.9,3475.6,3123.3,21528.3,352.3,""smooth"",""left"",""left"",""good_move""]","",""
"5046","","<div style=""width:500px;"">
  <p>What determined the result of this run?</p>
  </div>","0","html-slider-response","35","485324","0.0-5.0-1.5","190","1","2025-07-23 08:06:28","1f75c3e559b7213887762d5229550c2b","41.114.217.78","Mozilla/5.0 (Windows NT 10.0; Win64; x64) AppleWebKit/537.36 (KHTML, like Gecko) Chrome/138.0.0.0 Safari/537.36","WebKit","Chrome","138.0.0.0","Windows","10.0","https://app.prolific.com/","en-ZA,en-GB;q=0.9,en-US;q=0.8,en;q=0.7","61601e9a6b8306196d2a129c","683db9eb0562dbf637994deb","688097ff07f9843c6e60df55","2","1","61601e9a6b8306196d2a129c","2","1","2025-07-23T08:14:34.863Z","","","","","","","","","","","AttribQ","","50","","","","","","","","","","","","","","","","","","","","","","","","","","","","",""
"5119","","<div style=""width:500px;"">
  <p>How much control did you have over the ball?</p>
  </div>","9","html-slider-response","36","490445","0.0-5.0-2.5","190","1","2025-07-23 08:06:28","1f75c3e559b7213887762d5229550c2b","41.114.217.78","Mozilla/5.0 (Windows NT 10.0; Win64; x64) AppleWebKit/537.36 (KHTML, like Gecko) Chrome/138.0.0.0 Safari/537.36","WebKit","Chrome","138.0.0.0","Windows","10.0","https://app.prolific.com/","en-ZA,en-GB;q=0.9,en-US;q=0.8,en;q=0.7","61601e9a6b8306196d2a129c","683db9eb0562dbf637994deb","688097ff07f9843c6e60df55","2","1","61601e9a6b8306196d2a129c","2","1","2025-07-23T08:14:39.984Z","","","","","","","","","","","ControlQ","","50","","","","","","","","","","","","","","","","","","","","","","","","","","","","",""
"3263","","<div style=""width:500px;"">
  <p>How would you describe your current emotional state?</p>
  </div>","76","html-slider-response","37","493709","0.0-5.0-3.5","190","1","2025-07-23 08:06:28","1f75c3e559b7213887762d5229550c2b","41.114.217.78","Mozilla/5.0 (Windows NT 10.0; Win64; x64) AppleWebKit/537.36 (KHTML, like Gecko) Chrome/138.0.0.0 Safari/537.36","WebKit","Chrome","138.0.0.0","Windows","10.0","https://app.prolific.com/","en-ZA,en-GB;q=0.9,en-US;q=0.8,en;q=0.7","61601e9a6b8306196d2a129c","683db9eb0562dbf637994deb","688097ff07f9843c6e60df55","2","1","61601e9a6b8306196d2a129c","2","1","2025-07-23T08:14:43.248Z","","","","","","","","","","","StressQ","","50","","","","","","","","","","","","","","","","","","","","","","","","","","","","",""
"2326","","<div style=""width:500px;"">
  <p>What best describes how you currently feel?</p>
  </div>","15","html-slider-response","38","496036","0.0-5.0-4.5","190","1","2025-07-23 08:06:28","1f75c3e559b7213887762d5229550c2b","41.114.217.78","Mozilla/5.0 (Windows NT 10.0; Win64; x64) AppleWebKit/537.36 (KHTML, like Gecko) Chrome/138.0.0.0 Safari/537.36","WebKit","Chrome","138.0.0.0","Windows","10.0","https://app.prolific.com/","en-ZA,en-GB;q=0.9,en-US;q=0.8,en;q=0.7","61601e9a6b8306196d2a129c","683db9eb0562dbf637994deb","688097ff07f9843c6e60df55","2","1","61601e9a6b8306196d2a129c","2","1","2025-07-23T08:14:45.575Z","","","","","","","","","","","MotivationQ","","50","","","","","","","","","","","","","","","","","","","","","","","","","","","","",""
"","","","","ctl-task-cpt","39","539857","0.0-5.0-0.6","190","1","2025-07-23 08:06:28","1f75c3e559b7213887762d5229550c2b","41.114.217.78","Mozilla/5.0 (Windows NT 10.0; Win64; x64) AppleWebKit/537.36 (KHTML, like Gecko) Chrome/138.0.0.0 Safari/537.36","WebKit","Chrome","138.0.0.0","Windows","10.0","https://app.prolific.com/","en-ZA,en-GB;q=0.9,en-US;q=0.8,en;q=0.7","61601e9a6b8306196d2a129c","683db9eb0562dbf637994deb","688097ff07f9843c6e60df55","2","1","61601e9a6b8306196d2a129c","2","1","2025-07-23T08:15:29.396Z","","","","","","","","","","","","","","win-only","2","g1:SE,g2:NW","0.4","7","0","499035.6","1038.8","6043.4","40800.9","1","4","4","6","2","-4","-4","4","8","0.030303030303030304","1744.5","3000","-3010","[""left"",""up""]","{""num_key_presses"":7,""num_perfect"":4,""num_errors"":0,""num_randdir"":3,""num_randdir_good_moves"":2,""num_whilered"":0,""num_whileblue"":0,""num_blue"":4,""num_good_moves"":6}","[416.57142857142856,413.1808016640799,0.2,416.57142857142856,413.1808016640799,119.2,416.57142857142856,413.1808016640799,230,416.57142857142856,413.1808016640799,332.5,416.57142857142856,413.1808016640799,436.5,416.57142857142856,413.1808016640799,548.6,416.57142857142856,413.1808016640799,651.5,416.57142857142856,413.1808016640799,761.2,416.57142857142856,413.1808016640799,867.9,416.57142857142856,413.1808016640799,971.6,416.57142857142856,413.1808016640799,1071.9,356.57142857142856,365.1808016640799,1176.4,163.07142857142856,152.18080166407992,1282.8,104.57142857142857,69.68080166407994,1386.6,95.57142857142857,50.18080166407994,1495.1,86.57142857142857,44.18080166407994,1597,86.57142857142857,44.18080166407994,1697.7,86.57142857142857,44.18080166407994,1801.5,86.57142857142857,44.18080166407994,1902.7,509.57142857142856,227.18080166407992,2012.1,1375.0714285714287,689.1808016640799,2117.2,1375.0714285714287,689.1808016640799,2227.4,1373.5714285714287,689.1808016640799,2327.9,1373.5714285714287,689.1808016640799,2432.8,1373.5714285714287,689.1808016640799,2544.6,1373.5714285714287,689.1808016640799,2653.1,1373.5714285714287,689.1808016640799,2757.3,1373.5714285714287,689.1808016640799,2860.9,1373.5714285714287,689.1808016640799,2961.2,1373.5714285714287,689.1808016640799,3062.2,1373.5714285714287,689.1808016640799,3162.2,1373.5714285714287,689.1808016640799,3262.2,1373.5714285714287,689.1808016640799,3368.4,1373.5714285714287,689.1808016640799,3472.6,1373.5714285714287,689.1808016640799,3577.4,1373.5714285714287,689.1808016640799,3682.7,1373.5714285714287,689.1808016640799,3786.8,1373.5714285714287,689.1808016640799,3894.4,1373.5714285714287,689.1808016640799,4004.8,1373.5714285714287,689.1808016640799,4111.2,1373.5714285714287,689.1808016640799,4212.8,1373.5714285714287,689.1808016640799,4316.8,1373.5714285714287,689.1808016640799,4417.8,1373.5714285714287,689.1808016640799,4528.3,1373.5714285714287,689.1808016640799,4632.5,1373.5714285714287,689.1808016640799,4735.4,1373.5714285714287,689.1808016640799,4836.9,1373.5714285714287,689.1808016640799,4944.5]","[1509.5,1509.5,1000,0,509.5,""smooth"",""left"",""left"",""good_move"",8245.8,6736,3362,4497.7,386.1,""oops"",""left"",""left"",""good_move"",10485.2,2239.2,1754,8246.1,485.1,""smooth"",""up"",""up"",""good_move"",13469.3,2983.8,2609,10485.5,374.8,""smooth"",""left"",""left"",""good_move"",27445.9,13976.4,2518.8,24432.8,494.3,""oops"",""up"",""right"",""bad_move"",30373.5,2927.2,2534.7,27446.3,392.5,""smooth"",""up"",""up"",""good_move"",32646.2,2272.4,1876.6,30373.8,395.8,""oops"",""up"",""up"",""good_move""]","",""
"5123","","<div style=""width:500px;"">
  <p>What determined the result of this run?</p>
  </div>","1","html-slider-response","40","544981","0.0-5.0-1.6","190","1","2025-07-23 08:06:28","1f75c3e559b7213887762d5229550c2b","41.114.217.78","Mozilla/5.0 (Windows NT 10.0; Win64; x64) AppleWebKit/537.36 (KHTML, like Gecko) Chrome/138.0.0.0 Safari/537.36","WebKit","Chrome","138.0.0.0","Windows","10.0","https://app.prolific.com/","en-ZA,en-GB;q=0.9,en-US;q=0.8,en;q=0.7","61601e9a6b8306196d2a129c","683db9eb0562dbf637994deb","688097ff07f9843c6e60df55","2","1","61601e9a6b8306196d2a129c","2","1","2025-07-23T08:15:34.520Z","","","","","","","","","","","AttribQ","","50","","","","","","","","","","","","","","","","","","","","","","","","","","","","",""
"3143","","<div style=""width:500px;"">
  <p>How much control did you have over the ball?</p>
  </div>","2","html-slider-response","41","548125","0.0-5.0-2.6","190","1","2025-07-23 08:06:28","1f75c3e559b7213887762d5229550c2b","41.114.217.78","Mozilla/5.0 (Windows NT 10.0; Win64; x64) AppleWebKit/537.36 (KHTML, like Gecko) Chrome/138.0.0.0 Safari/537.36","WebKit","Chrome","138.0.0.0","Windows","10.0","https://app.prolific.com/","en-ZA,en-GB;q=0.9,en-US;q=0.8,en;q=0.7","61601e9a6b8306196d2a129c","683db9eb0562dbf637994deb","688097ff07f9843c6e60df55","2","1","61601e9a6b8306196d2a129c","2","1","2025-07-23T08:15:37.664Z","","","","","","","","","","","ControlQ","","50","","","","","","","","","","","","","","","","","","","","","","","","","","","","",""
"2383","","<div style=""width:500px;"">
  <p>How would you describe your current emotional state?</p>
  </div>","87","html-slider-response","42","550509","0.0-5.0-3.6","190","1","2025-07-23 08:06:28","1f75c3e559b7213887762d5229550c2b","41.114.217.78","Mozilla/5.0 (Windows NT 10.0; Win64; x64) AppleWebKit/537.36 (KHTML, like Gecko) Chrome/138.0.0.0 Safari/537.36","WebKit","Chrome","138.0.0.0","Windows","10.0","https://app.prolific.com/","en-ZA,en-GB;q=0.9,en-US;q=0.8,en;q=0.7","61601e9a6b8306196d2a129c","683db9eb0562dbf637994deb","688097ff07f9843c6e60df55","2","1","61601e9a6b8306196d2a129c","2","1","2025-07-23T08:15:40.048Z","","","","","","","","","","","StressQ","","50","","","","","","","","","","","","","","","","","","","","","","","","","","","","",""
"3647","","<div style=""width:500px;"">
  <p>What best describes how you currently feel?</p>
  </div>","12","html-slider-response","43","554157","0.0-5.0-4.6","190","1","2025-07-23 08:06:28","1f75c3e559b7213887762d5229550c2b","41.114.217.78","Mozilla/5.0 (Windows NT 10.0; Win64; x64) AppleWebKit/537.36 (KHTML, like Gecko) Chrome/138.0.0.0 Safari/537.36","WebKit","Chrome","138.0.0.0","Windows","10.0","https://app.prolific.com/","en-ZA,en-GB;q=0.9,en-US;q=0.8,en;q=0.7","61601e9a6b8306196d2a129c","683db9eb0562dbf637994deb","688097ff07f9843c6e60df55","2","1","61601e9a6b8306196d2a129c","2","1","2025-07-23T08:15:43.696Z","","","","","","","","","","","MotivationQ","","50","","","","","","","","","","","","","","","","","","","","","","","","","","","","",""
"","","","","ctl-task-cpt","44","589030","0.0-5.0-0.7","190","1","2025-07-23 08:06:28","1f75c3e559b7213887762d5229550c2b","41.114.217.78","Mozilla/5.0 (Windows NT 10.0; Win64; x64) AppleWebKit/537.36 (KHTML, like Gecko) Chrome/138.0.0.0 Safari/537.36","WebKit","Chrome","138.0.0.0","Windows","10.0","https://app.prolific.com/","en-ZA,en-GB;q=0.9,en-US;q=0.8,en;q=0.7","61601e9a6b8306196d2a129c","683db9eb0562dbf637994deb","688097ff07f9843c6e60df55","2","1","61601e9a6b8306196d2a129c","2","1","2025-07-23T08:16:18.569Z","","","","","","","","","","","","","","win-only","3","g1:SW,g2:NE","0.3","8","0","557156.8","1086.6","6091.1","31851","1","4","8","6","2","-8","-8","0","4","0","1719.6","3000","-3005","[""up"",""right""]","{""num_key_presses"":7,""num_perfect"":1,""num_errors"":0,""num_randdir"":6,""num_randdir_good_moves"":3,""num_whilered"":0,""num_whileblue"":0,""num_blue"":1,""num_good_moves"":4}","[413.57142857142856,404.1808016640799,0.1,413.57142857142856,404.1808016640799,106,413.57142857142856,404.1808016640799,209.4,413.57142857142856,404.1808016640799,314.2,413.57142857142856,404.1808016640799,424.2,413.57142857142856,404.1808016640799,527.5,413.57142857142856,404.1808016640799,629.7,413.57142857142856,404.1808016640799,729.7,413.57142857142856,404.1808016640799,846.2,431.57142857142856,366.6808016640799,956.8,620.5714285714286,138.68080166407992,1058.2,671.5714285714286,81.68080166407994,1159.2,671.5714285714286,80.18080166407994,1259.9,673.0714285714286,80.18080166407994,1364,740.5714285714286,80.18080166407994,1464.2,740.5714285714286,80.18080166407994,1564.6,740.5714285714286,80.18080166407994,1669.6,742.0714285714286,80.18080166407994,1773.8,746.5714285714286,80.18080166407994,1873.8,1375.0714285714287,359.1808016640799,1973.8,1375.0714285714287,482.1808016640799,2075.7,1375.0714285714287,482.1808016640799,2180.2,1375.0714285714287,482.1808016640799,2281.8,1375.0714285714287,482.1808016640799,2384,1375.0714285714287,482.1808016640799,2484,1375.0714285714287,482.1808016640799,2589.6,1375.0714285714287,482.1808016640799,2690.8,1375.0714285714287,482.1808016640799,2794.4,1375.0714285714287,482.1808016640799,2895.7,1375.0714285714287,482.1808016640799,2998.8,1375.0714285714287,482.1808016640799,3099.5,1375.0714285714287,482.1808016640799,3205.3,1375.0714285714287,482.1808016640799,3306.8,1375.0714285714287,482.1808016640799,3410.3,1375.0714285714287,482.1808016640799,3529.8,1375.0714285714287,482.1808016640799,3640.6,1375.0714285714287,482.1808016640799,3743.9,1375.0714285714287,482.1808016640799,3844.7,1375.0714285714287,482.1808016640799,3944.8,1375.0714285714287,482.1808016640799,4057.1,1375.0714285714287,482.1808016640799,4158.8,1375.0714285714287,482.1808016640799,4262.8,1375.0714285714287,482.1808016640799,4364.6,1375.0714285714287,482.1808016640799,4473,1375.0714285714287,482.1808016640799,4574.1,1375.0714285714287,482.1808016640799,4674.1,1375.0714285714287,482.1808016640799,4779.1,1375.0714285714287,482.1808016640799,4889.2,1375.0714285714287,482.1808016640799,4998.3]","[1436.9,1436.9,1000,0,436.9,""oops"",""up"",""down"",""bad_move"",4404.8,2967.5,2540.5,1437.3,427,""oops"",""right"",""up"",""good_move"",7845,3439.9,3052.9,4405.2,387,""oops"",""right"",""right"",""good_move"",10532.6,2687.2,2074.1,7845.4,613.1,""smooth"",""right"",""right"",""good_move"",12932.7,2399.9,2033.9,10532.8,366,""oops"",""up"",""down"",""bad_move"",15373.3,2440.2,2092.8,12933.1,347.4,""oops"",""right"",""down"",""bad_move"",18559.9,3186.4,2830,15373.5,356.4,""oops"",""right"",""right"",""good_move""]","",""
"3039","","<div style=""width:500px;"">
  <p>What determined the result of this run?</p>
  </div>","0","html-slider-response","45","592069","0.0-5.0-1.7","190","1","2025-07-23 08:06:28","1f75c3e559b7213887762d5229550c2b","41.114.217.78","Mozilla/5.0 (Windows NT 10.0; Win64; x64) AppleWebKit/537.36 (KHTML, like Gecko) Chrome/138.0.0.0 Safari/537.36","WebKit","Chrome","138.0.0.0","Windows","10.0","https://app.prolific.com/","en-ZA,en-GB;q=0.9,en-US;q=0.8,en;q=0.7","61601e9a6b8306196d2a129c","683db9eb0562dbf637994deb","688097ff07f9843c6e60df55","2","1","61601e9a6b8306196d2a129c","2","1","2025-07-23T08:16:21.608Z","","","","","","","","","","","AttribQ","","50","","","","","","","","","","","","","","","","","","","","","","","","","","","","",""
"3319","","<div style=""width:500px;"">
  <p>How much control did you have over the ball?</p>
  </div>","0","html-slider-response","46","595389","0.0-5.0-2.7","190","1","2025-07-23 08:06:28","1f75c3e559b7213887762d5229550c2b","41.114.217.78","Mozilla/5.0 (Windows NT 10.0; Win64; x64) AppleWebKit/537.36 (KHTML, like Gecko) Chrome/138.0.0.0 Safari/537.36","WebKit","Chrome","138.0.0.0","Windows","10.0","https://app.prolific.com/","en-ZA,en-GB;q=0.9,en-US;q=0.8,en;q=0.7","61601e9a6b8306196d2a129c","683db9eb0562dbf637994deb","688097ff07f9843c6e60df55","2","1","61601e9a6b8306196d2a129c","2","1","2025-07-23T08:16:24.928Z","","","","","","","","","","","ControlQ","","50","","","","","","","","","","","","","","","","","","","","","","","","","","","","",""
"2959","","<div style=""width:500px;"">
  <p>How would you describe your current emotional state?</p>
  </div>","100","html-slider-response","47","598349","0.0-5.0-3.7","190","1","2025-07-23 08:06:28","1f75c3e559b7213887762d5229550c2b","41.114.217.78","Mozilla/5.0 (Windows NT 10.0; Win64; x64) AppleWebKit/537.36 (KHTML, like Gecko) Chrome/138.0.0.0 Safari/537.36","WebKit","Chrome","138.0.0.0","Windows","10.0","https://app.prolific.com/","en-ZA,en-GB;q=0.9,en-US;q=0.8,en;q=0.7","61601e9a6b8306196d2a129c","683db9eb0562dbf637994deb","688097ff07f9843c6e60df55","2","1","61601e9a6b8306196d2a129c","2","1","2025-07-23T08:16:27.888Z","","","","","","","","","","","StressQ","","50","","","","","","","","","","","","","","","","","","","","","","","","","","","","",""
"3031","","<div style=""width:500px;"">
  <p>What best describes how you currently feel?</p>
  </div>","0","html-slider-response","48","601381","0.0-5.0-4.7","190","1","2025-07-23 08:06:28","1f75c3e559b7213887762d5229550c2b","41.114.217.78","Mozilla/5.0 (Windows NT 10.0; Win64; x64) AppleWebKit/537.36 (KHTML, like Gecko) Chrome/138.0.0.0 Safari/537.36","WebKit","Chrome","138.0.0.0","Windows","10.0","https://app.prolific.com/","en-ZA,en-GB;q=0.9,en-US;q=0.8,en;q=0.7","61601e9a6b8306196d2a129c","683db9eb0562dbf637994deb","688097ff07f9843c6e60df55","2","1","61601e9a6b8306196d2a129c","2","1","2025-07-23T08:16:30.921Z","","","","","","","","","","","MotivationQ","","50","","","","","","","","","","","","","","","","","","","","","","","","","","","","",""
"","","","","ctl-task-cpt","49","633272","0.0-5.0-0.8","190","1","2025-07-23 08:06:28","1f75c3e559b7213887762d5229550c2b","41.114.217.78","Mozilla/5.0 (Windows NT 10.0; Win64; x64) AppleWebKit/537.36 (KHTML, like Gecko) Chrome/138.0.0.0 Safari/537.36","WebKit","Chrome","138.0.0.0","Windows","10.0","https://app.prolific.com/","en-ZA,en-GB;q=0.9,en-US;q=0.8,en;q=0.7","61601e9a6b8306196d2a129c","683db9eb0562dbf637994deb","688097ff07f9843c6e60df55","2","1","61601e9a6b8306196d2a129c","2","1","2025-07-23T08:17:02.811Z","","","","","","","","","","","","","","win-only","3","g1:SW,g2:NE","0.2","9","0","604381.5","942","5943.5","28872.1","1","4","8","6","2","-8","-8","0","0","0","2047.9","3000","-2990","[""up"",""right""]","{""num_key_presses"":8,""num_perfect"":2,""num_errors"":0,""num_randdir"":6,""num_randdir_good_moves"":4,""num_whilered"":0,""num_whileblue"":0,""num_blue"":0,""num_good_moves"":6}","[416.57142857142856,419.1808016640799,0.2,416.57142857142856,419.1808016640799,104.5,416.57142857142856,419.1808016640799,204.5,416.57142857142856,419.1808016640799,305.9,416.57142857142856,419.1808016640799,409.1,416.57142857142856,419.1808016640799,514.6,416.57142857142856,419.1808016640799,614.6,416.57142857142856,419.1808016640799,718.5,415.07142857142856,419.1808016640799,820.6,415.07142857142856,419.1808016640799,923.8,415.07142857142856,419.1808016640799,1024.4,415.07142857142856,419.1808016640799,1129.8,415.07142857142856,419.1808016640799,1230.1,415.07142857142856,419.1808016640799,1333.8,415.07142857142856,419.1808016640799,1434.5,572.5714285714286,287.1808016640799,1535.9,733.0714285714286,128.18080166407992,1638.7,778.0714285714286,50.18080166407994,1740.2,778.0714285714286,47.18080166407994,1845.2,778.0714285714286,47.18080166407994,1950.3,778.0714285714286,47.18080166407994,2052.6,778.0714285714286,47.18080166407994,2154.9,778.0714285714286,47.18080166407994,2255.6,1327.0714285714287,284.1808016640799,2357.1,1375.0714285714287,311.1808016640799,2460.4,1375.0714285714287,311.1808016640799,2564,1375.0714285714287,311.1808016640799,2670.3,1375.0714285714287,311.1808016640799,2774.3,1375.0714285714287,311.1808016640799,2879.7,1375.0714285714287,311.1808016640799,2986.2,1375.0714285714287,311.1808016640799,3089.3,1375.0714285714287,311.1808016640799,3189.5,1375.0714285714287,311.1808016640799,3290.4,1375.0714285714287,311.1808016640799,3394.7,1375.0714285714287,311.1808016640799,3498.5,1375.0714285714287,311.1808016640799,3598.9,1375.0714285714287,311.1808016640799,3699.9,1375.0714285714287,311.1808016640799,3804.7,1375.0714285714287,311.1808016640799,3909.3,1375.0714285714287,311.1808016640799,4009.4,1375.0714285714287,311.1808016640799,4115,1375.0714285714287,311.1808016640799,4221.6,1375.0714285714287,311.1808016640799,4324.9,1375.0714285714287,311.1808016640799,4425,1375.0714285714287,311.1808016640799,4529.2,1375.0714285714287,311.1808016640799,4634.8,1375.0714285714287,311.1808016640799,4734.8,1375.0714285714287,311.1808016640799,4840.4,1375.0714285714287,311.1808016640799,4944.8]","[1392.2,1392.2,1000,0,392.2,""smooth"",""up"",""up"",""good_move"",4136.2,2743.8,2373.1,1392.5,370.7,""oops"",""up"",""right"",""good_move"",6882,2745.4,2359.6,4136.6,385.8,""oops"",""up"",""up"",""good_move"",9352,2469.7,2106,6882.3,363.7,""smooth"",""up"",""up"",""good_move"",11640.4,2288.2,1890.2,9352.2,398,""oops"",""right"",""down"",""bad_move"",14897.5,3256.8,2910.8,11640.7,346,""oops"",""right"",""right"",""good_move"",17512.1,2614.2,2281.2,14897.9,333.1,""oops"",""right"",""down"",""bad_move"",20576,3063.5,2704.6,17512.5,358.9,""oops"",""up"",""up"",""good_move""]","",""
"2788","","<div style=""width:500px;"">
  <p>What determined the result of this run?</p>
  </div>","0","html-slider-response","50","636061","0.0-5.0-1.8","190","1","2025-07-23 08:06:28","1f75c3e559b7213887762d5229550c2b","41.114.217.78","Mozilla/5.0 (Windows NT 10.0; Win64; x64) AppleWebKit/537.36 (KHTML, like Gecko) Chrome/138.0.0.0 Safari/537.36","WebKit","Chrome","138.0.0.0","Windows","10.0","https://app.prolific.com/","en-ZA,en-GB;q=0.9,en-US;q=0.8,en;q=0.7","61601e9a6b8306196d2a129c","683db9eb0562dbf637994deb","688097ff07f9843c6e60df55","2","1","61601e9a6b8306196d2a129c","2","1","2025-07-23T08:17:05.601Z","","","","","","","","","","","AttribQ","","50","","","","","","","","","","","","","","","","","","","","","","","","","","","","",""
"2255","","<div style=""width:500px;"">
  <p>How much control did you have over the ball?</p>
  </div>","0","html-slider-response","51","638317","0.0-5.0-2.8","190","1","2025-07-23 08:06:28","1f75c3e559b7213887762d5229550c2b","41.114.217.78","Mozilla/5.0 (Windows NT 10.0; Win64; x64) AppleWebKit/537.36 (KHTML, like Gecko) Chrome/138.0.0.0 Safari/537.36","WebKit","Chrome","138.0.0.0","Windows","10.0","https://app.prolific.com/","en-ZA,en-GB;q=0.9,en-US;q=0.8,en;q=0.7","61601e9a6b8306196d2a129c","683db9eb0562dbf637994deb","688097ff07f9843c6e60df55","2","1","61601e9a6b8306196d2a129c","2","1","2025-07-23T08:17:07.856Z","","","","","","","","","","","ControlQ","","50","","","","","","","","","","","","","","","","","","","","","","","","","","","","",""
"2663","","<div style=""width:500px;"">
  <p>How would you describe your current emotional state?</p>
  </div>","100","html-slider-response","52","640981","0.0-5.0-3.8","190","1","2025-07-23 08:06:28","1f75c3e559b7213887762d5229550c2b","41.114.217.78","Mozilla/5.0 (Windows NT 10.0; Win64; x64) AppleWebKit/537.36 (KHTML, like Gecko) Chrome/138.0.0.0 Safari/537.36","WebKit","Chrome","138.0.0.0","Windows","10.0","https://app.prolific.com/","en-ZA,en-GB;q=0.9,en-US;q=0.8,en;q=0.7","61601e9a6b8306196d2a129c","683db9eb0562dbf637994deb","688097ff07f9843c6e60df55","2","1","61601e9a6b8306196d2a129c","2","1","2025-07-23T08:17:10.520Z","","","","","","","","","","","StressQ","","50","","","","","","","","","","","","","","","","","","","","","","","","","","","","",""
"2343","","<div style=""width:500px;"">
  <p>What best describes how you currently feel?</p>
  </div>","0","html-slider-response","53","643325","0.0-5.0-4.8","190","1","2025-07-23 08:06:28","1f75c3e559b7213887762d5229550c2b","41.114.217.78","Mozilla/5.0 (Windows NT 10.0; Win64; x64) AppleWebKit/537.36 (KHTML, like Gecko) Chrome/138.0.0.0 Safari/537.36","WebKit","Chrome","138.0.0.0","Windows","10.0","https://app.prolific.com/","en-ZA,en-GB;q=0.9,en-US;q=0.8,en;q=0.7","61601e9a6b8306196d2a129c","683db9eb0562dbf637994deb","688097ff07f9843c6e60df55","2","1","61601e9a6b8306196d2a129c","2","1","2025-07-23T08:17:12.864Z","","","","","","","","","","","MotivationQ","","50","","","","","","","","","","","","","","","","","","","","","","","","","","","","",""
"","","","","ctl-task-cpt","54","683993","0.0-5.0-0.9","190","1","2025-07-23 08:06:28","1f75c3e559b7213887762d5229550c2b","41.114.217.78","Mozilla/5.0 (Windows NT 10.0; Win64; x64) AppleWebKit/537.36 (KHTML, like Gecko) Chrome/138.0.0.0 Safari/537.36","WebKit","Chrome","138.0.0.0","Windows","10.0","https://app.prolific.com/","en-ZA,en-GB;q=0.9,en-US;q=0.8,en;q=0.7","61601e9a6b8306196d2a129c","683db9eb0562dbf637994deb","688097ff07f9843c6e60df55","2","1","61601e9a6b8306196d2a129c","2","1","2025-07-23T08:17:53.532Z","","","","","","","","","","","","","","win-only","1","g1:NE,g2:SW","0.4","10","0","646324.9","1142.7","6146.5","37647.2","1","4","4","6","2","-4","-4","0","0","0","968.2","3000","-2990","[""down"",""left""]","{""num_key_presses"":8,""num_perfect"":3,""num_errors"":0,""num_randdir"":5,""num_randdir_good_moves"":2,""num_whilered"":0,""num_whileblue"":0,""num_blue"":2,""num_good_moves"":5}","[416.57142857142856,419.1808016640799,0.3,416.57142857142856,419.1808016640799,103.5,416.57142857142856,419.1808016640799,208.7,416.57142857142856,419.1808016640799,313,416.57142857142856,419.1808016640799,414.2,415.07142857142856,422.1808016640799,518.1,152.57142857142856,669.6808016640799,623.8,118.07142857142857,747.6808016640799,728.7,104.57142857142857,759.6808016640799,833.2,103.07142857142857,759.6808016640799,941,103.07142857142857,759.6808016640799,1042.6,103.07142857142857,759.6808016640799,1144.1,103.07142857142857,759.6808016640799,1247.5,103.07142857142857,759.6808016640799,1347.5,107.57142857142857,758.1808016640799,1448.2,958.0714285714286,603.6808016640799,1554.4,1283.5714285714287,488.1808016640799,1660.6,1313.5714285714287,482.1808016640799,1763.2,1346.5714285714287,470.1808016640799,1867.8,1346.5714285714287,470.1808016640799,1969.5,1346.5714285714287,470.1808016640799,2077.6,1346.5714285714287,470.1808016640799,2177.7,1346.5714285714287,470.1808016640799,2278.4,1346.5714285714287,470.1808016640799,2383.3,1346.5714285714287,470.1808016640799,2488.6,1346.5714285714287,470.1808016640799,2594.5,1346.5714285714287,470.1808016640799,2697.9,1346.5714285714287,470.1808016640799,2797.9,1346.5714285714287,470.1808016640799,2902.6,1346.5714285714287,470.1808016640799,3003,1346.5714285714287,470.1808016640799,3103.4,1346.5714285714287,470.1808016640799,3204.5,1346.5714285714287,470.1808016640799,3308.9,1346.5714285714287,470.1808016640799,3409.4,1346.5714285714287,470.1808016640799,3512.3,1346.5714285714287,470.1808016640799,3612.6,1346.5714285714287,470.1808016640799,3712.9,1346.5714285714287,470.1808016640799,3812.9,1346.5714285714287,470.1808016640799,3917.6,1346.5714285714287,470.1808016640799,4017.8,1346.5714285714287,470.1808016640799,4118.1,1346.5714285714287,470.1808016640799,4219.5,1346.5714285714287,470.1808016640799,4322.9,1346.5714285714287,470.1808016640799,4423.1,1346.5714285714287,470.1808016640799,4529.4,1346.5714285714287,470.1808016640799,4634.5,1346.5714285714287,470.1808016640799,4738.3,1346.5714285714287,470.1808016640799,4839.1,1346.5714285714287,470.1808016640799,4940.5]","[1374.1,1374.1,1000,0,374.1,""oops"",""left"",""down"",""good_move"",4365.7,2991.3,2636.4,1374.4,354.9,""smooth"",""left"",""left"",""good_move"",6910.4,2544.3,2187.8,4366.1,356.5,""oops"",""down"",""up"",""bad_move"",8877.9,1967.2,1602.7,6910.7,364.5,""smooth"",""left"",""left"",""good_move"",12134,3256,2959.7,8878,296.3,""oops"",""left"",""right"",""bad_move"",18942.3,6808,2707.8,15886.3,348.2,""oops"",""down"",""down"",""good_move"",25550.2,6607.5,2692.9,22470.8,386.5,""smooth"",""down"",""down"",""good_move"",28941.9,3391.5,3025.9,25550.4,365.6,""oops"",""down"",""up"",""bad_move""]","",""
"3972","","<div style=""width:500px;"">
  <p>What determined the result of this run?</p>
  </div>","0","html-slider-response","55","687966","0.0-5.0-1.9","190","1","2025-07-23 08:06:28","1f75c3e559b7213887762d5229550c2b","41.114.217.78","Mozilla/5.0 (Windows NT 10.0; Win64; x64) AppleWebKit/537.36 (KHTML, like Gecko) Chrome/138.0.0.0 Safari/537.36","WebKit","Chrome","138.0.0.0","Windows","10.0","https://app.prolific.com/","en-ZA,en-GB;q=0.9,en-US;q=0.8,en;q=0.7","61601e9a6b8306196d2a129c","683db9eb0562dbf637994deb","688097ff07f9843c6e60df55","2","1","61601e9a6b8306196d2a129c","2","1","2025-07-23T08:17:57.505Z","","","","","","","","","","","AttribQ","","50","","","","","","","","","","","","","","","","","","","","","","","","","","","","",""
"2694","","<div style=""width:500px;"">
  <p>How much control did you have over the ball?</p>
  </div>","0","html-slider-response","56","690662","0.0-5.0-2.9","190","1","2025-07-23 08:06:28","1f75c3e559b7213887762d5229550c2b","41.114.217.78","Mozilla/5.0 (Windows NT 10.0; Win64; x64) AppleWebKit/537.36 (KHTML, like Gecko) Chrome/138.0.0.0 Safari/537.36","WebKit","Chrome","138.0.0.0","Windows","10.0","https://app.prolific.com/","en-ZA,en-GB;q=0.9,en-US;q=0.8,en;q=0.7","61601e9a6b8306196d2a129c","683db9eb0562dbf637994deb","688097ff07f9843c6e60df55","2","1","61601e9a6b8306196d2a129c","2","1","2025-07-23T08:18:00.201Z","","","","","","","","","","","ControlQ","","50","","","","","","","","","","","","","","","","","","","","","","","","","","","","",""
"3815","","<div style=""width:500px;"">
  <p>How would you describe your current emotional state?</p>
  </div>","100","html-slider-response","57","694478","0.0-5.0-3.9","190","1","2025-07-23 08:06:28","1f75c3e559b7213887762d5229550c2b","41.114.217.78","Mozilla/5.0 (Windows NT 10.0; Win64; x64) AppleWebKit/537.36 (KHTML, like Gecko) Chrome/138.0.0.0 Safari/537.36","WebKit","Chrome","138.0.0.0","Windows","10.0","https://app.prolific.com/","en-ZA,en-GB;q=0.9,en-US;q=0.8,en;q=0.7","61601e9a6b8306196d2a129c","683db9eb0562dbf637994deb","688097ff07f9843c6e60df55","2","1","61601e9a6b8306196d2a129c","2","1","2025-07-23T08:18:04.017Z","","","","","","","","","","","StressQ","","50","","","","","","","","","","","","","","","","","","","","","","","","","","","","",""
"2503","","<div style=""width:500px;"">
  <p>What best describes how you currently feel?</p>
  </div>","0","html-slider-response","58","696982","0.0-5.0-4.9","190","1","2025-07-23 08:06:28","1f75c3e559b7213887762d5229550c2b","41.114.217.78","Mozilla/5.0 (Windows NT 10.0; Win64; x64) AppleWebKit/537.36 (KHTML, like Gecko) Chrome/138.0.0.0 Safari/537.36","WebKit","Chrome","138.0.0.0","Windows","10.0","https://app.prolific.com/","en-ZA,en-GB;q=0.9,en-US;q=0.8,en;q=0.7","61601e9a6b8306196d2a129c","683db9eb0562dbf637994deb","688097ff07f9843c6e60df55","2","1","61601e9a6b8306196d2a129c","2","1","2025-07-23T08:18:06.521Z","","","","","","","","","","","MotivationQ","","50","","","","","","","","","","","","","","","","","","","","","","","","","","","","",""
"","","","","ctl-task-cpt","59","732266","0.0-5.0-0.10","190","1","2025-07-23 08:06:28","1f75c3e559b7213887762d5229550c2b","41.114.217.78","Mozilla/5.0 (Windows NT 10.0; Win64; x64) AppleWebKit/537.36 (KHTML, like Gecko) Chrome/138.0.0.0 Safari/537.36","WebKit","Chrome","138.0.0.0","Windows","10.0","https://app.prolific.com/","en-ZA,en-GB;q=0.9,en-US;q=0.8,en;q=0.7","61601e9a6b8306196d2a129c","683db9eb0562dbf637994deb","688097ff07f9843c6e60df55","2","1","61601e9a6b8306196d2a129c","2","1","2025-07-23T08:18:41.805Z","","","","","","","","","","","","","","win-only","0","g1:NW,g2:SE","0.5","11","0","699981","1369.8","6370.7","32265.3","1","4","8","6","1","-1","-1","0","0","0","1477.1","3000","-2980","[""left"",""up""]","{""num_key_presses"":8,""num_perfect"":4,""num_errors"":0,""num_randdir"":4,""num_randdir_good_moves"":0,""num_whilered"":0,""num_whileblue"":0,""num_blue"":1,""num_good_moves"":4}","[407.57142857142856,419.1808016640799,0.2,407.57142857142856,419.1808016640799,100.4,407.57142857142856,419.1808016640799,201.4,407.57142857142856,419.1808016640799,307.2,407.57142857142856,419.1808016640799,410.3,407.57142857142856,419.1808016640799,511.6,407.57142857142856,419.1808016640799,616.1,412.07142857142856,423.6808016640799,717.2,422.57142857142856,429.6808016640799,823.5,344.57142857142856,365.1808016640799,924.2,146.57142857142856,233.18080166407992,1026.5,43.07142857142857,119.18080166407994,1130.4,53.57142857142857,95.18080166407994,1231.4,79.07142857142857,84.68080166407994,1331.8,95.57142857142857,80.18080166407994,1436.4,95.57142857142857,80.18080166407994,1536.4,95.57142857142857,80.18080166407994,1645.6,95.57142857142857,80.18080166407994,1745.7,932.5714285714286,368.1808016640799,1854.3,1375.0714285714287,582.6808016640799,1955.7,1375.0714285714287,582.6808016640799,2057.8,1375.0714285714287,582.6808016640799,2160.5,1375.0714285714287,582.6808016640799,2266.4,1375.0714285714287,582.6808016640799,2366.6,1375.0714285714287,582.6808016640799,2466.6,1375.0714285714287,582.6808016640799,2570.8,1375.0714285714287,582.6808016640799,2676.5,1375.0714285714287,582.6808016640799,2780.7,1375.0714285714287,582.6808016640799,2881.4,1375.0714285714287,582.6808016640799,2985.6,1375.0714285714287,582.6808016640799,3094.2,1375.0714285714287,582.6808016640799,3194.6,1375.0714285714287,582.6808016640799,3296.2,1375.0714285714287,582.6808016640799,3401.9,1375.0714285714287,582.6808016640799,3506.9,1375.0714285714287,582.6808016640799,3608.1,1375.0714285714287,582.6808016640799,3708.3,1375.0714285714287,582.6808016640799,3810.6,1375.0714285714287,582.6808016640799,3910.6,1375.0714285714287,582.6808016640799,4011.6,1375.0714285714287,582.6808016640799,4116.3,1375.0714285714287,582.6808016640799,4221.2,1375.0714285714287,582.6808016640799,4326.7,1375.0714285714287,582.6808016640799,4431.7,1375.0714285714287,582.6808016640799,4537.7,1375.0714285714287,582.6808016640799,4643.5,1375.0714285714287,582.6808016640799,4744.8,1375.0714285714287,582.6808016640799,4846.8,1375.0714285714287,582.6808016640799,4946.8]","[1358.1,1358.1,1000,0,358.1,""smooth"",""up"",""up"",""good_move"",4568.9,3210.5,2849.2,1358.4,361.3,""smooth"",""left"",""left"",""good_move"",7398.7,2829.5,2447.2,4569.2,382.3,""oops"",""up"",""down"",""bad_move"",13494.4,6095.2,2288.4,10857.9,348.1,""oops"",""left"",""down"",""bad_move"",16422.1,2927.4,2572,13494.7,355.4,""smooth"",""up"",""up"",""good_move"",19046.3,2624,2278.9,16422.3,345.1,""smooth"",""up"",""up"",""good_move"",21814.2,2767.7,2413.5,19046.5,354.2,""oops"",""up"",""right"",""bad_move"",24142.1,2327.6,1966.8,21814.5,360.8,""oops"",""up"",""right"",""bad_move""]","",""
"3475","","<div style=""width:500px;"">
  <p>What determined the result of this run?</p>
  </div>","0","html-slider-response","60","735743","0.0-5.0-1.10","190","1","2025-07-23 08:06:28","1f75c3e559b7213887762d5229550c2b","41.114.217.78","Mozilla/5.0 (Windows NT 10.0; Win64; x64) AppleWebKit/537.36 (KHTML, like Gecko) Chrome/138.0.0.0 Safari/537.36","WebKit","Chrome","138.0.0.0","Windows","10.0","https://app.prolific.com/","en-ZA,en-GB;q=0.9,en-US;q=0.8,en;q=0.7","61601e9a6b8306196d2a129c","683db9eb0562dbf637994deb","688097ff07f9843c6e60df55","2","1","61601e9a6b8306196d2a129c","2","1","2025-07-23T08:18:45.282Z","","","","","","","","","","","AttribQ","","50","","","","","","","","","","","","","","","","","","","","","","","","","","","","",""
"2206","","<div style=""width:500px;"">
  <p>How much control did you have over the ball?</p>
  </div>","0","html-slider-response","61","737950","0.0-5.0-2.10","190","1","2025-07-23 08:06:28","1f75c3e559b7213887762d5229550c2b","41.114.217.78","Mozilla/5.0 (Windows NT 10.0; Win64; x64) AppleWebKit/537.36 (KHTML, like Gecko) Chrome/138.0.0.0 Safari/537.36","WebKit","Chrome","138.0.0.0","Windows","10.0","https://app.prolific.com/","en-ZA,en-GB;q=0.9,en-US;q=0.8,en;q=0.7","61601e9a6b8306196d2a129c","683db9eb0562dbf637994deb","688097ff07f9843c6e60df55","2","1","61601e9a6b8306196d2a129c","2","1","2025-07-23T08:18:47.489Z","","","","","","","","","","","ControlQ","","50","","","","","","","","","","","","","","","","","","","","","","","","","","","","",""
"2327","","<div style=""width:500px;"">
  <p>How would you describe your current emotional state?</p>
  </div>","100","html-slider-response","62","740278","0.0-5.0-3.10","190","1","2025-07-23 08:06:28","1f75c3e559b7213887762d5229550c2b","41.114.217.78","Mozilla/5.0 (Windows NT 10.0; Win64; x64) AppleWebKit/537.36 (KHTML, like Gecko) Chrome/138.0.0.0 Safari/537.36","WebKit","Chrome","138.0.0.0","Windows","10.0","https://app.prolific.com/","en-ZA,en-GB;q=0.9,en-US;q=0.8,en;q=0.7","61601e9a6b8306196d2a129c","683db9eb0562dbf637994deb","688097ff07f9843c6e60df55","2","1","61601e9a6b8306196d2a129c","2","1","2025-07-23T08:18:49.817Z","","","","","","","","","","","StressQ","","50","","","","","","","","","","","","","","","","","","","","","","","","","","","","",""
"1999","","<div style=""width:500px;"">
  <p>What best describes how you currently feel?</p>
  </div>","0","html-slider-response","63","742278","0.0-5.0-4.10","190","1","2025-07-23 08:06:28","1f75c3e559b7213887762d5229550c2b","41.114.217.78","Mozilla/5.0 (Windows NT 10.0; Win64; x64) AppleWebKit/537.36 (KHTML, like Gecko) Chrome/138.0.0.0 Safari/537.36","WebKit","Chrome","138.0.0.0","Windows","10.0","https://app.prolific.com/","en-ZA,en-GB;q=0.9,en-US;q=0.8,en;q=0.7","61601e9a6b8306196d2a129c","683db9eb0562dbf637994deb","688097ff07f9843c6e60df55","2","1","61601e9a6b8306196d2a129c","2","1","2025-07-23T08:18:51.817Z","","","","","","","","","","","MotivationQ","","50","","","","","","","","","","","","","","","","","","","","","","","","","","","","",""
"","","","","ctl-task-cpt","64","766926","0.0-5.0-0.11","190","1","2025-07-23 08:06:28","1f75c3e559b7213887762d5229550c2b","41.114.217.78","Mozilla/5.0 (Windows NT 10.0; Win64; x64) AppleWebKit/537.36 (KHTML, like Gecko) Chrome/138.0.0.0 Safari/537.36","WebKit","Chrome","138.0.0.0","Windows","10.0","https://app.prolific.com/","en-ZA,en-GB;q=0.9,en-US;q=0.8,en;q=0.7","61601e9a6b8306196d2a129c","683db9eb0562dbf637994deb","688097ff07f9843c6e60df55","2","1","61601e9a6b8306196d2a129c","2","1","2025-07-23T08:19:16.465Z","","","","","","","","","","","","","","win-only","3","g1:SW,g2:NE","0.6","12","0","745278.5","1021.9","6025.6","21628.2","1","4","4","6","1","1","1","1","0","0.007575757575757576","896.1","3000","1545","[""down"",""left""]","{""num_key_presses"":4,""num_perfect"":2,""num_errors"":0,""num_randdir"":2,""num_randdir_good_moves"":2,""num_whilered"":0,""num_whileblue"":0,""num_blue"":1,""num_good_moves"":4}","[425.57142857142856,410.1808016640799,0.2,425.57142857142856,410.1808016640799,104.1,425.57142857142856,410.1808016640799,208.9,425.57142857142856,410.1808016640799,309,418.07142857142856,420.6808016640799,414.6,256.07142857142856,566.1808016640799,520.2,145.07142857142856,671.1808016640799,623.6,86.57142857142857,728.1808016640799,729.7,59.57142857142857,749.1808016640799,830.1,56.57142857142857,755.1808016640799,937.5,56.57142857142857,755.1808016640799,1039.2,340.07142857142856,753.6808016640799,1140.1,1357.0714285714287,668.1808016640799,1251.3,1364.5714285714287,662.1808016640799,1354,1364.5714285714287,659.1808016640799,1454.2,1364.5714285714287,659.1808016640799,1554.3,1364.5714285714287,659.1808016640799,1659.1,1364.5714285714287,659.1808016640799,1761.7,1364.5714285714287,659.1808016640799,1863.5,1364.5714285714287,659.1808016640799,1964.1,1364.5714285714287,659.1808016640799,2078.8,1364.5714285714287,659.1808016640799,2179.5,1364.5714285714287,659.1808016640799,2294.2,1364.5714285714287,659.1808016640799,2394.2,1364.5714285714287,659.1808016640799,2495.3,1364.5714285714287,659.1808016640799,2612.5,1364.5714285714287,659.1808016640799,2713.4,1364.5714285714287,659.1808016640799,2815.2,1364.5714285714287,659.1808016640799,2915.4,1364.5714285714287,659.1808016640799,3020.3,1364.5714285714287,659.1808016640799,3127.7,1364.5714285714287,659.1808016640799,3228.4,1364.5714285714287,659.1808016640799,3328.5,1364.5714285714287,659.1808016640799,3433.7,1364.5714285714287,659.1808016640799,3534.7,1364.5714285714287,659.1808016640799,3642.3,1364.5714285714287,659.1808016640799,3743.1,1364.5714285714287,659.1808016640799,3847.1,1364.5714285714287,659.1808016640799,3948.7,1364.5714285714287,659.1808016640799,4050.3,1364.5714285714287,659.1808016640799,4161.5,1364.5714285714287,659.1808016640799,4264,1364.5714285714287,659.1808016640799,4378.7,1364.5714285714287,659.1808016640799,4483.9,1364.5714285714287,659.1808016640799,4595.3,1364.5714285714287,659.1808016640799,4699.3,1364.5714285714287,659.1808016640799,4799.5,1364.5714285714287,659.1808016640799,4911.2]","[1422.4,1422.4,1000,0,422.4,""smooth"",""down"",""down"",""good_move"",8734,7311.1,2964.2,5352.2,417.6,""smooth"",""left"",""left"",""good_move"",12182,3447.7,3049.7,8734.3,398,""oops"",""left"",""left"",""good_move"",15502.2,3320,2933.6,12182.3,386.4,""oops"",""down"",""down"",""good_move""]","",""
"4975","","<div style=""width:500px;"">
  <p>What determined the result of this run?</p>
  </div>","13","html-slider-response","65","771903","0.0-5.0-1.11","190","1","2025-07-23 08:06:28","1f75c3e559b7213887762d5229550c2b","41.114.217.78","Mozilla/5.0 (Windows NT 10.0; Win64; x64) AppleWebKit/537.36 (KHTML, like Gecko) Chrome/138.0.0.0 Safari/537.36","WebKit","Chrome","138.0.0.0","Windows","10.0","https://app.prolific.com/","en-ZA,en-GB;q=0.9,en-US;q=0.8,en;q=0.7","61601e9a6b8306196d2a129c","683db9eb0562dbf637994deb","688097ff07f9843c6e60df55","2","1","61601e9a6b8306196d2a129c","2","1","2025-07-23T08:19:21.442Z","","","","","","","","","","","AttribQ","","50","","","","","","","","","","","","","","","","","","","","","","","","","","","","",""
"2719","","<div style=""width:500px;"">
  <p>How much control did you have over the ball?</p>
  </div>","0","html-slider-response","66","774622","0.0-5.0-2.11","190","1","2025-07-23 08:06:28","1f75c3e559b7213887762d5229550c2b","41.114.217.78","Mozilla/5.0 (Windows NT 10.0; Win64; x64) AppleWebKit/537.36 (KHTML, like Gecko) Chrome/138.0.0.0 Safari/537.36","WebKit","Chrome","138.0.0.0","Windows","10.0","https://app.prolific.com/","en-ZA,en-GB;q=0.9,en-US;q=0.8,en;q=0.7","61601e9a6b8306196d2a129c","683db9eb0562dbf637994deb","688097ff07f9843c6e60df55","2","1","61601e9a6b8306196d2a129c","2","1","2025-07-23T08:19:24.161Z","","","","","","","","","","","ControlQ","","50","","","","","","","","","","","","","","","","","","","","","","","","","","","","",""
"5719","","<div style=""width:500px;"">
  <p>How would you describe your current emotional state?</p>
  </div>","50","html-slider-response","67","780342","0.0-5.0-3.11","190","1","2025-07-23 08:06:28","1f75c3e559b7213887762d5229550c2b","41.114.217.78","Mozilla/5.0 (Windows NT 10.0; Win64; x64) AppleWebKit/537.36 (KHTML, like Gecko) Chrome/138.0.0.0 Safari/537.36","WebKit","Chrome","138.0.0.0","Windows","10.0","https://app.prolific.com/","en-ZA,en-GB;q=0.9,en-US;q=0.8,en;q=0.7","61601e9a6b8306196d2a129c","683db9eb0562dbf637994deb","688097ff07f9843c6e60df55","2","1","61601e9a6b8306196d2a129c","2","1","2025-07-23T08:19:29.882Z","","","","","","","","","","","StressQ","","50","","","","","","","","","","","","","","","","","","","","","","","","","","","","",""
"6391","","<div style=""width:500px;"">
  <p>What best describes how you currently feel?</p>
  </div>","0","html-slider-response","68","786735","0.0-5.0-4.11","190","1","2025-07-23 08:06:28","1f75c3e559b7213887762d5229550c2b","41.114.217.78","Mozilla/5.0 (Windows NT 10.0; Win64; x64) AppleWebKit/537.36 (KHTML, like Gecko) Chrome/138.0.0.0 Safari/537.36","WebKit","Chrome","138.0.0.0","Windows","10.0","https://app.prolific.com/","en-ZA,en-GB;q=0.9,en-US;q=0.8,en;q=0.7","61601e9a6b8306196d2a129c","683db9eb0562dbf637994deb","688097ff07f9843c6e60df55","2","1","61601e9a6b8306196d2a129c","2","1","2025-07-23T08:19:36.274Z","","","","","","","","","","","MotivationQ","","50","","","","","","","","","","","","","","","","","","","","","","","","","","","","",""
"","","","","ctl-task-cpt","69","808957","0.0-5.0-0.12","190","1","2025-07-23 08:06:28","1f75c3e559b7213887762d5229550c2b","41.114.217.78","Mozilla/5.0 (Windows NT 10.0; Win64; x64) AppleWebKit/537.36 (KHTML, like Gecko) Chrome/138.0.0.0 Safari/537.36","WebKit","Chrome","138.0.0.0","Windows","10.0","https://app.prolific.com/","en-ZA,en-GB;q=0.9,en-US;q=0.8,en;q=0.7","61601e9a6b8306196d2a129c","683db9eb0562dbf637994deb","688097ff07f9843c6e60df55","2","1","61601e9a6b8306196d2a129c","2","1","2025-07-23T08:19:58.496Z","","","","","","","","","","","","","","win-only","3","g1:SW,g2:NE","0.7","13","0","789734.4","1006.1","6011.1","19203.6","1","4","8","6","1","1","1","2","1","0.015151515151515152","760.9","3000","1335","[""down"",""left""]","{""num_key_presses"":4,""num_perfect"":3,""num_errors"":0,""num_randdir"":1,""num_randdir_good_moves"":1,""num_whilered"":0,""num_whileblue"":0,""num_blue"":1,""num_good_moves"":4}","[419.57142857142856,414.6808016640799,0.2,419.57142857142856,414.6808016640799,104.4,419.57142857142856,414.6808016640799,205.1,419.57142857142856,414.6808016640799,313.5,337.07142857142856,482.1808016640799,415.2,100.07142857142857,654.6808016640799,520.2,85.07142857142857,710.1808016640799,621.2,83.57142857142857,716.1808016640799,729.4,83.57142857142857,716.1808016640799,834.2,101.57142857142857,716.1808016640799,934.2,1000.0714285714286,716.1808016640799,1034.4,1375.0714285714287,680.1808016640799,1134.8,1375.0714285714287,680.1808016640799,1235.9,1375.0714285714287,684.6808016640799,1339.5,1375.0714285714287,684.6808016640799,1444.3,1375.0714285714287,684.6808016640799,1544.9,1375.0714285714287,684.6808016640799,1650.1,1375.0714285714287,684.6808016640799,1750.2,1375.0714285714287,684.6808016640799,1850.4,1375.0714285714287,684.6808016640799,1954.7,1375.0714285714287,684.6808016640799,2055,1375.0714285714287,684.6808016640799,2159.6,1375.0714285714287,684.6808016640799,2259.7,1375.0714285714287,684.6808016640799,2360.5,1375.0714285714287,684.6808016640799,2463.5,1375.0714285714287,684.6808016640799,2565.3,1375.0714285714287,684.6808016640799,2670.5,1375.0714285714287,684.6808016640799,2779.2,1375.0714285714287,684.6808016640799,2883.6,1375.0714285714287,684.6808016640799,2984.7,1375.0714285714287,684.6808016640799,3090.2,1375.0714285714287,684.6808016640799,3194.6,1375.0714285714287,684.6808016640799,3295.8,1375.0714285714287,684.6808016640799,3399.2,1375.0714285714287,684.6808016640799,3499.6,1375.0714285714287,684.6808016640799,3599.9,1375.0714285714287,684.6808016640799,3704.3,1375.0714285714287,684.6808016640799,3804.4,1375.0714285714287,684.6808016640799,3904.5,1375.0714285714287,684.6808016640799,4004.6,1375.0714285714287,684.6808016640799,4104.9,1375.0714285714287,684.6808016640799,4205.4,1375.0714285714287,684.6808016640799,4310,1375.0714285714287,684.6808016640799,4415.5,1375.0714285714287,684.6808016640799,4520.2,1375.0714285714287,684.6808016640799,4624.8,1375.0714285714287,684.6808016640799,4730.5,1375.0714285714287,684.6808016640799,4834.2,1375.0714285714287,684.6808016640799,4935.8]","[1645,1645,1000,0,645,""oops"",""down"",""down"",""good_move"",4436.9,2791.6,2439.1,1645.3,352.5,""smooth"",""down"",""down"",""good_move"",10788.9,6351.7,2370.1,8014.8,404,""smooth"",""left"",""left"",""good_move"",13093.1,2303.9,1931.8,10789.2,372.1,""smooth"",""left"",""left"",""good_move""]","",""
"30577","","<div style=""width:500px;"">
  <p>What determined the result of this run?</p>
  </div>","0","html-slider-response","70","839535","0.0-5.0-1.12","190","1","2025-07-23 08:06:28","1f75c3e559b7213887762d5229550c2b","41.114.217.78","Mozilla/5.0 (Windows NT 10.0; Win64; x64) AppleWebKit/537.36 (KHTML, like Gecko) Chrome/138.0.0.0 Safari/537.36","WebKit","Chrome","138.0.0.0","Windows","10.0","https://app.prolific.com/","en-ZA,en-GB;q=0.9,en-US;q=0.8,en;q=0.7","61601e9a6b8306196d2a129c","683db9eb0562dbf637994deb","688097ff07f9843c6e60df55","2","1","61601e9a6b8306196d2a129c","2","1","2025-07-23T08:20:29.074Z","","","","","","","","","","","AttribQ","","50","","","","","","","","","","","","","","","","","","","","","","","","","","","","",""
"3743","","<div style=""width:500px;"">
  <p>How much control did you have over the ball?</p>
  </div>","100","html-slider-response","71","843279","0.0-5.0-2.12","190","1","2025-07-23 08:06:28","1f75c3e559b7213887762d5229550c2b","41.114.217.78","Mozilla/5.0 (Windows NT 10.0; Win64; x64) AppleWebKit/537.36 (KHTML, like Gecko) Chrome/138.0.0.0 Safari/537.36","WebKit","Chrome","138.0.0.0","Windows","10.0","https://app.prolific.com/","en-ZA,en-GB;q=0.9,en-US;q=0.8,en;q=0.7","61601e9a6b8306196d2a129c","683db9eb0562dbf637994deb","688097ff07f9843c6e60df55","2","1","61601e9a6b8306196d2a129c","2","1","2025-07-23T08:20:32.818Z","","","","","","","","","","","ControlQ","","50","","","","","","","","","","","","","","","","","","","","","","","","","","","","",""
"6471","","<div style=""width:500px;"">
  <p>How would you describe your current emotional state?</p>
  </div>","94","html-slider-response","72","849751","0.0-5.0-3.12","190","1","2025-07-23 08:06:28","1f75c3e559b7213887762d5229550c2b","41.114.217.78","Mozilla/5.0 (Windows NT 10.0; Win64; x64) AppleWebKit/537.36 (KHTML, like Gecko) Chrome/138.0.0.0 Safari/537.36","WebKit","Chrome","138.0.0.0","Windows","10.0","https://app.prolific.com/","en-ZA,en-GB;q=0.9,en-US;q=0.8,en;q=0.7","61601e9a6b8306196d2a129c","683db9eb0562dbf637994deb","688097ff07f9843c6e60df55","2","1","61601e9a6b8306196d2a129c","2","1","2025-07-23T08:20:39.290Z","","","","","","","","","","","StressQ","","50","","","","","","","","","","","","","","","","","","","","","","","","","","","","",""
"2199","","<div style=""width:500px;"">
  <p>What best describes how you currently feel?</p>
  </div>","0","html-slider-response","73","851951","0.0-5.0-4.12","190","1","2025-07-23 08:06:28","1f75c3e559b7213887762d5229550c2b","41.114.217.78","Mozilla/5.0 (Windows NT 10.0; Win64; x64) AppleWebKit/537.36 (KHTML, like Gecko) Chrome/138.0.0.0 Safari/537.36","WebKit","Chrome","138.0.0.0","Windows","10.0","https://app.prolific.com/","en-ZA,en-GB;q=0.9,en-US;q=0.8,en;q=0.7","61601e9a6b8306196d2a129c","683db9eb0562dbf637994deb","688097ff07f9843c6e60df55","2","1","61601e9a6b8306196d2a129c","2","1","2025-07-23T08:20:41.490Z","","","","","","","","","","","MotivationQ","","50","","","","","","","","","","","","","","","","","","","","","","","","","","","","",""
"","","","","ctl-task-cpt","74","886303","0.0-5.0-0.13","190","1","2025-07-23 08:06:28","1f75c3e559b7213887762d5229550c2b","41.114.217.78","Mozilla/5.0 (Windows NT 10.0; Win64; x64) AppleWebKit/537.36 (KHTML, like Gecko) Chrome/138.0.0.0 Safari/537.36","WebKit","Chrome","138.0.0.0","Windows","10.0","https://app.prolific.com/","en-ZA,en-GB;q=0.9,en-US;q=0.8,en;q=0.7","61601e9a6b8306196d2a129c","683db9eb0562dbf637994deb","688097ff07f9843c6e60df55","2","1","61601e9a6b8306196d2a129c","2","1","2025-07-23T08:21:15.843Z","","","","","","","","","","","","","","win-only","1","g1:NE,g2:SW","0.8","14","0","854950.9","1342.1","6347.1","31332.1","1","4","4","6","2","4","4","6","2","0.045454545454545456","1768.4","3000","745","[""down"",""left""]","{""num_key_presses"":6,""num_perfect"":6,""num_errors"":0,""num_randdir"":0,""num_randdir_good_moves"":0,""num_whilered"":0,""num_whileblue"":0,""num_blue"":3,""num_good_moves"":6}","[422.57142857142856,416.1808016640799,0.2,422.57142857142856,416.1808016640799,104.4,422.57142857142856,416.1808016640799,209.2,422.57142857142856,416.1808016640799,311.5,422.57142857142856,416.1808016640799,414.9,422.57142857142856,416.1808016640799,516,422.57142857142856,416.1808016640799,616.1,422.57142857142856,416.1808016640799,718.2,422.57142857142856,416.1808016640799,818.6,422.57142857142856,416.1808016640799,919,422.57142857142856,416.1808016640799,1019,422.57142857142856,416.1808016640799,1125.1,422.57142857142856,416.1808016640799,1226.7,374.57142857142856,473.1808016640799,1328.7,212.57142857142856,653.1808016640799,1430.4,175.07142857142856,686.1808016640799,1535.1,85.07142857142857,738.6808016640799,1638.7,85.07142857142857,738.6808016640799,1739.4,85.07142857142857,738.6808016640799,1843.6,89.57142857142857,737.1808016640799,1944.8,1052.5714285714287,527.1808016640799,2050,1375.0714285714287,395.1808016640799,2153.1,1375.0714285714287,393.6808016640799,2254.4,1375.0714285714287,393.6808016640799,2359.5,1375.0714285714287,393.6808016640799,2461.1,1375.0714285714287,393.6808016640799,2564.4,1375.0714285714287,393.6808016640799,2668.4,1375.0714285714287,393.6808016640799,2768.7,1375.0714285714287,393.6808016640799,2869.2,1375.0714285714287,393.6808016640799,2970.2,1375.0714285714287,393.6808016640799,3070.5,1375.0714285714287,393.6808016640799,3175.4,1375.0714285714287,393.6808016640799,3279.2,1375.0714285714287,393.6808016640799,3380,1375.0714285714287,393.6808016640799,3480.1,1375.0714285714287,393.6808016640799,3583.4,1375.0714285714287,393.6808016640799,3683.9,1375.0714285714287,393.6808016640799,3785,1375.0714285714287,393.6808016640799,3888.3,1375.0714285714287,393.6808016640799,3990.3,1375.0714285714287,393.6808016640799,4094.4,1375.0714285714287,393.6808016640799,4199.9,1375.0714285714287,393.6808016640799,4300.4,1375.0714285714287,393.6808016640799,4404.1,1375.0714285714287,393.6808016640799,4504.8,1375.0714285714287,393.6808016640799,4607.5,1375.0714285714287,393.6808016640799,4709.9,1375.0714285714287,393.6808016640799,4815.2,1375.0714285714287,393.6808016640799,4918.7]","[8333.2,8333.2,2656.7,5263.3,413.2,""smooth"",""down"",""down"",""good_move"",11188.6,2855,2482.3,8333.6,372.8,""smooth"",""down"",""down"",""good_move"",13249.9,2061,1684.4,11188.9,376.6,""smooth"",""down"",""down"",""good_move"",15756.7,2506.6,2158.1,13250.2,348.5,""smooth"",""left"",""left"",""good_move"",18148.9,2391.8,1991.2,15757.2,400.5,""smooth"",""left"",""left"",""good_move"",24893.4,6744.3,2333.5,22059.3,500.6,""smooth"",""left"",""left"",""good_move""]","",""
"8135","","<div style=""width:500px;"">
  <p>What determined the result of this run?</p>
  </div>","4","html-slider-response","75","894440","0.0-5.0-1.13","190","1","2025-07-23 08:06:28","1f75c3e559b7213887762d5229550c2b","41.114.217.78","Mozilla/5.0 (Windows NT 10.0; Win64; x64) AppleWebKit/537.36 (KHTML, like Gecko) Chrome/138.0.0.0 Safari/537.36","WebKit","Chrome","138.0.0.0","Windows","10.0","https://app.prolific.com/","en-ZA,en-GB;q=0.9,en-US;q=0.8,en;q=0.7","61601e9a6b8306196d2a129c","683db9eb0562dbf637994deb","688097ff07f9843c6e60df55","2","1","61601e9a6b8306196d2a129c","2","1","2025-07-23T08:21:23.979Z","","","","","","","","","","","AttribQ","","50","","","","","","","","","","","","","","","","","","","","","","","","","","","","",""
"3647","","<div style=""width:500px;"">
  <p>How much control did you have over the ball?</p>
  </div>","94","html-slider-response","76","898088","0.0-5.0-2.13","190","1","2025-07-23 08:06:28","1f75c3e559b7213887762d5229550c2b","41.114.217.78","Mozilla/5.0 (Windows NT 10.0; Win64; x64) AppleWebKit/537.36 (KHTML, like Gecko) Chrome/138.0.0.0 Safari/537.36","WebKit","Chrome","138.0.0.0","Windows","10.0","https://app.prolific.com/","en-ZA,en-GB;q=0.9,en-US;q=0.8,en;q=0.7","61601e9a6b8306196d2a129c","683db9eb0562dbf637994deb","688097ff07f9843c6e60df55","2","1","61601e9a6b8306196d2a129c","2","1","2025-07-23T08:21:27.627Z","","","","","","","","","","","ControlQ","","50","","","","","","","","","","","","","","","","","","","","","","","","","","","","",""
"2782","","<div style=""width:500px;"">
  <p>How would you describe your current emotional state?</p>
