"rt","response_timestamp","stimulus","response","trial_type","trial_index","time_elapsed","internal_node_id","run_id","condition","recorded_at","source_code_version","ip","user_agent","device","browser","browser_version","platform","platform_version","referer","accept_language","PROLIFIC_PID","STUDY_ID","SESSION_ID","WEEK","BATCH","prolific_id","week","batch","realtime","success","responses","item_order","radio_event_ids","radio_event_times","key_event_times","mouse_event_times","straightlining","zigzagging","honeypot","eventType","view_history","slider_start","which_type","canvas_config","goals_layout","control_level","trial_number","tutorial_trial_number","trial_start_time","phase1_start_time","phase2_start_time","phase3_start_time","goal_1_value","goal_1_distance","goal_2_value","goal_2_distance","goal_selected","outcome","outcome_total","participant_final_score","participant_initial_score","participant_final_score_prop","goal_choice_rt","allocated_time","allocated_time_remaining","goal_direction","counts","mouse_movements","key_presses","question_order","question_id"
"1913","1754036115088","<p style='font-size:40px;line-height:1.25'><strong>Welcome to the experiment!</strong></p><p style='font-size:1.1em;line-height:1.25'>Thank you for participanting in our experiment again! You will be asked to play the Dysfunctional Ball Game again. We will briefly recap the rules before we start.</p><p style='font-size:1.1em;line-height:1.25'>Press <strong>Next</strong> to continue.</p>","0","custom-html-button-response","0","1915","0.0-0.0","309","1","2025-08-01 08:15:11","1f75c3e559b7213887762d5229550c2b","78.33.241.66","Mozilla/5.0 (Windows NT 10.0; Win64; x64) AppleWebKit/537.36 (KHTML, like Gecko) Chrome/138.0.0.0 Safari/537.36","WebKit","Chrome","138.0.0.0","Windows","10.0","https://app.prolific.com/","en-GB,en;q=0.9","5e203085ac30fa331b586690","6877631c9844ddd5501205fc","688c7788972ec5b29354de4d","3","1","5e203085ac30fa331b586690","3","1","2025-08-01T08:15:15.090Z","","","","","","","","","","","","","","","","","","","","","","","","","","","","","","","","","","","","","","","","","",""
"4631","","","","fullscreen","1","7552","0.0-1.0","309","1","2025-08-01 08:15:11","1f75c3e559b7213887762d5229550c2b","78.33.241.66","Mozilla/5.0 (Windows NT 10.0; Win64; x64) AppleWebKit/537.36 (KHTML, like Gecko) Chrome/138.0.0.0 Safari/537.36","WebKit","Chrome","138.0.0.0","Windows","10.0","https://app.prolific.com/","en-GB,en;q=0.9","5e203085ac30fa331b586690","6877631c9844ddd5501205fc","688c7788972ec5b29354de4d","3","1","5e203085ac30fa331b586690","3","1","","true","","","","","","","","","","","","","","","","","","","","","","","","","","","","","","","","","","","","","","","","",""
"930","1754036121657","<p style='font-size:1.1em;line-height:1.25'>In the following, we will ask you a few questions relating to your feelings in the last 24 hours.<br></p><p style='font-size:1.1em;line-height:1.25'>Press the <strong>Next</strong> button to continue.</p>","0","custom-html-button-response","2","8483","0.0-2.0-0.0","309","1","2025-08-01 08:15:11","1f75c3e559b7213887762d5229550c2b","78.33.241.66","Mozilla/5.0 (Windows NT 10.0; Win64; x64) AppleWebKit/537.36 (KHTML, like Gecko) Chrome/138.0.0.0 Safari/537.36","WebKit","Chrome","138.0.0.0","Windows","10.0","https://app.prolific.com/","en-GB,en;q=0.9","5e203085ac30fa331b586690","6877631c9844ddd5501205fc","688c7788972ec5b29354de4d","3","1","5e203085ac30fa331b586690","3","1","2025-08-01T08:15:21.658Z","","","","","","","","","","","","","","","","","","","","","","","","","","","","","","","","","","","","","","","","","",""
"34984.700000000186","","","","survey-template","3","43473","0.0-2.0-1.0","309","1","2025-08-01 08:15:11","1f75c3e559b7213887762d5229550c2b","78.33.241.66","Mozilla/5.0 (Windows NT 10.0; Win64; x64) AppleWebKit/537.36 (KHTML, like Gecko) Chrome/138.0.0.0 Safari/537.36","WebKit","Chrome","138.0.0.0","Windows","10.0","https://app.prolific.com/","en-GB,en;q=0.9","5e203085ac30fa331b586690","6877631c9844ddd5501205fc","688c7788972ec5b29354de4d","3","1","5e203085ac30fa331b586690","3","1","2025-08-01T08:15:56.648Z","","{""Q01"":""0"",""Q02"":""0"",""Q03"":""0"",""Q04"":""0"",""Q05"":""0"",""Q06"":""0"",""Q07"":""0"",""Q08"":""0"",""Q09"":""0"",""Q10"":""0"",""Q11"":""2"",""Q12"":""0"",""Q13"":""5"",""Q14"":""0"",""Q15"":""1"",""Q16"":""1"",""Q17"":""0"",""Q18"":""0"",""Q19"":""0"",""Q20"":""0"",""Q21"":""0"",""Q22"":""0""}","[0,1,2,3,4,5,6,7,8,9,10,11,12,13,14,15,16,17,18,19,20,21]","[""Q01"",""Q02"",""Q03"",""Q04"",""Q05"",""Q06"",""Q07"",""Q08"",""Q09"",""Q10"",""Q11"",""Q12"",""Q13"",""Q14"",""Q15"",""Q16"",""Q17"",""Q18"",""Q19"",""Q20"",""Q21"",""Q22""]","[2886.2000000001863,4076,5797,6640.399999999907,8357.30000000028,9516.100000000093,10708.200000000186,11535.5,12983.899999999907,13730.899999999907,16029,17323.30000000028,18594,20339.200000000186,22700.600000000093,25612.80000000028,27212.80000000028,28136.200000000186,29254,29938.100000000093,33696.80000000028,34325.39999999991]","[]","[0.10000000009313226,2886.2000000001863,4076,5797,6640.399999999907,8357.30000000028,9516.100000000093,10708.200000000186,11535.5,12983.899999999907,13730.899999999907,16029,17323.30000000028,18594,20339.200000000186,22700.600000000093,25612.80000000028,27212.80000000028,28136.200000000186,29254,29938.100000000093,32056.100000000093,32909.10000000009,33696.80000000028,34325.39999999991,34977.39999999991]","0.8181818181818182","0.19047619047619047","0","drsp","","","","","","","","","","","","","","","","","","","","","","","","","","","","","","",""
"7783.399999999907","","","","survey-template","4","51259","0.0-2.0-2.0","309","1","2025-08-01 08:15:11","1f75c3e559b7213887762d5229550c2b","78.33.241.66","Mozilla/5.0 (Windows NT 10.0; Win64; x64) AppleWebKit/537.36 (KHTML, like Gecko) Chrome/138.0.0.0 Safari/537.36","WebKit","Chrome","138.0.0.0","Windows","10.0","https://app.prolific.com/","en-GB,en;q=0.9","5e203085ac30fa331b586690","6877631c9844ddd5501205fc","688c7788972ec5b29354de4d","3","1","5e203085ac30fa331b586690","3","1","2025-08-01T08:16:04.433Z","","{""Q01"":""0"",""Q02"":""2"",""Q03"":""0""}","[0,1,2]","[""Q01"",""Q02"",""Q03""]","[2565.7999999998137,4086.1999999997206,6889.699999999721]","[]","[2565.7999999998137,4086.1999999997206,6889.699999999721,7781.899999999907]","0.6666666666666666","0","0","stress","","","","","","","","","","","","","","","","","","","","","","","","","","","","","","",""
"9493","","","","instructions","5","60754","0.0-3.0-0.0","309","1","2025-08-01 08:15:11","1f75c3e559b7213887762d5229550c2b","78.33.241.66","Mozilla/5.0 (Windows NT 10.0; Win64; x64) AppleWebKit/537.36 (KHTML, like Gecko) Chrome/138.0.0.0 Safari/537.36","WebKit","Chrome","138.0.0.0","Windows","10.0","https://app.prolific.com/","en-GB,en;q=0.9","5e203085ac30fa331b586690","6877631c9844ddd5501205fc","688c7788972ec5b29354de4d","3","1","5e203085ac30fa331b586690","3","1","","","","","","","","","","","","","[{""page_index"":0,""viewing_time"":9493}]","","","","","","","","","","","","","","","","","","","","","","","","","","","","","",""
"2618","","<p>Before you start with this game please answer the following three questions yourself. </p>
  <p>Through this game, we measure several aspects of your cognitive performance, such as reaction times, multi-tasking capabilities </p>
  <p>and the ability to assess the situation you are in.</p>
  <p></p>
  <p><b>How good do you usually are in such tasks?</b></p>","58","html-slider-response","6","63373","0.0-4.0-0.0","309","1","2025-08-01 08:15:11","1f75c3e559b7213887762d5229550c2b","78.33.241.66","Mozilla/5.0 (Windows NT 10.0; Win64; x64) AppleWebKit/537.36 (KHTML, like Gecko) Chrome/138.0.0.0 Safari/537.36","WebKit","Chrome","138.0.0.0","Windows","10.0","https://app.prolific.com/","en-GB,en;q=0.9","5e203085ac30fa331b586690","6877631c9844ddd5501205fc","688c7788972ec5b29354de4d","3","1","5e203085ac30fa331b586690","3","1","2025-08-01T08:16:16.548Z","","","","","","","","","","","PreSkillQ","","50","","","","","","","","","","","","","","","","","","","","","","","","","","","","",""
"2526","","<div style=""width:500px;"">
  <p>How well do you think you will perform in this task compared to other participants?</p>
  </div>","14","html-slider-response","7","65901","0.0-4.0-1.0","309","1","2025-08-01 08:15:11","1f75c3e559b7213887762d5229550c2b","78.33.241.66","Mozilla/5.0 (Windows NT 10.0; Win64; x64) AppleWebKit/537.36 (KHTML, like Gecko) Chrome/138.0.0.0 Safari/537.36","WebKit","Chrome","138.0.0.0","Windows","10.0","https://app.prolific.com/","en-GB,en;q=0.9","5e203085ac30fa331b586690","6877631c9844ddd5501205fc","688c7788972ec5b29354de4d","3","1","5e203085ac30fa331b586690","3","1","2025-08-01T08:16:19.075Z","","","","","","","","","","","PrePerfQ","","50","","","","","","","","","","","","","","","","","","","","","","","","","","","","",""
"2411","","<div style=""width:500px;"">
  <p>What best describes how you currently feel?</p>
  </div>","84","html-slider-response","8","68314","0.0-4.0-2.0","309","1","2025-08-01 08:15:11","1f75c3e559b7213887762d5229550c2b","78.33.241.66","Mozilla/5.0 (Windows NT 10.0; Win64; x64) AppleWebKit/537.36 (KHTML, like Gecko) Chrome/138.0.0.0 Safari/537.36","WebKit","Chrome","138.0.0.0","Windows","10.0","https://app.prolific.com/","en-GB,en;q=0.9","5e203085ac30fa331b586690","6877631c9844ddd5501205fc","688c7788972ec5b29354de4d","3","1","5e203085ac30fa331b586690","3","1","2025-08-01T08:16:21.488Z","","","","","","","","","","","PreMotivationQ","","50","","","","","","","","","","","","","","","","","","","","","","","","","","","","",""
"","","","","ctl-task-cpt","9","87848","0.0-5.0-0.0","309","1","2025-08-01 08:15:11","1f75c3e559b7213887762d5229550c2b","78.33.241.66","Mozilla/5.0 (Windows NT 10.0; Win64; x64) AppleWebKit/537.36 (KHTML, like Gecko) Chrome/138.0.0.0 Safari/537.36","WebKit","Chrome","138.0.0.0","Windows","10.0","https://app.prolific.com/","en-GB,en;q=0.9","5e203085ac30fa331b586690","6877631c9844ddd5501205fc","688c7788972ec5b29354de4d","3","1","5e203085ac30fa331b586690","3","1","2025-08-01T08:16:41.022Z","","","","","","","","","","","","","","win-only","2","g1:SE,g2:NW","1","1","0","70392.9","1067.5","6069","16524.2","1","4","4","6","1","1","1","1","0","0.007575757575757576","1075.8","3000","1530","[""down"",""right""]","{""num_key_presses"":4,""num_perfect"":4,""num_errors"":0,""num_randdir"":0,""num_randdir_good_moves"":0,""num_whilered"":0,""num_whileblue"":0,""num_blue"":0,""num_good_moves"":4}","[412.57142857142856,417.47767857142856,0.4,412.57142857142856,417.47767857142856,104.4,412.57142857142856,417.47767857142856,209.1,422.57142857142856,419.47767857142856,313.9,406.57142857142856,344.47767857142856,414.2,321.57142857142856,239.47767857142856,518.4,382.57142857142856,310.47767857142856,623.5,779.5714285714286,726.4776785714286,723.5,835.5714285714286,770.4776785714286,823.9,836.5714285714286,775.4776785714286,924.7,828.5714285714286,775.4776785714286,1024.9,828.5714285714286,775.4776785714286,1129.7,828.5714285714286,775.4776785714286,1235.5,828.5714285714286,775.4776785714286,1339.4,828.5714285714286,775.4776785714286,1444.8,828.5714285714286,775.4776785714286,1545,828.5714285714286,775.4776785714286,1649.9,828.5714285714286,775.4776785714286,1755.1,828.5714285714286,775.4776785714286,1858.9,828.5714285714286,775.4776785714286,1959.5,828.5714285714286,775.4776785714286,2064.1,828.5714285714286,775.4776785714286,2164.2,828.5714285714286,775.4776785714286,2264.3,828.5714285714286,775.4776785714286,2368.6,828.5714285714286,775.4776785714286,2468.9,828.5714285714286,775.4776785714286,2574.6,828.5714285714286,775.4776785714286,2674.9,828.5714285714286,775.4776785714286,2779.3,828.5714285714286,775.4776785714286,2883.7,828.5714285714286,775.4776785714286,2984.2,828.5714285714286,775.4776785714286,3086.4,828.5714285714286,775.4776785714286,3188.1,828.5714285714286,775.4776785714286,3288.7,828.5714285714286,775.4776785714286,3394.2,828.5714285714286,775.4776785714286,3495.4,828.5714285714286,775.4776785714286,3601.9,828.5714285714286,775.4776785714286,3704,828.5714285714286,775.4776785714286,3808.3,828.5714285714286,775.4776785714286,3908.6,828.5714285714286,775.4776785714286,4008.9,828.5714285714286,775.4776785714286,4109.8,828.5714285714286,775.4776785714286,4213.6,828.5714285714286,775.4776785714286,4318.6,828.5714285714286,775.4776785714286,4418.7,828.5714285714286,775.4776785714286,4523.1,828.5714285714286,775.4776785714286,4624.2,828.5714285714286,775.4776785714286,4725,828.5714285714286,775.4776785714286,4828.9,828.5714285714286,775.4776785714286,4935]","[1378,1377.9,1000,0.1,377.9,""smooth"",""down"",""down"",""good_move"",4256.4,2877.5,2478.8,1379.1,398.6,""smooth"",""down"",""down"",""good_move"",7660.6,3403.8,3038,4256.8,365.8,""smooth"",""right"",""right"",""good_move"",10348.7,2687.8,2340.8,7660.9,347,""smooth"",""right"",""right"",""good_move""]","",""
"2348","","<div style=""width:500px;"">
  <p>What determined the result of this run?</p>
  </div>","100","html-slider-response","10","90198","0.0-5.0-1.0","309","1","2025-08-01 08:15:11","1f75c3e559b7213887762d5229550c2b","78.33.241.66","Mozilla/5.0 (Windows NT 10.0; Win64; x64) AppleWebKit/537.36 (KHTML, like Gecko) Chrome/138.0.0.0 Safari/537.36","WebKit","Chrome","138.0.0.0","Windows","10.0","https://app.prolific.com/","en-GB,en;q=0.9","5e203085ac30fa331b586690","6877631c9844ddd5501205fc","688c7788972ec5b29354de4d","3","1","5e203085ac30fa331b586690","3","1","2025-08-01T08:16:43.372Z","","","","","","","","","","","AttribQ","","50","","","","","","","","","","","","","","","","","","","","","","","","","","","","",""
"1897","","<div style=""width:500px;"">
  <p>How much control did you have over the ball?</p>
  </div>","100","html-slider-response","11","92096","0.0-5.0-2.0","309","1","2025-08-01 08:15:11","1f75c3e559b7213887762d5229550c2b","78.33.241.66","Mozilla/5.0 (Windows NT 10.0; Win64; x64) AppleWebKit/537.36 (KHTML, like Gecko) Chrome/138.0.0.0 Safari/537.36","WebKit","Chrome","138.0.0.0","Windows","10.0","https://app.prolific.com/","en-GB,en;q=0.9","5e203085ac30fa331b586690","6877631c9844ddd5501205fc","688c7788972ec5b29354de4d","3","1","5e203085ac30fa331b586690","3","1","2025-08-01T08:16:45.270Z","","","","","","","","","","","ControlQ","","50","","","","","","","","","","","","","","","","","","","","","","","","","","","","",""
"2384","","<div style=""width:500px;"">
  <p>How would you describe your current emotional state?</p>
  </div>","5","html-slider-response","12","94481","0.0-5.0-3.0","309","1","2025-08-01 08:15:11","1f75c3e559b7213887762d5229550c2b","78.33.241.66","Mozilla/5.0 (Windows NT 10.0; Win64; x64) AppleWebKit/537.36 (KHTML, like Gecko) Chrome/138.0.0.0 Safari/537.36","WebKit","Chrome","138.0.0.0","Windows","10.0","https://app.prolific.com/","en-GB,en;q=0.9","5e203085ac30fa331b586690","6877631c9844ddd5501205fc","688c7788972ec5b29354de4d","3","1","5e203085ac30fa331b586690","3","1","2025-08-01T08:16:47.655Z","","","","","","","","","","","StressQ","","50","","","","","","","","","","","","","","","","","","","","","","","","","","","","",""
"1848","","<div style=""width:500px;"">
  <p>What best describes how you currently feel?</p>
  </div>","87","html-slider-response","13","96331","0.0-5.0-4.0","309","1","2025-08-01 08:15:11","1f75c3e559b7213887762d5229550c2b","78.33.241.66","Mozilla/5.0 (Windows NT 10.0; Win64; x64) AppleWebKit/537.36 (KHTML, like Gecko) Chrome/138.0.0.0 Safari/537.36","WebKit","Chrome","138.0.0.0","Windows","10.0","https://app.prolific.com/","en-GB,en;q=0.9","5e203085ac30fa331b586690","6877631c9844ddd5501205fc","688c7788972ec5b29354de4d","3","1","5e203085ac30fa331b586690","3","1","2025-08-01T08:16:49.505Z","","","","","","","","","","","MotivationQ","","50","","","","","","","","","","","","","","","","","","","","","","","","","","","","",""
"","","","","ctl-task-cpt","14","130837","0.0-5.0-0.1","309","1","2025-08-01 08:15:11","1f75c3e559b7213887762d5229550c2b","78.33.241.66","Mozilla/5.0 (Windows NT 10.0; Win64; x64) AppleWebKit/537.36 (KHTML, like Gecko) Chrome/138.0.0.0 Safari/537.36","WebKit","Chrome","138.0.0.0","Windows","10.0","https://app.prolific.com/","en-GB,en;q=0.9","5e203085ac30fa331b586690","6877631c9844ddd5501205fc","688c7788972ec5b29354de4d","3","1","5e203085ac30fa331b586690","3","1","2025-08-01T08:17:24.011Z","","","","","","","","","","","","","","win-only","3","g1:SW,g2:NE","0.9","2","0","98406.2","876.2","5881.4","31496.8","1","4","8","6","1","1","0","1","1","0.007575757575757576","724.6","3000","605","[""down"",""left""]","{""num_key_presses"":8,""num_perfect"":6,""num_errors"":1,""num_randdir"":1,""num_randdir_good_moves"":0,""num_whilered"":0,""num_whileblue"":1,""num_blue"":2,""num_good_moves"":6}","[417.57142857142856,417.47767857142856,0.2,417.57142857142856,417.47767857142856,105.6,417.57142857142856,417.47767857142856,212,417.57142857142856,417.47767857142856,314.7,291.57142857142856,559.4776785714286,420.2,110.57142857142857,781.4776785714286,525.9,90.57142857142857,792.4776785714286,629.5,76.57142857142857,795.4776785714286,730.4,76.57142857142857,795.4776785714286,836.2,86.57142857142857,796.4776785714286,936.7,86.57142857142857,796.4776785714286,1039.5,86.57142857142857,796.4776785714286,1139.5,86.57142857142857,796.4776785714286,1239.6,86.57142857142857,796.4776785714286,1339.6,86.57142857142857,796.4776785714286,1439.8,86.57142857142857,796.4776785714286,1542.1,86.57142857142857,796.4776785714286,1644.6,86.57142857142857,796.4776785714286,1746.3,86.57142857142857,796.4776785714286,1846.7,86.57142857142857,796.4776785714286,1949.7,86.57142857142857,796.4776785714286,2055.5,86.57142857142857,796.4776785714286,2159.9,86.57142857142857,796.4776785714286,2265.5,86.57142857142857,796.4776785714286,2369.8,86.57142857142857,796.4776785714286,2469.9,86.57142857142857,796.4776785714286,2575.4,86.57142857142857,796.4776785714286,2676.1,86.57142857142857,796.4776785714286,2781.2,86.57142857142857,796.4776785714286,2885.8,86.57142857142857,796.4776785714286,2985.8,86.57142857142857,796.4776785714286,3090.1,86.57142857142857,796.4776785714286,3190.9,86.57142857142857,796.4776785714286,3295.3,86.57142857142857,796.4776785714286,3396.1,86.57142857142857,796.4776785714286,3500,86.57142857142857,796.4776785714286,3600.3,86.57142857142857,796.4776785714286,3700.3,86.57142857142857,796.4776785714286,3805.1,86.57142857142857,796.4776785714286,3909,86.57142857142857,796.4776785714286,4009,86.57142857142857,796.4776785714286,4109.2,86.57142857142857,796.4776785714286,4209.3,86.57142857142857,796.4776785714286,4309.7,86.57142857142857,796.4776785714286,4410.5,86.57142857142857,796.4776785714286,4515.9,86.57142857142857,796.4776785714286,4620.1,86.57142857142857,796.4776785714286,4725.2,86.57142857142857,796.4776785714286,4829.2,86.57142857142857,796.4776785714286,4929.9]","[1412.8,1412.8,1000,0,412.8,""smooth"",""down"",""down"",""good_move"",8766.8,7353.8,3161.2,5230.2,375.4,""smooth"",""down"",""down"",""good_move"",11414.9,2647.7,2264.1,8767.2,383.6,""smooth"",""left"",""left"",""good_move"",13506.2,2090.7,1740.4,11415.6,350.2,""oops"",""left"",""right"",""bad_move"",16524.2,3017.7,2723.9,13506.5,293.8,""while_blue"",""left"",""right"",""bad_move"",19791.4,3266.6,2930.2,16524.8,336.4,""smooth"",""left"",""left"",""good_move"",22627.4,2835.6,2456.1,19791.8,379.5,""smooth"",""left"",""left"",""good_move"",25523.6,2896.1,2560.6,22627.5,335.5,""smooth"",""left"",""left"",""good_move""]","",""
"2377","","<div style=""width:500px;"">
  <p>What determined the result of this run?</p>
  </div>","93","html-slider-response","15","133216","0.0-5.0-1.1","309","1","2025-08-01 08:15:11","1f75c3e559b7213887762d5229550c2b","78.33.241.66","Mozilla/5.0 (Windows NT 10.0; Win64; x64) AppleWebKit/537.36 (KHTML, like Gecko) Chrome/138.0.0.0 Safari/537.36","WebKit","Chrome","138.0.0.0","Windows","10.0","https://app.prolific.com/","en-GB,en;q=0.9","5e203085ac30fa331b586690","6877631c9844ddd5501205fc","688c7788972ec5b29354de4d","3","1","5e203085ac30fa331b586690","3","1","2025-08-01T08:17:26.390Z","","","","","","","","","","","AttribQ","","50","","","","","","","","","","","","","","","","","","","","","","","","","","","","",""
"2014","","<div style=""width:500px;"">
  <p>How much control did you have over the ball?</p>
  </div>","86","html-slider-response","16","135231","0.0-5.0-2.1","309","1","2025-08-01 08:15:11","1f75c3e559b7213887762d5229550c2b","78.33.241.66","Mozilla/5.0 (Windows NT 10.0; Win64; x64) AppleWebKit/537.36 (KHTML, like Gecko) Chrome/138.0.0.0 Safari/537.36","WebKit","Chrome","138.0.0.0","Windows","10.0","https://app.prolific.com/","en-GB,en;q=0.9","5e203085ac30fa331b586690","6877631c9844ddd5501205fc","688c7788972ec5b29354de4d","3","1","5e203085ac30fa331b586690","3","1","2025-08-01T08:17:28.405Z","","","","","","","","","","","ControlQ","","50","","","","","","","","","","","","","","","","","","","","","","","","","","","","",""
"2042","","<div style=""width:500px;"">
  <p>How would you describe your current emotional state?</p>
  </div>","7","html-slider-response","17","137274","0.0-5.0-3.1","309","1","2025-08-01 08:15:11","1f75c3e559b7213887762d5229550c2b","78.33.241.66","Mozilla/5.0 (Windows NT 10.0; Win64; x64) AppleWebKit/537.36 (KHTML, like Gecko) Chrome/138.0.0.0 Safari/537.36","WebKit","Chrome","138.0.0.0","Windows","10.0","https://app.prolific.com/","en-GB,en;q=0.9","5e203085ac30fa331b586690","6877631c9844ddd5501205fc","688c7788972ec5b29354de4d","3","1","5e203085ac30fa331b586690","3","1","2025-08-01T08:17:30.449Z","","","","","","","","","","","StressQ","","50","","","","","","","","","","","","","","","","","","","","","","","","","","","","",""
"1190","","<div style=""width:500px;"">
  <p>What best describes how you currently feel?</p>
  </div>","88","html-slider-response","18","138466","0.0-5.0-4.1","309","1","2025-08-01 08:15:11","1f75c3e559b7213887762d5229550c2b","78.33.241.66","Mozilla/5.0 (Windows NT 10.0; Win64; x64) AppleWebKit/537.36 (KHTML, like Gecko) Chrome/138.0.0.0 Safari/537.36","WebKit","Chrome","138.0.0.0","Windows","10.0","https://app.prolific.com/","en-GB,en;q=0.9","5e203085ac30fa331b586690","6877631c9844ddd5501205fc","688c7788972ec5b29354de4d","3","1","5e203085ac30fa331b586690","3","1","2025-08-01T08:17:31.640Z","","","","","","","","","","","MotivationQ","","50","","","","","","","","","","","","","","","","","","","","","","","","","","","","",""
"","","","","ctl-task-cpt","19","160970","0.0-5.0-0.2","309","1","2025-08-01 08:15:11","1f75c3e559b7213887762d5229550c2b","78.33.241.66","Mozilla/5.0 (Windows NT 10.0; Win64; x64) AppleWebKit/537.36 (KHTML, like Gecko) Chrome/138.0.0.0 Safari/537.36","WebKit","Chrome","138.0.0.0","Windows","10.0","https://app.prolific.com/","en-GB,en;q=0.9","5e203085ac30fa331b586690","6877631c9844ddd5501205fc","688c7788972ec5b29354de4d","3","1","5e203085ac30fa331b586690","3","1","2025-08-01T08:17:54.145Z","","","","","","","","","","","","","","win-only","3","g1:SW,g2:NE","0.8","3","0","140544.1","770.6","5777","19476.2","1","4","8","6","1","1","1","2","1","0.015151515151515152","849.4","3000","1700","[""down"",""left""]","{""num_key_presses"":4,""num_perfect"":4,""num_errors"":0,""num_randdir"":0,""num_randdir_good_moves"":0,""num_whilered"":0,""num_whileblue"":0,""num_blue"":1,""num_good_moves"":4}","[419.57142857142856,423.47767857142856,0.2,419.57142857142856,423.47767857142856,100.5,419.57142857142856,423.47767857142856,205.4,419.57142857142856,423.47767857142856,305.9,302.57142857142856,491.47767857142856,412,112.57142857142857,649.4776785714286,514.8,87.57142857142857,699.4776785714286,615,63.57142857142857,764.4776785714286,715.1,60.57142857142857,770.4776785714286,815.7,60.57142857142857,770.4776785714286,916.1,59.57142857142857,770.4776785714286,1020.2,59.57142857142857,770.4776785714286,1121.1,59.57142857142857,770.4776785714286,1225.3,59.57142857142857,770.4776785714286,1325.4,59.57142857142857,770.4776785714286,1425.9,59.57142857142857,770.4776785714286,1533.3,59.57142857142857,770.4776785714286,1634.4,59.57142857142857,770.4776785714286,1736,59.57142857142857,770.4776785714286,1840.2,59.57142857142857,770.4776785714286,1941.3,59.57142857142857,770.4776785714286,2045.2,59.57142857142857,770.4776785714286,2147,59.57142857142857,770.4776785714286,2250.3,59.57142857142857,770.4776785714286,2355.4,59.57142857142857,770.4776785714286,2461.8,59.57142857142857,770.4776785714286,2564.7,59.57142857142857,770.4776785714286,2668.2,59.57142857142857,770.4776785714286,2770.7,59.57142857142857,770.4776785714286,2875.1,59.57142857142857,770.4776785714286,2975.7,59.57142857142857,770.4776785714286,3076.7,59.57142857142857,770.4776785714286,3177.8,59.57142857142857,770.4776785714286,3285.3,59.57142857142857,770.4776785714286,3390.4,59.57142857142857,770.4776785714286,3498.7,59.57142857142857,770.4776785714286,3599,59.57142857142857,770.4776785714286,3702.3,59.57142857142857,770.4776785714286,3805.7,59.57142857142857,770.4776785714286,3912.6,59.57142857142857,770.4776785714286,4013.8,59.57142857142857,770.4776785714286,4115.8,59.57142857142857,770.4776785714286,4220.1,59.57142857142857,770.4776785714286,4321,59.57142857142857,770.4776785714286,4421,59.57142857142857,770.4776785714286,4526,59.57142857142857,770.4776785714286,4626.7,59.57142857142857,770.4776785714286,4730.8,59.57142857142857,770.4776785714286,4831.1,59.57142857142857,770.4776785714286,4935.8]","[4612.5,4612.5,2203.2,2009.3,400,""smooth"",""down"",""down"",""good_move"",7382.5,2769.3,2441.4,4613.2,327.9,""smooth"",""down"",""down"",""good_move"",10712.7,3329.9,2971.9,7382.8,358,""smooth"",""left"",""left"",""good_move"",13605.6,2892.3,2570.9,10713.3,321.4,""smooth"",""left"",""left"",""good_move""]","",""
"1698","","<div style=""width:500px;"">
  <p>What determined the result of this run?</p>
  </div>","100","html-slider-response","20","162671","0.0-5.0-1.2","309","1","2025-08-01 08:15:11","1f75c3e559b7213887762d5229550c2b","78.33.241.66","Mozilla/5.0 (Windows NT 10.0; Win64; x64) AppleWebKit/537.36 (KHTML, like Gecko) Chrome/138.0.0.0 Safari/537.36","WebKit","Chrome","138.0.0.0","Windows","10.0","https://app.prolific.com/","en-GB,en;q=0.9","5e203085ac30fa331b586690","6877631c9844ddd5501205fc","688c7788972ec5b29354de4d","3","1","5e203085ac30fa331b586690","3","1","2025-08-01T08:17:55.845Z","","","","","","","","","","","AttribQ","","50","","","","","","","","","","","","","","","","","","","","","","","","","","","","",""
"1424","","<div style=""width:500px;"">
  <p>How much control did you have over the ball?</p>
  </div>","100","html-slider-response","21","164096","0.0-5.0-2.2","309","1","2025-08-01 08:15:11","1f75c3e559b7213887762d5229550c2b","78.33.241.66","Mozilla/5.0 (Windows NT 10.0; Win64; x64) AppleWebKit/537.36 (KHTML, like Gecko) Chrome/138.0.0.0 Safari/537.36","WebKit","Chrome","138.0.0.0","Windows","10.0","https://app.prolific.com/","en-GB,en;q=0.9","5e203085ac30fa331b586690","6877631c9844ddd5501205fc","688c7788972ec5b29354de4d","3","1","5e203085ac30fa331b586690","3","1","2025-08-01T08:17:57.270Z","","","","","","","","","","","ControlQ","","50","","","","","","","","","","","","","","","","","","","","","","","","","","","","",""
"1848","","<div style=""width:500px;"">
  <p>How would you describe your current emotional state?</p>
  </div>","8","html-slider-response","22","165945","0.0-5.0-3.2","309","1","2025-08-01 08:15:11","1f75c3e559b7213887762d5229550c2b","78.33.241.66","Mozilla/5.0 (Windows NT 10.0; Win64; x64) AppleWebKit/537.36 (KHTML, like Gecko) Chrome/138.0.0.0 Safari/537.36","WebKit","Chrome","138.0.0.0","Windows","10.0","https://app.prolific.com/","en-GB,en;q=0.9","5e203085ac30fa331b586690","6877631c9844ddd5501205fc","688c7788972ec5b29354de4d","3","1","5e203085ac30fa331b586690","3","1","2025-08-01T08:17:59.119Z","","","","","","","","","","","StressQ","","50","","","","","","","","","","","","","","","","","","","","","","","","","","","","",""
"1311","","<div style=""width:500px;"">
  <p>What best describes how you currently feel?</p>
  </div>","94","html-slider-response","23","167257","0.0-5.0-4.2","309","1","2025-08-01 08:15:11","1f75c3e559b7213887762d5229550c2b","78.33.241.66","Mozilla/5.0 (Windows NT 10.0; Win64; x64) AppleWebKit/537.36 (KHTML, like Gecko) Chrome/138.0.0.0 Safari/537.36","WebKit","Chrome","138.0.0.0","Windows","10.0","https://app.prolific.com/","en-GB,en;q=0.9","5e203085ac30fa331b586690","6877631c9844ddd5501205fc","688c7788972ec5b29354de4d","3","1","5e203085ac30fa331b586690","3","1","2025-08-01T08:18:00.431Z","","","","","","","","","","","MotivationQ","","50","","","","","","","","","","","","","","","","","","","","","","","","","","","","",""
"","","","","ctl-task-cpt","24","195689","0.0-5.0-0.3","309","1","2025-08-01 08:15:11","1f75c3e559b7213887762d5229550c2b","78.33.241.66","Mozilla/5.0 (Windows NT 10.0; Win64; x64) AppleWebKit/537.36 (KHTML, like Gecko) Chrome/138.0.0.0 Safari/537.36","WebKit","Chrome","138.0.0.0","Windows","10.0","https://app.prolific.com/","en-GB,en;q=0.9","5e203085ac30fa331b586690","6877631c9844ddd5501205fc","688c7788972ec5b29354de4d","3","1","5e203085ac30fa331b586690","3","1","2025-08-01T08:18:28.864Z","","","","","","","","","","","","","","win-only","1","g1:NE,g2:SW","0.7","4","0","169333.1","763.5","5766","25420.5","1","4","4","6","1","1","1","3","2","0.022727272727272728","626.3","3000","1375","[""up"",""right""]","{""num_key_presses"":6,""num_perfect"":5,""num_errors"":0,""num_randdir"":1,""num_randdir_good_moves"":0,""num_whilered"":0,""num_whileblue"":0,""num_blue"":1,""num_good_moves"":5}","[417.57142857142856,425.47767857142856,0.5,417.57142857142856,425.47767857142856,101.3,417.57142857142856,425.47767857142856,201.8,409.57142857142856,429.47767857142856,302.8,713.5714285714286,129.47767857142856,406.9,781.5714285714286,80.47767857142857,507.9,781.5714285714286,80.47767857142857,617.8,781.5714285714286,80.47767857142857,718.2,781.5714285714286,80.47767857142857,823,781.5714285714286,80.47767857142857,935.1,781.5714285714286,80.47767857142857,1037.5,781.5714285714286,80.47767857142857,1137.7,781.5714285714286,80.47767857142857,1237.8,781.5714285714286,80.47767857142857,1338.4,781.5714285714286,80.47767857142857,1442.4,781.5714285714286,80.47767857142857,1542.5,781.5714285714286,80.47767857142857,1651.1,781.5714285714286,80.47767857142857,1752.8,781.5714285714286,80.47767857142857,1857.6,781.5714285714286,80.47767857142857,1967.3,781.5714285714286,80.47767857142857,2072.2,781.5714285714286,80.47767857142857,2172.4,781.5714285714286,80.47767857142857,2272.4,781.5714285714286,80.47767857142857,2377.3,781.5714285714286,80.47767857142857,2478.2,781.5714285714286,80.47767857142857,2586.8,781.5714285714286,80.47767857142857,2692.2,781.5714285714286,80.47767857142857,2793.1,781.5714285714286,80.47767857142857,2900.3,781.5714285714286,80.47767857142857,3000.3,781.5714285714286,80.47767857142857,3100.7,781.5714285714286,80.47767857142857,3200.8,781.5714285714286,80.47767857142857,3302.5,781.5714285714286,80.47767857142857,3407.9,781.5714285714286,80.47767857142857,3516.5,781.5714285714286,80.47767857142857,3617.4,781.5714285714286,80.47767857142857,3722.7,781.5714285714286,80.47767857142857,3827.5,781.5714285714286,80.47767857142857,3928.3,781.5714285714286,80.47767857142857,4035.3,781.5714285714286,80.47767857142857,4137,781.5714285714286,80.47767857142857,4238.3,781.5714285714286,80.47767857142857,4342.2,781.5714285714286,80.47767857142857,4453.5,781.5714285714286,80.47767857142857,4557.4,781.5714285714286,80.47767857142857,4667.2,781.5714285714286,80.47767857142857,4767.9,781.5714285714286,80.47767857142857,4872.7,781.5714285714286,80.47767857142857,4977.8]","[1383.6,1383.6,1000,0,383.6,""oops"",""up"",""left"",""bad_move"",8048,6664,3187.2,4540.4,320.4,""smooth"",""up"",""up"",""good_move"",10888.7,2840.1,2549.5,8048.6,290.6,""smooth"",""up"",""up"",""good_move"",13868.8,2979.4,2630.8,10889.4,348.6,""smooth"",""right"",""right"",""good_move"",16534.6,2665.4,2390.1,13869.2,275.3,""smooth"",""right"",""right"",""good_move"",19548.4,3013.5,2700,16534.9,313.5,""smooth"",""right"",""right"",""good_move""]","",""
"2973","","<div style=""width:500px;"">
  <p>What determined the result of this run?</p>
  </div>","90","html-slider-response","25","198665","0.0-5.0-1.3","309","1","2025-08-01 08:15:11","1f75c3e559b7213887762d5229550c2b","78.33.241.66","Mozilla/5.0 (Windows NT 10.0; Win64; x64) AppleWebKit/537.36 (KHTML, like Gecko) Chrome/138.0.0.0 Safari/537.36","WebKit","Chrome","138.0.0.0","Windows","10.0","https://app.prolific.com/","en-GB,en;q=0.9","5e203085ac30fa331b586690","6877631c9844ddd5501205fc","688c7788972ec5b29354de4d","3","1","5e203085ac30fa331b586690","3","1","2025-08-01T08:18:31.839Z","","","","","","","","","","","AttribQ","","50","","","","","","","","","","","","","","","","","","","","","","","","","","","","",""
"1693","","<div style=""width:500px;"">
  <p>How much control did you have over the ball?</p>
  </div>","90","html-slider-response","26","200359","0.0-5.0-2.3","309","1","2025-08-01 08:15:11","1f75c3e559b7213887762d5229550c2b","78.33.241.66","Mozilla/5.0 (Windows NT 10.0; Win64; x64) AppleWebKit/537.36 (KHTML, like Gecko) Chrome/138.0.0.0 Safari/537.36","WebKit","Chrome","138.0.0.0","Windows","10.0","https://app.prolific.com/","en-GB,en;q=0.9","5e203085ac30fa331b586690","6877631c9844ddd5501205fc","688c7788972ec5b29354de4d","3","1","5e203085ac30fa331b586690","3","1","2025-08-01T08:18:33.533Z","","","","","","","","","","","ControlQ","","50","","","","","","","","","","","","","","","","","","","","","","","","","","","","",""
"3382","","<div style=""width:500px;"">
  <p>How would you describe your current emotional state?</p>
  </div>","6","html-slider-response","27","203745","0.0-5.0-3.3","309","1","2025-08-01 08:15:11","1f75c3e559b7213887762d5229550c2b","78.33.241.66","Mozilla/5.0 (Windows NT 10.0; Win64; x64) AppleWebKit/537.36 (KHTML, like Gecko) Chrome/138.0.0.0 Safari/537.36","WebKit","Chrome","138.0.0.0","Windows","10.0","https://app.prolific.com/","en-GB,en;q=0.9","5e203085ac30fa331b586690","6877631c9844ddd5501205fc","688c7788972ec5b29354de4d","3","1","5e203085ac30fa331b586690","3","1","2025-08-01T08:18:36.920Z","","","","","","","","","","","StressQ","","50","","","","","","","","","","","","","","","","","","","","","","","","","","","","",""
"2165","","<div style=""width:500px;"">
  <p>What best describes how you currently feel?</p>
  </div>","90","html-slider-response","28","205917","0.0-5.0-4.3","309","1","2025-08-01 08:15:11","1f75c3e559b7213887762d5229550c2b","78.33.241.66","Mozilla/5.0 (Windows NT 10.0; Win64; x64) AppleWebKit/537.36 (KHTML, like Gecko) Chrome/138.0.0.0 Safari/537.36","WebKit","Chrome","138.0.0.0","Windows","10.0","https://app.prolific.com/","en-GB,en;q=0.9","5e203085ac30fa331b586690","6877631c9844ddd5501205fc","688c7788972ec5b29354de4d","3","1","5e203085ac30fa331b586690","3","1","2025-08-01T08:18:39.091Z","","","","","","","","","","","MotivationQ","","50","","","","","","","","","","","","","","","","","","","","","","","","","","","","",""
"","","","","ctl-task-cpt","29","251776","0.0-5.0-0.4","309","1","2025-08-01 08:15:11","1f75c3e559b7213887762d5229550c2b","78.33.241.66","Mozilla/5.0 (Windows NT 10.0; Win64; x64) AppleWebKit/537.36 (KHTML, like Gecko) Chrome/138.0.0.0 Safari/537.36","WebKit","Chrome","138.0.0.0","Windows","10.0","https://app.prolific.com/","en-GB,en;q=0.9","5e203085ac30fa331b586690","6877631c9844ddd5501205fc","688c7788972ec5b29354de4d","3","1","5e203085ac30fa331b586690","3","1","2025-08-01T08:19:24.950Z","","","","","","","","","","","","","","win-only","0","g1:NW,g2:SE","0.6","5","0","207993.8","737.3","5740.6","42840.9","1","4","4","6","1","-1","-3","0","3","0","699.4","3000","-2465","[""left"",""up""]","{""num_key_presses"":11,""num_perfect"":5,""num_errors"":2,""num_randdir"":4,""num_randdir_good_moves"":2,""num_whilered"":0,""num_whileblue"":2,""num_blue"":3,""num_good_moves"":7}","[422.57142857142856,416.47767857142856,0.2,422.57142857142856,416.47767857142856,100.7,423.57142857142856,412.47767857142856,203.3,426.57142857142856,406.47767857142856,308.2,212.57142857142856,153.47767857142856,408.4,131.57142857142856,90.47767857142857,517.5,120.57142857142857,88.47767857142857,618.1,115.57142857142857,83.47767857142857,718.2,115.57142857142857,83.47767857142857,823.8,115.57142857142857,83.47767857142857,932.9,115.57142857142857,83.47767857142857,1032.9,115.57142857142857,83.47767857142857,1133.3,115.57142857142857,83.47767857142857,1238.2,115.57142857142857,83.47767857142857,1339.1,115.57142857142857,83.47767857142857,1450.8,115.57142857142857,83.47767857142857,1552.8,115.57142857142857,83.47767857142857,1653.4,115.57142857142857,83.47767857142857,1753.8,115.57142857142857,83.47767857142857,1854.1,115.57142857142857,83.47767857142857,1958.1,115.57142857142857,83.47767857142857,2058.1,115.57142857142857,83.47767857142857,2167.6,115.57142857142857,83.47767857142857,2268.8,115.57142857142857,83.47767857142857,2379.8,115.57142857142857,83.47767857142857,2483.5,115.57142857142857,83.47767857142857,2583.7,115.57142857142857,83.47767857142857,2688.8,115.57142857142857,83.47767857142857,2801.6,115.57142857142857,83.47767857142857,2901.8,115.57142857142857,83.47767857142857,3001.8,115.57142857142857,83.47767857142857,3102.2,115.57142857142857,83.47767857142857,3203.5,115.57142857142857,83.47767857142857,3308.1,115.57142857142857,83.47767857142857,3418,115.57142857142857,83.47767857142857,3518.5,115.57142857142857,83.47767857142857,3618.9,115.57142857142857,83.47767857142857,3718.9,115.57142857142857,83.47767857142857,3819,115.57142857142857,83.47767857142857,3923.3,115.57142857142857,83.47767857142857,4024.2,115.57142857142857,83.47767857142857,4128,115.57142857142857,83.47767857142857,4233,115.57142857142857,83.47767857142857,4338,115.57142857142857,83.47767857142857,4438.7,115.57142857142857,83.47767857142857,4551.3,115.57142857142857,83.47767857142857,4653.1,115.57142857142857,83.47767857142857,4753.4,115.57142857142857,83.47767857142857,4853.4,115.57142857142857,83.47767857142857,4954.1]","[1424.5,1424.5,1000,0,424.5,""smooth"",""left"",""left"",""good_move"",4671.8,3246.7,2910.3,1425.1,336.4,""smooth"",""left"",""left"",""good_move"",8146.7,3474.8,3144.3,4671.9,330.5,""oops"",""up"",""down"",""bad_move"",10772.6,2624.9,2332.5,8147.7,292.4,""while_blue"",""up"",""down"",""bad_move"",13301.8,2528.7,2077.7,10773.2,451,""smooth"",""up"",""up"",""good_move"",15946.6,2643.4,2266.1,13303.2,377.3,""smooth"",""up"",""up"",""good_move"",19495.8,3549,3190.9,15946.8,358.1,""oops"",""up"",""down"",""bad_move"",21862.1,2366.2,2023.7,19495.9,342.5,""while_blue"",""up"",""right"",""bad_move"",24966.9,3104.2,2748.4,21862.7,355.8,""smooth"",""up"",""up"",""good_move"",30779.1,5811.9,2156.6,28281,341.5,""oops"",""up"",""up"",""good_move"",34112.6,3333.3,3001,30779.3,332.4,""oops"",""up"",""up"",""good_move""]","",""
"5363","","<div style=""width:500px;"">
  <p>What determined the result of this run?</p>
  </div>","70","html-slider-response","30","257142","0.0-5.0-1.4","309","1","2025-08-01 08:15:11","1f75c3e559b7213887762d5229550c2b","78.33.241.66","Mozilla/5.0 (Windows NT 10.0; Win64; x64) AppleWebKit/537.36 (KHTML, like Gecko) Chrome/138.0.0.0 Safari/537.36","WebKit","Chrome","138.0.0.0","Windows","10.0","https://app.prolific.com/","en-GB,en;q=0.9","5e203085ac30fa331b586690","6877631c9844ddd5501205fc","688c7788972ec5b29354de4d","3","1","5e203085ac30fa331b586690","3","1","2025-08-01T08:19:30.317Z","","","","","","","","","","","AttribQ","","50","","","","","","","","","","","","","","","","","","","","","","","","","","","","",""
"3310","","<div style=""width:500px;"">
  <p>How much control did you have over the ball?</p>
  </div>","56","html-slider-response","31","260458","0.0-5.0-2.4","309","1","2025-08-01 08:15:11","1f75c3e559b7213887762d5229550c2b","78.33.241.66","Mozilla/5.0 (Windows NT 10.0; Win64; x64) AppleWebKit/537.36 (KHTML, like Gecko) Chrome/138.0.0.0 Safari/537.36","WebKit","Chrome","138.0.0.0","Windows","10.0","https://app.prolific.com/","en-GB,en;q=0.9","5e203085ac30fa331b586690","6877631c9844ddd5501205fc","688c7788972ec5b29354de4d","3","1","5e203085ac30fa331b586690","3","1","2025-08-01T08:19:33.633Z","","","","","","","","","","","ControlQ","","50","","","","","","","","","","","","","","","","","","","","","","","","","","","","",""
"2800","","<div style=""width:500px;"">
  <p>How would you describe your current emotional state?</p>
  </div>","20","html-slider-response","32","263263","0.0-5.0-3.4","309","1","2025-08-01 08:15:11","1f75c3e559b7213887762d5229550c2b","78.33.241.66","Mozilla/5.0 (Windows NT 10.0; Win64; x64) AppleWebKit/537.36 (KHTML, like Gecko) Chrome/138.0.0.0 Safari/537.36","WebKit","Chrome","138.0.0.0","Windows","10.0","https://app.prolific.com/","en-GB,en;q=0.9","5e203085ac30fa331b586690","6877631c9844ddd5501205fc","688c7788972ec5b29354de4d","3","1","5e203085ac30fa331b586690","3","1","2025-08-01T08:19:36.438Z","","","","","","","","","","","StressQ","","50","","","","","","","","","","","","","","","","","","","","","","","","","","","","",""
"1893","","<div style=""width:500px;"">
  <p>What best describes how you currently feel?</p>
  </div>","80","html-slider-response","33","265157","0.0-5.0-4.4","309","1","2025-08-01 08:15:11","1f75c3e559b7213887762d5229550c2b","78.33.241.66","Mozilla/5.0 (Windows NT 10.0; Win64; x64) AppleWebKit/537.36 (KHTML, like Gecko) Chrome/138.0.0.0 Safari/537.36","WebKit","Chrome","138.0.0.0","Windows","10.0","https://app.prolific.com/","en-GB,en;q=0.9","5e203085ac30fa331b586690","6877631c9844ddd5501205fc","688c7788972ec5b29354de4d","3","1","5e203085ac30fa331b586690","3","1","2025-08-01T08:19:38.331Z","","","","","","","","","","","MotivationQ","","50","","","","","","","","","","","","","","","","","","","","","","","","","","","","",""
"","","","","ctl-task-cpt","34","292993","0.0-5.0-0.5","309","1","2025-08-01 08:15:11","1f75c3e559b7213887762d5229550c2b","78.33.241.66","Mozilla/5.0 (Windows NT 10.0; Win64; x64) AppleWebKit/537.36 (KHTML, like Gecko) Chrome/138.0.0.0 Safari/537.36","WebKit","Chrome","138.0.0.0","Windows","10.0","https://app.prolific.com/","en-GB,en;q=0.9","5e203085ac30fa331b586690","6877631c9844ddd5501205fc","688c7788972ec5b29354de4d","3","1","5e203085ac30fa331b586690","3","1","2025-08-01T08:20:06.167Z","","","","","","","","","","","","","","win-only","3","g1:SW,g2:NE","0.5","6","0","267232.7","866.2","5866.7","24820.6","1","4","8","6","1","1","1","1","0","0.007575757575757576","1219.9","3000","1315","[""down"",""left""]","{""num_key_presses"":6,""num_perfect"":4,""num_errors"":0,""num_randdir"":2,""num_randdir_good_moves"":1,""num_whilered"":0,""num_whileblue"":0,""num_blue"":1,""num_good_moves"":5}","[408.57142857142856,421.47767857142856,0.2,408.57142857142856,421.47767857142856,104.6,408.57142857142856,421.47767857142856,204.9,408.57142857142856,421.47767857142856,305.2,342.57142857142856,464.47767857142856,417.6,225.57142857142856,579.4776785714286,519.4,229.57142857142856,611.4776785714286,624,214.57142857142856,640.4776785714286,724.3,183.57142857142856,681.4776785714286,824.3,161.57142857142856,718.4776785714286,925.2,146.57142857142856,727.4776785714286,1025.6,109.57142857142857,734.4776785714286,1133.5,108.57142857142857,734.4776785714286,1234.7,107.57142857142857,734.4776785714286,1339.7,106.57142857142857,732.4776785714286,1450.8,106.57142857142857,732.4776785714286,1554,106.57142857142857,732.4776785714286,1654.5,106.57142857142857,732.4776785714286,1755.2,106.57142857142857,732.4776785714286,1859.6,106.57142857142857,732.4776785714286,1959.7,106.57142857142857,732.4776785714286,2059.8,106.57142857142857,732.4776785714286,2167.2,106.57142857142857,732.4776785714286,2268,106.57142857142857,732.4776785714286,2370.1,106.57142857142857,732.4776785714286,2475.2,106.57142857142857,732.4776785714286,2583.7,106.57142857142857,732.4776785714286,2684.1,106.57142857142857,732.4776785714286,2789.4,106.57142857142857,732.4776785714286,2889.8,106.57142857142857,732.4776785714286,2999.5,106.57142857142857,732.4776785714286,3099.7,106.57142857142857,732.4776785714286,3200.4,106.57142857142857,732.4776785714286,3304.8,106.57142857142857,732.4776785714286,3404.9,106.57142857142857,732.4776785714286,3504.9,106.57142857142857,732.4776785714286,3609.7,106.57142857142857,732.4776785714286,3714.8,106.57142857142857,732.4776785714286,3815.5,106.57142857142857,732.4776785714286,3919.7,106.57142857142857,732.4776785714286,4020.2,106.57142857142857,732.4776785714286,4124.5,106.57142857142857,732.4776785714286,4233.9,106.57142857142857,732.4776785714286,4339.9,106.57142857142857,732.4776785714286,4440.3,106.57142857142857,732.4776785714286,4544.6,106.57142857142857,732.4776785714286,4645.4,106.57142857142857,732.4776785714286,4748.9,106.57142857142857,732.4776785714286,4849.7,106.57142857142857,732.4776785714286,4955.1]","[1417.2,1417.2,1000,0,417.2,""smooth"",""down"",""down"",""good_move"",6765,5347.6,1931,4484.8,349.3,""oops"",""down"",""down"",""good_move"",9822.1,3056.5,2724.7,6765.6,331.8,""smooth"",""left"",""left"",""good_move"",12883.6,3061.3,2743.5,9822.3,317.8,""oops"",""left"",""right"",""bad_move"",15750.3,2866.2,2498.9,12884.1,367.3,""smooth"",""left"",""left"",""good_move"",18838.6,3088.1,2671.9,15750.5,416.2,""smooth"",""left"",""left"",""good_move""]","",""
"3956","","<div style=""width:500px;"">
  <p>What determined the result of this run?</p>
  </div>","93","html-slider-response","35","296951","0.0-5.0-1.5","309","1","2025-08-01 08:15:11","1f75c3e559b7213887762d5229550c2b","78.33.241.66","Mozilla/5.0 (Windows NT 10.0; Win64; x64) AppleWebKit/537.36 (KHTML, like Gecko) Chrome/138.0.0.0 Safari/537.36","WebKit","Chrome","138.0.0.0","Windows","10.0","https://app.prolific.com/","en-GB,en;q=0.9","5e203085ac30fa331b586690","6877631c9844ddd5501205fc","688c7788972ec5b29354de4d","3","1","5e203085ac30fa331b586690","3","1","2025-08-01T08:20:10.126Z","","","","","","","","","","","AttribQ","","50","","","","","","","","","","","","","","","","","","","","","","","","","","","","",""
"2812","","<div style=""width:500px;"">
  <p>How much control did you have over the ball?</p>
  </div>","83","html-slider-response","36","299773","0.0-5.0-2.5","309","1","2025-08-01 08:15:11","1f75c3e559b7213887762d5229550c2b","78.33.241.66","Mozilla/5.0 (Windows NT 10.0; Win64; x64) AppleWebKit/537.36 (KHTML, like Gecko) Chrome/138.0.0.0 Safari/537.36","WebKit","Chrome","138.0.0.0","Windows","10.0","https://app.prolific.com/","en-GB,en;q=0.9","5e203085ac30fa331b586690","6877631c9844ddd5501205fc","688c7788972ec5b29354de4d","3","1","5e203085ac30fa331b586690","3","1","2025-08-01T08:20:12.948Z","","","","","","","","","","","ControlQ","","50","","","","","","","","","","","","","","","","","","","","","","","","","","","","",""
"2481","","<div style=""width:500px;"">
  <p>How would you describe your current emotional state?</p>
  </div>","15","html-slider-response","37","302261","0.0-5.0-3.5","309","1","2025-08-01 08:15:11","1f75c3e559b7213887762d5229550c2b","78.33.241.66","Mozilla/5.0 (Windows NT 10.0; Win64; x64) AppleWebKit/537.36 (KHTML, like Gecko) Chrome/138.0.0.0 Safari/537.36","WebKit","Chrome","138.0.0.0","Windows","10.0","https://app.prolific.com/","en-GB,en;q=0.9","5e203085ac30fa331b586690","6877631c9844ddd5501205fc","688c7788972ec5b29354de4d","3","1","5e203085ac30fa331b586690","3","1","2025-08-01T08:20:15.435Z","","","","","","","","","","","StressQ","","50","","","","","","","","","","","","","","","","","","","","","","","","","","","","",""
"2411","","<div style=""width:500px;"">
  <p>What best describes how you currently feel?</p>
  </div>","85","html-slider-response","38","304677","0.0-5.0-4.5","309","1","2025-08-01 08:15:11","1f75c3e559b7213887762d5229550c2b","78.33.241.66","Mozilla/5.0 (Windows NT 10.0; Win64; x64) AppleWebKit/537.36 (KHTML, like Gecko) Chrome/138.0.0.0 Safari/537.36","WebKit","Chrome","138.0.0.0","Windows","10.0","https://app.prolific.com/","en-GB,en;q=0.9","5e203085ac30fa331b586690","6877631c9844ddd5501205fc","688c7788972ec5b29354de4d","3","1","5e203085ac30fa331b586690","3","1","2025-08-01T08:20:17.851Z","","","","","","","","","","","MotivationQ","","50","","","","","","","","","","","","","","","","","","","","","","","","","","","","",""
"","","","","ctl-task-cpt","39","351391","0.0-5.0-0.6","309","1","2025-08-01 08:15:11","1f75c3e559b7213887762d5229550c2b","78.33.241.66","Mozilla/5.0 (Windows NT 10.0; Win64; x64) AppleWebKit/537.36 (KHTML, like Gecko) Chrome/138.0.0.0 Safari/537.36","WebKit","Chrome","138.0.0.0","Windows","10.0","https://app.prolific.com/","en-GB,en;q=0.9","5e203085ac30fa331b586690","6877631c9844ddd5501205fc","688c7788972ec5b29354de4d","3","1","5e203085ac30fa331b586690","3","1","2025-08-01T08:21:04.565Z","","","","","","","","","","","","","","win-only","3","g1:SW,g2:NE","0.4","7","0","306752.1","1051.5","6052.1","43695.8","1","4","8","6","1","-1","-2","0","1","0","847.8","3000","-2260","[""down"",""left""]","{""num_key_presses"":13,""num_perfect"":6,""num_errors"":1,""num_randdir"":6,""num_randdir_good_moves"":2,""num_whilered"":0,""num_whileblue"":1,""num_blue"":1,""num_good_moves"":7}","[426.57142857142856,415.47767857142856,0.2,426.57142857142856,415.47767857142856,113.5,426.57142857142856,415.47767857142856,214.4,426.57142857142856,412.47767857142856,330.2,278.57142857142856,566.4776785714286,434.5,157.57142857142856,697.4776785714286,538.8,129.57142857142856,725.4776785714286,648.2,46.57142857142857,798.4776785714286,749.8,46.57142857142857,798.4776785714286,851.3,46.57142857142857,798.4776785714286,960.7,46.57142857142857,798.4776785714286,1064,46.57142857142857,798.4776785714286,1180.4,46.57142857142857,798.4776785714286,1284.4,46.57142857142857,798.4776785714286,1385.2,46.57142857142857,798.4776785714286,1499.5,46.57142857142857,798.4776785714286,1604.4,46.57142857142857,798.4776785714286,1704.6,46.57142857142857,798.4776785714286,1810.4,46.57142857142857,798.4776785714286,1910.5,46.57142857142857,798.4776785714286,2013.9,46.57142857142857,798.4776785714286,2114.6,46.57142857142857,798.4776785714286,2214.6,46.57142857142857,798.4776785714286,2319.8,46.57142857142857,798.4776785714286,2426.1,46.57142857142857,798.4776785714286,2530,46.57142857142857,798.4776785714286,2634.7,46.57142857142857,798.4776785714286,2738.9,46.57142857142857,798.4776785714286,2844.7,46.57142857142857,798.4776785714286,2944.8,46.57142857142857,798.4776785714286,3046.2,46.57142857142857,798.4776785714286,3148.5,46.57142857142857,798.4776785714286,3249.4,46.57142857142857,798.4776785714286,3354.7,46.57142857142857,798.4776785714286,3462.7,46.57142857142857,798.4776785714286,3563.7,46.57142857142857,798.4776785714286,3664.1,46.57142857142857,798.4776785714286,3764.5,46.57142857142857,798.4776785714286,3865.1,46.57142857142857,798.4776785714286,3969.2,46.57142857142857,798.4776785714286,4069.8,46.57142857142857,798.4776785714286,4174.9,46.57142857142857,798.4776785714286,4275.2,46.57142857142857,798.4776785714286,4381.4,46.57142857142857,798.4776785714286,4485,46.57142857142857,798.4776785714286,4598,46.57142857142857,798.4776785714286,4698.4,46.57142857142857,798.4776785714286,4798.4,46.57142857142857,798.4776785714286,4898.9]","[1322.2,1322.2,1000,0,322.3,""oops"",""down"",""left"",""good_move"",3609.7,2286.4,1964.5,1323.3,321.9,""smooth"",""down"",""down"",""good_move"",6593.9,2983.9,2656.4,3610,327.5,""smooth"",""down"",""down"",""good_move"",9325.1,2730.9,2477.8,6594.2,253.1,""oops"",""left"",""right"",""bad_move"",12496.5,3170.5,2803.9,9326,366.6,""oops"",""left"",""up"",""bad_move"",15328.8,2832,2534.5,12496.8,297.5,""oops"",""left"",""down"",""good_move"",17781.5,2452.4,2148.3,15329.1,304.1,""smooth"",""left"",""left"",""good_move"",20671.1,2889.4,2610.2,17781.7,279.2,""oops"",""left"",""right"",""bad_move"",23418.3,2746.8,2219.4,20671.5,527.4,""smooth"",""down"",""right"",""bad_move"",26303.2,2884.8,2586.5,23418.4,298.3,""oops"",""left"",""up"",""bad_move"",29512.6,3208.6,2955.6,26304.1,252.9,""while_blue"",""left"",""up"",""bad_move"",32608.9,3096.1,2750.4,29512.8,345.7,""smooth"",""left"",""left"",""good_move"",35527.8,2918.3,2586.6,32609.5,331.7,""smooth"",""left"",""left"",""good_move""]","",""
"2886","","<div style=""width:500px;"">
  <p>What determined the result of this run?</p>
  </div>","42","html-slider-response","40","354279","0.0-5.0-1.6","309","1","2025-08-01 08:15:11","1f75c3e559b7213887762d5229550c2b","78.33.241.66","Mozilla/5.0 (Windows NT 10.0; Win64; x64) AppleWebKit/537.36 (KHTML, like Gecko) Chrome/138.0.0.0 Safari/537.36","WebKit","Chrome","138.0.0.0","Windows","10.0","https://app.prolific.com/","en-GB,en;q=0.9","5e203085ac30fa331b586690","6877631c9844ddd5501205fc","688c7788972ec5b29354de4d","3","1","5e203085ac30fa331b586690","3","1","2025-08-01T08:21:07.454Z","","","","","","","","","","","AttribQ","","50","","","","","","","","","","","","","","","","","","","","","","","","","","","","",""
"2496","","<div style=""width:500px;"">
  <p>How much control did you have over the ball?</p>
  </div>","42","html-slider-response","41","356785","0.0-5.0-2.6","309","1","2025-08-01 08:15:11","1f75c3e559b7213887762d5229550c2b","78.33.241.66","Mozilla/5.0 (Windows NT 10.0; Win64; x64) AppleWebKit/537.36 (KHTML, like Gecko) Chrome/138.0.0.0 Safari/537.36","WebKit","Chrome","138.0.0.0","Windows","10.0","https://app.prolific.com/","en-GB,en;q=0.9","5e203085ac30fa331b586690","6877631c9844ddd5501205fc","688c7788972ec5b29354de4d","3","1","5e203085ac30fa331b586690","3","1","2025-08-01T08:21:09.960Z","","","","","","","","","","","ControlQ","","50","","","","","","","","","","","","","","","","","","","","","","","","","","","","",""
"2711","","<div style=""width:500px;"">
  <p>How would you describe your current emotional state?</p>
  </div>","16","html-slider-response","42","359504","0.0-5.0-3.6","309","1","2025-08-01 08:15:11","1f75c3e559b7213887762d5229550c2b","78.33.241.66","Mozilla/5.0 (Windows NT 10.0; Win64; x64) AppleWebKit/537.36 (KHTML, like Gecko) Chrome/138.0.0.0 Safari/537.36","WebKit","Chrome","138.0.0.0","Windows","10.0","https://app.prolific.com/","en-GB,en;q=0.9","5e203085ac30fa331b586690","6877631c9844ddd5501205fc","688c7788972ec5b29354de4d","3","1","5e203085ac30fa331b586690","3","1","2025-08-01T08:21:12.678Z","","","","","","","","","","","StressQ","","50","","","","","","","","","","","","","","","","","","","","","","","","","","","","",""
"1770","","<div style=""width:500px;"">
  <p>What best describes how you currently feel?</p>
  </div>","74","html-slider-response","43","361281","0.0-5.0-4.6","309","1","2025-08-01 08:15:11","1f75c3e559b7213887762d5229550c2b","78.33.241.66","Mozilla/5.0 (Windows NT 10.0; Win64; x64) AppleWebKit/537.36 (KHTML, like Gecko) Chrome/138.0.0.0 Safari/537.36","WebKit","Chrome","138.0.0.0","Windows","10.0","https://app.prolific.com/","en-GB,en;q=0.9","5e203085ac30fa331b586690","6877631c9844ddd5501205fc","688c7788972ec5b29354de4d","3","1","5e203085ac30fa331b586690","3","1","2025-08-01T08:21:14.455Z","","","","","","","","","","","MotivationQ","","50","","","","","","","","","","","","","","","","","","","","","","","","","","","","",""
"","","","","ctl-task-cpt","44","398911","0.0-5.0-0.7","309","1","2025-08-01 08:15:11","1f75c3e559b7213887762d5229550c2b","78.33.241.66","Mozilla/5.0 (Windows NT 10.0; Win64; x64) AppleWebKit/537.36 (KHTML, like Gecko) Chrome/138.0.0.0 Safari/537.36","WebKit","Chrome","138.0.0.0","Windows","10.0","https://app.prolific.com/","en-GB,en;q=0.9","5e203085ac30fa331b586690","6877631c9844ddd5501205fc","688c7788972ec5b29354de4d","3","1","5e203085ac30fa331b586690","3","1","2025-08-01T08:21:52.085Z","","","","","","","","","","","","","","win-only","0","g1:NW,g2:SE","0.3","8","0","363366.2","2683","7686.4","34585.9","1","4","4","6","1","1","0","0","0","0","1121","3000","625","[""left"",""up""]","{""num_key_presses"":10,""num_perfect"":3,""num_errors"":1,""num_randdir"":6,""num_randdir_good_moves"":4,""num_whilered"":0,""num_whileblue"":1,""num_blue"":1,""num_good_moves"":7}","[420.57142857142856,411.47767857142856,0.1,420.57142857142856,411.47767857142856,113.9,420.57142857142856,411.47767857142856,215.4,420.57142857142856,411.47767857142856,315.4,201.57142857142856,333.47767857142856,417.4,162.57142857142856,270.47767857142856,518.4,169.57142857142856,233.47767857142856,622.3,140.57142857142856,99.47767857142857,724.5,139.57142857142856,95.47767857142857,829.4,139.57142857142856,95.47767857142857,938.4,116.57142857142857,95.47767857142857,1050.7,113.57142857142857,94.47767857142857,1155.2,113.57142857142857,94.47767857142857,1267.8,124.57142857142857,102.47767857142857,1368.5,124.57142857142857,102.47767857142857,1468.6,124.57142857142857,102.47767857142857,1572.6,124.57142857142857,102.47767857142857,1674.2,124.57142857142857,102.47767857142857,1775.7,124.57142857142857,102.47767857142857,1878.7,124.57142857142857,102.47767857142857,1982.5,124.57142857142857,102.47767857142857,2082.5,124.57142857142857,102.47767857142857,2183.4,124.57142857142857,102.47767857142857,2286.8,124.57142857142857,102.47767857142857,2389.4,124.57142857142857,102.47767857142857,2495.2,124.57142857142857,102.47767857142857,2601.2,124.57142857142857,102.47767857142857,2701.9,124.57142857142857,102.47767857142857,2804.8,124.57142857142857,102.47767857142857,2914,124.57142857142857,102.47767857142857,3022.8,124.57142857142857,102.47767857142857,3134.8,124.57142857142857,102.47767857142857,3237.7,124.57142857142857,102.47767857142857,3338,124.57142857142857,102.47767857142857,3438.2,124.57142857142857,102.47767857142857,3543.1,124.57142857142857,102.47767857142857,3650.1,124.57142857142857,102.47767857142857,3753.6,124.57142857142857,102.47767857142857,3853.9,124.57142857142857,102.47767857142857,3959.1,124.57142857142857,102.47767857142857,4071.4,124.57142857142857,102.47767857142857,4172.5,124.57142857142857,102.47767857142857,4273.2,124.57142857142857,102.47767857142857,4379.1,124.57142857142857,102.47767857142857,4485.7,124.57142857142857,102.47767857142857,4587.9,124.57142857142857,102.47767857142857,4689.1,124.57142857142857,102.47767857142857,4791,124.57142857142857,102.47767857142857,4898.3,124.57142857142857,102.47767857142857,4999.6]","[1387.8,1387.8,1000,0,387.8,""oops"",""left"",""up"",""good_move"",3481.9,2093.5,1676.1,1388.4,417.4,""oops"",""left"",""left"",""good_move"",6078.1,2595.9,2335.4,3482.2,260.5,""while_blue"",""left"",""right"",""bad_move"",9096.8,3017.3,2625.4,6079.5,391.9,""oops"",""left"",""right"",""bad_move"",12036.1,2939.2,2596.6,9097,342.6,""smooth"",""left"",""left"",""good_move"",14984.5,2948,2602.5,12036.5,345.5,""oops"",""left"",""left"",""good_move"",17834,2849.1,2503.6,14984.9,345.5,""smooth"",""left"",""left"",""good_move"",20564.1,2729.9,2380.7,17834.2,349.2,""oops"",""up"",""down"",""bad_move"",23781.4,3216.4,2816.3,20565,400.1,""smooth"",""up"",""up"",""good_move"",26783.7,3002,2674.3,23781.7,327.7,""oops"",""up"",""up"",""good_move""]","",""
"4982","","<div style=""width:500px;"">
  <p>What determined the result of this run?</p>
  </div>","54","html-slider-response","45","403895","0.0-5.0-1.7","309","1","2025-08-01 08:15:11","1f75c3e559b7213887762d5229550c2b","78.33.241.66","Mozilla/5.0 (Windows NT 10.0; Win64; x64) AppleWebKit/537.36 (KHTML, like Gecko) Chrome/138.0.0.0 Safari/537.36","WebKit","Chrome","138.0.0.0","Windows","10.0","https://app.prolific.com/","en-GB,en;q=0.9","5e203085ac30fa331b586690","6877631c9844ddd5501205fc","688c7788972ec5b29354de4d","3","1","5e203085ac30fa331b586690","3","1","2025-08-01T08:21:57.070Z","","","","","","","","","","","AttribQ","","50","","","","","","","","","","","","","","","","","","","","","","","","","","","","",""
"2963","","<div style=""width:500px;"">
  <p>How much control did you have over the ball?</p>
  </div>","56","html-slider-response","46","406866","0.0-5.0-2.7","309","1","2025-08-01 08:15:11","1f75c3e559b7213887762d5229550c2b","78.33.241.66","Mozilla/5.0 (Windows NT 10.0; Win64; x64) AppleWebKit/537.36 (KHTML, like Gecko) Chrome/138.0.0.0 Safari/537.36","WebKit","Chrome","138.0.0.0","Windows","10.0","https://app.prolific.com/","en-GB,en;q=0.9","5e203085ac30fa331b586690","6877631c9844ddd5501205fc","688c7788972ec5b29354de4d","3","1","5e203085ac30fa331b586690","3","1","2025-08-01T08:22:00.042Z","","","","","","","","","","","ControlQ","","50","","","","","","","","","","","","","","","","","","","","","","","","","","","","",""
"2049","","<div style=""width:500px;"">
  <p>How would you describe your current emotional state?</p>
  </div>","21","html-slider-response","47","408925","0.0-5.0-3.7","309","1","2025-08-01 08:15:11","1f75c3e559b7213887762d5229550c2b","78.33.241.66","Mozilla/5.0 (Windows NT 10.0; Win64; x64) AppleWebKit/537.36 (KHTML, like Gecko) Chrome/138.0.0.0 Safari/537.36","WebKit","Chrome","138.0.0.0","Windows","10.0","https://app.prolific.com/","en-GB,en;q=0.9","5e203085ac30fa331b586690","6877631c9844ddd5501205fc","688c7788972ec5b29354de4d","3","1","5e203085ac30fa331b586690","3","1","2025-08-01T08:22:02.100Z","","","","","","","","","","","StressQ","","50","","","","","","","","","","","","","","","","","","","","","","","","","","","","",""
"2013","","<div style=""width:500px;"">
  <p>What best describes how you currently feel?</p>
  </div>","78","html-slider-response","48","410944","0.0-5.0-4.7","309","1","2025-08-01 08:15:11","1f75c3e559b7213887762d5229550c2b","78.33.241.66","Mozilla/5.0 (Windows NT 10.0; Win64; x64) AppleWebKit/537.36 (KHTML, like Gecko) Chrome/138.0.0.0 Safari/537.36","WebKit","Chrome","138.0.0.0","Windows","10.0","https://app.prolific.com/","en-GB,en;q=0.9","5e203085ac30fa331b586690","6877631c9844ddd5501205fc","688c7788972ec5b29354de4d","3","1","5e203085ac30fa331b586690","3","1","2025-08-01T08:22:04.119Z","","","","","","","","","","","MotivationQ","","50","","","","","","","","","","","","","","","","","","","","","","","","","","","","",""
"","","","","ctl-task-cpt","49","463261","0.0-5.0-0.8","309","1","2025-08-01 08:15:11","1f75c3e559b7213887762d5229550c2b","78.33.241.66","Mozilla/5.0 (Windows NT 10.0; Win64; x64) AppleWebKit/537.36 (KHTML, like Gecko) Chrome/138.0.0.0 Safari/537.36","WebKit","Chrome","138.0.0.0","Windows","10.0","https://app.prolific.com/","en-GB,en;q=0.9","5e203085ac30fa331b586690","6877631c9844ddd5501205fc","688c7788972ec5b29354de4d","3","1","5e203085ac30fa331b586690","3","1","2025-08-01T08:22:56.435Z","","","","","","","","","","","","","","win-only","1","g1:NE,g2:SW","0.2","9","0","413032.9","1139.7","6156.2","49282.2","1","4","4","6","2","-4","-5","0","0","0","1181.4","3000","-2195","[""down"",""left""]","{""num_key_presses"":12,""num_perfect"":2,""num_errors"":1,""num_randdir"":9,""num_randdir_good_moves"":2,""num_whilered"":0,""num_whileblue"":1,""num_blue"":3,""num_good_moves"":5}","[417.57142857142856,421.47767857142856,0,417.57142857142856,421.47767857142856,101,417.57142857142856,421.47767857142856,213.2,447.57142857142856,399.47767857142856,315.6,606.5714285714286,250.47767857142856,417.4,625.5714285714286,232.47767857142856,523.3,671.5714285714286,195.47767857142856,628.5,339.57142857142856,433.47767857142856,731.3,-102.42857142857143,900.4776785714286,847.2,-57.42857142857143,867.4776785714286,950.7,30.57142857142857,797.4776785714286,1050.8,67.57142857142857,757.4776785714286,1152.1,67.57142857142857,757.4776785714286,1264.4,70.57142857142857,753.4776785714286,1366.1,70.57142857142857,754.4776785714286,1466.1,70.57142857142857,754.4776785714286,1567.7,70.57142857142857,754.4776785714286,1678.4,70.57142857142857,754.4776785714286,1782.3,70.57142857142857,754.4776785714286,1886.6,70.57142857142857,754.4776785714286,1998,70.57142857142857,754.4776785714286,2098.1,70.57142857142857,754.4776785714286,2198.9,70.57142857142857,754.4776785714286,2313.6,70.57142857142857,754.4776785714286,2414.8,70.57142857142857,754.4776785714286,2515.8,70.57142857142857,754.4776785714286,2617.4,70.57142857142857,754.4776785714286,2723.3,70.57142857142857,754.4776785714286,2825.1,70.57142857142857,754.4776785714286,2927.1,70.57142857142857,754.4776785714286,3029.4,70.57142857142857,754.4776785714286,3130.9,70.57142857142857,754.4776785714286,3231.1,70.57142857142857,754.4776785714286,3348.4,70.57142857142857,754.4776785714286,3449.9,70.57142857142857,754.4776785714286,3550.9,70.57142857142857,754.4776785714286,3651.4,70.57142857142857,754.4776785714286,3756.4,70.57142857142857,754.4776785714286,3857.6,70.57142857142857,754.4776785714286,3957.6,70.57142857142857,754.4776785714286,4061.8,70.57142857142857,754.4776785714286,4167.6,70.57142857142857,754.4776785714286,4282.6,70.57142857142857,754.4776785714286,4383.2,70.57142857142857,754.4776785714286,4483.3,70.57142857142857,754.4776785714286,4586.2,70.57142857142857,754.4776785714286,4686.4,70.57142857142857,754.4776785714286,4787.3,70.57142857142857,754.4776785714286,4889.2,70.57142857142857,754.4776785714286,4991.2]","[1412.4,1412.4,1000,0,412.4,""oops"",""down"",""down"",""good_move"",4094.5,2681.7,2284.2,1412.8,397.5,""smooth"",""down"",""down"",""good_move"",6910.5,2815.8,2485.3,4094.7,330.5,""oops"",""down"",""up"",""bad_move"",10325.3,3414.6,3110,6910.7,304.6,""oops"",""down"",""up"",""bad_move"",17070.3,6744.7,2479.9,14168.6,421.8,""while_blue"",""down"",""left"",""good_move"",23386.1,6314.9,2718.4,20291.3,376.4,""smooth"",""down"",""down"",""good_move"",26631.5,3244.8,2739.3,23386.7,505.5,""oops"",""down"",""left"",""good_move"",29897.4,3265.6,2883.3,26631.8,382.3,""oops"",""down"",""right"",""bad_move"",32998.3,3100.7,2687.6,29897.6,413.1,""oops"",""down"",""up"",""bad_move"",35744.9,2746.3,2384,32998.6,362.3,""oops"",""down"",""right"",""bad_move"",38596.9,2851.9,2482.4,35745,369.5,""oops"",""down"",""up"",""bad_move"",40697.1,2100.1,1619.1,38597.1,481,""oops"",""down"",""up"",""bad_move""]","",""
"2596","","<div style=""width:500px;"">
  <p>What determined the result of this run?</p>
  </div>","33","html-slider-response","50","465859","0.0-5.0-1.8","309","1","2025-08-01 08:15:11","1f75c3e559b7213887762d5229550c2b","78.33.241.66","Mozilla/5.0 (Windows NT 10.0; Win64; x64) AppleWebKit/537.36 (KHTML, like Gecko) Chrome/138.0.0.0 Safari/537.36","WebKit","Chrome","138.0.0.0","Windows","10.0","https://app.prolific.com/","en-GB,en;q=0.9","5e203085ac30fa331b586690","6877631c9844ddd5501205fc","688c7788972ec5b29354de4d","3","1","5e203085ac30fa331b586690","3","1","2025-08-01T08:22:59.034Z","","","","","","","","","","","AttribQ","","50","","","","","","","","","","","","","","","","","","","","","","","","","","","","",""
"2103","","<div style=""width:500px;"">
  <p>How much control did you have over the ball?</p>
  </div>","36","html-slider-response","51","467967","0.0-5.0-2.8","309","1","2025-08-01 08:15:11","1f75c3e559b7213887762d5229550c2b","78.33.241.66","Mozilla/5.0 (Windows NT 10.0; Win64; x64) AppleWebKit/537.36 (KHTML, like Gecko) Chrome/138.0.0.0 Safari/537.36","WebKit","Chrome","138.0.0.0","Windows","10.0","https://app.prolific.com/","en-GB,en;q=0.9","5e203085ac30fa331b586690","6877631c9844ddd5501205fc","688c7788972ec5b29354de4d","3","1","5e203085ac30fa331b586690","3","1","2025-08-01T08:23:01.142Z","","","","","","","","","","","ControlQ","","50","","","","","","","","","","","","","","","","","","","","","","","","","","","","",""
"4001","","<div style=""width:500px;"">
  <p>How would you describe your current emotional state?</p>
  </div>","31","html-slider-response","52","471976","0.0-5.0-3.8","309","1","2025-08-01 08:15:11","1f75c3e559b7213887762d5229550c2b","78.33.241.66","Mozilla/5.0 (Windows NT 10.0; Win64; x64) AppleWebKit/537.36 (KHTML, like Gecko) Chrome/138.0.0.0 Safari/537.36","WebKit","Chrome","138.0.0.0","Windows","10.0","https://app.prolific.com/","en-GB,en;q=0.9","5e203085ac30fa331b586690","6877631c9844ddd5501205fc","688c7788972ec5b29354de4d","3","1","5e203085ac30fa331b586690","3","1","2025-08-01T08:23:05.150Z","","","","","","","","","","","StressQ","","50","","","","","","","","","","","","","","","","","","","","","","","","","","","","",""
"2373","","<div style=""width:500px;"">
  <p>What best describes how you currently feel?</p>
  </div>","61","html-slider-response","53","474354","0.0-5.0-4.8","309","1","2025-08-01 08:15:11","1f75c3e559b7213887762d5229550c2b","78.33.241.66","Mozilla/5.0 (Windows NT 10.0; Win64; x64) AppleWebKit/537.36 (KHTML, like Gecko) Chrome/138.0.0.0 Safari/537.36","WebKit","Chrome","138.0.0.0","Windows","10.0","https://app.prolific.com/","en-GB,en;q=0.9","5e203085ac30fa331b586690","6877631c9844ddd5501205fc","688c7788972ec5b29354de4d","3","1","5e203085ac30fa331b586690","3","1","2025-08-01T08:23:07.528Z","","","","","","","","","","","MotivationQ","","50","","","","","","","","","","","","","","","","","","","","","","","","","","","","",""
"","","","","ctl-task-cpt","54","526286","0.0-5.0-0.9","309","1","2025-08-01 08:15:11","1f75c3e559b7213887762d5229550c2b","78.33.241.66","Mozilla/5.0 (Windows NT 10.0; Win64; x64) AppleWebKit/537.36 (KHTML, like Gecko) Chrome/138.0.0.0 Safari/537.36","WebKit","Chrome","138.0.0.0","Windows","10.0","https://app.prolific.com/","en-GB,en;q=0.9","5e203085ac30fa331b586690","6877631c9844ddd5501205fc","688c7788972ec5b29354de4d","3","1","5e203085ac30fa331b586690","3","1","2025-08-01T08:23:59.460Z","","","","","","","","","","","","","","win-only","2","g1:SE,g2:NW","0.4","10","0","476437.1","1781.6","6786.5","48901.8","1","4","8","6","1","-1","-1","0","0","0","1118.4","3000","-2315","[""down"",""right""]","{""num_key_presses"":11,""num_perfect"":5,""num_errors"":0,""num_randdir"":6,""num_randdir_good_moves"":2,""num_whilered"":0,""num_whileblue"":0,""num_blue"":3,""num_good_moves"":7}","[415.57142857142856,414.47767857142856,1.1,415.57142857142856,414.47767857142856,104.7,415.57142857142856,414.47767857142856,216.3,415.57142857142856,414.47767857142856,317.3,415.57142857142856,414.47767857142856,419.5,415.57142857142856,414.47767857142856,520,415.57142857142856,414.47767857142856,621.8,550.5714285714286,520.4776785714286,722,841.5714285714286,721.4776785714286,827.9,842.5714285714286,724.4776785714286,930.4,787.5714285714286,744.4776785714286,1033.9,779.5714285714286,745.4776785714286,1136.6,779.5714285714286,745.4776785714286,1243.7,778.5714285714286,745.4776785714286,1345.4,778.5714285714286,745.4776785714286,1448.3,782.5714285714286,745.4776785714286,1550,782.5714285714286,745.4776785714286,1654,782.5714285714286,745.4776785714286,1755.3,782.5714285714286,745.4776785714286,1857,782.5714285714286,745.4776785714286,1969.3,782.5714285714286,745.4776785714286,2070.2,782.5714285714286,745.4776785714286,2170.7,782.5714285714286,745.4776785714286,2277.3,782.5714285714286,745.4776785714286,2381,782.5714285714286,745.4776785714286,2483,782.5714285714286,745.4776785714286,2588.3,782.5714285714286,745.4776785714286,2692.9,782.5714285714286,745.4776785714286,2801.2,782.5714285714286,745.4776785714286,2907.5,782.5714285714286,745.4776785714286,3012.6,782.5714285714286,745.4776785714286,3118.3,782.5714285714286,745.4776785714286,3219,782.5714285714286,745.4776785714286,3319.7,782.5714285714286,745.4776785714286,3420.8,782.5714285714286,745.4776785714286,3538,782.5714285714286,745.4776785714286,3650.9,782.5714285714286,745.4776785714286,3751.3,782.5714285714286,745.4776785714286,3852.2,782.5714285714286,745.4776785714286,3962.6,782.5714285714286,745.4776785714286,4067.6,782.5714285714286,745.4776785714286,4169.7,782.5714285714286,745.4776785714286,4271.5,782.5714285714286,745.4776785714286,4373,782.5714285714286,745.4776785714286,4482.1,782.5714285714286,745.4776785714286,4584.7,782.5714285714286,745.4776785714286,4687.4,782.5714285714286,745.4776785714286,4793.2,782.5714285714286,745.4776785714286,4907.2]","[1411.2,1411.2,1000,0,411.2,""smooth"",""down"",""down"",""good_move"",4112.1,2700.7,2355.5,1411.4,345.2,""smooth"",""down"",""down"",""good_move"",7208.7,3096.5,2762.9,4112.3,333.6,""oops"",""right"",""up"",""bad_move"",10010.6,2800.5,2435.6,7210.1,364.9,""oops"",""right"",""down"",""good_move"",12896.5,2885.6,2510,10010.9,375.6,""oops"",""right"",""right"",""good_move"",22642,9745.3,2050.7,20208.9,382.4,""oops"",""right"",""left"",""bad_move"",24897.9,2255.6,1820,22642.3,435.6,""smooth"",""right"",""right"",""good_move"",30792.3,5894.1,2256.4,28195.2,340.7,""oops"",""right"",""up"",""bad_move"",33940.6,3148.1,2818.8,30792.5,329.3,""oops"",""right"",""left"",""bad_move"",36749.9,2809.1,2261.1,33940.8,548,""smooth"",""down"",""down"",""good_move"",40079.6,3329.6,3015.4,36750,314.2,""smooth"",""right"",""right"",""good_move""]","",""
"14607","","<div style=""width:500px;"">
  <p>What determined the result of this run?</p>
  </div>","30","html-slider-response","55","540898","0.0-5.0-1.9","309","1","2025-08-01 08:15:11","1f75c3e559b7213887762d5229550c2b","78.33.241.66","Mozilla/5.0 (Windows NT 10.0; Win64; x64) AppleWebKit/537.36 (KHTML, like Gecko) Chrome/138.0.0.0 Safari/537.36","WebKit","Chrome","138.0.0.0","Windows","10.0","https://app.prolific.com/","en-GB,en;q=0.9","5e203085ac30fa331b586690","6877631c9844ddd5501205fc","688c7788972ec5b29354de4d","3","1","5e203085ac30fa331b586690","3","1","2025-08-01T08:24:14.073Z","","","","","","","","","","","AttribQ","","50","","","","","","","","","","","","","","","","","","","","","","","","","","","","",""
"3366","","<div style=""width:500px;"">
  <p>How much control did you have over the ball?</p>
  </div>","27","html-slider-response","56","544270","0.0-5.0-2.9","309","1","2025-08-01 08:15:11","1f75c3e559b7213887762d5229550c2b","78.33.241.66","Mozilla/5.0 (Windows NT 10.0; Win64; x64) AppleWebKit/537.36 (KHTML, like Gecko) Chrome/138.0.0.0 Safari/537.36","WebKit","Chrome","138.0.0.0","Windows","10.0","https://app.prolific.com/","en-GB,en;q=0.9","5e203085ac30fa331b586690","6877631c9844ddd5501205fc","688c7788972ec5b29354de4d","3","1","5e203085ac30fa331b586690","3","1","2025-08-01T08:24:17.446Z","","","","","","","","","","","ControlQ","","50","","","","","","","","","","","","","","","","","","","","","","","","","","","","",""
"3555","","<div style=""width:500px;"">
  <p>How would you describe your current emotional state?</p>
  </div>","35","html-slider-response","57","547834","0.0-5.0-3.9","309","1","2025-08-01 08:15:11","1f75c3e559b7213887762d5229550c2b","78.33.241.66","Mozilla/5.0 (Windows NT 10.0; Win64; x64) AppleWebKit/537.36 (KHTML, like Gecko) Chrome/138.0.0.0 Safari/537.36","WebKit","Chrome","138.0.0.0","Windows","10.0","https://app.prolific.com/","en-GB,en;q=0.9","5e203085ac30fa331b586690","6877631c9844ddd5501205fc","688c7788972ec5b29354de4d","3","1","5e203085ac30fa331b586690","3","1","2025-08-01T08:24:21.009Z","","","","","","","","","","","StressQ","","50","","","","","","","","","","","","","","","","","","","","","","","","","","","","",""
"10041","","<div style=""width:500px;"">
  <p>What best describes how you currently feel?</p>
  </div>","62","html-slider-response","58","557881","0.0-5.0-4.9","309","1","2025-08-01 08:15:11","1f75c3e559b7213887762d5229550c2b","78.33.241.66","Mozilla/5.0 (Windows NT 10.0; Win64; x64) AppleWebKit/537.36 (KHTML, like Gecko) Chrome/138.0.0.0 Safari/537.36","WebKit","Chrome","138.0.0.0","Windows","10.0","https://app.prolific.com/","en-GB,en;q=0.9","5e203085ac30fa331b586690","6877631c9844ddd5501205fc","688c7788972ec5b29354de4d","3","1","5e203085ac30fa331b586690","3","1","2025-08-01T08:24:31.055Z","","","","","","","","","","","MotivationQ","","50","","","","","","","","","","","","","","","","","","","","","","","","","","","","",""
"","","","","ctl-task-cpt","59","593729","0.0-5.0-0.10","309","1","2025-08-01 08:15:11","1f75c3e559b7213887762d5229550c2b","78.33.241.66","Mozilla/5.0 (Windows NT 10.0; Win64; x64) AppleWebKit/537.36 (KHTML, like Gecko) Chrome/138.0.0.0 Safari/537.36","WebKit","Chrome","138.0.0.0","Windows","10.0","https://app.prolific.com/","en-GB,en;q=0.9","5e203085ac30fa331b586690","6877631c9844ddd5501205fc","688c7788972ec5b29354de4d","3","1","5e203085ac30fa331b586690","3","1","2025-08-01T08:25:06.903Z","","","","","","","","","","","","","","win-only","2","g1:SE,g2:NW","0.5","11","0","559970.3","7155.5","12169.5","32812.4","1","4","8","6","1","1","1","1","0","0.007575757575757576","1063.1","3000","1565","[""down"",""right""]","{""num_key_presses"":6,""num_perfect"":2,""num_errors"":0,""num_randdir"":4,""num_randdir_good_moves"":3,""num_whilered"":0,""num_whileblue"":0,""num_blue"":1,""num_good_moves"":5}","[420.57142857142856,422.47767857142856,1.5,420.57142857142856,422.47767857142856,107.8,418.57142857142856,422.47767857142856,212.8,409.57142857142856,438.47767857142856,317.6,409.57142857142856,438.47767857142856,431.2,409.57142857142856,438.47767857142856,531.7,409.57142857142856,438.47767857142856,645.6,561.5714285714286,574.4776785714286,746.5,758.5714285714286,728.4776785714286,857.1,791.5714285714286,779.4776785714286,961,791.5714285714286,779.4776785714286,1065.4,791.5714285714286,779.4776785714286,1168.3,791.5714285714286,779.4776785714286,1275.9,791.5714285714286,779.4776785714286,1379.1,790.5714285714286,797.4776785714286,1480.9,789.5714285714286,806.4776785714286,1580.9,789.5714285714286,806.4776785714286,1681.2,789.5714285714286,806.4776785714286,1792.9,789.5714285714286,806.4776785714286,1896.1,789.5714285714286,806.4776785714286,2004.6,789.5714285714286,806.4776785714286,2112.2,789.5714285714286,806.4776785714286,2214.9,789.5714285714286,806.4776785714286,2317.5,789.5714285714286,806.4776785714286,2418.6,789.5714285714286,806.4776785714286,2525.8,789.5714285714286,806.4776785714286,2630.8,776.5714285714286,781.4776785714286,2743.2,772.5714285714286,772.4776785714286,2843.7,772.5714285714286,772.4776785714286,2945.5,769.5714285714286,767.4776785714286,3045.5,769.5714285714286,767.4776785714286,3145.8,769.5714285714286,767.4776785714286,3254,769.5714285714286,767.4776785714286,3361.3,769.5714285714286,767.4776785714286,3463.3,769.5714285714286,767.4776785714286,3564.9,769.5714285714286,767.4776785714286,3665.1,769.5714285714286,767.4776785714286,3765.7,769.5714285714286,767.4776785714286,3866,769.5714285714286,767.4776785714286,3978.6,769.5714285714286,767.4776785714286,4080.3,769.5714285714286,767.4776785714286,4182,769.5714285714286,766.4776785714286,4289.9,769.5714285714286,766.4776785714286,4396.3,769.5714285714286,766.4776785714286,4502.9,769.5714285714286,766.4776785714286,4606.8,769.5714285714286,766.4776785714286,4712.4,769.5714285714286,766.4776785714286,4814.5,769.5714285714286,766.4776785714286,4916.6]","[1380.2,1380.2,1000,0,380.2,""oops"",""down"",""right"",""good_move"",4743.8,3363,2975.2,1380.8,387.8,""smooth"",""down"",""down"",""good_move"",7674.3,2929.8,2589.8,4744.5,340,""oops"",""down"",""up"",""bad_move"",14163.6,6488.5,2354.1,11448.9,360.6,""smooth"",""down"",""down"",""good_move"",17689.8,3525.9,3192.9,14163.9,333,""oops"",""down"",""right"",""good_move"",20494.7,2804.4,2460.3,17690.3,344.1,""oops"",""down"",""down"",""good_move""]","",""
"3317","","<div style=""width:500px;"">
  <p>What determined the result of this run?</p>
  </div>","94","html-slider-response","60","597053","0.0-5.0-1.10","309","1","2025-08-01 08:15:11","1f75c3e559b7213887762d5229550c2b","78.33.241.66","Mozilla/5.0 (Windows NT 10.0; Win64; x64) AppleWebKit/537.36 (KHTML, like Gecko) Chrome/138.0.0.0 Safari/537.36","WebKit","Chrome","138.0.0.0","Windows","10.0","https://app.prolific.com/","en-GB,en;q=0.9","5e203085ac30fa331b586690","6877631c9844ddd5501205fc","688c7788972ec5b29354de4d","3","1","5e203085ac30fa331b586690","3","1","2025-08-01T08:25:10.227Z","","","","","","","","","","","AttribQ","","50","","","","","","","","","","","","","","","","","","","","","","","","","","","","",""
"3648","","<div style=""width:500px;"">
  <p>How much control did you have over the ball?</p>
  </div>","90","html-slider-response","61","600707","0.0-5.0-2.10","309","1","2025-08-01 08:15:11","1f75c3e559b7213887762d5229550c2b","78.33.241.66","Mozilla/5.0 (Windows NT 10.0; Win64; x64) AppleWebKit/537.36 (KHTML, like Gecko) Chrome/138.0.0.0 Safari/537.36","WebKit","Chrome","138.0.0.0","Windows","10.0","https://app.prolific.com/","en-GB,en;q=0.9","5e203085ac30fa331b586690","6877631c9844ddd5501205fc","688c7788972ec5b29354de4d","3","1","5e203085ac30fa331b586690","3","1","2025-08-01T08:25:13.882Z","","","","","","","","","","","ControlQ","","50","","","","","","","","","","","","","","","","","","","","","","","","","","","","",""
"4145","","<div style=""width:500px;"">
  <p>How would you describe your current emotional state?</p>
  </div>","31","html-slider-response","62","604858","0.0-5.0-3.10","309","1","2025-08-01 08:15:11","1f75c3e559b7213887762d5229550c2b","78.33.241.66","Mozilla/5.0 (Windows NT 10.0; Win64; x64) AppleWebKit/537.36 (KHTML, like Gecko) Chrome/138.0.0.0 Safari/537.36","WebKit","Chrome","138.0.0.0","Windows","10.0","https://app.prolific.com/","en-GB,en;q=0.9","5e203085ac30fa331b586690","6877631c9844ddd5501205fc","688c7788972ec5b29354de4d","3","1","5e203085ac30fa331b586690","3","1","2025-08-01T08:25:18.032Z","","","","","","","","","","","StressQ","","50","","","","","","","","","","","","","","","","","","","","","","","","","","","","",""
"12655","","<div style=""width:500px;"">
  <p>What best describes how you currently feel?</p>
  </div>","85","html-slider-response","63","617517","0.0-5.0-4.10","309","1","2025-08-01 08:15:11","1f75c3e559b7213887762d5229550c2b","78.33.241.66","Mozilla/5.0 (Windows NT 10.0; Win64; x64) AppleWebKit/537.36 (KHTML, like Gecko) Chrome/138.0.0.0 Safari/537.36","WebKit","Chrome","138.0.0.0","Windows","10.0","https://app.prolific.com/","en-GB,en;q=0.9","5e203085ac30fa331b586690","6877631c9844ddd5501205fc","688c7788972ec5b29354de4d","3","1","5e203085ac30fa331b586690","3","1","2025-08-01T08:25:30.691Z","","","","","","","","","","","MotivationQ","","50","","","","","","","","","","","","","","","","","","","","","","","","","","","","",""
"","","","","ctl-task-cpt","64","671736","0.0-5.0-0.11","309","1","2025-08-01 08:15:11","1f75c3e559b7213887762d5229550c2b","78.33.241.66","Mozilla/5.0 (Windows NT 10.0; Win64; x64) AppleWebKit/537.36 (KHTML, like Gecko) Chrome/138.0.0.0 Safari/537.36","WebKit","Chrome","138.0.0.0","Windows","10.0","https://app.prolific.com/","en-GB,en;q=0.9","5e203085ac30fa331b586690","6877631c9844ddd5501205fc","688c7788972ec5b29354de4d","3","1","5e203085ac30fa331b586690","3","1","2025-08-01T08:26:24.910Z","","","","","","","","","","","","","","win-only","2","g1:SE,g2:NW","0.6","12","0","619594.1","989.3","5993.5","51196.5","1","4","4","6","1","1","0","1","1","0.007575757575757576","701.5","3000","995","[""down"",""right""]","{""num_key_presses"":12,""num_perfect"":7,""num_errors"":1,""num_randdir"":4,""num_randdir_good_moves"":1,""num_whilered"":0,""num_whileblue"":1,""num_blue"":5,""num_good_moves"":8}","[419.57142857142856,414.47767857142856,0.2,419.57142857142856,414.47767857142856,103.4,419.57142857142856,414.47767857142856,207.2,627.5714285714286,569.4776785714286,320.9,841.5714285714286,712.4776785714286,434.9,832.5714285714286,726.4776785714286,535.4,791.5714285714286,751.4776785714286,643.3,790.5714285714286,752.4776785714286,746,790.5714285714286,752.4776785714286,852.5,790.5714285714286,751.4776785714286,953.9,790.5714285714286,750.4776785714286,1055.9,790.5714285714286,749.4776785714286,1159.4,790.5714285714286,749.4776785714286,1268.4,788.5714285714286,749.4776785714286,1371.3,765.5714285714286,744.4776785714286,1474.7,758.5714285714286,744.4776785714286,1584.4,758.5714285714286,744.4776785714286,1689.7,758.5714285714286,744.4776785714286,1795.8,758.5714285714286,744.4776785714286,1903.2,758.5714285714286,744.4776785714286,2010.5,758.5714285714286,744.4776785714286,2120,758.5714285714286,744.4776785714286,2220.8,758.5714285714286,744.4776785714286,2321.1,758.5714285714286,744.4776785714286,2428.3,758.5714285714286,744.4776785714286,2538.1,758.5714285714286,744.4776785714286,2647.1,758.5714285714286,744.4776785714286,2750.1,758.5714285714286,744.4776785714286,2852.5,758.5714285714286,744.4776785714286,2953,758.5714285714286,744.4776785714286,3054.1,758.5714285714286,744.4776785714286,3156.6,758.5714285714286,744.4776785714286,3267.7,758.5714285714286,744.4776785714286,3376.2,758.5714285714286,744.4776785714286,3480.5,758.5714285714286,744.4776785714286,3584.1,758.5714285714286,744.4776785714286,3688.8,758.5714285714286,744.4776785714286,3791.3,758.5714285714286,744.4776785714286,3894.1,758.5714285714286,744.4776785714286,4002.9,758.5714285714286,744.4776785714286,4103.4,758.5714285714286,744.4776785714286,4206.8,758.5714285714286,744.4776785714286,4315.5,758.5714285714286,744.4776785714286,4422.5,758.5714285714286,744.4776785714286,4529.3,758.5714285714286,744.4776785714286,4634.4,758.5714285714286,744.4776785714286,4739.1,758.5714285714286,744.4776785714286,4840.3,758.5714285714286,744.4776785714286,4942.7]","[1444.6,1444.7,1000,0,444.7,""smooth"",""down"",""down"",""good_move"",4250.2,2805,2460.1,1445.3,344.8,""oops"",""down"",""left"",""bad_move"",7188.9,2938.3,2587.5,4250.6,350.8,""smooth"",""down"",""down"",""good_move"",9364.5,2175.4,1730.4,7189.1,445,""oops"",""right"",""left"",""bad_move"",12001.4,2636.7,2262.6,9364.7,374.1,""oops"",""right"",""up"",""bad_move"",14228.2,2226.7,2044.3,12001.5,182.4,""smooth"",""right"",""right"",""good_move"",16426,2197.2,1842.1,14228.9,355.1,""smooth"",""right"",""right"",""good_move"",19474.3,3048,2773.6,16426.3,274.4,""while_blue"",""right"",""up"",""bad_move"",22629,3154.5,2683.9,19474.5,470.6,""smooth"",""right"",""right"",""good_move"",32725.4,10096,2590.9,29739.2,395.3,""smooth"",""right"",""right"",""good_move"",34888.6,2162.8,1604.7,32725.8,558.1,""oops"",""down"",""down"",""good_move"",45044.1,10155.2,3045.8,41551.4,446.9,""smooth"",""down"",""down"",""good_move""]","",""
"6987","","<div style=""width:500px;"">
  <p>What determined the result of this run?</p>
  </div>","78","html-slider-response","65","678723","0.0-5.0-1.11","309","1","2025-08-01 08:15:11","1f75c3e559b7213887762d5229550c2b","78.33.241.66","Mozilla/5.0 (Windows NT 10.0; Win64; x64) AppleWebKit/537.36 (KHTML, like Gecko) Chrome/138.0.0.0 Safari/537.36","WebKit","Chrome","138.0.0.0","Windows","10.0","https://app.prolific.com/","en-GB,en;q=0.9","5e203085ac30fa331b586690","6877631c9844ddd5501205fc","688c7788972ec5b29354de4d","3","1","5e203085ac30fa331b586690","3","1","2025-08-01T08:26:31.898Z","","","","","","","","","","","AttribQ","","50","","","","","","","","","","","","","","","","","","","","","","","","","","","","",""
"1911","","<div style=""width:500px;"">
  <p>How much control did you have over the ball?</p>
  </div>","57","html-slider-response","66","680635","0.0-5.0-2.11","309","1","2025-08-01 08:15:11","1f75c3e559b7213887762d5229550c2b","78.33.241.66","Mozilla/5.0 (Windows NT 10.0; Win64; x64) AppleWebKit/537.36 (KHTML, like Gecko) Chrome/138.0.0.0 Safari/537.36","WebKit","Chrome","138.0.0.0","Windows","10.0","https://app.prolific.com/","en-GB,en;q=0.9","5e203085ac30fa331b586690","6877631c9844ddd5501205fc","688c7788972ec5b29354de4d","3","1","5e203085ac30fa331b586690","3","1","2025-08-01T08:26:33.809Z","","","","","","","","","","","ControlQ","","50","","","","","","","","","","","","","","","","","","","","","","","","","","","","",""
"1879","","<div style=""width:500px;"">
  <p>How would you describe your current emotional state?</p>
  </div>","35","html-slider-response","67","682515","0.0-5.0-3.11","309","1","2025-08-01 08:15:11","1f75c3e559b7213887762d5229550c2b","78.33.241.66","Mozilla/5.0 (Windows NT 10.0; Win64; x64) AppleWebKit/537.36 (KHTML, like Gecko) Chrome/138.0.0.0 Safari/537.36","WebKit","Chrome","138.0.0.0","Windows","10.0","https://app.prolific.com/","en-GB,en;q=0.9","5e203085ac30fa331b586690","6877631c9844ddd5501205fc","688c7788972ec5b29354de4d","3","1","5e203085ac30fa331b586690","3","1","2025-08-01T08:26:35.689Z","","","","","","","","","","","StressQ","","50","","","","","","","","","","","","","","","","","","","","","","","","","","","","",""
"1217","","<div style=""width:500px;"">
  <p>What best describes how you currently feel?</p>
  </div>","73","html-slider-response","68","683733","0.0-5.0-4.11","309","1","2025-08-01 08:15:11","1f75c3e559b7213887762d5229550c2b","78.33.241.66","Mozilla/5.0 (Windows NT 10.0; Win64; x64) AppleWebKit/537.36 (KHTML, like Gecko) Chrome/138.0.0.0 Safari/537.36","WebKit","Chrome","138.0.0.0","Windows","10.0","https://app.prolific.com/","en-GB,en;q=0.9","5e203085ac30fa331b586690","6877631c9844ddd5501205fc","688c7788972ec5b29354de4d","3","1","5e203085ac30fa331b586690","3","1","2025-08-01T08:26:36.907Z","","","","","","","","","","","MotivationQ","","50","","","","","","","","","","","","","","","","","","","","","","","","","","","","",""
"","","","","ctl-task-cpt","69","704322","0.0-5.0-0.12","309","1","2025-08-01 08:15:11","1f75c3e559b7213887762d5229550c2b","78.33.241.66","Mozilla/5.0 (Windows NT 10.0; Win64; x64) AppleWebKit/537.36 (KHTML, like Gecko) Chrome/138.0.0.0 Safari/537.36","WebKit","Chrome","138.0.0.0","Windows","10.0","https://app.prolific.com/","en-GB,en;q=0.9","5e203085ac30fa331b586690","6877631c9844ddd5501205fc","688c7788972ec5b29354de4d","3","1","5e203085ac30fa331b586690","3","1","2025-08-01T08:26:57.496Z","","","","","","","","","","","","","","win-only","0","g1:NW,g2:SE","0.7","13","0","685810.7","861.1","5870.4","17566.6","1","4","8","6","1","1","1","2","1","0.015151515151515152","1056.6","3000","2320","[""left"",""up""]","{""num_key_presses"":4,""num_perfect"":4,""num_errors"":0,""num_randdir"":0,""num_randdir_good_moves"":0,""num_whilered"":0,""num_whileblue"":0,""num_blue"":0,""num_good_moves"":4}","[415.57142857142856,420.47767857142856,0.2,415.57142857142856,420.47767857142856,104.4,437.57142857142856,431.47767857142856,214.5,575.5714285714286,558.4776785714286,317,638.5714285714286,618.4776785714286,418.6,226.57142857142856,253.47767857142856,532.3,172.57142857142856,178.47767857142856,636,168.57142857142856,150.47767857142856,746.9,130.57142857142856,97.47767857142857,859,119.57142857142857,93.47767857142857,962.2,103.57142857142857,90.47767857142857,1072.2,103.57142857142857,90.47767857142857,1172.2,104.57142857142857,88.47767857142857,1280.3,104.57142857142857,88.47767857142857,1386.1,104.57142857142857,88.47767857142857,1487.6,104.57142857142857,88.47767857142857,1597.4,104.57142857142857,88.47767857142857,1703.3,104.57142857142857,88.47767857142857,1808.2,104.57142857142857,88.47767857142857,1911.5,104.57142857142857,88.47767857142857,2018.7,104.57142857142857,88.47767857142857,2127.2,104.57142857142857,88.47767857142857,2234.9,104.57142857142857,88.47767857142857,2340,104.57142857142857,88.47767857142857,2446.9,104.57142857142857,88.47767857142857,2550.4,104.57142857142857,88.47767857142857,2652.3,104.57142857142857,88.47767857142857,2760.5,104.57142857142857,88.47767857142857,2868.2,104.57142857142857,88.47767857142857,2973.8,104.57142857142857,88.47767857142857,3075.4,104.57142857142857,88.47767857142857,3181.1,104.57142857142857,88.47767857142857,3285.1,104.57142857142857,88.47767857142857,3388.2,104.57142857142857,88.47767857142857,3493.2,104.57142857142857,88.47767857142857,3597.2,104.57142857142857,88.47767857142857,3700.8,104.57142857142857,88.47767857142857,3805.1,104.57142857142857,88.47767857142857,3915.9,104.57142857142857,88.47767857142857,4016.4,104.57142857142857,88.47767857142857,4119.6,104.57142857142857,88.47767857142857,4231.3,104.57142857142857,88.47767857142857,4338,104.57142857142857,88.47767857142857,4439.3,104.57142857142857,88.47767857142857,4548.4,104.57142857142857,88.47767857142857,4654.6,104.57142857142857,88.47767857142857,4763.3,104.57142857142857,88.47767857142857,4867.8,104.57142857142857,88.47767857142857,4968.6]","[1442.3,1442.3,1000,0,442.3,""smooth"",""up"",""up"",""good_move"",4694.1,3251.6,2935.7,1442.5,315.9,""smooth"",""up"",""up"",""good_move"",7982.9,3288.6,2953.5,4694.3,335.1,""smooth"",""left"",""left"",""good_move"",11474.4,3490.3,3140.7,7984.1,349.6,""smooth"",""left"",""left"",""good_move""]","",""
"1453","","<div style=""width:500px;"">
  <p>What determined the result of this run?</p>
  </div>","100","html-slider-response","70","705776","0.0-5.0-1.12","309","1","2025-08-01 08:15:11","1f75c3e559b7213887762d5229550c2b","78.33.241.66","Mozilla/5.0 (Windows NT 10.0; Win64; x64) AppleWebKit/537.36 (KHTML, like Gecko) Chrome/138.0.0.0 Safari/537.36","WebKit","Chrome","138.0.0.0","Windows","10.0","https://app.prolific.com/","en-GB,en;q=0.9","5e203085ac30fa331b586690","6877631c9844ddd5501205fc","688c7788972ec5b29354de4d","3","1","5e203085ac30fa331b586690","3","1","2025-08-01T08:26:58.950Z","","","","","","","","","","","AttribQ","","50","","","","","","","","","","","","","","","","","","","","","","","","","","","","",""
"1998","","<div style=""width:500px;"">
  <p>How much control did you have over the ball?</p>
  </div>","99","html-slider-response","71","707774","0.0-5.0-2.12","309","1","2025-08-01 08:15:11","1f75c3e559b7213887762d5229550c2b","78.33.241.66","Mozilla/5.0 (Windows NT 10.0; Win64; x64) AppleWebKit/537.36 (KHTML, like Gecko) Chrome/138.0.0.0 Safari/537.36","WebKit","Chrome","138.0.0.0","Windows","10.0","https://app.prolific.com/","en-GB,en;q=0.9","5e203085ac30fa331b586690","6877631c9844ddd5501205fc","688c7788972ec5b29354de4d","3","1","5e203085ac30fa331b586690","3","1","2025-08-01T08:27:00.948Z","","","","","","","","","","","ControlQ","","50","","","","","","","","","","","","","","","","","","","","","","","","","","","","",""
"1677","","<div style=""width:500px;"">
  <p>How would you describe your current emotional state?</p>
  </div>","39","html-slider-response","72","709452","0.0-5.0-3.12","309","1","2025-08-01 08:15:11","1f75c3e559b7213887762d5229550c2b","78.33.241.66","Mozilla/5.0 (Windows NT 10.0; Win64; x64) AppleWebKit/537.36 (KHTML, like Gecko) Chrome/138.0.0.0 Safari/537.36","WebKit","Chrome","138.0.0.0","Windows","10.0","https://app.prolific.com/","en-GB,en;q=0.9","5e203085ac30fa331b586690","6877631c9844ddd5501205fc","688c7788972ec5b29354de4d","3","1","5e203085ac30fa331b586690","3","1","2025-08-01T08:27:02.626Z","","","","","","","","","","","StressQ","","50","","","","","","","","","","","","","","","","","","","","","","","","","","","","",""
"1727","","<div style=""width:500px;"">
  <p>What best describes how you currently feel?</p>
  </div>","66","html-slider-response","73","711180","0.0-5.0-4.12","309","1","2025-08-01 08:15:11","1f75c3e559b7213887762d5229550c2b","78.33.241.66","Mozilla/5.0 (Windows NT 10.0; Win64; x64) AppleWebKit/537.36 (KHTML, like Gecko) Chrome/138.0.0.0 Safari/537.36","WebKit","Chrome","138.0.0.0","Windows","10.0","https://app.prolific.com/","en-GB,en;q=0.9","5e203085ac30fa331b586690","6877631c9844ddd5501205fc","688c7788972ec5b29354de4d","3","1","5e203085ac30fa331b586690","3","1","2025-08-01T08:27:04.354Z","","","","","","","","","","","MotivationQ","","50","","","","","","","","","","","","","","","","","","","","","","","","","","","","",""
"","","","","ctl-task-cpt","74","736642","0.0-5.0-0.13","309","1","2025-08-01 08:15:11","1f75c3e559b7213887762d5229550c2b","78.33.241.66","Mozilla/5.0 (Windows NT 10.0; Win64; x64) AppleWebKit/537.36 (KHTML, like Gecko) Chrome/138.0.0.0 Safari/537.36","WebKit","Chrome","138.0.0.0","Windows","10.0","https://app.prolific.com/","en-GB,en;q=0.9","5e203085ac30fa331b586690","6877631c9844ddd5501205fc","688c7788972ec5b29354de4d","3","1","5e203085ac30fa331b586690","3","1","2025-08-01T08:27:29.816Z","","","","","","","","","","","","","","win-only","3","g1:SW,g2:NE","0.8","14","0","713258.4","805.6","5806.8","22441.8","1","4","4","6","1","1","0","2","2","0.015151515151515152","1060","3000","2320","[""down"",""left""]","{""num_key_presses"":6,""num_perfect"":3,""num_errors"":1,""num_randdir"":2,""num_randdir_good_moves"":1,""num_whilered"":0,""num_whileblue"":1,""num_blue"":1,""num_good_moves"":5}","[410.57142857142856,425.47767857142856,0.3,410.57142857142856,425.47767857142856,107.6,410.57142857142856,425.47767857142856,210.9,412.57142857142856,429.47767857142856,312.3,417.57142857142856,347.47767857142856,424.3,203.57142857142856,632.4776785714286,525.6,165.57142857142856,688.4776785714286,640.5,101.57142857142857,722.4776785714286,757.1,72.57142857142857,737.4776785714286,866.6,72.57142857142857,737.4776785714286,971.2,72.57142857142857,737.4776785714286,1083,72.57142857142857,737.4776785714286,1191.6,72.57142857142857,737.4776785714286,1303.4,72.57142857142857,737.4776785714286,1408.5,72.57142857142857,737.4776785714286,1515.1,72.57142857142857,737.4776785714286,1623.3,72.57142857142857,737.4776785714286,1725,72.57142857142857,737.4776785714286,1825.4,72.57142857142857,737.4776785714286,1935.3,72.57142857142857,737.4776785714286,2043.4,72.57142857142857,737.4776785714286,2144.4,72.57142857142857,737.4776785714286,2246.6,72.57142857142857,737.4776785714286,2357.4,72.57142857142857,737.4776785714286,2459.8,72.57142857142857,737.4776785714286,2561.3,72.57142857142857,737.4776785714286,2661.6,72.57142857142857,737.4776785714286,2770.4,72.57142857142857,737.4776785714286,2874.3,72.57142857142857,737.4776785714286,2984.7,72.57142857142857,737.4776785714286,3089.6,72.57142857142857,737.4776785714286,3190.5,72.57142857142857,737.4776785714286,3293.3,72.57142857142857,737.4776785714286,3396.7,72.57142857142857,737.4776785714286,3498.2,72.57142857142857,737.4776785714286,3602.1,72.57142857142857,737.4776785714286,3703.4,72.57142857142857,737.4776785714286,3806.1,72.57142857142857,737.4776785714286,3910.3,72.57142857142857,737.4776785714286,4012.8,72.57142857142857,737.4776785714286,4122.7,72.57142857142857,737.4776785714286,4225.1,72.57142857142857,737.4776785714286,4329,72.57142857142857,737.4776785714286,4432.1,72.57142857142857,737.4776785714286,4535.3,72.57142857142857,737.4776785714286,4638.2,72.57142857142857,737.4776785714286,4739.1,72.57142857142857,737.4776785714286,4839.5,72.57142857142857,737.4776785714286,4940.1]","[1539.3,1539.3,1000,0,539.3,""smooth"",""down"",""down"",""good_move"",4001.8,2462.2,2102.9,1539.6,359.3,""smooth"",""down"",""down"",""good_move"",6961.6,2959.7,2625.2,4001.9,334.5,""oops"",""left"",""right"",""bad_move"",9703.8,2741.8,2417.9,6962,323.9,""oops"",""left"",""left"",""good_move"",12777.3,3073.3,2672.6,9704,400.7,""smooth"",""left"",""left"",""good_move"",16285.8,3508.4,3168.2,12777.4,340.2,""while_blue"",""left"",""left"",""good_move""]","",""
"2089","","<div style=""width:500px;"">
  <p>What determined the result of this run?</p>
  </div>","93","html-slider-response","75","738732","0.0-5.0-1.13","309","1","2025-08-01 08:15:11","1f75c3e559b7213887762d5229550c2b","78.33.241.66","Mozilla/5.0 (Windows NT 10.0; Win64; x64) AppleWebKit/537.36 (KHTML, like Gecko) Chrome/138.0.0.0 Safari/537.36","WebKit","Chrome","138.0.0.0","Windows","10.0","https://app.prolific.com/","en-GB,en;q=0.9","5e203085ac30fa331b586690","6877631c9844ddd5501205fc","688c7788972ec5b29354de4d","3","1","5e203085ac30fa331b586690","3","1","2025-08-01T08:27:31.906Z","","","","","","","","","","","AttribQ","","50","","","","","","","","","","","","","","","","","","","","","","","","","","","","",""
"1410","","<div style=""width:500px;"">
  <p>How much control did you have over the ball?</p>
  </div>","83","html-slider-response","76","740143","0.0-5.0-2.13","309","1","2025-08-01 08:15:11","1f75c3e559b7213887762d5229550c2b","78.33.241.66","Mozilla/5.0 (Windows NT 10.0; Win64; x64) AppleWebKit/537.36 (KHTML, like Gecko) Chrome/138.0.0.0 Safari/537.36","WebKit","Chrome","138.0.0.0","Windows","10.0","https://app.prolific.com/","en-GB,en;q=0.9","5e203085ac30fa331b586690","6877631c9844ddd5501205fc","688c7788972ec5b29354de4d","3","1","5e203085ac30fa331b586690","3","1","2025-08-01T08:27:33.317Z","","","","","","","","","","","ControlQ","","50","","","","","","","","","","","","","","","","","","","","","","","","","","","","",""
"2926","","<div style=""width:500px;"">
