"rt","response_timestamp","stimulus","response","trial_type","trial_index","time_elapsed","internal_node_id","run_id","condition","recorded_at","source_code_version","ip","user_agent","device","browser","browser_version","platform","platform_version","referer","accept_language","PROLIFIC_PID","STUDY_ID","SESSION_ID","WEEK","BATCH","prolific_id","week","batch","realtime","success","responses","item_order","radio_event_ids","radio_event_times","key_event_times","mouse_event_times","straightlining","zigzagging","honeypot","eventType","view_history","slider_start","which_type","canvas_config","goals_layout","control_level","trial_number","tutorial_trial_number","trial_start_time","phase1_start_time","phase2_start_time","phase3_start_time","goal_1_value","goal_1_distance","goal_2_value","goal_2_distance","goal_selected","outcome","outcome_total","participant_final_score","participant_initial_score","participant_final_score_prop","goal_choice_rt","allocated_time","allocated_time_remaining","goal_direction","counts","mouse_movements","key_presses","question_order","question_id"
"2885889","1753868261046","<p style='font-size:40px;line-height:1.25'><strong>Welcome to the experiment!</strong></p><p style='font-size:1.1em;line-height:1.25'>Thank you for participanting in our experiment again! You will be asked to play the Dysfunctional Ball Game again. We will briefly recap the rules before we start.</p><p style='font-size:1.1em;line-height:1.25'>Press <strong>Next</strong> to continue.</p>","0","custom-html-button-response","0","2885900","0.0-0.0","270","1","2025-07-30 08:49:28","1f75c3e559b7213887762d5229550c2b","216.120.189.41","Mozilla/5.0 (Windows NT 10.0; Win64; x64) AppleWebKit/537.36 (KHTML, like Gecko) Chrome/138.0.0.0 Safari/537.36","WebKit","Chrome","138.0.0.0","Windows","10.0","https://app.prolific.com/","en-US,en;q=0.9","6743c8da977b0d274dad1fc2","6877631c9844ddd5501205fc","6889d9d677b77bab800c0a9a","3","1","6743c8da977b0d274dad1fc2","3","1","2025-07-30T09:37:41.049Z","","","","","","","","","","","","","","","","","","","","","","","","","","","","","","","","","","","","","","","","","",""
"1043","","","","fullscreen","1","2887953","0.0-1.0","270","1","2025-07-30 08:49:28","1f75c3e559b7213887762d5229550c2b","216.120.189.41","Mozilla/5.0 (Windows NT 10.0; Win64; x64) AppleWebKit/537.36 (KHTML, like Gecko) Chrome/138.0.0.0 Safari/537.36","WebKit","Chrome","138.0.0.0","Windows","10.0","https://app.prolific.com/","en-US,en;q=0.9","6743c8da977b0d274dad1fc2","6877631c9844ddd5501205fc","6889d9d677b77bab800c0a9a","3","1","6743c8da977b0d274dad1fc2","3","1","","true","","","","","","","","","","","","","","","","","","","","","","","","","","","","","","","","","","","","","","","","",""
"1237","1753868264341","<p style='font-size:1.1em;line-height:1.25'>In the following, we will ask you a few questions relating to your feelings in the last 24 hours.<br></p><p style='font-size:1.1em;line-height:1.25'>Press the <strong>Next</strong> button to continue.</p>","0","custom-html-button-response","2","2889194","0.0-2.0-0.0","270","1","2025-07-30 08:49:28","1f75c3e559b7213887762d5229550c2b","216.120.189.41","Mozilla/5.0 (Windows NT 10.0; Win64; x64) AppleWebKit/537.36 (KHTML, like Gecko) Chrome/138.0.0.0 Safari/537.36","WebKit","Chrome","138.0.0.0","Windows","10.0","https://app.prolific.com/","en-US,en;q=0.9","6743c8da977b0d274dad1fc2","6877631c9844ddd5501205fc","6889d9d677b77bab800c0a9a","3","1","6743c8da977b0d274dad1fc2","3","1","2025-07-30T09:37:44.342Z","","","","","","","","","","","","","","","","","","","","","","","","","","","","","","","","","","","","","","","","","",""
"54554.29999999702","","","","survey-template","3","2943754","0.0-2.0-1.0","270","1","2025-07-30 08:49:28","1f75c3e559b7213887762d5229550c2b","216.120.189.41","Mozilla/5.0 (Windows NT 10.0; Win64; x64) AppleWebKit/537.36 (KHTML, like Gecko) Chrome/138.0.0.0 Safari/537.36","WebKit","Chrome","138.0.0.0","Windows","10.0","https://app.prolific.com/","en-US,en;q=0.9","6743c8da977b0d274dad1fc2","6877631c9844ddd5501205fc","6889d9d677b77bab800c0a9a","3","1","6743c8da977b0d274dad1fc2","3","1","2025-07-30T09:38:38.902Z","","{""Q01"":""0"",""Q02"":""0"",""Q03"":""0"",""Q04"":""1"",""Q05"":""1"",""Q06"":""1"",""Q07"":""1"",""Q08"":""1"",""Q09"":""1"",""Q10"":""0"",""Q11"":""1"",""Q12"":""3"",""Q13"":""5"",""Q14"":""4"",""Q15"":""0"",""Q16"":""0"",""Q17"":""1"",""Q18"":""0"",""Q19"":""1"",""Q20"":""1"",""Q21"":""1"",""Q22"":""1""}","[0,1,2,3,4,5,6,7,8,9,10,11,12,13,14,15,16,17,18,19,20,21]","[""Q01"",""Q02"",""Q13"",""Q21"",""Q22"",""Q20"",""Q19"",""Q18"",""Q17"",""Q16"",""Q15"",""Q14"",""Q12"",""Q11"",""Q09"",""Q10"",""Q08"",""Q07"",""Q06"",""Q05"",""Q04"",""Q03""]","[2331.7999999970198,2980.2999999970198,7692.100000008941,10388,11275.90000000596,12868,13668.10000000894,15699.79999999702,16532.20000000298,19052,19651.90000000596,25300.20000000298,27348.10000000894,31012.10000000894,33315.90000000596,34500.10000000894,37916.20000000298,38852.20000000298,43539.90000000596,44476.10000000894,47284.10000000894,52156.20000000298]","[]","[0.20000000298023224,2331.7999999970198,2980.2999999970198,7692.100000008941,10388,11275.90000000596,12868,13668.10000000894,15699.79999999702,16532.20000000298,17756.20000000298,18324,19052,19651.90000000596,25300.20000000298,27348.10000000894,31012.10000000894,32388.29999999702,33315.90000000596,34500.10000000894,37916.20000000298,38852.20000000298,43539.90000000596,44476.10000000894,47284.10000000894,52156.20000000298,54548]","0.5454545454545454","0.3333333333333333","0","drsp","","","","","","","","","","","","","","","","","","","","","","","","","","","","","","",""
"5303.5","","","","survey-template","4","2949060","0.0-2.0-2.0","270","1","2025-07-30 08:49:28","1f75c3e559b7213887762d5229550c2b","216.120.189.41","Mozilla/5.0 (Windows NT 10.0; Win64; x64) AppleWebKit/537.36 (KHTML, like Gecko) Chrome/138.0.0.0 Safari/537.36","WebKit","Chrome","138.0.0.0","Windows","10.0","https://app.prolific.com/","en-US,en;q=0.9","6743c8da977b0d274dad1fc2","6877631c9844ddd5501205fc","6889d9d677b77bab800c0a9a","3","1","6743c8da977b0d274dad1fc2","3","1","2025-07-30T09:38:44.208Z","","{""Q01"":""1"",""Q02"":""4"",""Q03"":""0""}","[0,1,2]","[""Q01"",""Q02"",""Q03""]","[1909.9000000059605,2749.9000000059605,3909.9000000059605]","[]","[1909.9000000059605,2749.9000000059605,3909.9000000059605,5302]","0.6666666666666666","0.5","0","stress","","","","","","","","","","","","","","","","","","","","","","","","","","","","","","",""
"1357","","","","instructions","5","2950418","0.0-3.0-0.0","270","1","2025-07-30 08:49:28","1f75c3e559b7213887762d5229550c2b","216.120.189.41","Mozilla/5.0 (Windows NT 10.0; Win64; x64) AppleWebKit/537.36 (KHTML, like Gecko) Chrome/138.0.0.0 Safari/537.36","WebKit","Chrome","138.0.0.0","Windows","10.0","https://app.prolific.com/","en-US,en;q=0.9","6743c8da977b0d274dad1fc2","6877631c9844ddd5501205fc","6889d9d677b77bab800c0a9a","3","1","6743c8da977b0d274dad1fc2","3","1","","","","","","","","","","","","","[{""page_index"":0,""viewing_time"":1356}]","","","","","","","","","","","","","","","","","","","","","","","","","","","","","",""
"9903","","<p>Before you start with this game please answer the following three questions yourself. </p>
  <p>Through this game, we measure several aspects of your cognitive performance, such as reaction times, multi-tasking capabilities </p>
  <p>and the ability to assess the situation you are in.</p>
  <p></p>
  <p><b>How good do you usually are in such tasks?</b></p>","78","html-slider-response","6","2960322","0.0-4.0-0.0","270","1","2025-07-30 08:49:28","1f75c3e559b7213887762d5229550c2b","216.120.189.41","Mozilla/5.0 (Windows NT 10.0; Win64; x64) AppleWebKit/537.36 (KHTML, like Gecko) Chrome/138.0.0.0 Safari/537.36","WebKit","Chrome","138.0.0.0","Windows","10.0","https://app.prolific.com/","en-US,en;q=0.9","6743c8da977b0d274dad1fc2","6877631c9844ddd5501205fc","6889d9d677b77bab800c0a9a","3","1","6743c8da977b0d274dad1fc2","3","1","2025-07-30T09:38:55.470Z","","","","","","","","","","","PreSkillQ","","50","","","","","","","","","","","","","","","","","","","","","","","","","","","","",""
"4598","","<div style=""width:500px;"">
  <p>How well do you think you will perform in this task compared to other participants?</p>
  </div>","77","html-slider-response","7","2964921","0.0-4.0-1.0","270","1","2025-07-30 08:49:28","1f75c3e559b7213887762d5229550c2b","216.120.189.41","Mozilla/5.0 (Windows NT 10.0; Win64; x64) AppleWebKit/537.36 (KHTML, like Gecko) Chrome/138.0.0.0 Safari/537.36","WebKit","Chrome","138.0.0.0","Windows","10.0","https://app.prolific.com/","en-US,en;q=0.9","6743c8da977b0d274dad1fc2","6877631c9844ddd5501205fc","6889d9d677b77bab800c0a9a","3","1","6743c8da977b0d274dad1fc2","3","1","2025-07-30T09:39:00.069Z","","","","","","","","","","","PrePerfQ","","50","","","","","","","","","","","","","","","","","","","","","","","","","","","","",""
"3183","","<div style=""width:500px;"">
  <p>What best describes how you currently feel?</p>
  </div>","100","html-slider-response","8","2968106","0.0-4.0-2.0","270","1","2025-07-30 08:49:28","1f75c3e559b7213887762d5229550c2b","216.120.189.41","Mozilla/5.0 (Windows NT 10.0; Win64; x64) AppleWebKit/537.36 (KHTML, like Gecko) Chrome/138.0.0.0 Safari/537.36","WebKit","Chrome","138.0.0.0","Windows","10.0","https://app.prolific.com/","en-US,en;q=0.9","6743c8da977b0d274dad1fc2","6877631c9844ddd5501205fc","6889d9d677b77bab800c0a9a","3","1","6743c8da977b0d274dad1fc2","3","1","2025-07-30T09:39:03.254Z","","","","","","","","","","","PreMotivationQ","","50","","","","","","","","","","","","","","","","","","","","","","","","","","","","",""
"","","","","ctl-task-cpt","9","3034714","0.0-5.0-0.0","270","1","2025-07-30 08:49:28","1f75c3e559b7213887762d5229550c2b","216.120.189.41","Mozilla/5.0 (Windows NT 10.0; Win64; x64) AppleWebKit/537.36 (KHTML, like Gecko) Chrome/138.0.0.0 Safari/537.36","WebKit","Chrome","138.0.0.0","Windows","10.0","https://app.prolific.com/","en-US,en;q=0.9","6743c8da977b0d274dad1fc2","6877631c9844ddd5501205fc","6889d9d677b77bab800c0a9a","3","1","6743c8da977b0d274dad1fc2","3","1","2025-07-30T09:40:09.862Z","","","","","","","","","","","","","","win-only","2","g1:SE,g2:NW","1","1","0","2976995.4","42576.2","47579.1","63590.7","1","4","4","6","2","4","4","4","0","0.030303030303030304","1566.2","3000","1175","[""left"",""up""]","{""num_key_presses"":6,""num_perfect"":6,""num_errors"":0,""num_randdir"":0,""num_randdir_good_moves"":0,""num_whilered"":0,""num_whileblue"":0,""num_blue"":0,""num_good_moves"":6}","[295.95669642857143,290.62857142857143,2.1,295.95669642857143,290.62857142857143,103.8,295.95669642857143,290.62857142857143,206.2,295.95669642857143,290.62857142857143,309.9,295.95669642857143,290.62857142857143,409.9,300.95669642857143,306.62857142857143,511.4,304.95669642857143,319.62857142857143,620.4,320.95669642857143,332.62857142857143,720.9,304.95669642857143,338.62857142857143,822.2,7.956696428571426,169.62857142857143,922.2,-66.04330357142857,55.628571428571426,1028.2,-66.04330357142857,55.628571428571426,1132.6,-3.0433035714285737,25.628571428571426,1238,5.956696428571426,31.628571428571426,1346,19.956696428571426,45.628571428571426,1459,36.956696428571426,51.628571428571426,1565,36.956696428571426,51.628571428571426,1672.8,36.956696428571426,51.628571428571426,1773.9,391.95669642857143,133.62857142857143,1883.5,577.9566964285714,187.62857142857143,1986.3,603.9566964285714,195.62857142857143,2089.7,603.9566964285714,195.62857142857143,2201.8,603.9566964285714,195.62857142857143,2303.6,603.9566964285714,195.62857142857143,2410,603.9566964285714,195.62857142857143,2530.4,603.9566964285714,195.62857142857143,2632.7,603.9566964285714,195.62857142857143,2740.3,603.9566964285714,195.62857142857143,2842.1,311.95669642857143,470.62857142857143,2946.2,6.956696428571426,506.62857142857143,3052.7,3.9566964285714263,506.62857142857143,3176.6,2.9566964285714263,506.62857142857143,3279,2.9566964285714263,506.62857142857143,3391.7,20.956696428571426,441.62857142857143,3494.3,19.956696428571426,385.62857142857143,3597,-10.043303571428574,341.62857142857143,3697.2,-10.043303571428574,332.62857142857143,3802.5,-10.043303571428574,332.62857142857143,3918,-10.043303571428574,332.62857142857143,4018.3,-10.043303571428574,332.62857142857143,4124.6,-10.043303571428574,332.62857142857143,4232.3,-10.043303571428574,332.62857142857143,4337.6,-10.043303571428574,332.62857142857143,4453.9,-10.043303571428574,332.62857142857143,4560.1,-10.043303571428574,332.62857142857143,4663.8,-10.043303571428574,332.62857142857143,4772.9,-10.043303571428574,332.62857142857143,4875.1,-10.043303571428574,332.62857142857143,4977.9]","[1593.3,1593.2,1000,0.1,593.2,""smooth"",""left"",""left"",""good_move"",3600.1,2004.8,1564.2,1595.3,440.6,""smooth"",""left"",""left"",""good_move"",6348,2742.5,2346.2,3605.6,396.2,""smooth"",""up"",""up"",""good_move"",9698.4,3349.8,2878.8,6348.6,471,""smooth"",""up"",""up"",""good_move"",12241.7,2543.1,2151.6,9698.7,391.5,""smooth"",""up"",""up"",""good_move"",15873.7,3631.2,3262,12242.5,369.2,""smooth"",""left"",""left"",""good_move""]","",""
"4629","","<div style=""width:500px;"">
  <p>What determined the result of this run?</p>
  </div>","100","html-slider-response","10","3039348","0.0-5.0-1.0","270","1","2025-07-30 08:49:28","1f75c3e559b7213887762d5229550c2b","216.120.189.41","Mozilla/5.0 (Windows NT 10.0; Win64; x64) AppleWebKit/537.36 (KHTML, like Gecko) Chrome/138.0.0.0 Safari/537.36","WebKit","Chrome","138.0.0.0","Windows","10.0","https://app.prolific.com/","en-US,en;q=0.9","6743c8da977b0d274dad1fc2","6877631c9844ddd5501205fc","6889d9d677b77bab800c0a9a","3","1","6743c8da977b0d274dad1fc2","3","1","2025-07-30T09:40:14.496Z","","","","","","","","","","","AttribQ","","50","","","","","","","","","","","","","","","","","","","","","","","","","","","","",""
"2652","","<div style=""width:500px;"">
  <p>How much control did you have over the ball?</p>
  </div>","100","html-slider-response","11","3042001","0.0-5.0-2.0","270","1","2025-07-30 08:49:28","1f75c3e559b7213887762d5229550c2b","216.120.189.41","Mozilla/5.0 (Windows NT 10.0; Win64; x64) AppleWebKit/537.36 (KHTML, like Gecko) Chrome/138.0.0.0 Safari/537.36","WebKit","Chrome","138.0.0.0","Windows","10.0","https://app.prolific.com/","en-US,en;q=0.9","6743c8da977b0d274dad1fc2","6877631c9844ddd5501205fc","6889d9d677b77bab800c0a9a","3","1","6743c8da977b0d274dad1fc2","3","1","2025-07-30T09:40:17.149Z","","","","","","","","","","","ControlQ","","50","","","","","","","","","","","","","","","","","","","","","","","","","","","","",""
"2296","","<div style=""width:500px;"">
  <p>How would you describe your current emotional state?</p>
  </div>","0","html-slider-response","12","3044298","0.0-5.0-3.0","270","1","2025-07-30 08:49:28","1f75c3e559b7213887762d5229550c2b","216.120.189.41","Mozilla/5.0 (Windows NT 10.0; Win64; x64) AppleWebKit/537.36 (KHTML, like Gecko) Chrome/138.0.0.0 Safari/537.36","WebKit","Chrome","138.0.0.0","Windows","10.0","https://app.prolific.com/","en-US,en;q=0.9","6743c8da977b0d274dad1fc2","6877631c9844ddd5501205fc","6889d9d677b77bab800c0a9a","3","1","6743c8da977b0d274dad1fc2","3","1","2025-07-30T09:40:19.446Z","","","","","","","","","","","StressQ","","50","","","","","","","","","","","","","","","","","","","","","","","","","","","","",""
"4000","","<div style=""width:500px;"">
  <p>What best describes how you currently feel?</p>
  </div>","100","html-slider-response","13","3048299","0.0-5.0-4.0","270","1","2025-07-30 08:49:28","1f75c3e559b7213887762d5229550c2b","216.120.189.41","Mozilla/5.0 (Windows NT 10.0; Win64; x64) AppleWebKit/537.36 (KHTML, like Gecko) Chrome/138.0.0.0 Safari/537.36","WebKit","Chrome","138.0.0.0","Windows","10.0","https://app.prolific.com/","en-US,en;q=0.9","6743c8da977b0d274dad1fc2","6877631c9844ddd5501205fc","6889d9d677b77bab800c0a9a","3","1","6743c8da977b0d274dad1fc2","3","1","2025-07-30T09:40:23.447Z","","","","","","","","","","","MotivationQ","","50","","","","","","","","","","","","","","","","","","","","","","","","","","","","",""
"","","","","ctl-task-cpt","14","3103306","0.0-5.0-0.1","270","1","2025-07-30 08:49:28","1f75c3e559b7213887762d5229550c2b","216.120.189.41","Mozilla/5.0 (Windows NT 10.0; Win64; x64) AppleWebKit/537.36 (KHTML, like Gecko) Chrome/138.0.0.0 Safari/537.36","WebKit","Chrome","138.0.0.0","Windows","10.0","https://app.prolific.com/","en-US,en;q=0.9","6743c8da977b0d274dad1fc2","6877631c9844ddd5501205fc","6889d9d677b77bab800c0a9a","3","1","6743c8da977b0d274dad1fc2","3","1","2025-07-30T09:41:18.454Z","","","","","","","","","","","","","","win-only","3","g1:SW,g2:NE","0.9","2","0","3057186.9","30278.2","35284.9","51994.2","1","4","8","6","2","8","7","11","4","0.08333333333333333","1385.1","3000","1560","[""up"",""right""]","{""num_key_presses"":6,""num_perfect"":4,""num_errors"":1,""num_randdir"":1,""num_randdir_good_moves"":1,""num_whilered"":0,""num_whileblue"":1,""num_blue"":1,""num_good_moves"":6}","[256.2857142857143,256.6919642857143,1.3,256.2857142857143,256.6919642857143,106.6,256.2857142857143,256.6919642857143,210.6,256.2857142857143,256.6919642857143,313.8,256.2857142857143,258.6919642857143,424.5,251.28571428571428,273.6919642857143,527.1,256.2857142857143,257.6919642857143,628.8,567.2857142857143,-16.308035714285715,729.6,575.2857142857143,-24.308035714285715,834.6,575.2857142857143,-22.308035714285715,937.5,549.2857142857143,2.6919642857142847,1046.1,507.2857142857143,28.691964285714285,1146.1,464.2857142857143,36.691964285714285,1248.7,464.2857142857143,43.691964285714285,1350.5,464.2857142857143,43.691964285714285,1460,473.2857142857143,39.691964285714285,1564.2,477.2857142857143,36.691964285714285,1665.2,534.2857142857143,43.691964285714285,1769.4,547.2857142857143,45.691964285714285,1877.2,546.2857142857143,34.691964285714285,1981.2,546.2857142857143,33.691964285714285,2086.5,546.2857142857143,33.691964285714285,2194.2,546.2857142857143,33.691964285714285,2294.9,546.2857142857143,33.691964285714285,2395.2,546.2857142857143,33.691964285714285,2497.8,545.2857142857143,27.691964285714285,2600.2,545.2857142857143,20.691964285714285,2707.6,505.2857142857143,10.691964285714285,2808.7,412.2857142857143,-28.308035714285715,2913.9,368.2857142857143,-49.308035714285715,3021.8,367.2857142857143,-50.308035714285715,3129.3,367.2857142857143,-50.308035714285715,3237.3,367.2857142857143,-50.308035714285715,3344,362.2857142857143,-50.308035714285715,3445.2,362.2857142857143,-52.308035714285715,3546,362.2857142857143,-55.308035714285715,3649.4,362.2857142857143,-55.308035714285715,3753.5,362.2857142857143,-55.308035714285715,3858.5,362.2857142857143,-55.308035714285715,3965.1,362.2857142857143,-55.308035714285715,4070.4,362.2857142857143,-55.308035714285715,4178.7,362.2857142857143,-55.308035714285715,4279.5,362.2857142857143,-55.308035714285715,4387.6,362.2857142857143,-55.308035714285715,4493.3,362.2857142857143,-55.308035714285715,4595.4,362.2857142857143,-55.308035714285715,4698.2,362.2857142857143,-55.308035714285715,4807.1,362.2857142857143,-55.308035714285715,4908.5]","[1410.9,1410.8,1000,0.2,410.7,""oops"",""right"",""up"",""good_move"",4177.9,2766.4,2387.9,1411.5,378.5,""smooth"",""up"",""up"",""good_move"",7589.1,3408.9,3081,4180.2,327.9,""while_blue"",""right"",""right"",""good_move"",11176.1,3585.2,3087.6,7590.9,497.6,""smooth"",""right"",""right"",""good_move"",13956.2,2778.7,2348.3,11177.5,430.4,""smooth"",""up"",""up"",""good_move"",16572.2,2615.6,2220.2,13956.6,395.4,""smooth"",""right"",""right"",""good_move""]","",""
"4669","","<div style=""width:500px;"">
  <p>What determined the result of this run?</p>
  </div>","100","html-slider-response","15","3107978","0.0-5.0-1.1","270","1","2025-07-30 08:49:28","1f75c3e559b7213887762d5229550c2b","216.120.189.41","Mozilla/5.0 (Windows NT 10.0; Win64; x64) AppleWebKit/537.36 (KHTML, like Gecko) Chrome/138.0.0.0 Safari/537.36","WebKit","Chrome","138.0.0.0","Windows","10.0","https://app.prolific.com/","en-US,en;q=0.9","6743c8da977b0d274dad1fc2","6877631c9844ddd5501205fc","6889d9d677b77bab800c0a9a","3","1","6743c8da977b0d274dad1fc2","3","1","2025-07-30T09:41:23.126Z","","","","","","","","","","","AttribQ","","50","","","","","","","","","","","","","","","","","","","","","","","","","","","","",""
"2920","","<div style=""width:500px;"">
  <p>How much control did you have over the ball?</p>
  </div>","100","html-slider-response","16","3110899","0.0-5.0-2.1","270","1","2025-07-30 08:49:28","1f75c3e559b7213887762d5229550c2b","216.120.189.41","Mozilla/5.0 (Windows NT 10.0; Win64; x64) AppleWebKit/537.36 (KHTML, like Gecko) Chrome/138.0.0.0 Safari/537.36","WebKit","Chrome","138.0.0.0","Windows","10.0","https://app.prolific.com/","en-US,en;q=0.9","6743c8da977b0d274dad1fc2","6877631c9844ddd5501205fc","6889d9d677b77bab800c0a9a","3","1","6743c8da977b0d274dad1fc2","3","1","2025-07-30T09:41:26.047Z","","","","","","","","","","","ControlQ","","50","","","","","","","","","","","","","","","","","","","","","","","","","","","","",""
"2974","","<div style=""width:500px;"">
  <p>How would you describe your current emotional state?</p>
  </div>","0","html-slider-response","17","3113874","0.0-5.0-3.1","270","1","2025-07-30 08:49:28","1f75c3e559b7213887762d5229550c2b","216.120.189.41","Mozilla/5.0 (Windows NT 10.0; Win64; x64) AppleWebKit/537.36 (KHTML, like Gecko) Chrome/138.0.0.0 Safari/537.36","WebKit","Chrome","138.0.0.0","Windows","10.0","https://app.prolific.com/","en-US,en;q=0.9","6743c8da977b0d274dad1fc2","6877631c9844ddd5501205fc","6889d9d677b77bab800c0a9a","3","1","6743c8da977b0d274dad1fc2","3","1","2025-07-30T09:41:29.022Z","","","","","","","","","","","StressQ","","50","","","","","","","","","","","","","","","","","","","","","","","","","","","","",""
"2590","","<div style=""width:500px;"">
  <p>What best describes how you currently feel?</p>
  </div>","100","html-slider-response","18","3116466","0.0-5.0-4.1","270","1","2025-07-30 08:49:28","1f75c3e559b7213887762d5229550c2b","216.120.189.41","Mozilla/5.0 (Windows NT 10.0; Win64; x64) AppleWebKit/537.36 (KHTML, like Gecko) Chrome/138.0.0.0 Safari/537.36","WebKit","Chrome","138.0.0.0","Windows","10.0","https://app.prolific.com/","en-US,en;q=0.9","6743c8da977b0d274dad1fc2","6877631c9844ddd5501205fc","6889d9d677b77bab800c0a9a","3","1","6743c8da977b0d274dad1fc2","3","1","2025-07-30T09:41:31.614Z","","","","","","","","","","","MotivationQ","","50","","","","","","","","","","","","","","","","","","","","","","","","","","","","",""
"","","","","ctl-task-cpt","19","3163990","0.0-5.0-0.2","270","1","2025-07-30 08:49:28","1f75c3e559b7213887762d5229550c2b","216.120.189.41","Mozilla/5.0 (Windows NT 10.0; Win64; x64) AppleWebKit/537.36 (KHTML, like Gecko) Chrome/138.0.0.0 Safari/537.36","WebKit","Chrome","138.0.0.0","Windows","10.0","https://app.prolific.com/","en-US,en;q=0.9","6743c8da977b0d274dad1fc2","6877631c9844ddd5501205fc","6889d9d677b77bab800c0a9a","3","1","6743c8da977b0d274dad1fc2","3","1","2025-07-30T09:42:19.138Z","","","","","","","","","","","","","","win-only","1","g1:NE,g2:SW","0.8","3","0","3125356.9","2975.5","7982.8","44500.6","1","4","4","6","2","-4","-5","6","11","0.045454545454545456","1279.1","3000","-2040","[""down"",""left""]","{""num_key_presses"":12,""num_perfect"":8,""num_errors"":1,""num_randdir"":3,""num_randdir_good_moves"":0,""num_whilered"":0,""num_whileblue"":1,""num_blue"":1,""num_good_moves"":8}","[259.896875,263.303125,1.3,259.896875,263.303125,108.5,259.896875,263.303125,215.6,258.896875,263.303125,324.6,257.896875,263.303125,425.8,257.896875,263.303125,526.9,230.896875,269.303125,637.7,175.896875,310.303125,743.7,112.896875,391.303125,843.9,95.896875,438.303125,945.8,84.896875,458.303125,1047.3,76.896875,470.303125,1152,76.896875,470.303125,1257.4,76.896875,470.303125,1360.5,73.896875,470.303125,1468.4,71.896875,468.303125,1575.6,71.896875,468.303125,1677,71.896875,468.303125,1777.2,117.896875,478.303125,1886.2,123.896875,480.303125,1986.3,123.896875,480.303125,2092.8,123.896875,480.303125,2198.1,123.896875,480.303125,2298.6,123.896875,480.303125,2406.6,123.896875,480.303125,2508.1,123.896875,480.303125,2608.2,123.896875,480.303125,2712.2,123.896875,480.303125,2820.6,123.896875,480.303125,2925.2,123.896875,480.303125,3030.3,123.896875,480.303125,3131.7,123.896875,480.303125,3232.6,123.896875,480.303125,3334.3,123.896875,480.303125,3435.5,123.896875,480.303125,3542.2,123.896875,480.303125,3642.2,123.896875,480.303125,3754.3,123.896875,480.303125,3857,123.896875,480.303125,3964.9,123.896875,480.303125,4067.3,123.896875,480.303125,4172.2,123.896875,480.303125,4278.3,123.896875,480.303125,4385.7,123.896875,480.303125,4486.3,123.896875,480.303125,4589.3,123.896875,480.303125,4690.2,123.896875,480.303125,4790.3,123.896875,480.303125,4892,123.896875,480.303125,4993]","[1403.5,1403.5,1000,0,403.5,""smooth"",""down"",""down"",""good_move"",4485.5,3080.5,2599.4,1405,481.1,""smooth"",""down"",""down"",""good_move"",7210.6,2724.1,2305.5,4486.5,418.6,""smooth"",""down"",""down"",""good_move"",10040.2,2828.7,2409.9,7211.5,418.8,""smooth"",""left"",""left"",""good_move"",12846.8,2805.5,2340.9,10041.3,464.7,""smooth"",""left"",""left"",""good_move"",16337,3484.4,3061.7,12852.8,422.6,""oops"",""left"",""right"",""bad_move"",19961.8,3622.4,3166.3,16339.4,456.1,""oops"",""left"",""up"",""bad_move"",22846.4,2884.1,2483.5,19962.3,400.6,""smooth"",""down"",""down"",""good_move"",25819.5,2972.6,2623.5,22846.9,349.1,""smooth"",""left"",""left"",""good_move"",28365.8,2545.9,2164.7,25819.9,381.2,""while_blue"",""left"",""right"",""bad_move"",31618.9,3251.2,2789.7,28367.7,461.5,""smooth"",""left"",""left"",""good_move"",34192.5,2572.1,2168.6,31620.4,403.5,""oops"",""left"",""up"",""bad_move""]","",""
"8202","","<div style=""width:500px;"">
  <p>What determined the result of this run?</p>
  </div>","70","html-slider-response","20","3172194","0.0-5.0-1.2","270","1","2025-07-30 08:49:28","1f75c3e559b7213887762d5229550c2b","216.120.189.41","Mozilla/5.0 (Windows NT 10.0; Win64; x64) AppleWebKit/537.36 (KHTML, like Gecko) Chrome/138.0.0.0 Safari/537.36","WebKit","Chrome","138.0.0.0","Windows","10.0","https://app.prolific.com/","en-US,en;q=0.9","6743c8da977b0d274dad1fc2","6877631c9844ddd5501205fc","6889d9d677b77bab800c0a9a","3","1","6743c8da977b0d274dad1fc2","3","1","2025-07-30T09:42:27.343Z","","","","","","","","","","","AttribQ","","50","","","","","","","","","","","","","","","","","","","","","","","","","","","","",""
"4719","","<div style=""width:500px;"">
  <p>How much control did you have over the ball?</p>
  </div>","57","html-slider-response","21","3176915","0.0-5.0-2.2","270","1","2025-07-30 08:49:28","1f75c3e559b7213887762d5229550c2b","216.120.189.41","Mozilla/5.0 (Windows NT 10.0; Win64; x64) AppleWebKit/537.36 (KHTML, like Gecko) Chrome/138.0.0.0 Safari/537.36","WebKit","Chrome","138.0.0.0","Windows","10.0","https://app.prolific.com/","en-US,en;q=0.9","6743c8da977b0d274dad1fc2","6877631c9844ddd5501205fc","6889d9d677b77bab800c0a9a","3","1","6743c8da977b0d274dad1fc2","3","1","2025-07-30T09:42:32.063Z","","","","","","","","","","","ControlQ","","50","","","","","","","","","","","","","","","","","","","","","","","","","","","","",""
"2478","","<div style=""width:500px;"">
  <p>How would you describe your current emotional state?</p>
  </div>","0","html-slider-response","22","3179394","0.0-5.0-3.2","270","1","2025-07-30 08:49:28","1f75c3e559b7213887762d5229550c2b","216.120.189.41","Mozilla/5.0 (Windows NT 10.0; Win64; x64) AppleWebKit/537.36 (KHTML, like Gecko) Chrome/138.0.0.0 Safari/537.36","WebKit","Chrome","138.0.0.0","Windows","10.0","https://app.prolific.com/","en-US,en;q=0.9","6743c8da977b0d274dad1fc2","6877631c9844ddd5501205fc","6889d9d677b77bab800c0a9a","3","1","6743c8da977b0d274dad1fc2","3","1","2025-07-30T09:42:34.542Z","","","","","","","","","","","StressQ","","50","","","","","","","","","","","","","","","","","","","","","","","","","","","","",""
"2247","","<div style=""width:500px;"">
  <p>What best describes how you currently feel?</p>
  </div>","100","html-slider-response","23","3181642","0.0-5.0-4.2","270","1","2025-07-30 08:49:28","1f75c3e559b7213887762d5229550c2b","216.120.189.41","Mozilla/5.0 (Windows NT 10.0; Win64; x64) AppleWebKit/537.36 (KHTML, like Gecko) Chrome/138.0.0.0 Safari/537.36","WebKit","Chrome","138.0.0.0","Windows","10.0","https://app.prolific.com/","en-US,en;q=0.9","6743c8da977b0d274dad1fc2","6877631c9844ddd5501205fc","6889d9d677b77bab800c0a9a","3","1","6743c8da977b0d274dad1fc2","3","1","2025-07-30T09:42:36.790Z","","","","","","","","","","","MotivationQ","","50","","","","","","","","","","","","","","","","","","","","","","","","","","","","",""
"","","","","ctl-task-cpt","24","3223671","0.0-5.0-0.3","270","1","2025-07-30 08:49:28","1f75c3e559b7213887762d5229550c2b","216.120.189.41","Mozilla/5.0 (Windows NT 10.0; Win64; x64) AppleWebKit/537.36 (KHTML, like Gecko) Chrome/138.0.0.0 Safari/537.36","WebKit","Chrome","138.0.0.0","Windows","10.0","https://app.prolific.com/","en-US,en;q=0.9","6743c8da977b0d274dad1fc2","6877631c9844ddd5501205fc","6889d9d677b77bab800c0a9a","3","1","6743c8da977b0d274dad1fc2","3","1","2025-07-30T09:43:18.819Z","","","","","","","","","","","","","","win-only","2","g1:SE,g2:NW","0.7","4","0","3190530.8","1047.7","6056","39004.5","1","4","8","6","2","8","8","14","6","0.10606060606060606","1145.1","3000","935","[""left"",""up""]","{""num_key_presses"":8,""num_perfect"":6,""num_errors"":0,""num_randdir"":2,""num_randdir_good_moves"":1,""num_whilered"":0,""num_whileblue"":0,""num_blue"":3,""num_good_moves"":7}","[261.896875,262.303125,0.3,261.896875,262.303125,105.7,261.896875,262.303125,213.7,260.896875,262.303125,318.5,257.896875,279.303125,431,318.896875,336.303125,536.3,289.896875,302.303125,644.9,139.896875,189.303125,746,108.896875,100.303125,851.5,93.896875,78.303125,952.5,71.896875,60.303125,1057.1,71.896875,60.303125,1161,71.896875,60.303125,1261.1,71.896875,60.303125,1370.7,111.896875,152.303125,1471.4,113.896875,161.303125,1572.7,113.896875,161.303125,1678.2,113.896875,161.303125,1786.1,113.896875,161.303125,1894.3,113.896875,161.303125,1995.6,113.896875,161.303125,2101.4,113.896875,161.303125,2204.7,113.896875,161.303125,2315.1,113.896875,161.303125,2415.3,113.896875,161.303125,2528.5,113.896875,161.303125,2628.9,113.896875,161.303125,2742.4,113.896875,161.303125,2844.8,113.896875,161.303125,2960.9,113.896875,161.303125,3069.7,113.896875,161.303125,3170.8,113.896875,161.303125,3275.9,113.896875,161.303125,3379.5,113.896875,161.303125,3482.3,113.896875,161.303125,3584.8,113.896875,161.303125,3686,113.896875,161.303125,3800.1,113.896875,161.303125,3910.1,113.896875,161.303125,4010.2,113.896875,161.303125,4117.5,113.896875,161.303125,4227.6,113.896875,161.303125,4331.2,113.896875,161.303125,4431.5,113.896875,161.303125,4533.8,113.896875,161.303125,4639.9,113.896875,161.303125,4744.1,113.896875,161.303125,4849.7,113.896875,161.303125,4958.4]","[1424.2,1424.2,1000,0,424.2,""oops"",""up"",""right"",""bad_move"",11039.1,9611.6,2438.5,8220.6,380,""smooth"",""up"",""up"",""good_move"",13877.5,2837.5,2380.1,11040,457.4,""smooth"",""up"",""up"",""good_move"",16899.3,3021.3,2601.8,13878.1,419.5,""oops"",""up"",""up"",""good_move"",24504.2,7601.6,2853.8,21217.5,432.9,""smooth"",""left"",""left"",""good_move"",26786.1,2281.1,1823.8,24505,457.3,""smooth"",""left"",""left"",""good_move"",29950.4,3163.4,2753.4,26787,410,""smooth"",""left"",""left"",""good_move"",32769.5,2818.6,2438.2,29950.9,380.4,""smooth"",""left"",""left"",""good_move""]","",""
"3743","","<div style=""width:500px;"">
  <p>What determined the result of this run?</p>
  </div>","94","html-slider-response","25","3227418","0.0-5.0-1.3","270","1","2025-07-30 08:49:28","1f75c3e559b7213887762d5229550c2b","216.120.189.41","Mozilla/5.0 (Windows NT 10.0; Win64; x64) AppleWebKit/537.36 (KHTML, like Gecko) Chrome/138.0.0.0 Safari/537.36","WebKit","Chrome","138.0.0.0","Windows","10.0","https://app.prolific.com/","en-US,en;q=0.9","6743c8da977b0d274dad1fc2","6877631c9844ddd5501205fc","6889d9d677b77bab800c0a9a","3","1","6743c8da977b0d274dad1fc2","3","1","2025-07-30T09:43:22.566Z","","","","","","","","","","","AttribQ","","50","","","","","","","","","","","","","","","","","","","","","","","","","","","","",""
"1823","","<div style=""width:500px;"">
  <p>How much control did you have over the ball?</p>
  </div>","86","html-slider-response","26","3229242","0.0-5.0-2.3","270","1","2025-07-30 08:49:28","1f75c3e559b7213887762d5229550c2b","216.120.189.41","Mozilla/5.0 (Windows NT 10.0; Win64; x64) AppleWebKit/537.36 (KHTML, like Gecko) Chrome/138.0.0.0 Safari/537.36","WebKit","Chrome","138.0.0.0","Windows","10.0","https://app.prolific.com/","en-US,en;q=0.9","6743c8da977b0d274dad1fc2","6877631c9844ddd5501205fc","6889d9d677b77bab800c0a9a","3","1","6743c8da977b0d274dad1fc2","3","1","2025-07-30T09:43:24.390Z","","","","","","","","","","","ControlQ","","50","","","","","","","","","","","","","","","","","","","","","","","","","","","","",""
"2447","","<div style=""width:500px;"">
  <p>How would you describe your current emotional state?</p>
  </div>","0","html-slider-response","27","3231690","0.0-5.0-3.3","270","1","2025-07-30 08:49:28","1f75c3e559b7213887762d5229550c2b","216.120.189.41","Mozilla/5.0 (Windows NT 10.0; Win64; x64) AppleWebKit/537.36 (KHTML, like Gecko) Chrome/138.0.0.0 Safari/537.36","WebKit","Chrome","138.0.0.0","Windows","10.0","https://app.prolific.com/","en-US,en;q=0.9","6743c8da977b0d274dad1fc2","6877631c9844ddd5501205fc","6889d9d677b77bab800c0a9a","3","1","6743c8da977b0d274dad1fc2","3","1","2025-07-30T09:43:26.838Z","","","","","","","","","","","StressQ","","50","","","","","","","","","","","","","","","","","","","","","","","","","","","","",""
"2622","","<div style=""width:500px;"">
  <p>What best describes how you currently feel?</p>
  </div>","100","html-slider-response","28","3234314","0.0-5.0-4.3","270","1","2025-07-30 08:49:28","1f75c3e559b7213887762d5229550c2b","216.120.189.41","Mozilla/5.0 (Windows NT 10.0; Win64; x64) AppleWebKit/537.36 (KHTML, like Gecko) Chrome/138.0.0.0 Safari/537.36","WebKit","Chrome","138.0.0.0","Windows","10.0","https://app.prolific.com/","en-US,en;q=0.9","6743c8da977b0d274dad1fc2","6877631c9844ddd5501205fc","6889d9d677b77bab800c0a9a","3","1","6743c8da977b0d274dad1fc2","3","1","2025-07-30T09:43:29.462Z","","","","","","","","","","","MotivationQ","","50","","","","","","","","","","","","","","","","","","","","","","","","","","","","",""
"","","","","ctl-task-cpt","29","3264407","0.0-5.0-0.4","270","1","2025-07-30 08:49:28","1f75c3e559b7213887762d5229550c2b","216.120.189.41","Mozilla/5.0 (Windows NT 10.0; Win64; x64) AppleWebKit/537.36 (KHTML, like Gecko) Chrome/138.0.0.0 Safari/537.36","WebKit","Chrome","138.0.0.0","Windows","10.0","https://app.prolific.com/","en-US,en;q=0.9","6743c8da977b0d274dad1fc2","6877631c9844ddd5501205fc","6889d9d677b77bab800c0a9a","3","1","6743c8da977b0d274dad1fc2","3","1","2025-07-30T09:43:59.555Z","","","","","","","","","","","","","","win-only","1","g1:NE,g2:SW","0.6","5","0","3243203.6","1024.8","6034.5","27066.7","1","4","4","6","2","4","4","18","14","0.13636363636363635","1120.8","3000","1125","[""down"",""left""]","{""num_key_presses"":6,""num_perfect"":4,""num_errors"":0,""num_randdir"":2,""num_randdir_good_moves"":2,""num_whilered"":0,""num_whileblue"":0,""num_blue"":2,""num_good_moves"":6}","[257.896875,259.303125,1,257.896875,259.303125,101.7,257.896875,259.303125,207.9,257.896875,259.303125,311.2,253.896875,254.303125,413.7,182.896875,309.303125,529.9,141.896875,385.303125,632.3,105.896875,412.303125,755.8,97.896875,426.303125,856.1,83.896875,449.303125,960.5,78.896875,453.303125,1062.3,78.896875,453.303125,1162.8,78.896875,453.303125,1265.1,78.896875,453.303125,1366,77.896875,453.303125,1474,77.896875,453.303125,1580.3,77.896875,453.303125,1687.8,77.896875,453.303125,1798.5,77.896875,453.303125,1911.5,77.896875,453.303125,2014.2,77.896875,453.303125,2117.4,77.896875,453.303125,2219.5,77.896875,453.303125,2323.1,77.896875,453.303125,2424.9,77.896875,453.303125,2535.6,77.896875,453.303125,2643.7,77.896875,453.303125,2746.9,77.896875,453.303125,2858.2,77.896875,453.303125,2958.8,77.896875,453.303125,3059.3,77.896875,453.303125,3162.8,77.896875,453.303125,3272.9,77.896875,453.303125,3378,77.896875,453.303125,3479,77.896875,453.303125,3583.3,77.896875,453.303125,3685.9,77.896875,453.303125,3790.1,77.896875,453.303125,3890.7,77.896875,453.303125,3996,77.896875,453.303125,4103.8,77.896875,453.303125,4213,77.896875,453.303125,4316.9,77.896875,453.303125,4422.3,77.896875,453.303125,4525,77.896875,453.303125,4625.8,77.896875,453.303125,4730.8,77.896875,453.303125,4836,77.896875,453.303125,4941.6]","[1415.4,1415.4,1000,0,415.4,""smooth"",""down"",""down"",""good_move"",7327.9,5911.5,2191.2,4687,449.7,""oops"",""down"",""left"",""good_move"",10226.4,2897.5,2254.1,7328.9,643.4,""oops"",""down"",""left"",""good_move"",13149.3,2922.3,2406.1,10227,516.2,""smooth"",""down"",""down"",""good_move"",18730,5579.6,1866,16417.6,446.5,""smooth"",""down"",""down"",""good_move"",20870.5,2138.7,1631.2,18731.8,507.6,""smooth"",""left"",""left"",""good_move""]","",""
"2944","","<div style=""width:500px;"">
  <p>What determined the result of this run?</p>
  </div>","100","html-slider-response","30","3267354","0.0-5.0-1.4","270","1","2025-07-30 08:49:28","1f75c3e559b7213887762d5229550c2b","216.120.189.41","Mozilla/5.0 (Windows NT 10.0; Win64; x64) AppleWebKit/537.36 (KHTML, like Gecko) Chrome/138.0.0.0 Safari/537.36","WebKit","Chrome","138.0.0.0","Windows","10.0","https://app.prolific.com/","en-US,en;q=0.9","6743c8da977b0d274dad1fc2","6877631c9844ddd5501205fc","6889d9d677b77bab800c0a9a","3","1","6743c8da977b0d274dad1fc2","3","1","2025-07-30T09:44:02.502Z","","","","","","","","","","","AttribQ","","50","","","","","","","","","","","","","","","","","","","","","","","","","","","","",""
"2774","","<div style=""width:500px;"">
  <p>How much control did you have over the ball?</p>
  </div>","94","html-slider-response","31","3270130","0.0-5.0-2.4","270","1","2025-07-30 08:49:28","1f75c3e559b7213887762d5229550c2b","216.120.189.41","Mozilla/5.0 (Windows NT 10.0; Win64; x64) AppleWebKit/537.36 (KHTML, like Gecko) Chrome/138.0.0.0 Safari/537.36","WebKit","Chrome","138.0.0.0","Windows","10.0","https://app.prolific.com/","en-US,en;q=0.9","6743c8da977b0d274dad1fc2","6877631c9844ddd5501205fc","6889d9d677b77bab800c0a9a","3","1","6743c8da977b0d274dad1fc2","3","1","2025-07-30T09:44:05.278Z","","","","","","","","","","","ControlQ","","50","","","","","","","","","","","","","","","","","","","","","","","","","","","","",""
"3029","","<div style=""width:500px;"">
  <p>How would you describe your current emotional state?</p>
  </div>","0","html-slider-response","32","3273162","0.0-5.0-3.4","270","1","2025-07-30 08:49:28","1f75c3e559b7213887762d5229550c2b","216.120.189.41","Mozilla/5.0 (Windows NT 10.0; Win64; x64) AppleWebKit/537.36 (KHTML, like Gecko) Chrome/138.0.0.0 Safari/537.36","WebKit","Chrome","138.0.0.0","Windows","10.0","https://app.prolific.com/","en-US,en;q=0.9","6743c8da977b0d274dad1fc2","6877631c9844ddd5501205fc","6889d9d677b77bab800c0a9a","3","1","6743c8da977b0d274dad1fc2","3","1","2025-07-30T09:44:08.310Z","","","","","","","","","","","StressQ","","50","","","","","","","","","","","","","","","","","","","","","","","","","","","","",""
"3126","","<div style=""width:500px;"">
  <p>What best describes how you currently feel?</p>
  </div>","100","html-slider-response","33","3276290","0.0-5.0-4.4","270","1","2025-07-30 08:49:28","1f75c3e559b7213887762d5229550c2b","216.120.189.41","Mozilla/5.0 (Windows NT 10.0; Win64; x64) AppleWebKit/537.36 (KHTML, like Gecko) Chrome/138.0.0.0 Safari/537.36","WebKit","Chrome","138.0.0.0","Windows","10.0","https://app.prolific.com/","en-US,en;q=0.9","6743c8da977b0d274dad1fc2","6877631c9844ddd5501205fc","6889d9d677b77bab800c0a9a","3","1","6743c8da977b0d274dad1fc2","3","1","2025-07-30T09:44:11.438Z","","","","","","","","","","","MotivationQ","","50","","","","","","","","","","","","","","","","","","","","","","","","","","","","",""
"","","","","ctl-task-cpt","34","3318669","0.0-5.0-0.5","270","1","2025-07-30 08:49:28","1f75c3e559b7213887762d5229550c2b","216.120.189.41","Mozilla/5.0 (Windows NT 10.0; Win64; x64) AppleWebKit/537.36 (KHTML, like Gecko) Chrome/138.0.0.0 Safari/537.36","WebKit","Chrome","138.0.0.0","Windows","10.0","https://app.prolific.com/","en-US,en;q=0.9","6743c8da977b0d274dad1fc2","6877631c9844ddd5501205fc","6889d9d677b77bab800c0a9a","3","1","6743c8da977b0d274dad1fc2","3","1","2025-07-30T09:44:53.817Z","","","","","","","","","","","","","","win-only","3","g1:SW,g2:NE","0.5","6","0","3285181.7","1444","6448.7","39354.9","1","4","8","6","2","8","8","26","18","0.19696969696969696","1232.4","3000","5","[""up"",""right""]","{""num_key_presses"":12,""num_perfect"":6,""num_errors"":0,""num_randdir"":6,""num_randdir_good_moves"":3,""num_whilered"":0,""num_whileblue"":0,""num_blue"":0,""num_good_moves"":9}","[256.896875,261.303125,0.3,256.896875,261.303125,103.3,256.896875,261.303125,206.8,255.896875,270.303125,308.3,235.896875,290.303125,410.1,214.896875,307.303125,510.3,325.896875,265.303125,614.7,367.896875,197.303125,716.2,390.896875,126.303125,816.2,408.896875,110.303125,917.3,437.896875,84.303125,1017.5,441.896875,67.303125,1119.4,450.896875,50.303125,1233.7,450.896875,50.303125,1343.3,444.896875,54.303125,1443.6,399.896875,121.303125,1548.3,344.896875,176.303125,1649.6,297.896875,254.303125,1751.7,268.896875,302.303125,1858.6,268.896875,303.303125,1959.7,268.896875,303.303125,2065.6,268.896875,303.303125,2170.6,268.896875,303.303125,2282.9,268.896875,303.303125,2384.2,268.896875,303.303125,2485.9,268.896875,303.303125,2592.7,268.896875,303.303125,2694.1,268.896875,303.303125,2800.9,268.896875,303.303125,2902.6,268.896875,303.303125,3007.7,268.896875,303.303125,3110.4,268.896875,303.303125,3213,268.896875,303.303125,3329.1,268.896875,303.303125,3433.4,268.896875,303.303125,3533.4,268.896875,303.303125,3646.1,268.896875,303.303125,3746.7,268.896875,303.303125,3849.9,268.896875,303.303125,3953.8,268.896875,303.303125,4059.2,268.896875,303.303125,4159.3,268.896875,303.303125,4261.6,268.896875,303.303125,4366.6,268.896875,303.303125,4475.6,268.896875,303.303125,4576.2,268.896875,303.303125,4680.2,268.896875,303.303125,4780.9,268.896875,303.303125,4885.4,268.896875,303.303125,4988.9]","[1427.6,1427.6,1000,0,427.6,""smooth"",""up"",""up"",""good_move"",3894.1,2465.4,1971.6,1428.7,493.8,""oops"",""up"",""up"",""good_move"",7164.7,3269.2,2864.5,3895.6,404.7,""smooth"",""right"",""right"",""good_move"",8912.5,1747,1215.8,7165.5,531.2,""smooth"",""up"",""up"",""good_move"",11507.4,2593,2222.1,8914.4,370.9,""oops"",""right"",""down"",""bad_move"",14473.9,2965.8,2581.6,11508.2,384.2,""oops"",""right"",""down"",""bad_move"",17677.9,3202.5,2650.1,14475.4,552.4,""smooth"",""up"",""up"",""good_move"",20411.7,2733.1,2429.9,17678.6,303.2,""oops"",""up"",""down"",""bad_move"",23904.7,3491.6,3150,20413.1,341.6,""oops"",""right"",""right"",""good_move"",26278.3,2372.2,1941,23906.1,431.2,""smooth"",""up"",""up"",""good_move"",29178.4,2897.3,2593.1,26281.7,303.6,""oops"",""right"",""right"",""good_move"",32764.2,3585,3280.2,29179.2,304.8,""smooth"",""up"",""up"",""good_move""]","",""
"3451","","<div style=""width:500px;"">
  <p>What determined the result of this run?</p>
  </div>","100","html-slider-response","35","3322123","0.0-5.0-1.5","270","1","2025-07-30 08:49:28","1f75c3e559b7213887762d5229550c2b","216.120.189.41","Mozilla/5.0 (Windows NT 10.0; Win64; x64) AppleWebKit/537.36 (KHTML, like Gecko) Chrome/138.0.0.0 Safari/537.36","WebKit","Chrome","138.0.0.0","Windows","10.0","https://app.prolific.com/","en-US,en;q=0.9","6743c8da977b0d274dad1fc2","6877631c9844ddd5501205fc","6889d9d677b77bab800c0a9a","3","1","6743c8da977b0d274dad1fc2","3","1","2025-07-30T09:44:57.271Z","","","","","","","","","","","AttribQ","","50","","","","","","","","","","","","","","","","","","","","","","","","","","","","",""
"5821","","<div style=""width:500px;"">
  <p>How much control did you have over the ball?</p>
  </div>","55","html-slider-response","36","3327946","0.0-5.0-2.5","270","1","2025-07-30 08:49:28","1f75c3e559b7213887762d5229550c2b","216.120.189.41","Mozilla/5.0 (Windows NT 10.0; Win64; x64) AppleWebKit/537.36 (KHTML, like Gecko) Chrome/138.0.0.0 Safari/537.36","WebKit","Chrome","138.0.0.0","Windows","10.0","https://app.prolific.com/","en-US,en;q=0.9","6743c8da977b0d274dad1fc2","6877631c9844ddd5501205fc","6889d9d677b77bab800c0a9a","3","1","6743c8da977b0d274dad1fc2","3","1","2025-07-30T09:45:03.094Z","","","","","","","","","","","ControlQ","","50","","","","","","","","","","","","","","","","","","","","","","","","","","","","",""
"2311","","<div style=""width:500px;"">
  <p>How would you describe your current emotional state?</p>
  </div>","0","html-slider-response","37","3330259","0.0-5.0-3.5","270","1","2025-07-30 08:49:28","1f75c3e559b7213887762d5229550c2b","216.120.189.41","Mozilla/5.0 (Windows NT 10.0; Win64; x64) AppleWebKit/537.36 (KHTML, like Gecko) Chrome/138.0.0.0 Safari/537.36","WebKit","Chrome","138.0.0.0","Windows","10.0","https://app.prolific.com/","en-US,en;q=0.9","6743c8da977b0d274dad1fc2","6877631c9844ddd5501205fc","6889d9d677b77bab800c0a9a","3","1","6743c8da977b0d274dad1fc2","3","1","2025-07-30T09:45:05.407Z","","","","","","","","","","","StressQ","","50","","","","","","","","","","","","","","","","","","","","","","","","","","","","",""
"2222","","<div style=""width:500px;"">
  <p>What best describes how you currently feel?</p>
  </div>","100","html-slider-response","38","3332482","0.0-5.0-4.5","270","1","2025-07-30 08:49:28","1f75c3e559b7213887762d5229550c2b","216.120.189.41","Mozilla/5.0 (Windows NT 10.0; Win64; x64) AppleWebKit/537.36 (KHTML, like Gecko) Chrome/138.0.0.0 Safari/537.36","WebKit","Chrome","138.0.0.0","Windows","10.0","https://app.prolific.com/","en-US,en;q=0.9","6743c8da977b0d274dad1fc2","6877631c9844ddd5501205fc","6889d9d677b77bab800c0a9a","3","1","6743c8da977b0d274dad1fc2","3","1","2025-07-30T09:45:07.631Z","","","","","","","","","","","MotivationQ","","50","","","","","","","","","","","","","","","","","","","","","","","","","","","","",""
"","","","","ctl-task-cpt","39","3387615","0.0-5.0-0.6","270","1","2025-07-30 08:49:28","1f75c3e559b7213887762d5229550c2b","216.120.189.41","Mozilla/5.0 (Windows NT 10.0; Win64; x64) AppleWebKit/537.36 (KHTML, like Gecko) Chrome/138.0.0.0 Safari/537.36","WebKit","Chrome","138.0.0.0","Windows","10.0","https://app.prolific.com/","en-US,en;q=0.9","6743c8da977b0d274dad1fc2","6877631c9844ddd5501205fc","6889d9d677b77bab800c0a9a","3","1","6743c8da977b0d274dad1fc2","3","1","2025-07-30T09:46:02.763Z","","","","","","","","","","","","","","win-only","2","g1:SE,g2:NW","0.4","7","0","3341372.3","2430.5","7445.8","52110.8","1","4","8","6","2","-8","-8","18","26","0.13636363636363635","989.7","3000","-1750","[""left"",""up""]","{""num_key_presses"":11,""num_perfect"":4,""num_errors"":0,""num_randdir"":7,""num_randdir_good_moves"":3,""num_whilered"":0,""num_whileblue"":0,""num_blue"":3,""num_good_moves"":7}","[265.896875,255.303125,1.4,265.896875,255.303125,111.6,263.896875,255.303125,215.1,263.896875,251.303125,317,263.896875,251.303125,417.5,266.896875,269.303125,519.9,160.896875,174.303125,625.6,77.896875,81.303125,732.2,64.896875,67.303125,835.2,62.896875,65.303125,940.2,62.896875,65.303125,1053.9,62.896875,65.303125,1158.4,200.896875,137.303125,1283.1,346.896875,274.303125,1391.4,351.896875,288.303125,1498.3,351.896875,295.303125,1602.8,371.896875,304.303125,1710.4,389.896875,276.303125,1810.7,395.896875,253.303125,1913.4,395.896875,252.303125,2035.4,395.896875,252.303125,2148.1,395.896875,252.303125,2253.1,395.896875,252.303125,2363.1,395.896875,252.303125,2474.4,395.896875,252.303125,2574.7,395.896875,252.303125,2689.1,395.896875,252.303125,2790,395.896875,252.303125,2891.1,395.896875,252.303125,2995.3,395.896875,252.303125,3105.7,395.896875,252.303125,3209.1,395.896875,252.303125,3316.2,395.896875,252.303125,3429.2,395.896875,252.303125,3533.3,395.896875,252.303125,3635.7,395.896875,252.303125,3745.5,395.896875,252.303125,3847.6,395.896875,252.303125,3950.8,395.896875,252.303125,4053,395.896875,252.303125,4167.4,395.896875,252.303125,4272.6,395.896875,252.303125,4373.8,395.896875,252.303125,4485.9,395.896875,252.303125,4595.5,395.896875,252.303125,4698.4,395.896875,252.303125,4798.4,395.896875,252.303125,4900.9]","[5056.6,5056.6,2690,2007.9,358.7,""smooth"",""up"",""up"",""good_move"",7949.4,2891.8,2458.9,5057.7,432.8,""smooth"",""up"",""up"",""good_move"",10822.4,2871.5,2512.4,7951,359.1,""smooth"",""up"",""up"",""good_move"",14030.9,3207.7,2781,10823.3,426.6,""oops"",""left"",""right"",""bad_move"",17080.7,3049.1,2632.2,14031.6,416.9,""oops"",""left"",""left"",""good_move"",23274.9,6192.6,2636.3,20220.4,418.2,""smooth"",""left"",""left"",""good_move"",26197.8,2921.7,2457.4,23276.1,464.3,""oops"",""left"",""right"",""bad_move"",29236.1,3036.8,2596.6,26199.3,440.2,""oops"",""left"",""right"",""bad_move"",31772.8,2535.9,2020,29237,515.9,""oops"",""up"",""left"",""good_move"",34368,2590,2184.6,31778,405.4,""oops"",""up"",""right"",""bad_move"",41845.9,7476.9,2776.7,38699.9,369.3,""oops"",""left"",""left"",""good_move""]","",""
"5337","","<div style=""width:500px;"">
  <p>What determined the result of this run?</p>
  </div>","21","html-slider-response","40","3392955","0.0-5.0-1.6","270","1","2025-07-30 08:49:28","1f75c3e559b7213887762d5229550c2b","216.120.189.41","Mozilla/5.0 (Windows NT 10.0; Win64; x64) AppleWebKit/537.36 (KHTML, like Gecko) Chrome/138.0.0.0 Safari/537.36","WebKit","Chrome","138.0.0.0","Windows","10.0","https://app.prolific.com/","en-US,en;q=0.9","6743c8da977b0d274dad1fc2","6877631c9844ddd5501205fc","6889d9d677b77bab800c0a9a","3","1","6743c8da977b0d274dad1fc2","3","1","2025-07-30T09:46:08.103Z","","","","","","","","","","","AttribQ","","50","","","","","","","","","","","","","","","","","","","","","","","","","","","","",""
"4293","","<div style=""width:500px;"">
  <p>How much control did you have over the ball?</p>
  </div>","12","html-slider-response","41","3397250","0.0-5.0-2.6","270","1","2025-07-30 08:49:28","1f75c3e559b7213887762d5229550c2b","216.120.189.41","Mozilla/5.0 (Windows NT 10.0; Win64; x64) AppleWebKit/537.36 (KHTML, like Gecko) Chrome/138.0.0.0 Safari/537.36","WebKit","Chrome","138.0.0.0","Windows","10.0","https://app.prolific.com/","en-US,en;q=0.9","6743c8da977b0d274dad1fc2","6877631c9844ddd5501205fc","6889d9d677b77bab800c0a9a","3","1","6743c8da977b0d274dad1fc2","3","1","2025-07-30T09:46:12.398Z","","","","","","","","","","","ControlQ","","50","","","","","","","","","","","","","","","","","","","","","","","","","","","","",""
"3255","","<div style=""width:500px;"">
  <p>How would you describe your current emotional state?</p>
  </div>","0","html-slider-response","42","3400507","0.0-5.0-3.6","270","1","2025-07-30 08:49:28","1f75c3e559b7213887762d5229550c2b","216.120.189.41","Mozilla/5.0 (Windows NT 10.0; Win64; x64) AppleWebKit/537.36 (KHTML, like Gecko) Chrome/138.0.0.0 Safari/537.36","WebKit","Chrome","138.0.0.0","Windows","10.0","https://app.prolific.com/","en-US,en;q=0.9","6743c8da977b0d274dad1fc2","6877631c9844ddd5501205fc","6889d9d677b77bab800c0a9a","3","1","6743c8da977b0d274dad1fc2","3","1","2025-07-30T09:46:15.655Z","","","","","","","","","","","StressQ","","50","","","","","","","","","","","","","","","","","","","","","","","","","","","","",""
"2653","","<div style=""width:500px;"">
  <p>What best describes how you currently feel?</p>
  </div>","100","html-slider-response","43","3403162","0.0-5.0-4.6","270","1","2025-07-30 08:49:28","1f75c3e559b7213887762d5229550c2b","216.120.189.41","Mozilla/5.0 (Windows NT 10.0; Win64; x64) AppleWebKit/537.36 (KHTML, like Gecko) Chrome/138.0.0.0 Safari/537.36","WebKit","Chrome","138.0.0.0","Windows","10.0","https://app.prolific.com/","en-US,en;q=0.9","6743c8da977b0d274dad1fc2","6877631c9844ddd5501205fc","6889d9d677b77bab800c0a9a","3","1","6743c8da977b0d274dad1fc2","3","1","2025-07-30T09:46:18.310Z","","","","","","","","","","","MotivationQ","","50","","","","","","","","","","","","","","","","","","","","","","","","","","","","",""
"","","","","ctl-task-cpt","44","3470082","0.0-5.0-0.7","270","1","2025-07-30 08:49:28","1f75c3e559b7213887762d5229550c2b","216.120.189.41","Mozilla/5.0 (Windows NT 10.0; Win64; x64) AppleWebKit/537.36 (KHTML, like Gecko) Chrome/138.0.0.0 Safari/537.36","WebKit","Chrome","138.0.0.0","Windows","10.0","https://app.prolific.com/","en-US,en;q=0.9","6743c8da977b0d274dad1fc2","6877631c9844ddd5501205fc","6889d9d677b77bab800c0a9a","3","1","6743c8da977b0d274dad1fc2","3","1","2025-07-30T09:47:25.231Z","","","","","","","","","","","","","","win-only","1","g1:NE,g2:SW","0.3","8","0","3412050.5","2015.5","7019.6","63904.9","1","4","4","6","2","-4","-4","14","18","0.10606060606060606","1118.3","3000","-1210","[""down"",""left""]","{""num_key_presses"":11,""num_perfect"":3,""num_errors"":0,""num_randdir"":8,""num_randdir_good_moves"":4,""num_whilered"":0,""num_whileblue"":0,""num_blue"":6,""num_good_moves"":7}","[262.896875,263.303125,0.8,262.896875,263.303125,102,262.896875,247.303125,206.7,323.896875,198.303125,307.9,377.896875,166.303125,412.7,272.896875,233.303125,516.7,191.896875,339.303125,621.9,157.896875,382.303125,732.5,84.896875,447.303125,848.6,48.896875,472.303125,953.3,43.896875,474.303125,1056.7,43.896875,474.303125,1158.5,43.896875,474.303125,1261.8,182.896875,367.303125,1378.9,373.896875,337.303125,1487.2,433.896875,337.303125,1589.3,433.896875,337.303125,1691.7,433.896875,337.303125,1797.6,433.896875,337.303125,1907.2,433.896875,337.303125,2017,433.896875,337.303125,2124,433.896875,337.303125,2225.2,433.896875,337.303125,2326.1,433.896875,337.303125,2430.8,433.896875,337.303125,2532.7,433.896875,337.303125,2639.8,433.896875,337.303125,2745.1,433.896875,337.303125,2849.6,433.896875,337.303125,2953.8,433.896875,337.303125,3057.5,433.896875,337.303125,3160.3,433.896875,337.303125,3264,433.896875,337.303125,3365.6,433.896875,337.303125,3470.5,433.896875,337.303125,3578,433.896875,337.303125,3681.4,433.896875,337.303125,3787.3,433.896875,337.303125,3891.4,433.896875,337.303125,3992.2,433.896875,337.303125,4107.2,433.896875,337.303125,4214.1,433.896875,337.303125,4322.2,433.896875,337.303125,4434.6,433.896875,337.303125,4535.4,433.896875,337.303125,4635.4,433.896875,337.303125,4739.1,433.896875,337.303125,4844.6,433.896875,337.303125,4951]","[1463.3,1463.3,1000,0,463.3,""smooth"",""down"",""down"",""good_move"",4809,3343.7,2920.9,1465.3,422.8,""oops"",""down"",""left"",""good_move"",8299.7,3489.7,3098.1,4810,391.6,""oops"",""left"",""up"",""bad_move"",11399.8,3099.4,2722.1,8300.4,377.3,""oops"",""down"",""left"",""good_move"",14865.9,3465.3,3099.1,11400.6,366.2,""oops"",""down"",""down"",""good_move"",21812.8,6946.4,2696.2,18752.7,364,""oops"",""left"",""left"",""good_move"",24728.2,2913.7,2476.5,21814.5,437.2,""smooth"",""down"",""down"",""good_move"",27367.4,2638.4,2217.3,24729,421.1,""oops"",""down"",""up"",""bad_move"",33910.7,6541.2,3073.9,30402,434.8,""oops"",""left"",""up"",""bad_move"",47796.5,13884.6,2768.6,44599.8,428.1,""smooth"",""down"",""down"",""good_move"",50556.3,2759.2,2329.5,47797.1,429.7,""oops"",""down"",""right"",""bad_move""]","",""
"3566","","<div style=""width:500px;"">
  <p>What determined the result of this run?</p>
  </div>","0","html-slider-response","45","3473650","0.0-5.0-1.7","270","1","2025-07-30 08:49:28","1f75c3e559b7213887762d5229550c2b","216.120.189.41","Mozilla/5.0 (Windows NT 10.0; Win64; x64) AppleWebKit/537.36 (KHTML, like Gecko) Chrome/138.0.0.0 Safari/537.36","WebKit","Chrome","138.0.0.0","Windows","10.0","https://app.prolific.com/","en-US,en;q=0.9","6743c8da977b0d274dad1fc2","6877631c9844ddd5501205fc","6889d9d677b77bab800c0a9a","3","1","6743c8da977b0d274dad1fc2","3","1","2025-07-30T09:47:28.798Z","","","","","","","","","","","AttribQ","","50","","","","","","","","","","","","","","","","","","","","","","","","","","","","",""
"3464","","<div style=""width:500px;"">
  <p>How much control did you have over the ball?</p>
  </div>","19","html-slider-response","46","3477115","0.0-5.0-2.7","270","1","2025-07-30 08:49:28","1f75c3e559b7213887762d5229550c2b","216.120.189.41","Mozilla/5.0 (Windows NT 10.0; Win64; x64) AppleWebKit/537.36 (KHTML, like Gecko) Chrome/138.0.0.0 Safari/537.36","WebKit","Chrome","138.0.0.0","Windows","10.0","https://app.prolific.com/","en-US,en;q=0.9","6743c8da977b0d274dad1fc2","6877631c9844ddd5501205fc","6889d9d677b77bab800c0a9a","3","1","6743c8da977b0d274dad1fc2","3","1","2025-07-30T09:47:32.263Z","","","","","","","","","","","ControlQ","","50","","","","","","","","","","","","","","","","","","","","","","","","","","","","",""
"2980","","<div style=""width:500px;"">
  <p>How would you describe your current emotional state?</p>
  </div>","8","html-slider-response","47","3480098","0.0-5.0-3.7","270","1","2025-07-30 08:49:28","1f75c3e559b7213887762d5229550c2b","216.120.189.41","Mozilla/5.0 (Windows NT 10.0; Win64; x64) AppleWebKit/537.36 (KHTML, like Gecko) Chrome/138.0.0.0 Safari/537.36","WebKit","Chrome","138.0.0.0","Windows","10.0","https://app.prolific.com/","en-US,en;q=0.9","6743c8da977b0d274dad1fc2","6877631c9844ddd5501205fc","6889d9d677b77bab800c0a9a","3","1","6743c8da977b0d274dad1fc2","3","1","2025-07-30T09:47:35.246Z","","","","","","","","","","","StressQ","","50","","","","","","","","","","","","","","","","","","","","","","","","","","","","",""
"3055","","<div style=""width:500px;"">
  <p>What best describes how you currently feel?</p>
  </div>","100","html-slider-response","48","3483154","0.0-5.0-4.7","270","1","2025-07-30 08:49:28","1f75c3e559b7213887762d5229550c2b","216.120.189.41","Mozilla/5.0 (Windows NT 10.0; Win64; x64) AppleWebKit/537.36 (KHTML, like Gecko) Chrome/138.0.0.0 Safari/537.36","WebKit","Chrome","138.0.0.0","Windows","10.0","https://app.prolific.com/","en-US,en;q=0.9","6743c8da977b0d274dad1fc2","6877631c9844ddd5501205fc","6889d9d677b77bab800c0a9a","3","1","6743c8da977b0d274dad1fc2","3","1","2025-07-30T09:47:38.302Z","","","","","","","","","","","MotivationQ","","50","","","","","","","","","","","","","","","","","","","","","","","","","","","","",""
"","","","","ctl-task-cpt","49","3542020","0.0-5.0-0.8","270","1","2025-07-30 08:49:28","1f75c3e559b7213887762d5229550c2b","216.120.189.41","Mozilla/5.0 (Windows NT 10.0; Win64; x64) AppleWebKit/537.36 (KHTML, like Gecko) Chrome/138.0.0.0 Safari/537.36","WebKit","Chrome","138.0.0.0","Windows","10.0","https://app.prolific.com/","en-US,en;q=0.9","6743c8da977b0d274dad1fc2","6877631c9844ddd5501205fc","6889d9d677b77bab800c0a9a","3","1","6743c8da977b0d274dad1fc2","3","1","2025-07-30T09:48:37.169Z","","","","","","","","","","","","","","win-only","1","g1:NE,g2:SW","0.2","9","0","3492044.3","1341.4","6348.8","55839.3","1","4","8","6","2","-8","-8","6","14","0.045454545454545456","1040.3","3000","-1630","[""down"",""left""]","{""num_key_presses"":12,""num_perfect"":3,""num_errors"":0,""num_randdir"":9,""num_randdir_good_moves"":4,""num_whilered"":0,""num_whileblue"":0,""num_blue"":3,""num_good_moves"":7}","[260.896875,257.303125,0.4,260.896875,257.303125,103.8,260.896875,257.303125,206.6,258.896875,253.303125,307.1,258.896875,245.303125,421.4,237.896875,261.303125,528,114.896875,354.303125,631,61.896875,401.303125,734.8,47.896875,436.303125,839.2,50.896875,463.303125,952,50.896875,464.303125,1064.6,50.896875,464.303125,1171.1,62.896875,464.303125,1273,211.896875,471.303125,1379,255.896875,442.303125,1481.6,254.896875,441.303125,1582,254.896875,441.303125,1685.2,254.896875,441.303125,1785.5,254.896875,441.303125,1889.3,254.896875,441.303125,1997,254.896875,441.303125,2105,254.896875,441.303125,2206.5,254.896875,441.303125,2309.6,254.896875,441.303125,2411.8,254.896875,441.303125,2527.5,254.896875,441.303125,2632.4,254.896875,441.303125,2733.5,254.896875,441.303125,2835.2,254.896875,441.303125,2944.9,254.896875,441.303125,3049.7,254.896875,441.303125,3154.4,254.896875,441.303125,3259.8,254.896875,441.303125,3367.9,254.896875,441.303125,3473.6,254.896875,441.303125,3580,254.896875,441.303125,3684,254.896875,441.303125,3789.1,254.896875,441.303125,3895.6,254.896875,441.303125,4001,254.896875,441.303125,4102,254.896875,441.303125,4208,254.896875,441.303125,4311.6,254.896875,441.303125,4417.8,254.896875,441.303125,4521.4,254.896875,441.303125,4624.2,254.896875,441.303125,4725.5,254.896875,441.303125,4830.4,254.896875,441.303125,4937.2]","[1422.5,1422.5,1000,0,422.5,""oops"",""down"",""left"",""good_move"",4941.4,3518.2,2906.2,1423.2,612,""oops"",""left"",""down"",""good_move"",8238,3296,2877.6,4942,418.4,""oops"",""left"",""up"",""bad_move"",12025.6,3786.3,3302.1,8239.4,484.1,""oops"",""down"",""down"",""good_move"",18347.6,6320.6,2319.8,15642.5,385.3,""oops"",""down"",""right"",""bad_move"",21697.2,3348.9,2926.3,18348.3,422.6,""smooth"",""left"",""left"",""good_move"",24540.4,2841.7,2408.8,21698.7,432.9,""smooth"",""left"",""left"",""good_move"",27021.1,2480.2,1882.4,24540.9,597.8,""oops"",""left"",""down"",""good_move"",33843.8,6821.5,2890.4,30512.4,441,""oops"",""down"",""up"",""bad_move"",40315.6,6468.3,2865.4,36887.7,562.5,""oops"",""left"",""up"",""bad_move"",43100,2783.4,2351.1,40316.6,432.3,""oops"",""down"",""up"",""bad_move"",46075.3,2974.4,2116.8,43100.9,857.6,""smooth"",""down"",""down"",""good_move""]","",""
"2779","","<div style=""width:500px;"">
  <p>What determined the result of this run?</p>
  </div>","0","html-slider-response","50","3544803","0.0-5.0-1.8","270","1","2025-07-30 08:49:28","1f75c3e559b7213887762d5229550c2b","216.120.189.41","Mozilla/5.0 (Windows NT 10.0; Win64; x64) AppleWebKit/537.36 (KHTML, like Gecko) Chrome/138.0.0.0 Safari/537.36","WebKit","Chrome","138.0.0.0","Windows","10.0","https://app.prolific.com/","en-US,en;q=0.9","6743c8da977b0d274dad1fc2","6877631c9844ddd5501205fc","6889d9d677b77bab800c0a9a","3","1","6743c8da977b0d274dad1fc2","3","1","2025-07-30T09:48:39.951Z","","","","","","","","","","","AttribQ","","50","","","","","","","","","","","","","","","","","","","","","","","","","","","","",""
"2638","","<div style=""width:500px;"">
  <p>How much control did you have over the ball?</p>
  </div>","4","html-slider-response","51","3547443","0.0-5.0-2.8","270","1","2025-07-30 08:49:28","1f75c3e559b7213887762d5229550c2b","216.120.189.41","Mozilla/5.0 (Windows NT 10.0; Win64; x64) AppleWebKit/537.36 (KHTML, like Gecko) Chrome/138.0.0.0 Safari/537.36","WebKit","Chrome","138.0.0.0","Windows","10.0","https://app.prolific.com/","en-US,en;q=0.9","6743c8da977b0d274dad1fc2","6877631c9844ddd5501205fc","6889d9d677b77bab800c0a9a","3","1","6743c8da977b0d274dad1fc2","3","1","2025-07-30T09:48:42.591Z","","","","","","","","","","","ControlQ","","50","","","","","","","","","","","","","","","","","","","","","","","","","","","","",""
"4669","","<div style=""width:500px;"">
  <p>How would you describe your current emotional state?</p>
  </div>","0","html-slider-response","52","3552114","0.0-5.0-3.8","270","1","2025-07-30 08:49:28","1f75c3e559b7213887762d5229550c2b","216.120.189.41","Mozilla/5.0 (Windows NT 10.0; Win64; x64) AppleWebKit/537.36 (KHTML, like Gecko) Chrome/138.0.0.0 Safari/537.36","WebKit","Chrome","138.0.0.0","Windows","10.0","https://app.prolific.com/","en-US,en;q=0.9","6743c8da977b0d274dad1fc2","6877631c9844ddd5501205fc","6889d9d677b77bab800c0a9a","3","1","6743c8da977b0d274dad1fc2","3","1","2025-07-30T09:48:47.262Z","","","","","","","","","","","StressQ","","50","","","","","","","","","","","","","","","","","","","","","","","","","","","","",""
"12001","","<div style=""width:500px;"">
  <p>What best describes how you currently feel?</p>
  </div>","100","html-slider-response","53","3564116","0.0-5.0-4.8","270","1","2025-07-30 08:49:28","1f75c3e559b7213887762d5229550c2b","216.120.189.41","Mozilla/5.0 (Windows NT 10.0; Win64; x64) AppleWebKit/537.36 (KHTML, like Gecko) Chrome/138.0.0.0 Safari/537.36","WebKit","Chrome","138.0.0.0","Windows","10.0","https://app.prolific.com/","en-US,en;q=0.9","6743c8da977b0d274dad1fc2","6877631c9844ddd5501205fc","6889d9d677b77bab800c0a9a","3","1","6743c8da977b0d274dad1fc2","3","1","2025-07-30T09:48:59.264Z","","","","","","","","","","","MotivationQ","","50","","","","","","","","","","","","","","","","","","","","","","","","","","","","",""
"","","","","ctl-task-cpt","54","3718415","0.0-5.0-0.9","270","1","2025-07-30 08:49:28","1f75c3e559b7213887762d5229550c2b","216.120.189.41","Mozilla/5.0 (Windows NT 10.0; Win64; x64) AppleWebKit/537.36 (KHTML, like Gecko) Chrome/138.0.0.0 Safari/537.36","WebKit","Chrome","138.0.0.0","Windows","10.0","https://app.prolific.com/","en-US,en;q=0.9","6743c8da977b0d274dad1fc2","6877631c9844ddd5501205fc","6889d9d677b77bab800c0a9a","3","1","6743c8da977b0d274dad1fc2","3","1","2025-07-30T09:51:33.564Z","","","","","","","","","","","","","","win-only","2","g1:SE,g2:NW","0.4","10","0","3573006.8","93663.3","98677","151263.8","1","4","4","6","2","4","4","10","6","0.07575757575757576","1184.3","3000","215","[""left"",""up""]","{""num_key_presses"":14,""num_perfect"":6,""num_errors"":0,""num_randdir"":8,""num_randdir_good_moves"":5,""num_whilered"":0,""num_whileblue"":0,""num_blue"":3,""num_good_moves"":10}","[261.896875,261.303125,0.8,261.896875,261.303125,101.3,261.896875,261.303125,211.3,261.896875,261.303125,316.9,265.896875,271.303125,424.7,276.896875,279.303125,536.6,9.896875000000001,130.303125,656.2,-16.103125,100.303125,766.5,-34.103125,66.303125,873.8,-7.103124999999999,43.303125,986.3,56.896875,38.303125,1090.6,56.896875,38.303125,1202.1,56.896875,38.303125,1305.9,56.896875,72.303125,1407.7,102.896875,164.303125,1519.7,93.896875,163.303125,1630.7,93.896875,163.303125,1735.9,93.896875,163.303125,1841.5,93.896875,163.303125,1957.9,93.896875,163.303125,2068.8,93.896875,163.303125,2175.5,93.896875,163.303125,2295.1,93.896875,163.303125,2400.8,93.896875,163.303125,2503.1,93.896875,163.303125,2608.1,93.896875,163.303125,2723.1,93.896875,163.303125,2825.6,93.896875,163.303125,2937.1,93.896875,163.303125,3046.7,93.896875,163.303125,3159.6,93.896875,163.303125,3265.9,93.896875,163.303125,3375.8,93.896875,163.303125,3489.1,93.896875,163.303125,3592.3,93.896875,163.303125,3702.6,93.896875,163.303125,3815.6,93.896875,163.303125,3927.3,93.896875,163.303125,4030,93.896875,163.303125,4134.8,93.896875,163.303125,4235.6,93.896875,163.303125,4344.8,93.896875,163.303125,4446.4,93.896875,163.303125,4546.5,93.896875,163.303125,4651.8,93.896875,163.303125,4753.3,93.896875,163.303125,4860.7,93.896875,163.303125,4964.1]","[1442.9,1443,1000,0,443,""oops"",""up"",""left"",""good_move"",5092,3647.3,2264.8,1444.7,1382.5,""smooth"",""left"",""left"",""good_move"",8253.4,3160.8,2312.9,5092.7,847.9,""oops"",""left"",""up"",""good_move"",11199,2944.5,2520,8254.5,424.5,""smooth"",""left"",""left"",""good_move"",18165.9,6966,2554.7,15211.9,399.3,""oops"",""up"",""down"",""bad_move"",21777.4,3610.9,3124.1,18166.5,486.8,""oops"",""right"",""down"",""bad_move"",24909.7,3129.9,2702.6,21779.8,427.3,""oops"",""up"",""up"",""good_move"",28165,3254.7,2006.8,24910.3,1247.9,""smooth"",""right"",""right"",""bad_move"",31201.9,3034.8,2583.3,28167.1,451.5,""smooth"",""up"",""up"",""good_move"",33950.1,2746.5,2318,31203.6,428.5,""oops"",""left"",""right"",""bad_move"",39963,6012.2,2117.9,37409.5,435.6,""oops"",""up"",""up"",""good_move"",43539.7,3575.6,3155.7,39964.1,419.9,""smooth"",""up"",""up"",""good_move"",49325.8,5785.8,1647.2,47174.3,504.3,""oops"",""left"",""left"",""good_move"",52305.1,2978.8,2447.2,49326.4,531.5,""smooth"",""left"",""left"",""good_move""]","",""
"3927","","<div style=""width:500px;"">
  <p>What determined the result of this run?</p>
  </div>","41","html-slider-response","55","3722347","0.0-5.0-1.9","270","1","2025-07-30 08:49:28","1f75c3e559b7213887762d5229550c2b","216.120.189.41","Mozilla/5.0 (Windows NT 10.0; Win64; x64) AppleWebKit/537.36 (KHTML, like Gecko) Chrome/138.0.0.0 Safari/537.36","WebKit","Chrome","138.0.0.0","Windows","10.0","https://app.prolific.com/","en-US,en;q=0.9","6743c8da977b0d274dad1fc2","6877631c9844ddd5501205fc","6889d9d677b77bab800c0a9a","3","1","6743c8da977b0d274dad1fc2","3","1","2025-07-30T09:51:37.495Z","","","","","","","","","","","AttribQ","","50","","","","","","","","","","","","","","","","","","","","","","","","","","","","",""
"6111","","<div style=""width:500px;"">
  <p>How much control did you have over the ball?</p>
  </div>","41","html-slider-response","56","3728459","0.0-5.0-2.9","270","1","2025-07-30 08:49:28","1f75c3e559b7213887762d5229550c2b","216.120.189.41","Mozilla/5.0 (Windows NT 10.0; Win64; x64) AppleWebKit/537.36 (KHTML, like Gecko) Chrome/138.0.0.0 Safari/537.36","WebKit","Chrome","138.0.0.0","Windows","10.0","https://app.prolific.com/","en-US,en;q=0.9","6743c8da977b0d274dad1fc2","6877631c9844ddd5501205fc","6889d9d677b77bab800c0a9a","3","1","6743c8da977b0d274dad1fc2","3","1","2025-07-30T09:51:43.608Z","","","","","","","","","","","ControlQ","","50","","","","","","","","","","","","","","","","","","","","","","","","","","","","",""
"5414","","<div style=""width:500px;"">
  <p>How would you describe your current emotional state?</p>
  </div>","0","html-slider-response","57","3733874","0.0-5.0-3.9","270","1","2025-07-30 08:49:28","1f75c3e559b7213887762d5229550c2b","216.120.189.41","Mozilla/5.0 (Windows NT 10.0; Win64; x64) AppleWebKit/537.36 (KHTML, like Gecko) Chrome/138.0.0.0 Safari/537.36","WebKit","Chrome","138.0.0.0","Windows","10.0","https://app.prolific.com/","en-US,en;q=0.9","6743c8da977b0d274dad1fc2","6877631c9844ddd5501205fc","6889d9d677b77bab800c0a9a","3","1","6743c8da977b0d274dad1fc2","3","1","2025-07-30T09:51:49.022Z","","","","","","","","","","","StressQ","","50","","","","","","","","","","","","","","","","","","","","","","","","","","","","",""
"2927","","<div style=""width:500px;"">
  <p>What best describes how you currently feel?</p>
  </div>","100","html-slider-response","58","3736803","0.0-5.0-4.9","270","1","2025-07-30 08:49:28","1f75c3e559b7213887762d5229550c2b","216.120.189.41","Mozilla/5.0 (Windows NT 10.0; Win64; x64) AppleWebKit/537.36 (KHTML, like Gecko) Chrome/138.0.0.0 Safari/537.36","WebKit","Chrome","138.0.0.0","Windows","10.0","https://app.prolific.com/","en-US,en;q=0.9","6743c8da977b0d274dad1fc2","6877631c9844ddd5501205fc","6889d9d677b77bab800c0a9a","3","1","6743c8da977b0d274dad1fc2","3","1","2025-07-30T09:51:51.951Z","","","","","","","","","","","MotivationQ","","50","","","","","","","","","","","","","","","","","","","","","","","","","","","","",""
"","","","","ctl-task-cpt","59","3783982","0.0-5.0-0.10","270","1","2025-07-30 08:49:28","1f75c3e559b7213887762d5229550c2b","216.120.189.41","Mozilla/5.0 (Windows NT 10.0; Win64; x64) AppleWebKit/537.36 (KHTML, like Gecko) Chrome/138.0.0.0 Safari/537.36","WebKit","Chrome","138.0.0.0","Windows","10.0","https://app.prolific.com/","en-US,en;q=0.9","6743c8da977b0d274dad1fc2","6877631c9844ddd5501205fc","6889d9d677b77bab800c0a9a","3","1","6743c8da977b0d274dad1fc2","3","1","2025-07-30T09:52:39.130Z","","","","","","","","","","","","","","win-only","2","g1:SE,g2:NW","0.5","11","0","3745694.5","1348.1","6370.4","44147.3","1","4","4","6","2","4","4","14","10","0.10606060606060606","1153.5","3000","975","[""left"",""up""]","{""num_key_presses"":10,""num_perfect"":5,""num_errors"":0,""num_randdir"":5,""num_randdir_good_moves"":3,""num_whilered"":0,""num_whileblue"":0,""num_blue"":2,""num_good_moves"":8}","[262.896875,266.303125,0.3,262.896875,266.303125,106.7,262.896875,266.303125,216.3,262.896875,266.303125,327,262.896875,266.303125,431.2,268.896875,267.303125,540.7,238.896875,219.303125,642.6,83.896875,105.303125,744.9,79.896875,95.303125,845.9,73.896875,91.303125,952.3,57.896875,67.303125,1062.7,55.896875,63.303125,1173.6,55.896875,63.303125,1276.3,55.896875,64.303125,1389.7,116.896875,128.303125,1496.9,165.896875,192.303125,1601.9,196.896875,245.303125,1713.1,210.896875,264.303125,1816.8,299.896875,409.303125,1924.4,307.896875,421.303125,2028.5,307.896875,421.303125,2137.1,307.896875,421.303125,2238.3,307.896875,421.303125,2341.5,307.896875,421.303125,2442.7,307.896875,421.303125,2542.9,307.896875,421.303125,2644.3,307.896875,421.303125,2751,307.896875,421.303125,2860.6,307.896875,421.303125,2963.3,307.896875,421.303125,3066.3,307.896875,421.303125,3181.2,307.896875,421.303125,3290.7,307.896875,421.303125,3401,307.896875,421.303125,3508.6,307.896875,421.303125,3610.6,307.896875,421.303125,3715.7,307.896875,421.303125,3822.5,307.896875,421.303125,3926.8,307.896875,421.303125,4030.8,307.896875,421.303125,4133,307.896875,421.303125,4239.7,307.896875,421.303125,4342.8,307.896875,421.303125,4448.2,307.896875,421.303125,4557.6,307.896875,421.303125,4662.2,307.896875,421.303125,4762.7,307.896875,421.303125,4865.8,307.896875,421.303125,4980.6]","[1459,1459,1000,0,459,""smooth"",""up"",""up"",""good_move"",4200.8,2740.4,2390.4,1460.4,350,""smooth"",""up"",""up"",""good_move"",11679.2,7477.2,3216.9,8026.9,435.4,""oops"",""left"",""left"",""good_move"",15340.4,3657.3,3211.1,11683.1,446.2,""oops"",""left"",""right"",""bad_move"",18417.1,3075.6,2543.8,15341.6,531.8,""oops"",""left"",""left"",""good_move"",21780.1,3362.5,2997.6,18417.6,364.9,""oops"",""up"",""down"",""bad_move"",27935.7,6153.9,2251.4,25081.6,602.7,""smooth"",""left"",""left"",""good_move"",30861.9,2925.7,2265.2,27936.2,660.5,""smooth"",""left"",""left"",""good_move"",34532.3,3667.9,3221.5,30864.5,446.3,""smooth"",""up"",""up"",""good_move"",37573,3040.2,2580,34532.8,460.2,""oops"",""up"",""up"",""good_move""]","",""
"2762","","<div style=""width:500px;"">
  <p>What determined the result of this run?</p>
  </div>","53","html-slider-response","60","3786747","0.0-5.0-1.10","270","1","2025-07-30 08:49:28","1f75c3e559b7213887762d5229550c2b","216.120.189.41","Mozilla/5.0 (Windows NT 10.0; Win64; x64) AppleWebKit/537.36 (KHTML, like Gecko) Chrome/138.0.0.0 Safari/537.36","WebKit","Chrome","138.0.0.0","Windows","10.0","https://app.prolific.com/","en-US,en;q=0.9","6743c8da977b0d274dad1fc2","6877631c9844ddd5501205fc","6889d9d677b77bab800c0a9a","3","1","6743c8da977b0d274dad1fc2","3","1","2025-07-30T09:52:41.895Z","","","","","","","","","","","AttribQ","","50","","","","","","","","","","","","","","","","","","","","","","","","","","","","",""
"3702","","<div style=""width:500px;"">
  <p>How much control did you have over the ball?</p>
  </div>","68","html-slider-response","61","3790451","0.0-5.0-2.10","270","1","2025-07-30 08:49:28","1f75c3e559b7213887762d5229550c2b","216.120.189.41","Mozilla/5.0 (Windows NT 10.0; Win64; x64) AppleWebKit/537.36 (KHTML, like Gecko) Chrome/138.0.0.0 Safari/537.36","WebKit","Chrome","138.0.0.0","Windows","10.0","https://app.prolific.com/","en-US,en;q=0.9","6743c8da977b0d274dad1fc2","6877631c9844ddd5501205fc","6889d9d677b77bab800c0a9a","3","1","6743c8da977b0d274dad1fc2","3","1","2025-07-30T09:52:45.599Z","","","","","","","","","","","ControlQ","","50","","","","","","","","","","","","","","","","","","","","","","","","","","","","",""
"3653","","<div style=""width:500px;"">
  <p>How would you describe your current emotional state?</p>
  </div>","0","html-slider-response","62","3794106","0.0-5.0-3.10","270","1","2025-07-30 08:49:28","1f75c3e559b7213887762d5229550c2b","216.120.189.41","Mozilla/5.0 (Windows NT 10.0; Win64; x64) AppleWebKit/537.36 (KHTML, like Gecko) Chrome/138.0.0.0 Safari/537.36","WebKit","Chrome","138.0.0.0","Windows","10.0","https://app.prolific.com/","en-US,en;q=0.9","6743c8da977b0d274dad1fc2","6877631c9844ddd5501205fc","6889d9d677b77bab800c0a9a","3","1","6743c8da977b0d274dad1fc2","3","1","2025-07-30T09:52:49.254Z","","","","","","","","","","","StressQ","","50","","","","","","","","","","","","","","","","","","","","","","","","","","","","",""
"3318","","<div style=""width:500px;"">
  <p>What best describes how you currently feel?</p>
  </div>","100","html-slider-response","63","3797426","0.0-5.0-4.10","270","1","2025-07-30 08:49:28","1f75c3e559b7213887762d5229550c2b","216.120.189.41","Mozilla/5.0 (Windows NT 10.0; Win64; x64) AppleWebKit/537.36 (KHTML, like Gecko) Chrome/138.0.0.0 Safari/537.36","WebKit","Chrome","138.0.0.0","Windows","10.0","https://app.prolific.com/","en-US,en;q=0.9","6743c8da977b0d274dad1fc2","6877631c9844ddd5501205fc","6889d9d677b77bab800c0a9a","3","1","6743c8da977b0d274dad1fc2","3","1","2025-07-30T09:52:52.574Z","","","","","","","","","","","MotivationQ","","50","","","","","","","","","","","","","","","","","","","","","","","","","","","","",""
"","","","","ctl-task-cpt","64","3866580","0.0-5.0-0.11","270","1","2025-07-30 08:49:28","1f75c3e559b7213887762d5229550c2b","216.120.189.41","Mozilla/5.0 (Windows NT 10.0; Win64; x64) AppleWebKit/537.36 (KHTML, like Gecko) Chrome/138.0.0.0 Safari/537.36","WebKit","Chrome","138.0.0.0","Windows","10.0","https://app.prolific.com/","en-US,en;q=0.9","6743c8da977b0d274dad1fc2","6877631c9844ddd5501205fc","6889d9d677b77bab800c0a9a","3","1","6743c8da977b0d274dad1fc2","3","1","2025-07-30T09:54:01.728Z","","","","","","","","","","","","","","win-only","3","g1:SW,g2:NE","0.6","12","0","3806314.6","1472.1","6485.1","66127.4","1","4","8","6","2","-8","-9","5","14","0.03787878787878788","1145.4","3000","-1180","[""up"",""right""]","{""num_key_presses"":15,""num_perfect"":8,""num_errors"":1,""num_randdir"":6,""num_randdir_good_moves"":3,""num_whilered"":0,""num_whileblue"":1,""num_blue"":4,""num_good_moves"":10}","[259.896875,262.303125,0.4,259.896875,262.303125,110,259.896875,262.303125,215.7,259.896875,262.303125,326.5,258.896875,262.303125,433.4,239.896875,253.303125,547.6,370.896875,166.303125,648.4,444.896875,103.303125,756.4,460.896875,100.303125,867,470.896875,83.303125,967.4,485.896875,60.303125,1069.8,486.896875,53.303125,1169.9,486.896875,53.303125,1279.1,474.896875,59.303125,1387.8,389.896875,141.303125,1501.2,267.896875,241.303125,1602.9,226.896875,293.303125,1714,221.896875,296.303125,1824.1,221.896875,296.303125,1927.7,221.896875,296.303125,2036.3,221.896875,296.303125,2140.2,221.896875,296.303125,2245.5,221.896875,296.303125,2351.4,221.896875,296.303125,2459.7,221.896875,296.303125,2566.8,221.896875,296.303125,2681.1,221.896875,296.303125,2785.6,221.896875,296.303125,2889.8,221.896875,296.303125,3000.6,221.896875,296.303125,3103.1,221.896875,296.303125,3203.2,221.896875,296.303125,3310,221.896875,296.303125,3410.5,221.896875,296.303125,3515.4,221.896875,296.303125,3627.1,221.896875,296.303125,3732.6,221.896875,296.303125,3832.9,221.896875,296.303125,3939.5,221.896875,296.303125,4041.3,221.896875,296.303125,4142.3,221.896875,296.303125,4249.4,221.896875,296.303125,4350.5,221.896875,296.303125,4452.7,221.896875,296.303125,4558.2,221.896875,296.303125,4669.2,221.896875,296.303125,4781,221.896875,296.303125,4892.5]","[1649.9,1649.9,1000,0,649.9,""smooth"",""right"",""right"",""good_move"",4429.3,2777.5,2386.5,1651.8,391,""smooth"",""right"",""right"",""good_move"",11516.9,7086.9,2694,8372,451,""smooth"",""right"",""right"",""good_move"",19130.9,7612.9,2796.4,15926.4,408.1,""oops"",""up"",""up"",""good_move"",26186,7054.2,3143.8,22695.4,346.8,""while_blue"",""up"",""down"",""bad_move"",29128.1,2941.5,2481.9,26186.6,459.6,""oops"",""up"",""down"",""bad_move"",32417.2,3288.7,2044.3,29128.5,1244.5,""smooth"",""down"",""down"",""bad_move"",34827.1,2409.2,1760.8,32417.9,648.4,""oops"",""up"",""left"",""bad_move"",38163,3334.4,2891.7,34828.6,442.7,""oops"",""up"",""right"",""good_move"",41378.5,3214.8,2764,38163.7,450.8,""smooth"",""up"",""up"",""good_move"",44307.6,2926.9,2196.2,41380.7,730.7,""smooth"",""up"",""up"",""good_move"",47631.3,3322.7,2850.9,44308.6,471.8,""smooth"",""up"",""up"",""good_move"",50669.3,3037.4,2511.1,47631.9,526.3,""smooth"",""up"",""up"",""good_move"",54150.8,3479.8,3090.8,50671.1,389,""oops"",""up"",""left"",""bad_move"",56809.7,2657.7,2142.9,54152,514.8,""oops"",""up"",""up"",""good_move""]","",""
"4547","","<div style=""width:500px;"">
  <p>What determined the result of this run?</p>
  </div>","0","html-slider-response","65","3871130","0.0-5.0-1.11","270","1","2025-07-30 08:49:28","1f75c3e559b7213887762d5229550c2b","216.120.189.41","Mozilla/5.0 (Windows NT 10.0; Win64; x64) AppleWebKit/537.36 (KHTML, like Gecko) Chrome/138.0.0.0 Safari/537.36","WebKit","Chrome","138.0.0.0","Windows","10.0","https://app.prolific.com/","en-US,en;q=0.9","6743c8da977b0d274dad1fc2","6877631c9844ddd5501205fc","6889d9d677b77bab800c0a9a","3","1","6743c8da977b0d274dad1fc2","3","1","2025-07-30T09:54:06.278Z","","","","","","","","","","","AttribQ","","50","","","","","","","","","","","","","","","","","","","","","","","","","","","","",""
"7352","","<div style=""width:500px;"">
  <p>How much control did you have over the ball?</p>
  </div>","28","html-slider-response","66","3878485","0.0-5.0-2.11","270","1","2025-07-30 08:49:28","1f75c3e559b7213887762d5229550c2b","216.120.189.41","Mozilla/5.0 (Windows NT 10.0; Win64; x64) AppleWebKit/537.36 (KHTML, like Gecko) Chrome/138.0.0.0 Safari/537.36","WebKit","Chrome","138.0.0.0","Windows","10.0","https://app.prolific.com/","en-US,en;q=0.9","6743c8da977b0d274dad1fc2","6877631c9844ddd5501205fc","6889d9d677b77bab800c0a9a","3","1","6743c8da977b0d274dad1fc2","3","1","2025-07-30T09:54:13.633Z","","","","","","","","","","","ControlQ","","50","","","","","","","","","","","","","","","","","","","","","","","","","","","","",""
"3875","","<div style=""width:500px;"">
  <p>How would you describe your current emotional state?</p>
  </div>","0","html-slider-response","67","3882362","0.0-5.0-3.11","270","1","2025-07-30 08:49:28","1f75c3e559b7213887762d5229550c2b","216.120.189.41","Mozilla/5.0 (Windows NT 10.0; Win64; x64) AppleWebKit/537.36 (KHTML, like Gecko) Chrome/138.0.0.0 Safari/537.36","WebKit","Chrome","138.0.0.0","Windows","10.0","https://app.prolific.com/","en-US,en;q=0.9","6743c8da977b0d274dad1fc2","6877631c9844ddd5501205fc","6889d9d677b77bab800c0a9a","3","1","6743c8da977b0d274dad1fc2","3","1","2025-07-30T09:54:17.511Z","","","","","","","","","","","StressQ","","50","","","","","","","","","","","","","","","","","","","","","","","","","","","","",""
"8430","","<div style=""width:500px;"">
  <p>What best describes how you currently feel?</p>
  </div>","100","html-slider-response","68","3890795","0.0-5.0-4.11","270","1","2025-07-30 08:49:28","1f75c3e559b7213887762d5229550c2b","216.120.189.41","Mozilla/5.0 (Windows NT 10.0; Win64; x64) AppleWebKit/537.36 (KHTML, like Gecko) Chrome/138.0.0.0 Safari/537.36","WebKit","Chrome","138.0.0.0","Windows","10.0","https://app.prolific.com/","en-US,en;q=0.9","6743c8da977b0d274dad1fc2","6877631c9844ddd5501205fc","6889d9d677b77bab800c0a9a","3","1","6743c8da977b0d274dad1fc2","3","1","2025-07-30T09:54:25.944Z","","","","","","","","","","","MotivationQ","","50","","","","","","","","","","","","","","","","","","","","","","","","","","","","",""
"","","","","ctl-task-cpt","69","3988968","0.0-5.0-0.12","270","1","2025-07-30 08:49:28","1f75c3e559b7213887762d5229550c2b","216.120.189.41","Mozilla/5.0 (Windows NT 10.0; Win64; x64) AppleWebKit/537.36 (KHTML, like Gecko) Chrome/138.0.0.0 Safari/537.36","WebKit","Chrome","138.0.0.0","Windows","10.0","https://app.prolific.com/","en-US,en;q=0.9","6743c8da977b0d274dad1fc2","6877631c9844ddd5501205fc","6889d9d677b77bab800c0a9a","3","1","6743c8da977b0d274dad1fc2","3","1","2025-07-30T09:56:04.116Z","","","","","","","","","","","","","","win-only","1","g1:NE,g2:SW","0.7","13","0","3899686.1","42757.4","47767.4","95139.3","1","4","8","6","2","8","7","12","5","0.09090909090909091","1258.8","3000","680","[""down"",""left""]","{""num_key_presses"":14,""num_perfect"":10,""num_errors"":1,""num_randdir"":3,""num_randdir_good_moves"":1,""num_whilered"":0,""num_whileblue"":1,""num_blue"":3,""num_good_moves"":10}","[253.896875,259.303125,1,253.896875,259.303125,105.3,253.896875,259.303125,208.6,253.896875,259.303125,310.8,253.896875,259.303125,414.6,257.896875,257.303125,521.6,196.896875,265.303125,623.6,60.896875,354.303125,738.3,58.896875,379.303125,848.4,56.896875,407.303125,959.7,40.896875,468.303125,1078.7,30.896875,484.303125,1193.5,30.896875,484.303125,1294.4,30.896875,484.303125,1403.1,29.896875,484.303125,1526.7,28.896875,484.303125,1647.7,28.896875,484.303125,1752.7,28.896875,484.303125,1870.7,28.896875,484.303125,1986.6,28.896875,484.303125,2088.1,42.896875,479.303125,2203.7,56.896875,476.303125,2323.9,71.896875,475.303125,2435.3,138.896875,489.303125,2554.8,238.896875,496.303125,2668.4,334.896875,491.303125,2783.5,485.896875,463.303125,2887.9,589.896875,440.303125,3006.3,596.896875,434.303125,3115.3,596.896875,434.303125,3231,596.896875,434.303125,3337.1,596.896875,434.303125,3466.4,596.896875,434.303125,3570,597.896875,434.303125,3683.5,597.896875,434.303125,3786.9,597.896875,434.303125,3896.3,597.896875,434.303125,4017.1,597.896875,434.303125,4120.4,597.896875,434.303125,4233.6,597.896875,434.303125,4344.4,597.896875,434.303125,4451.3,597.896875,434.303125,4555.6,597.896875,434.303125,4655.6,597.896875,434.303125,4759.5,597.896875,434.303125,4872.1,597.896875,434.303125,4984]","[1436.7,1436.7,1000,0,436.7,""oops"",""down"",""up"",""bad_move"",3728.5,2290.3,1806.7,1438.2,483.6,""smooth"",""up"",""up"",""bad_move"",7136.3,3407.5,3018,3728.8,389.5,""while_blue"",""left"",""down"",""good_move"",13446.6,6309.3,2072.4,10904.5,469.7,""smooth"",""left"",""left"",""good_move"",16368.9,2921,2420.8,13447.9,500.2,""oops"",""left"",""up"",""bad_move"",19375.2,3005.6,2201.5,16369.6,804.1,""smooth"",""left"",""left"",""good_move"",22695.5,3319.2,2592.2,19376.3,727,""smooth"",""down"",""down"",""good_move"",29122.3,6425.2,2582.6,26057.6,482.1,""smooth"",""left"",""left"",""good_move"",32877.7,3753.4,3280.6,29124.3,472.8,""oops"",""down"",""down"",""good_move"",35738.3,2858.2,2430.3,32880.5,427.5,""smooth"",""right"",""right"",""bad_move"",38157.8,2418.5,1995.8,35739.3,422.7,""smooth"",""down"",""down"",""good_move"",41218.6,3060.5,2668.5,38158.2,391.9,""smooth"",""left"",""left"",""good_move"",44341.1,3122.3,2753.5,41218.8,368.8,""smooth"",""down"",""down"",""good_move"",46994.9,2652.2,2238.2,44342.9,413.9,""smooth"",""down"",""down"",""good_move""]","",""
"3041","","<div style=""width:500px;"">
  <p>What determined the result of this run?</p>
  </div>","100","html-slider-response","70","3992011","0.0-5.0-1.12","270","1","2025-07-30 08:49:28","1f75c3e559b7213887762d5229550c2b","216.120.189.41","Mozilla/5.0 (Windows NT 10.0; Win64; x64) AppleWebKit/537.36 (KHTML, like Gecko) Chrome/138.0.0.0 Safari/537.36","WebKit","Chrome","138.0.0.0","Windows","10.0","https://app.prolific.com/","en-US,en;q=0.9","6743c8da977b0d274dad1fc2","6877631c9844ddd5501205fc","6889d9d677b77bab800c0a9a","3","1","6743c8da977b0d274dad1fc2","3","1","2025-07-30T09:56:07.159Z","","","","","","","","","","","AttribQ","","50","","","","","","","","","","","","","","","","","","","","","","","","","","","","",""
"2372","","<div style=""width:500px;"">
  <p>How much control did you have over the ball?</p>
  </div>","81","html-slider-response","71","3994387","0.0-5.0-2.12","270","1","2025-07-30 08:49:28","1f75c3e559b7213887762d5229550c2b","216.120.189.41","Mozilla/5.0 (Windows NT 10.0; Win64; x64) AppleWebKit/537.36 (KHTML, like Gecko) Chrome/138.0.0.0 Safari/537.36","WebKit","Chrome","138.0.0.0","Windows","10.0","https://app.prolific.com/","en-US,en;q=0.9","6743c8da977b0d274dad1fc2","6877631c9844ddd5501205fc","6889d9d677b77bab800c0a9a","3","1","6743c8da977b0d274dad1fc2","3","1","2025-07-30T09:56:09.535Z","","","","","","","","","","","ControlQ","","50","","","","","","","","","","","","","","","","","","","","","","","","","","","","",""
"3334","","<div style=""width:500px;"">
  <p>How would you describe your current emotional state?</p>
  </div>","0","html-slider-response","72","3997723","0.0-5.0-3.12","270","1","2025-07-30 08:49:28","1f75c3e559b7213887762d5229550c2b","216.120.189.41","Mozilla/5.0 (Windows NT 10.0; Win64; x64) AppleWebKit/537.36 (KHTML, like Gecko) Chrome/138.0.0.0 Safari/537.36","WebKit","Chrome","138.0.0.0","Windows","10.0","https://app.prolific.com/","en-US,en;q=0.9","6743c8da977b0d274dad1fc2","6877631c9844ddd5501205fc","6889d9d677b77bab800c0a9a","3","1","6743c8da977b0d274dad1fc2","3","1","2025-07-30T09:56:12.871Z","","","","","","","","","","","StressQ","","50","","","","","","","","","","","","","","","","","","","","","","","","","","","","",""
"3830","","<div style=""width:500px;"">
  <p>What best describes how you currently feel?</p>
  </div>","100","html-slider-response","73","4001555","0.0-5.0-4.12","270","1","2025-07-30 08:49:28","1f75c3e559b7213887762d5229550c2b","216.120.189.41","Mozilla/5.0 (Windows NT 10.0; Win64; x64) AppleWebKit/537.36 (KHTML, like Gecko) Chrome/138.0.0.0 Safari/537.36","WebKit","Chrome","138.0.0.0","Windows","10.0","https://app.prolific.com/","en-US,en;q=0.9","6743c8da977b0d274dad1fc2","6877631c9844ddd5501205fc","6889d9d677b77bab800c0a9a","3","1","6743c8da977b0d274dad1fc2","3","1","2025-07-30T09:56:16.703Z","","","","","","","","","","","MotivationQ","","50","","","","","","","","","","","","","","","","","","","","","","","","","","","","",""
"","","","","ctl-task-cpt","74","4035164","0.0-5.0-0.13","270","1","2025-07-30 08:49:28","1f75c3e559b7213887762d5229550c2b","216.120.189.41","Mozilla/5.0 (Windows NT 10.0; Win64; x64) AppleWebKit/537.36 (KHTML, like Gecko) Chrome/138.0.0.0 Safari/537.36","WebKit","Chrome","138.0.0.0","Windows","10.0","https://app.prolific.com/","en-US,en;q=0.9","6743c8da977b0d274dad1fc2","6877631c9844ddd5501205fc","6889d9d677b77bab800c0a9a","3","1","6743c8da977b0d274dad1fc2","3","1","2025-07-30T09:56:50.312Z","","","","","","","","","","","","","","win-only","2","g1:SE,g2:NW","0.8","14","0","4010445.7","1223.5","6227.5","30573.2","1","4","4","6","2","4","4","16","12","0.12121212121212122","1157.3","3000","2015","[""left"",""up""]","{""num_key_presses"":6,""num_perfect"":5,""num_errors"":0,""num_randdir"":1,""num_randdir_good_moves"":1,""num_whilered"":0,""num_whileblue"":0,""num_blue"":2,""num_good_moves"":6}","[261.896875,260.303125,0.5,261.896875,260.303125,104.6,261.896875,260.303125,210.7,255.896875,260.303125,311.5,250.896875,280.303125,413.2,254.896875,271.303125,519.8,159.896875,149.303125,622.2,111.896875,93.303125,724.6,109.896875,90.303125,830.2,86.896875,73.303125,934.7,62.896875,58.303125,1037.6,61.896875,56.303125,1144.9,61.896875,56.303125,1255.1,73.896875,64.303125,1359.3,145.896875,126.303125,1462.6,221.896875,232.303125,1568.6,250.896875,295.303125,1672.2,255.896875,298.303125,1776.6,255.896875,299.303125,1878.2,279.896875,349.303125,1988.6,279.896875,349.303125,2091.7,279.896875,349.303125,2201.9,279.896875,349.303125,2308.4,279.896875,349.303125,2412.9,279.896875,349.303125,2523.1,280.896875,349.303125,2626.8,280.896875,349.303125,2732.5,280.896875,349.303125,2840.1,280.896875,349.303125,2952.4,280.896875,349.303125,3060.8,280.896875,349.303125,3170.6,280.896875,349.303125,3274.5,280.896875,349.303125,3376.1,280.896875,349.303125,3481.6,280.896875,349.303125,3590.7,280.896875,349.303125,3699.8,280.896875,349.303125,3802,280.896875,349.303125,3904.9,280.896875,349.303125,4007.2,280.896875,349.303125,4124,280.896875,349.303125,4237.9,280.896875,349.303125,4342.3,280.896875,349.303125,4448,280.896875,349.303125,4556.7,280.896875,349.303125,4669.1,280.896875,349.303125,4782,280.896875,349.303125,4882.8,280.896875,349.303125,4985]","[1464.5,1464.6,1000,0,464.6,""smooth"",""up"",""up"",""good_move"",4479.6,3013.9,2286.3,1465.7,727.7,""smooth"",""left"",""left"",""good_move"",7725.5,3242.3,2857.7,4483.2,384.6,""oops"",""up"",""up"",""good_move"",10996.8,3269,2867.5,7727.8,401.5,""smooth"",""left"",""left"",""good_move"",21373.2,10374.9,1990.5,18898.4,484.4,""smooth"",""up"",""up"",""good_move"",24135.4,2761.9,2044.1,21373.5,717.8,""smooth"",""left"",""left"",""good_move""]","",""
"2588","","<div style=""width:500px;"">
  <p>What determined the result of this run?</p>
  </div>","100","html-slider-response","75","4037755","0.0-5.0-1.13","270","1","2025-07-30 08:49:28","1f75c3e559b7213887762d5229550c2b","216.120.189.41","Mozilla/5.0 (Windows NT 10.0; Win64; x64) AppleWebKit/537.36 (KHTML, like Gecko) Chrome/138.0.0.0 Safari/537.36","WebKit","Chrome","138.0.0.0","Windows","10.0","https://app.prolific.com/","en-US,en;q=0.9","6743c8da977b0d274dad1fc2","6877631c9844ddd5501205fc","6889d9d677b77bab800c0a9a","3","1","6743c8da977b0d274dad1fc2","3","1","2025-07-30T09:56:52.903Z","","","","","","","","","","","AttribQ","","50","","","","","","","","","","","","","","","","","","","","","","","","","","","","",""
"2677","","<div style=""width:500px;"">
  <p>How much control did you have over the ball?</p>
  </div>","100","html-slider-response","76","4040435","0.0-5.0-2.13","270","1","2025-07-30 08:49:28","1f75c3e559b7213887762d5229550c2b","216.120.189.41","Mozilla/5.0 (Windows NT 10.0; Win64; x64) AppleWebKit/537.36 (KHTML, like Gecko) Chrome/138.0.0.0 Safari/537.36","WebKit","Chrome","138.0.0.0","Windows","10.0","https://app.prolific.com/","en-US,en;q=0.9","6743c8da977b0d274dad1fc2","6877631c9844ddd5501205fc","6889d9d677b77bab800c0a9a","3","1","6743c8da977b0d274dad1fc2","3","1","2025-07-30T09:56:55.584Z","","","","","","","","","","","ControlQ","","50","","","","","","","","","","","","","","","","","","","","","","","","","","","","",""
"3956","","<div style=""width:500px;"">
  <p>How would you describe your current emotional state?</p>
  </div>","0","html-slider-response","77","4044395","0.0-5.0-3.13","270","1","2025-07-30 08:49:28","1f75c3e559b7213887762d5229550c2b","216.120.189.41","Mozilla/5.0 (Windows NT 10.0; Win64; x64) AppleWebKit/537.36 (KHTML, like Gecko) Chrome/138.0.0.0 Safari/537.36","WebKit","Chrome","138.0.0.0","Windows","10.0","https://app.prolific.com/","en-US,en;q=0.9","6743c8da977b0d274dad1fc2","6877631c9844ddd5501205fc","6889d9d677b77bab800c0a9a","3","1","6743c8da977b0d274dad1fc2","3","1","2025-07-30T09:56:59.543Z","","","","","","","","","","","StressQ","","50","","","","","","","","","","","","","","","","","","","","","","","","","","","","",""
"2159","","<div style=""width:500px;"">
  <p>What best describes how you currently feel?</p>
  </div>","100","html-slider-response","78","4046555","0.0-5.0-4.13","270","1","2025-07-30 08:49:28","1f75c3e559b7213887762d5229550c2b","216.120.189.41","Mozilla/5.0 (Windows NT 10.0; Win64; x64) AppleWebKit/537.36 (KHTML, like Gecko) Chrome/138.0.0.0 Safari/537.36","WebKit","Chrome","138.0.0.0","Windows","10.0","https://app.prolific.com/","en-US,en;q=0.9","6743c8da977b0d274dad1fc2","6877631c9844ddd5501205fc","6889d9d677b77bab800c0a9a","3","1","6743c8da977b0d274dad1fc2","3","1","2025-07-30T09:57:01.703Z","","","","","","","","","","","MotivationQ","","50","","","","","","","","","","","","","","","","","","","","","","","","","","","","",""
"","","","","ctl-task-cpt","79","4079663","0.0-5.0-0.14","270","1","2025-07-30 08:49:28","1f75c3e559b7213887762d5229550c2b","216.120.189.41","Mozilla/5.0 (Windows NT 10.0; Win64; x64) AppleWebKit/537.36 (KHTML, like Gecko) Chrome/138.0.0.0 Safari/537.36","WebKit","Chrome","138.0.0.0","Windows","10.0","https://app.prolific.com/","en-US,en;q=0.9","6743c8da977b0d274dad1fc2","6877631c9844ddd5501205fc","6889d9d677b77bab800c0a9a","3","1","6743c8da977b0d274dad1fc2","3","1","2025-07-30T09:57:34.811Z","","","","","","","","","","","","","","win-only","0","g1:NW,g2:SE","0.9","15","0","4055445.1","1288.9","6296","30082.7","1","4","4","6","2","4","3","19","16","0.14393939393939395","1350.3","3000","1885","[""down"",""right""]","{""num_key_presses"":7,""num_perfect"":5,""num_errors"":1,""num_randdir"":1,""num_randdir_good_moves"":1,""num_whilered"":0,""num_whileblue"":0,""num_blue"":1,""num_good_moves"":6}","[264.896875,268.303125,0.5,264.896875,268.303125,115.6,264.896875,268.303125,219.3,264.896875,268.303125,320.9,264.896875,268.303125,428.2,264.896875,268.303125,530,269.896875,341.303125,637.8,386.896875,396.303125,739.5,396.896875,405.303125,843.8,420.896875,440.303125,952.6,420.896875,440.303125,1059.7,446.896875,450.303125,1165.7,465.896875,454.303125,1274.2,472.896875,456.303125,1374.8,472.896875,456.303125,1488.4,472.896875,456.303125,1594.4,472.896875,456.303125,1704.7,472.896875,456.303125,1808,472.896875,456.303125,1908.9,472.896875,456.303125,2012.9,472.896875,456.303125,2122,472.896875,456.303125,2228.1,472.896875,456.303125,2339,472.896875,456.303125,2439.7,472.896875,456.303125,2546.7,472.896875,456.303125,2652.8,472.896875,456.303125,2753.5,472.896875,456.303125,2865.6,472.896875,456.303125,2971.3,472.896875,456.303125,3076.3,472.896875,456.303125,3186.7,472.896875,456.303125,3290.6,413.896875,455.303125,3397.1,367.896875,447.303125,3510.7,361.896875,436.303125,3623.7,361.896875,436.303125,3723.8,360.896875,435.303125,3826.5,360.896875,435.303125,3930.1,360.896875,435.303125,4039.2,360.896875,435.303125,4142.3,360.896875,435.303125,4245.4,360.896875,435.303125,4355,360.896875,435.303125,4466,360.896875,435.303125,4572.9,349.896875,429.303125,4681.5,273.896875,385.303125,4787.8,243.896875,344.303125,4888.4,215.896875,306.303125,4993.4]","[1941.1,1941.1,1000,0,941.1,""smooth"",""down"",""down"",""good_move"",8247.4,6305.7,2719.9,5130.7,396.8,""smooth"",""down"",""down"",""good_move"",11160.9,2913,2072.5,8247.9,840.5,""oops"",""right"",""right"",""good_move"",13315,2152.9,2264.6,11162.1,-111.7,""error"",""-"",""-"",""no_move"",17502.9,4186.6,2692.6,14326.9,483.5,""smooth"",""down"",""down"",""good_move"",20483.4,2977.1,2473.9,17506.3,503.2,""smooth"",""right"",""right"",""good_move"",23483.8,2999.8,2540.1,20484,459.7,""smooth"",""right"",""right"",""good_move""]","",""
"3571","","<div style=""width:500px;"">
  <p>What determined the result of this run?</p>
  </div>","100","html-slider-response","80","4083236","0.0-5.0-1.14","270","1","2025-07-30 08:49:28","1f75c3e559b7213887762d5229550c2b","216.120.189.41","Mozilla/5.0 (Windows NT 10.0; Win64; x64) AppleWebKit/537.36 (KHTML, like Gecko) Chrome/138.0.0.0 Safari/537.36","WebKit","Chrome","138.0.0.0","Windows","10.0","https://app.prolific.com/","en-US,en;q=0.9","6743c8da977b0d274dad1fc2","6877631c9844ddd5501205fc","6889d9d677b77bab800c0a9a","3","1","6743c8da977b0d274dad1fc2","3","1","2025-07-30T09:57:38.384Z","","","","","","","","","","","AttribQ","","50","","","","","","","","","","","","","","","","","","","","","","","","","","","","",""
"2238","","<div style=""width:500px;"">
  <p>How much control did you have over the ball?</p>
  </div>","88","html-slider-response","81","4085476","0.0-5.0-2.14","270","1","2025-07-30 08:49:28","1f75c3e559b7213887762d5229550c2b","216.120.189.41","Mozilla/5.0 (Windows NT 10.0; Win64; x64) AppleWebKit/537.36 (KHTML, like Gecko) Chrome/138.0.0.0 Safari/537.36","WebKit","Chrome","138.0.0.0","Windows","10.0","https://app.prolific.com/","en-US,en;q=0.9","6743c8da977b0d274dad1fc2","6877631c9844ddd5501205fc","6889d9d677b77bab800c0a9a","3","1","6743c8da977b0d274dad1fc2","3","1","2025-07-30T09:57:40.624Z","","","","","","","","","","","ControlQ","","50","","","","","","","","","","","","","","","","","","","","","","","","","","","","",""
"2646","","<div style=""width:500px;"">
  <p>How would you describe your current emotional state?</p>
