"rt","response_timestamp","stimulus","response","trial_type","trial_index","time_elapsed","internal_node_id","run_id","condition","recorded_at","source_code_version","ip","user_agent","device","browser","browser_version","platform","platform_version","referer","accept_language","PROLIFIC_PID","STUDY_ID","SESSION_ID","WEEK","BATCH","prolific_id","week","batch","realtime","success","responses","item_order","radio_event_ids","radio_event_times","key_event_times","mouse_event_times","straightlining","zigzagging","honeypot","eventType","view_history","slider_start","which_type","canvas_config","goals_layout","control_level","trial_number","tutorial_trial_number","trial_start_time","phase1_start_time","phase2_start_time","phase3_start_time","goal_1_value","goal_1_distance","goal_2_value","goal_2_distance","goal_selected","outcome","outcome_total","participant_final_score","participant_initial_score","participant_final_score_prop","goal_choice_rt","allocated_time","allocated_time_remaining","goal_direction","counts","mouse_movements","key_presses","question_order","question_id"
"20019","1752691942563","<p style='font-size:40px;line-height:1.25'><strong>Welcome to the experiment!</strong></p><p style='font-size:1.1em;line-height:1.25'>Thank you for participanting in our experiment again! You will be asked to play the Dysfunctional Ball Game again. We will briefly recap the rules before we start.</p><p style='font-size:1.1em;line-height:1.25'>Press <strong>Next</strong> to continue.</p>","0","custom-html-button-response","0","20023","0.0-0.0","125","1","2025-07-16 18:51:56","1f75c3e559b7213887762d5229550c2b","216.120.189.119","Mozilla/5.0 (Windows NT 10.0; Win64; x64) AppleWebKit/537.36 (KHTML, like Gecko) Chrome/138.0.0.0 Safari/537.36","WebKit","Chrome","138.0.0.0","Windows","10.0","https://app.prolific.com/","en-US,en;q=0.9","669c1e1fdb95a995eb1d3077","68764874ac79eee8c1d4cb03","6877f490f7896aa95302a383","2","0","669c1e1fdb95a995eb1d3077","2","0","2025-07-16T18:52:22.565Z","","","","","","","","","","","","","","","","","","","","","","","","","","","","","","","","","","","","","","","","","",""
"5294","","","","fullscreen","1","26327","0.0-1.0","125","1","2025-07-16 18:51:56","1f75c3e559b7213887762d5229550c2b","216.120.189.119","Mozilla/5.0 (Windows NT 10.0; Win64; x64) AppleWebKit/537.36 (KHTML, like Gecko) Chrome/138.0.0.0 Safari/537.36","WebKit","Chrome","138.0.0.0","Windows","10.0","https://app.prolific.com/","en-US,en;q=0.9","669c1e1fdb95a995eb1d3077","68764874ac79eee8c1d4cb03","6877f490f7896aa95302a383","2","0","669c1e1fdb95a995eb1d3077","2","0","","true","","","","","","","","","","","","","","","","","","","","","","","","","","","","","","","","","","","","","","","","",""
"5984","1752691954854","<p style='font-size:1.1em;line-height:1.25'>In the following, we will ask you a few questions relating to your feelings in the last 24 hours.<br></p><p style='font-size:1.1em;line-height:1.25'>Press the <strong>Next</strong> button to continue.</p>","0","custom-html-button-response","2","32313","0.0-2.0-0.0","125","1","2025-07-16 18:51:56","1f75c3e559b7213887762d5229550c2b","216.120.189.119","Mozilla/5.0 (Windows NT 10.0; Win64; x64) AppleWebKit/537.36 (KHTML, like Gecko) Chrome/138.0.0.0 Safari/537.36","WebKit","Chrome","138.0.0.0","Windows","10.0","https://app.prolific.com/","en-US,en;q=0.9","669c1e1fdb95a995eb1d3077","68764874ac79eee8c1d4cb03","6877f490f7896aa95302a383","2","0","669c1e1fdb95a995eb1d3077","2","0","2025-07-16T18:52:34.855Z","","","","","","","","","","","","","","","","","","","","","","","","","","","","","","","","","","","","","","","","","",""
"103858.70000000298","","","","survey-template","3","136179","0.0-2.0-1.0","125","1","2025-07-16 18:51:56","1f75c3e559b7213887762d5229550c2b","216.120.189.119","Mozilla/5.0 (Windows NT 10.0; Win64; x64) AppleWebKit/537.36 (KHTML, like Gecko) Chrome/138.0.0.0 Safari/537.36","WebKit","Chrome","138.0.0.0","Windows","10.0","https://app.prolific.com/","en-US,en;q=0.9","669c1e1fdb95a995eb1d3077","68764874ac79eee8c1d4cb03","6877f490f7896aa95302a383","2","0","669c1e1fdb95a995eb1d3077","2","0","2025-07-16T18:54:18.721Z","","{""Q01"":""0"",""Q02"":""0"",""Q03"":""0"",""Q04"":""0"",""Q05"":""1"",""Q06"":""0"",""Q07"":""0"",""Q08"":""0"",""Q09"":""0"",""Q10"":""0"",""Q11"":""1"",""Q12"":""0"",""Q13"":""5"",""Q14"":""1"",""Q15"":""0"",""Q16"":""0"",""Q17"":""3"",""Q18"":""0"",""Q19"":""0"",""Q20"":""0"",""Q21"":""0"",""Q22"":""0""}","[0,1,2,3,4,5,6,7,8,9,10,11,12,13,14,15,16,17,18,19,20,21]","[""Q01"",""Q02"",""Q03"",""Q04"",""Q05"",""Q06"",""Q07"",""Q08"",""Q09"",""Q11"",""Q12"",""Q13"",""Q14"",""Q15"",""Q16"",""Q17"",""Q18"",""Q19"",""Q20"",""Q21"",""Q22"",""Q10""]","[4070.4000000059605,6055,8610.40000000596,14347,15189.59999999404,18279.90000000596,20024,22932.90000000596,25774.59999999404,46156.5,49547.5,51556,57096.70000000298,62073.59999999404,67554.59999999404,70508.40000000596,72734.40000000596,76794.40000000596,79620.70000000298,81214.5,84034.5,90823.5]","[]","[0.20000000298023224,4070.4000000059605,5550.5999999940395,6055,8610.40000000596,14347,15189.59999999404,18279.90000000596,20024,22932.90000000596,25774.59999999404,28677.5,36586.5,46156.5,49547.5,51556,55842.20000000298,57096.70000000298,60788.20000000298,62073.59999999404,67554.59999999404,70508.40000000596,72734.40000000596,76072.40000000596,76794.40000000596,79620.70000000298,81214.5,83305.79999999702,84034.5,90823.5,103852.70000000298]","0.7727272727272727","0.2857142857142857","0","drsp","","","","","","","","","","","","","","","","","","","","","","","","","","","","","","",""
"19988.70000000298","","","","survey-template","4","156171","0.0-2.0-2.0","125","1","2025-07-16 18:51:56","1f75c3e559b7213887762d5229550c2b","216.120.189.119","Mozilla/5.0 (Windows NT 10.0; Win64; x64) AppleWebKit/537.36 (KHTML, like Gecko) Chrome/138.0.0.0 Safari/537.36","WebKit","Chrome","138.0.0.0","Windows","10.0","https://app.prolific.com/","en-US,en;q=0.9","669c1e1fdb95a995eb1d3077","68764874ac79eee8c1d4cb03","6877f490f7896aa95302a383","2","0","669c1e1fdb95a995eb1d3077","2","0","2025-07-16T18:54:38.713Z","","{""Q01"":""0"",""Q02"":""1"",""Q03"":""0""}","[0,1,2]","[""Q01"",""Q02"",""Q03""]","[7499.600000008941,12777.60000000894,18799.60000000894]","[]","[3619.6000000089407,4491.600000008941,7499.600000008941,12777.60000000894,18799.60000000894,19987.5]","0.6666666666666666","0","0","stress","","","","","","","","","","","","","","","","","","","","","","","","","","","","","","",""
"9575","","","","instructions","5","165748","0.0-3.0-0.0","125","1","2025-07-16 18:51:56","1f75c3e559b7213887762d5229550c2b","216.120.189.119","Mozilla/5.0 (Windows NT 10.0; Win64; x64) AppleWebKit/537.36 (KHTML, like Gecko) Chrome/138.0.0.0 Safari/537.36","WebKit","Chrome","138.0.0.0","Windows","10.0","https://app.prolific.com/","en-US,en;q=0.9","669c1e1fdb95a995eb1d3077","68764874ac79eee8c1d4cb03","6877f490f7896aa95302a383","2","0","669c1e1fdb95a995eb1d3077","2","0","","","","","","","","","","","","","[{""page_index"":0,""viewing_time"":9575}]","","","","","","","","","","","","","","","","","","","","","","","","","","","","","",""
"19951","","<p>Before you start with this game please answer the following three questions yourself. </p>
  <p>Through this game, we measure several aspects of your cognitive performance, such as reaction times, multi-tasking capabilities </p>
  <p>and the ability to assess the situation you are in.</p>
  <p></p>
  <p><b>How good do you usually are in such tasks?</b></p>","100","html-slider-response","6","185701","0.0-4.0-0.0","125","1","2025-07-16 18:51:56","1f75c3e559b7213887762d5229550c2b","216.120.189.119","Mozilla/5.0 (Windows NT 10.0; Win64; x64) AppleWebKit/537.36 (KHTML, like Gecko) Chrome/138.0.0.0 Safari/537.36","WebKit","Chrome","138.0.0.0","Windows","10.0","https://app.prolific.com/","en-US,en;q=0.9","669c1e1fdb95a995eb1d3077","68764874ac79eee8c1d4cb03","6877f490f7896aa95302a383","2","0","669c1e1fdb95a995eb1d3077","2","0","2025-07-16T18:55:08.244Z","","","","","","","","","","","PreSkillQ","","50","","","","","","","","","","","","","","","","","","","","","","","","","","","","",""
"5283","","<div style=""width:500px;"">
  <p>How well do you think you will perform in this task compared to other participants?</p>
  </div>","100","html-slider-response","7","190986","0.0-4.0-1.0","125","1","2025-07-16 18:51:56","1f75c3e559b7213887762d5229550c2b","216.120.189.119","Mozilla/5.0 (Windows NT 10.0; Win64; x64) AppleWebKit/537.36 (KHTML, like Gecko) Chrome/138.0.0.0 Safari/537.36","WebKit","Chrome","138.0.0.0","Windows","10.0","https://app.prolific.com/","en-US,en;q=0.9","669c1e1fdb95a995eb1d3077","68764874ac79eee8c1d4cb03","6877f490f7896aa95302a383","2","0","669c1e1fdb95a995eb1d3077","2","0","2025-07-16T18:55:13.528Z","","","","","","","","","","","PrePerfQ","","50","","","","","","","","","","","","","","","","","","","","","","","","","","","","",""
"6164","","<div style=""width:500px;"">
  <p>What best describes how you currently feel?</p>
  </div>","100","html-slider-response","8","197151","0.0-4.0-2.0","125","1","2025-07-16 18:51:56","1f75c3e559b7213887762d5229550c2b","216.120.189.119","Mozilla/5.0 (Windows NT 10.0; Win64; x64) AppleWebKit/537.36 (KHTML, like Gecko) Chrome/138.0.0.0 Safari/537.36","WebKit","Chrome","138.0.0.0","Windows","10.0","https://app.prolific.com/","en-US,en;q=0.9","669c1e1fdb95a995eb1d3077","68764874ac79eee8c1d4cb03","6877f490f7896aa95302a383","2","0","669c1e1fdb95a995eb1d3077","2","0","2025-07-16T18:55:19.694Z","","","","","","","","","","","PreMotivationQ","","50","","","","","","","","","","","","","","","","","","","","","","","","","","","","",""
"","","","","ctl-task-cpt","9","212515","0.0-5.0-0.0","125","1","2025-07-16 18:51:56","1f75c3e559b7213887762d5229550c2b","216.120.189.119","Mozilla/5.0 (Windows NT 10.0; Win64; x64) AppleWebKit/537.36 (KHTML, like Gecko) Chrome/138.0.0.0 Safari/537.36","WebKit","Chrome","138.0.0.0","Windows","10.0","https://app.prolific.com/","en-US,en;q=0.9","669c1e1fdb95a995eb1d3077","68764874ac79eee8c1d4cb03","6877f490f7896aa95302a383","2","0","669c1e1fdb95a995eb1d3077","2","0","2025-07-16T18:55:35.057Z","","","","","","","","","","","","","","win-only","3","g1:SW,g2:NE","1","1","0","208618.2","3298","8301.8","12355.4","1","4","8","6","2","-8","-8","0","0","0","1910.2","3000","-2995","[""up"",""right""]","{""num_key_presses"":0,""num_perfect"":0,""num_errors"":0,""num_randdir"":0,""num_randdir_good_moves"":0,""num_whilered"":0,""num_whileblue"":0,""num_blue"":0,""num_good_moves"":0}","[296.22232142857143,296.12857142857143,0.4,296.22232142857143,296.12857142857143,108.2,299.22232142857143,299.12857142857143,208.9,353.22232142857143,313.12857142857143,311.2,380.22232142857143,333.12857142857143,413.2,335.22232142857143,360.12857142857143,517.9,292.22232142857143,387.12857142857143,618.4,346.22232142857143,293.12857142857143,719.4,342.22232142857143,286.12857142857143,824,329.22232142857143,300.12857142857143,928.3,307.22232142857143,314.12857142857143,1028.6,316.22232142857143,299.12857142857143,1133.4,441.22232142857143,127.12857142857143,1233.7,538.2223214285714,30.128571428571426,1334.3,562.2223214285714,11.128571428571426,1434.9,563.2223214285714,12.128571428571426,1539.2,558.2223214285714,52.128571428571426,1645.8,551.2223214285714,66.12857142857143,1748,551.2223214285714,63.128571428571426,1848.7,551.2223214285714,63.128571428571426,1953.6,551.2223214285714,63.128571428571426,2053.6,541.2223214285714,90.12857142857143,2159.6,517.2223214285714,147.12857142857143,2261.3,466.22232142857143,220.12857142857143,2361.6,395.22232142857143,312.12857142857143,2463.8,335.22232142857143,367.12857142857143,2568.2,321.22232142857143,376.12857142857143,2674,320.22232142857143,377.12857142857143,2774.1,320.22232142857143,377.12857142857143,2874.1,320.22232142857143,377.12857142857143,2974.3,320.22232142857143,377.12857142857143,3074.4,320.22232142857143,377.12857142857143,3174.4,320.22232142857143,377.12857142857143,3277.6,320.22232142857143,377.12857142857143,3378.5,320.22232142857143,377.12857142857143,3483.8,320.22232142857143,377.12857142857143,3588.3,320.22232142857143,377.12857142857143,3689.2,320.22232142857143,377.12857142857143,3793.9,320.22232142857143,377.12857142857143,3898.4,320.22232142857143,377.12857142857143,3998.9,320.22232142857143,377.12857142857143,4099.1,320.22232142857143,377.12857142857143,4203.9,320.22232142857143,377.12857142857143,4304.4,320.22232142857143,377.12857142857143,4407.8,320.22232142857143,377.12857142857143,4507.9,320.22232142857143,377.12857142857143,4613.6,320.22232142857143,377.12857142857143,4713.6,320.22232142857143,377.12857142857143,4813.7,320.22232142857143,377.12857142857143,4918.1]","[]","",""
"16618","","<div style=""width:500px;"">
  <p>What determined the result of this run?</p>
  </div>","96","html-slider-response","10","229134","0.0-5.0-1.0","125","1","2025-07-16 18:51:56","1f75c3e559b7213887762d5229550c2b","216.120.189.119","Mozilla/5.0 (Windows NT 10.0; Win64; x64) AppleWebKit/537.36 (KHTML, like Gecko) Chrome/138.0.0.0 Safari/537.36","WebKit","Chrome","138.0.0.0","Windows","10.0","https://app.prolific.com/","en-US,en;q=0.9","669c1e1fdb95a995eb1d3077","68764874ac79eee8c1d4cb03","6877f490f7896aa95302a383","2","0","669c1e1fdb95a995eb1d3077","2","0","2025-07-16T18:55:51.676Z","","","","","","","","","","","AttribQ","","50","","","","","","","","","","","","","","","","","","","","","","","","","","","","",""
"4817","","<div style=""width:500px;"">
  <p>How much control did you have over the ball?</p>
  </div>","98","html-slider-response","11","233953","0.0-5.0-2.0","125","1","2025-07-16 18:51:56","1f75c3e559b7213887762d5229550c2b","216.120.189.119","Mozilla/5.0 (Windows NT 10.0; Win64; x64) AppleWebKit/537.36 (KHTML, like Gecko) Chrome/138.0.0.0 Safari/537.36","WebKit","Chrome","138.0.0.0","Windows","10.0","https://app.prolific.com/","en-US,en;q=0.9","669c1e1fdb95a995eb1d3077","68764874ac79eee8c1d4cb03","6877f490f7896aa95302a383","2","0","669c1e1fdb95a995eb1d3077","2","0","2025-07-16T18:55:56.496Z","","","","","","","","","","","ControlQ","","50","","","","","","","","","","","","","","","","","","","","","","","","","","","","",""
"4359","","<div style=""width:500px;"">
  <p>How would you describe your current emotional state?</p>
  </div>","2","html-slider-response","12","238314","0.0-5.0-3.0","125","1","2025-07-16 18:51:56","1f75c3e559b7213887762d5229550c2b","216.120.189.119","Mozilla/5.0 (Windows NT 10.0; Win64; x64) AppleWebKit/537.36 (KHTML, like Gecko) Chrome/138.0.0.0 Safari/537.36","WebKit","Chrome","138.0.0.0","Windows","10.0","https://app.prolific.com/","en-US,en;q=0.9","669c1e1fdb95a995eb1d3077","68764874ac79eee8c1d4cb03","6877f490f7896aa95302a383","2","0","669c1e1fdb95a995eb1d3077","2","0","2025-07-16T18:56:00.856Z","","","","","","","","","","","StressQ","","50","","","","","","","","","","","","","","","","","","","","","","","","","","","","",""
"4878","","<div style=""width:500px;"">
  <p>What best describes how you currently feel?</p>
  </div>","99","html-slider-response","13","243193","0.0-5.0-4.0","125","1","2025-07-16 18:51:56","1f75c3e559b7213887762d5229550c2b","216.120.189.119","Mozilla/5.0 (Windows NT 10.0; Win64; x64) AppleWebKit/537.36 (KHTML, like Gecko) Chrome/138.0.0.0 Safari/537.36","WebKit","Chrome","138.0.0.0","Windows","10.0","https://app.prolific.com/","en-US,en;q=0.9","669c1e1fdb95a995eb1d3077","68764874ac79eee8c1d4cb03","6877f490f7896aa95302a383","2","0","669c1e1fdb95a995eb1d3077","2","0","2025-07-16T18:56:05.735Z","","","","","","","","","","","MotivationQ","","50","","","","","","","","","","","","","","","","","","","","","","","","","","","","",""
"","","","","ctl-task-cpt","14","284613","0.0-5.0-0.1","125","1","2025-07-16 18:51:56","1f75c3e559b7213887762d5229550c2b","216.120.189.119","Mozilla/5.0 (Windows NT 10.0; Win64; x64) AppleWebKit/537.36 (KHTML, like Gecko) Chrome/138.0.0.0 Safari/537.36","WebKit","Chrome","138.0.0.0","Windows","10.0","https://app.prolific.com/","en-US,en;q=0.9","669c1e1fdb95a995eb1d3077","68764874ac79eee8c1d4cb03","6877f490f7896aa95302a383","2","0","669c1e1fdb95a995eb1d3077","2","0","2025-07-16T18:56:47.155Z","","","","","","","","","","","","","","win-only","3","g1:SW,g2:NE","0.9","2","0","254657.7","1323.8","6325.9","38406.4","1","4","4","6","2","-4","-4","0","0","0","830.1","3000","-2665","[""up"",""right""]","{""num_key_presses"":7,""num_perfect"":6,""num_errors"":0,""num_randdir"":1,""num_randdir_good_moves"":0,""num_whilered"":0,""num_whileblue"":0,""num_blue"":3,""num_good_moves"":5}","[303.22232142857143,297.12857142857143,0.8,303.22232142857143,297.12857142857143,103.3,311.22232142857143,280.12857142857143,207.8,372.22232142857143,223.12857142857143,308,495.22232142857143,99.12857142857143,412.5,518.2223214285714,47.128571428571426,516.4,523.2223214285714,37.128571428571426,618.6,535.2223214285714,36.128571428571426,720.2,545.2223214285714,46.128571428571426,832.6,545.2223214285714,47.128571428571426,938.5,538.2223214285714,58.128571428571426,1045.1,535.2223214285714,117.12857142857143,1148.2,540.2223214285714,202.12857142857143,1251.9,539.2223214285714,244.12857142857143,1352.1,539.2223214285714,244.12857142857143,1452.5,539.2223214285714,244.12857142857143,1563.7,539.2223214285714,244.12857142857143,1667.5,539.2223214285714,244.12857142857143,1767.5,539.2223214285714,244.12857142857143,1867.6,539.2223214285714,244.12857142857143,1975.8,539.2223214285714,244.12857142857143,2076.2,539.2223214285714,244.12857142857143,2178.9,539.2223214285714,244.12857142857143,2282.2,539.2223214285714,244.12857142857143,2393.1,539.2223214285714,244.12857142857143,2494,539.2223214285714,244.12857142857143,2598.3,539.2223214285714,244.12857142857143,2702.1,539.2223214285714,244.12857142857143,2811.2,539.2223214285714,244.12857142857143,2912.3,539.2223214285714,244.12857142857143,3017.9,539.2223214285714,244.12857142857143,3125.9,539.2223214285714,244.12857142857143,3227,539.2223214285714,244.12857142857143,3327.3,539.2223214285714,244.12857142857143,3428.6,539.2223214285714,244.12857142857143,3532.1,539.2223214285714,244.12857142857143,3633,539.2223214285714,244.12857142857143,3738.1,539.2223214285714,244.12857142857143,3843.3,539.2223214285714,244.12857142857143,3944.3,539.2223214285714,244.12857142857143,4048.5,539.2223214285714,244.12857142857143,4152.5,539.2223214285714,244.12857142857143,4259.3,539.2223214285714,244.12857142857143,4359.7,539.2223214285714,244.12857142857143,4459.7,539.2223214285714,244.12857142857143,4562.2,539.2223214285714,244.12857142857143,4666.8,539.2223214285714,244.12857142857143,4767.2,539.2223214285714,244.12857142857143,4876.5,539.2223214285714,244.12857142857143,4977.1]","[1412.4,1412.3,1000,0.1,412.3,""smooth"",""right"",""right"",""good_move"",4407.3,2994.1,2553.7,1413.2,440.4,""oops"",""right"",""down"",""bad_move"",13758.6,9350.5,1870.8,11524.1,363.7,""smooth"",""up"",""up"",""good_move"",20291.1,6531.9,2422.6,17459.8,408.7,""smooth"",""up"",""up"",""good_move"",23822.3,3530.9,2904.7,20291.4,626.3,""smooth"",""down"",""down"",""bad_move"",27210.9,3387.9,2938.2,23823.1,449.7,""smooth"",""right"",""right"",""good_move"",29671.6,2459.8,2079.1,27211.8,380.7,""smooth"",""up"",""up"",""good_move""]","",""
"3714","","<div style=""width:500px;"">
  <p>What determined the result of this run?</p>
  </div>","99","html-slider-response","15","288329","0.0-5.0-1.1","125","1","2025-07-16 18:51:56","1f75c3e559b7213887762d5229550c2b","216.120.189.119","Mozilla/5.0 (Windows NT 10.0; Win64; x64) AppleWebKit/537.36 (KHTML, like Gecko) Chrome/138.0.0.0 Safari/537.36","WebKit","Chrome","138.0.0.0","Windows","10.0","https://app.prolific.com/","en-US,en;q=0.9","669c1e1fdb95a995eb1d3077","68764874ac79eee8c1d4cb03","6877f490f7896aa95302a383","2","0","669c1e1fdb95a995eb1d3077","2","0","2025-07-16T18:56:50.871Z","","","","","","","","","","","AttribQ","","50","","","","","","","","","","","","","","","","","","","","","","","","","","","","",""
"3150","","<div style=""width:500px;"">
  <p>How much control did you have over the ball?</p>
  </div>","98","html-slider-response","16","291482","0.0-5.0-2.1","125","1","2025-07-16 18:51:56","1f75c3e559b7213887762d5229550c2b","216.120.189.119","Mozilla/5.0 (Windows NT 10.0; Win64; x64) AppleWebKit/537.36 (KHTML, like Gecko) Chrome/138.0.0.0 Safari/537.36","WebKit","Chrome","138.0.0.0","Windows","10.0","https://app.prolific.com/","en-US,en;q=0.9","669c1e1fdb95a995eb1d3077","68764874ac79eee8c1d4cb03","6877f490f7896aa95302a383","2","0","669c1e1fdb95a995eb1d3077","2","0","2025-07-16T18:56:54.025Z","","","","","","","","","","","ControlQ","","50","","","","","","","","","","","","","","","","","","","","","","","","","","","","",""
"5745","","<div style=""width:500px;"">
  <p>How would you describe your current emotional state?</p>
  </div>","0","html-slider-response","17","297229","0.0-5.0-3.1","125","1","2025-07-16 18:51:56","1f75c3e559b7213887762d5229550c2b","216.120.189.119","Mozilla/5.0 (Windows NT 10.0; Win64; x64) AppleWebKit/537.36 (KHTML, like Gecko) Chrome/138.0.0.0 Safari/537.36","WebKit","Chrome","138.0.0.0","Windows","10.0","https://app.prolific.com/","en-US,en;q=0.9","669c1e1fdb95a995eb1d3077","68764874ac79eee8c1d4cb03","6877f490f7896aa95302a383","2","0","669c1e1fdb95a995eb1d3077","2","0","2025-07-16T18:56:59.772Z","","","","","","","","","","","StressQ","","50","","","","","","","","","","","","","","","","","","","","","","","","","","","","",""
"3564","","<div style=""width:500px;"">
  <p>What best describes how you currently feel?</p>
  </div>","100","html-slider-response","18","300796","0.0-5.0-4.1","125","1","2025-07-16 18:51:56","1f75c3e559b7213887762d5229550c2b","216.120.189.119","Mozilla/5.0 (Windows NT 10.0; Win64; x64) AppleWebKit/537.36 (KHTML, like Gecko) Chrome/138.0.0.0 Safari/537.36","WebKit","Chrome","138.0.0.0","Windows","10.0","https://app.prolific.com/","en-US,en;q=0.9","669c1e1fdb95a995eb1d3077","68764874ac79eee8c1d4cb03","6877f490f7896aa95302a383","2","0","669c1e1fdb95a995eb1d3077","2","0","2025-07-16T18:57:03.338Z","","","","","","","","","","","MotivationQ","","50","","","","","","","","","","","","","","","","","","","","","","","","","","","","",""
"","","","","ctl-task-cpt","19","351709","0.0-5.0-0.2","125","1","2025-07-16 18:51:56","1f75c3e559b7213887762d5229550c2b","216.120.189.119","Mozilla/5.0 (Windows NT 10.0; Win64; x64) AppleWebKit/537.36 (KHTML, like Gecko) Chrome/138.0.0.0 Safari/537.36","WebKit","Chrome","138.0.0.0","Windows","10.0","https://app.prolific.com/","en-US,en;q=0.9","669c1e1fdb95a995eb1d3077","68764874ac79eee8c1d4cb03","6877f490f7896aa95302a383","2","0","669c1e1fdb95a995eb1d3077","2","0","2025-07-16T18:57:54.251Z","","","","","","","","","","","","","","win-only","1","g1:NE,g2:SW","0.8","3","0","312264.4","1647.3","6652.7","47896.6","1","4","4","6","2","-4","-7","0","0","0","2305.5","3000","-2390","[""down"",""left""]","{""num_key_presses"":11,""num_perfect"":6,""num_errors"":3,""num_randdir"":2,""num_randdir_good_moves"":1,""num_whilered"":0,""num_whileblue"":3,""num_blue"":5,""num_good_moves"":7}","[296.22232142857143,290.12857142857143,0.4,296.22232142857143,290.12857142857143,104.6,296.22232142857143,290.12857142857143,209,296.22232142857143,290.12857142857143,309.1,296.22232142857143,290.12857142857143,409.5,296.22232142857143,290.12857142857143,515.6,296.22232142857143,290.12857142857143,619,613.2223214285714,20.128571428571426,721.4,619.2223214285714,18.128571428571426,824.8,422.22232142857143,133.12857142857143,925,112.22232142857143,395.12857142857143,1025.5,99.22232142857143,415.12857142857143,1134.7,98.22232142857143,416.12857142857143,1248.8,22.222321428571426,538.1285714285714,1352,1.2223214285714263,581.1285714285714,1454.6,1.2223214285714263,589.1285714285714,1566.3,2.2223214285714263,592.1285714285714,1667.6,2.2223214285714263,592.1285714285714,1769.1,9.222321428571426,586.1285714285714,1883.9,21.222321428571426,571.1285714285714,2000.1,26.222321428571426,566.1285714285714,2104,26.222321428571426,566.1285714285714,2205.1,26.222321428571426,566.1285714285714,2312.7,26.222321428571426,566.1285714285714,2414.1,26.222321428571426,566.1285714285714,2514.7,26.222321428571426,566.1285714285714,2616.8,26.222321428571426,566.1285714285714,2718.1,26.222321428571426,566.1285714285714,2818.1,26.222321428571426,566.1285714285714,2918.9,26.222321428571426,566.1285714285714,3025,26.222321428571426,566.1285714285714,3128.2,26.222321428571426,566.1285714285714,3231.6,26.222321428571426,566.1285714285714,3332.5,26.222321428571426,566.1285714285714,3433.5,26.222321428571426,566.1285714285714,3533.9,26.222321428571426,566.1285714285714,3634,26.222321428571426,566.1285714285714,3738.8,26.222321428571426,566.1285714285714,3848.9,26.222321428571426,566.1285714285714,3953.1,26.222321428571426,566.1285714285714,4053.1,26.222321428571426,566.1285714285714,4153.2,26.222321428571426,566.1285714285714,4253.5,26.222321428571426,566.1285714285714,4363.4,26.222321428571426,566.1285714285714,4465.5,26.222321428571426,566.1285714285714,4569,26.222321428571426,566.1285714285714,4680.3,26.222321428571426,566.1285714285714,4781.2,26.222321428571426,566.1285714285714,4883.1,26.222321428571426,566.1285714285714,4983.4]","[1333.3,1333.3,1010.1,0,323.2,""while_blue"",""down"",""right"",""bad_move"",11040.6,9705.4,2718.6,7876.8,445.3,""smooth"",""down"",""down"",""good_move"",14538,3496.6,3040.2,11041.4,456.4,""smooth"",""down"",""down"",""good_move"",17691.9,3153.1,2687.1,14538.8,466,""smooth"",""left"",""left"",""good_move"",20977.8,3285.2,2848.3,17692.6,436.9,""oops"",""left"",""right"",""bad_move"",23925,2946.4,2441.3,20978.6,505.1,""oops"",""left"",""down"",""good_move"",26807.9,2882.3,2455.5,23925.6,426.8,""smooth"",""left"",""left"",""good_move"",29379.7,2571.3,2156.4,26808.5,414.8,""smooth"",""left"",""left"",""good_move"",32474,3094,2657.5,29380,436.5,""smooth"",""left"",""left"",""good_move"",35404.1,2929.7,2616.1,32474.4,313.6,""while_blue"",""left"",""right"",""bad_move"",38424.3,3019.7,2619.8,35404.6,399.9,""while_blue"",""left"",""right"",""bad_move""]","",""
"6120","","<div style=""width:500px;"">
  <p>What determined the result of this run?</p>
  </div>","100","html-slider-response","20","357831","0.0-5.0-1.2","125","1","2025-07-16 18:51:56","1f75c3e559b7213887762d5229550c2b","216.120.189.119","Mozilla/5.0 (Windows NT 10.0; Win64; x64) AppleWebKit/537.36 (KHTML, like Gecko) Chrome/138.0.0.0 Safari/537.36","WebKit","Chrome","138.0.0.0","Windows","10.0","https://app.prolific.com/","en-US,en;q=0.9","669c1e1fdb95a995eb1d3077","68764874ac79eee8c1d4cb03","6877f490f7896aa95302a383","2","0","669c1e1fdb95a995eb1d3077","2","0","2025-07-16T18:58:00.374Z","","","","","","","","","","","AttribQ","","50","","","","","","","","","","","","","","","","","","","","","","","","","","","","",""
"5710","","<div style=""width:500px;"">
  <p>How much control did you have over the ball?</p>
  </div>","97","html-slider-response","21","363544","0.0-5.0-2.2","125","1","2025-07-16 18:51:56","1f75c3e559b7213887762d5229550c2b","216.120.189.119","Mozilla/5.0 (Windows NT 10.0; Win64; x64) AppleWebKit/537.36 (KHTML, like Gecko) Chrome/138.0.0.0 Safari/537.36","WebKit","Chrome","138.0.0.0","Windows","10.0","https://app.prolific.com/","en-US,en;q=0.9","669c1e1fdb95a995eb1d3077","68764874ac79eee8c1d4cb03","6877f490f7896aa95302a383","2","0","669c1e1fdb95a995eb1d3077","2","0","2025-07-16T18:58:06.086Z","","","","","","","","","","","ControlQ","","50","","","","","","","","","","","","","","","","","","","","","","","","","","","","",""
"2947","","<div style=""width:500px;"">
  <p>How would you describe your current emotional state?</p>
  </div>","0","html-slider-response","22","366493","0.0-5.0-3.2","125","1","2025-07-16 18:51:56","1f75c3e559b7213887762d5229550c2b","216.120.189.119","Mozilla/5.0 (Windows NT 10.0; Win64; x64) AppleWebKit/537.36 (KHTML, like Gecko) Chrome/138.0.0.0 Safari/537.36","WebKit","Chrome","138.0.0.0","Windows","10.0","https://app.prolific.com/","en-US,en;q=0.9","669c1e1fdb95a995eb1d3077","68764874ac79eee8c1d4cb03","6877f490f7896aa95302a383","2","0","669c1e1fdb95a995eb1d3077","2","0","2025-07-16T18:58:09.036Z","","","","","","","","","","","StressQ","","50","","","","","","","","","","","","","","","","","","","","","","","","","","","","",""
"3522","","<div style=""width:500px;"">
  <p>What best describes how you currently feel?</p>
  </div>","100","html-slider-response","23","370019","0.0-5.0-4.2","125","1","2025-07-16 18:51:56","1f75c3e559b7213887762d5229550c2b","216.120.189.119","Mozilla/5.0 (Windows NT 10.0; Win64; x64) AppleWebKit/537.36 (KHTML, like Gecko) Chrome/138.0.0.0 Safari/537.36","WebKit","Chrome","138.0.0.0","Windows","10.0","https://app.prolific.com/","en-US,en;q=0.9","669c1e1fdb95a995eb1d3077","68764874ac79eee8c1d4cb03","6877f490f7896aa95302a383","2","0","669c1e1fdb95a995eb1d3077","2","0","2025-07-16T18:58:12.561Z","","","","","","","","","","","MotivationQ","","50","","","","","","","","","","","","","","","","","","","","","","","","","","","","",""
"","","","","ctl-task-cpt","24","410977","0.0-5.0-0.3","125","1","2025-07-16 18:51:56","1f75c3e559b7213887762d5229550c2b","216.120.189.119","Mozilla/5.0 (Windows NT 10.0; Win64; x64) AppleWebKit/537.36 (KHTML, like Gecko) Chrome/138.0.0.0 Safari/537.36","WebKit","Chrome","138.0.0.0","Windows","10.0","https://app.prolific.com/","en-US,en;q=0.9","669c1e1fdb95a995eb1d3077","68764874ac79eee8c1d4cb03","6877f490f7896aa95302a383","2","0","669c1e1fdb95a995eb1d3077","2","0","2025-07-16T18:58:53.519Z","","","","","","","","","","","","","","win-only","3","g1:SW,g2:NE","0.7","4","0","381487.1","2103.7","7106.7","37936.2","1","4","8","6","2","8","8","8","0","0.06060606060606061","1562.4","3000","575","[""up"",""right""]","{""num_key_presses"":8,""num_perfect"":5,""num_errors"":0,""num_randdir"":3,""num_randdir_good_moves"":2,""num_whilered"":0,""num_whileblue"":0,""num_blue"":3,""num_good_moves"":7}","[300.22232142857143,297.12857142857143,0.5,300.22232142857143,297.12857142857143,102.3,300.22232142857143,297.12857142857143,203.1,300.22232142857143,297.12857142857143,308.3,300.22232142857143,297.12857142857143,414.3,300.22232142857143,297.12857142857143,517.5,292.22232142857143,301.12857142857143,621.8,430.22232142857143,120.12857142857143,722.2,667.2223214285714,-45.871428571428574,822.2,667.2223214285714,-46.871428571428574,922.5,600.2223214285714,13.128571428571426,1022.8,544.2223214285714,51.128571428571426,1130.1,539.2223214285714,52.128571428571426,1232.6,535.2223214285714,54.128571428571426,1337.8,534.2223214285714,55.128571428571426,1438.4,534.2223214285714,55.128571428571426,1551,534.2223214285714,55.128571428571426,1651.8,534.2223214285714,55.128571428571426,1752.1,534.2223214285714,55.128571428571426,1857.6,534.2223214285714,55.128571428571426,1960.9,534.2223214285714,55.128571428571426,2071.7,534.2223214285714,55.128571428571426,2173.2,534.2223214285714,55.128571428571426,2284.8,534.2223214285714,55.128571428571426,2387.6,534.2223214285714,55.128571428571426,2492.3,534.2223214285714,55.128571428571426,2598.5,534.2223214285714,55.128571428571426,2701.8,534.2223214285714,55.128571428571426,2802.2,534.2223214285714,55.128571428571426,2902.5,534.2223214285714,55.128571428571426,3007.9,534.2223214285714,55.128571428571426,3108,534.2223214285714,55.128571428571426,3208,534.2223214285714,55.128571428571426,3313.4,534.2223214285714,55.128571428571426,3420.7,534.2223214285714,55.128571428571426,3528.8,534.2223214285714,55.128571428571426,3628.9,534.2223214285714,55.128571428571426,3735.8,534.2223214285714,55.128571428571426,3837.8,534.2223214285714,55.128571428571426,3950.1,534.2223214285714,55.128571428571426,4053.7,534.2223214285714,55.128571428571426,4163.8,534.2223214285714,55.128571428571426,4269.9,534.2223214285714,55.128571428571426,4372.3,534.2223214285714,55.128571428571426,4477.3,534.2223214285714,55.128571428571426,4577.8,534.2223214285714,55.128571428571426,4679.8,534.2223214285714,55.128571428571426,4780.4,534.2223214285714,55.128571428571426,4883.4,534.2223214285714,55.128571428571426,4987.3]","[1376.6,1376.6,1000,0,376.6,""smooth"",""right"",""right"",""good_move"",4559,3181.3,2754.1,1377.7,427.2,""oops"",""right"",""left"",""bad_move"",17420.9,12861.1,1519.9,15483.9,417.1,""oops"",""up"",""up"",""good_move"",21062.5,3641.1,3175,17421.5,466.1,""oops"",""up"",""up"",""good_move"",23658.5,2595.2,2236.6,21063.3,358.6,""smooth"",""right"",""right"",""good_move"",25229.1,1569.7,1106.1,23659.4,463.6,""smooth"",""right"",""right"",""good_move"",28177.4,2947.5,2590.6,25229.9,356.9,""smooth"",""right"",""right"",""good_move"",30712.1,2533.4,2159.4,28178.7,374,""smooth"",""up"",""up"",""good_move""]","",""
"3480","","<div style=""width:500px;"">
  <p>What determined the result of this run?</p>
  </div>","100","html-slider-response","25","414459","0.0-5.0-1.3","125","1","2025-07-16 18:51:56","1f75c3e559b7213887762d5229550c2b","216.120.189.119","Mozilla/5.0 (Windows NT 10.0; Win64; x64) AppleWebKit/537.36 (KHTML, like Gecko) Chrome/138.0.0.0 Safari/537.36","WebKit","Chrome","138.0.0.0","Windows","10.0","https://app.prolific.com/","en-US,en;q=0.9","669c1e1fdb95a995eb1d3077","68764874ac79eee8c1d4cb03","6877f490f7896aa95302a383","2","0","669c1e1fdb95a995eb1d3077","2","0","2025-07-16T18:58:57.002Z","","","","","","","","","","","AttribQ","","50","","","","","","","","","","","","","","","","","","","","","","","","","","","","",""
"2907","","<div style=""width:500px;"">
  <p>How much control did you have over the ball?</p>
  </div>","100","html-slider-response","26","417369","0.0-5.0-2.3","125","1","2025-07-16 18:51:56","1f75c3e559b7213887762d5229550c2b","216.120.189.119","Mozilla/5.0 (Windows NT 10.0; Win64; x64) AppleWebKit/537.36 (KHTML, like Gecko) Chrome/138.0.0.0 Safari/537.36","WebKit","Chrome","138.0.0.0","Windows","10.0","https://app.prolific.com/","en-US,en;q=0.9","669c1e1fdb95a995eb1d3077","68764874ac79eee8c1d4cb03","6877f490f7896aa95302a383","2","0","669c1e1fdb95a995eb1d3077","2","0","2025-07-16T18:58:59.911Z","","","","","","","","","","","ControlQ","","50","","","","","","","","","","","","","","","","","","","","","","","","","","","","",""
"12199","","<div style=""width:500px;"">
  <p>How would you describe your current emotional state?</p>
  </div>","2","html-slider-response","27","429571","0.0-5.0-3.3","125","1","2025-07-16 18:51:56","1f75c3e559b7213887762d5229550c2b","216.120.189.119","Mozilla/5.0 (Windows NT 10.0; Win64; x64) AppleWebKit/537.36 (KHTML, like Gecko) Chrome/138.0.0.0 Safari/537.36","WebKit","Chrome","138.0.0.0","Windows","10.0","https://app.prolific.com/","en-US,en;q=0.9","669c1e1fdb95a995eb1d3077","68764874ac79eee8c1d4cb03","6877f490f7896aa95302a383","2","0","669c1e1fdb95a995eb1d3077","2","0","2025-07-16T18:59:12.113Z","","","","","","","","","","","StressQ","","50","","","","","","","","","","","","","","","","","","","","","","","","","","","","",""
"3083","","<div style=""width:500px;"">
  <p>What best describes how you currently feel?</p>
  </div>","100","html-slider-response","28","432657","0.0-5.0-4.3","125","1","2025-07-16 18:51:56","1f75c3e559b7213887762d5229550c2b","216.120.189.119","Mozilla/5.0 (Windows NT 10.0; Win64; x64) AppleWebKit/537.36 (KHTML, like Gecko) Chrome/138.0.0.0 Safari/537.36","WebKit","Chrome","138.0.0.0","Windows","10.0","https://app.prolific.com/","en-US,en;q=0.9","669c1e1fdb95a995eb1d3077","68764874ac79eee8c1d4cb03","6877f490f7896aa95302a383","2","0","669c1e1fdb95a995eb1d3077","2","0","2025-07-16T18:59:15.199Z","","","","","","","","","","","MotivationQ","","50","","","","","","","","","","","","","","","","","","","","","","","","","","","","",""
"","","","","ctl-task-cpt","29","478269","0.0-5.0-0.4","125","1","2025-07-16 18:51:56","1f75c3e559b7213887762d5229550c2b","216.120.189.119","Mozilla/5.0 (Windows NT 10.0; Win64; x64) AppleWebKit/537.36 (KHTML, like Gecko) Chrome/138.0.0.0 Safari/537.36","WebKit","Chrome","138.0.0.0","Windows","10.0","https://app.prolific.com/","en-US,en;q=0.9","669c1e1fdb95a995eb1d3077","68764874ac79eee8c1d4cb03","6877f490f7896aa95302a383","2","0","669c1e1fdb95a995eb1d3077","2","0","2025-07-16T19:00:00.811Z","","","","","","","","","","","","","","win-only","0","g1:NW,g2:SE","0.6","5","0","444125.3","1799.1","6801.2","42596.2","1","4","8","6","2","8","8","16","8","0.12121212121212122","1531.1","3000","135","[""down"",""right""]","{""num_key_presses"":10,""num_perfect"":6,""num_errors"":0,""num_randdir"":4,""num_randdir_good_moves"":2,""num_whilered"":0,""num_whileblue"":0,""num_blue"":2,""num_good_moves"":8}","[292.22232142857143,292.12857142857143,1,292.22232142857143,292.12857142857143,102.2,292.22232142857143,292.12857142857143,202.2,292.22232142857143,292.12857142857143,322.5,292.22232142857143,292.12857142857143,422.6,292.22232142857143,292.12857142857143,531.6,292.22232142857143,292.12857142857143,632.8,448.22232142857143,470.12857142857143,737.4,491.22232142857143,508.12857142857143,848.2,494.22232142857143,508.12857142857143,951.4,494.22232142857143,508.12857142857143,1054.7,513.2223214285714,521.1285714285714,1157.9,523.2223214285714,527.1285714285714,1262.5,525.2223214285714,528.1285714285714,1367.1,525.2223214285714,528.1285714285714,1472.7,525.2223214285714,528.1285714285714,1577.4,525.2223214285714,528.1285714285714,1682.5,525.2223214285714,528.1285714285714,1782.7,525.2223214285714,528.1285714285714,1894.2,525.2223214285714,528.1285714285714,1995.9,525.2223214285714,528.1285714285714,2096.2,525.2223214285714,528.1285714285714,2196.7,525.2223214285714,528.1285714285714,2299.6,525.2223214285714,528.1285714285714,2402.2,525.2223214285714,528.1285714285714,2502.4,525.2223214285714,528.1285714285714,2602.8,525.2223214285714,528.1285714285714,2712.5,525.2223214285714,528.1285714285714,2812.9,525.2223214285714,528.1285714285714,2916.6,525.2223214285714,528.1285714285714,3017.4,525.2223214285714,528.1285714285714,3122.9,525.2223214285714,528.1285714285714,3226.7,525.2223214285714,528.1285714285714,3331.5,525.2223214285714,528.1285714285714,3431.9,525.2223214285714,528.1285714285714,3532.6,525.2223214285714,528.1285714285714,3633,525.2223214285714,528.1285714285714,3736.4,525.2223214285714,528.1285714285714,3837.4,525.2223214285714,528.1285714285714,3937.6,525.2223214285714,528.1285714285714,4038.6,525.2223214285714,528.1285714285714,4144.3,525.2223214285714,528.1285714285714,4247.8,525.2223214285714,528.1285714285714,4350.4,525.2223214285714,528.1285714285714,4451.6,525.2223214285714,528.1285714285714,4552,525.2223214285714,528.1285714285714,4660.2,525.2223214285714,528.1285714285714,4761.9,525.2223214285714,528.1285714285714,4863.1,525.2223214285714,528.1285714285714,4967]","[1360.8,1360.7,1000,0.1,360.7,""oops"",""down"",""right"",""good_move"",4679.9,3318,2898.6,1361.9,419.4,""smooth"",""down"",""down"",""good_move"",7887.2,3205.9,2830.8,4681.3,375.1,""smooth"",""down"",""down"",""good_move"",11357.8,3469.8,3082.5,7888.1,387.2,""oops"",""right"",""right"",""good_move"",14165.4,2806.5,2351.9,11358.9,454.6,""oops"",""right"",""left"",""bad_move"",17060.8,2894.7,2481.4,14166.2,413.2,""oops"",""down"",""up"",""bad_move"",23108.8,6047.4,2591.1,20114.5,403.2,""smooth"",""right"",""right"",""good_move"",30139,7029.8,2499.6,27229.7,409.7,""smooth"",""right"",""right"",""good_move"",32779.9,2640.3,2262.4,30139.6,377.9,""smooth"",""down"",""down"",""good_move"",35690.9,2910,2455.9,32780.9,454.1,""smooth"",""down"",""down"",""good_move""]","",""
"5427","","<div style=""width:500px;"">
  <p>What determined the result of this run?</p>
  </div>","100","html-slider-response","30","483699","0.0-5.0-1.4","125","1","2025-07-16 18:51:56","1f75c3e559b7213887762d5229550c2b","216.120.189.119","Mozilla/5.0 (Windows NT 10.0; Win64; x64) AppleWebKit/537.36 (KHTML, like Gecko) Chrome/138.0.0.0 Safari/537.36","WebKit","Chrome","138.0.0.0","Windows","10.0","https://app.prolific.com/","en-US,en;q=0.9","669c1e1fdb95a995eb1d3077","68764874ac79eee8c1d4cb03","6877f490f7896aa95302a383","2","0","669c1e1fdb95a995eb1d3077","2","0","2025-07-16T19:00:06.241Z","","","","","","","","","","","AttribQ","","50","","","","","","","","","","","","","","","","","","","","","","","","","","","","",""
"3366","","<div style=""width:500px;"">
  <p>How much control did you have over the ball?</p>
  </div>","100","html-slider-response","31","487067","0.0-5.0-2.4","125","1","2025-07-16 18:51:56","1f75c3e559b7213887762d5229550c2b","216.120.189.119","Mozilla/5.0 (Windows NT 10.0; Win64; x64) AppleWebKit/537.36 (KHTML, like Gecko) Chrome/138.0.0.0 Safari/537.36","WebKit","Chrome","138.0.0.0","Windows","10.0","https://app.prolific.com/","en-US,en;q=0.9","669c1e1fdb95a995eb1d3077","68764874ac79eee8c1d4cb03","6877f490f7896aa95302a383","2","0","669c1e1fdb95a995eb1d3077","2","0","2025-07-16T19:00:09.609Z","","","","","","","","","","","ControlQ","","50","","","","","","","","","","","","","","","","","","","","","","","","","","","","",""
"3846","","<div style=""width:500px;"">
  <p>How would you describe your current emotional state?</p>
  </div>","5","html-slider-response","32","490915","0.0-5.0-3.4","125","1","2025-07-16 18:51:56","1f75c3e559b7213887762d5229550c2b","216.120.189.119","Mozilla/5.0 (Windows NT 10.0; Win64; x64) AppleWebKit/537.36 (KHTML, like Gecko) Chrome/138.0.0.0 Safari/537.36","WebKit","Chrome","138.0.0.0","Windows","10.0","https://app.prolific.com/","en-US,en;q=0.9","669c1e1fdb95a995eb1d3077","68764874ac79eee8c1d4cb03","6877f490f7896aa95302a383","2","0","669c1e1fdb95a995eb1d3077","2","0","2025-07-16T19:00:13.457Z","","","","","","","","","","","StressQ","","50","","","","","","","","","","","","","","","","","","","","","","","","","","","","",""
"3186","","<div style=""width:500px;"">
  <p>What best describes how you currently feel?</p>
  </div>","100","html-slider-response","33","494103","0.0-5.0-4.4","125","1","2025-07-16 18:51:56","1f75c3e559b7213887762d5229550c2b","216.120.189.119","Mozilla/5.0 (Windows NT 10.0; Win64; x64) AppleWebKit/537.36 (KHTML, like Gecko) Chrome/138.0.0.0 Safari/537.36","WebKit","Chrome","138.0.0.0","Windows","10.0","https://app.prolific.com/","en-US,en;q=0.9","669c1e1fdb95a995eb1d3077","68764874ac79eee8c1d4cb03","6877f490f7896aa95302a383","2","0","669c1e1fdb95a995eb1d3077","2","0","2025-07-16T19:00:16.645Z","","","","","","","","","","","MotivationQ","","50","","","","","","","","","","","","","","","","","","","","","","","","","","","","",""
"","","","","ctl-task-cpt","34","528856","0.0-5.0-0.5","125","1","2025-07-16 18:51:56","1f75c3e559b7213887762d5229550c2b","216.120.189.119","Mozilla/5.0 (Windows NT 10.0; Win64; x64) AppleWebKit/537.36 (KHTML, like Gecko) Chrome/138.0.0.0 Safari/537.36","WebKit","Chrome","138.0.0.0","Windows","10.0","https://app.prolific.com/","en-US,en;q=0.9","669c1e1fdb95a995eb1d3077","68764874ac79eee8c1d4cb03","6877f490f7896aa95302a383","2","0","669c1e1fdb95a995eb1d3077","2","0","2025-07-16T19:00:51.398Z","","","","","","","","","","","","","","win-only","0","g1:NW,g2:SE","0.5","6","0","505569.8","1234.7","6236","31722.4","1","4","4","6","2","4","4","20","16","0.15151515151515152","849","3000","970","[""down"",""right""]","{""num_key_presses"":6,""num_perfect"":3,""num_errors"":0,""num_randdir"":3,""num_randdir_good_moves"":3,""num_whilered"":0,""num_whileblue"":0,""num_blue"":3,""num_good_moves"":6}","[295.22232142857143,294.12857142857143,0.5,295.22232142857143,294.12857142857143,110,310.22232142857143,301.12857142857143,214.6,384.22232142857143,340.12857142857143,316.3,456.22232142857143,426.12857142857143,422.5,523.2223214285714,525.1285714285714,529.3,546.2223214285714,545.1285714285714,632.1,547.2223214285714,545.1285714285714,736.4,548.2223214285714,546.1285714285714,855.2,544.2223214285714,538.1285714285714,974.8,543.2223214285714,527.1285714285714,1075.6,571.2223214285714,482.12857142857143,1190.3,587.2223214285714,459.12857142857143,1300.9,587.2223214285714,459.12857142857143,1402.3,587.2223214285714,459.12857142857143,1508.1,587.2223214285714,459.12857142857143,1608.4,587.2223214285714,459.12857142857143,1718.4,587.2223214285714,459.12857142857143,1821.8,587.2223214285714,459.12857142857143,1923.8,587.2223214285714,459.12857142857143,2035.2,587.2223214285714,459.12857142857143,2141.4,587.2223214285714,459.12857142857143,2249.8,587.2223214285714,459.12857142857143,2350.8,587.2223214285714,459.12857142857143,2451,587.2223214285714,459.12857142857143,2560,587.2223214285714,459.12857142857143,2661.8,587.2223214285714,459.12857142857143,2765.9,587.2223214285714,459.12857142857143,2867.1,587.2223214285714,459.12857142857143,2975.9,587.2223214285714,459.12857142857143,3082.4,587.2223214285714,459.12857142857143,3186.4,587.2223214285714,459.12857142857143,3286.4,587.2223214285714,459.12857142857143,3386.9,587.2223214285714,459.12857142857143,3500.4,587.2223214285714,459.12857142857143,3602.7,587.2223214285714,459.12857142857143,3707.1,587.2223214285714,459.12857142857143,3809.9,581.2223214285714,470.12857142857143,3911.6,579.2223214285714,478.12857142857143,4011.6,572.2223214285714,487.12857142857143,4116.9,568.2223214285714,494.12857142857143,4226.2,568.2223214285714,496.12857142857143,4330.6,568.2223214285714,495.12857142857143,4432.5,571.2223214285714,489.12857142857143,4532.6,570.2223214285714,482.12857142857143,4636.2,570.2223214285714,476.12857142857143,4743.1,570.2223214285714,476.12857142857143,4843.1,570.2223214285714,476.12857142857143,4946.5]","[4713.6,4713.6,2260,2005.7,447.9,""oops"",""down"",""down"",""good_move"",7398.3,2683.4,2263.3,4715,420,""oops"",""down"",""down"",""good_move"",17479.6,10080.2,2837.4,14165,477.2,""oops"",""right"",""down"",""good_move"",20898.7,3418.4,2960.7,17480.3,457.7,""smooth"",""right"",""right"",""good_move"",23141.2,2241.8,1784.8,20899.4,457.1,""smooth"",""right"",""right"",""good_move"",25347.9,2206,1744,23141.9,462,""smooth"",""right"",""right"",""good_move""]","",""
"3686","","<div style=""width:500px;"">
  <p>What determined the result of this run?</p>
  </div>","99","html-slider-response","35","532544","0.0-5.0-1.5","125","1","2025-07-16 18:51:56","1f75c3e559b7213887762d5229550c2b","216.120.189.119","Mozilla/5.0 (Windows NT 10.0; Win64; x64) AppleWebKit/537.36 (KHTML, like Gecko) Chrome/138.0.0.0 Safari/537.36","WebKit","Chrome","138.0.0.0","Windows","10.0","https://app.prolific.com/","en-US,en;q=0.9","669c1e1fdb95a995eb1d3077","68764874ac79eee8c1d4cb03","6877f490f7896aa95302a383","2","0","669c1e1fdb95a995eb1d3077","2","0","2025-07-16T19:00:55.086Z","","","","","","","","","","","AttribQ","","50","","","","","","","","","","","","","","","","","","","","","","","","","","","","",""
"2983","","<div style=""width:500px;"">
  <p>How much control did you have over the ball?</p>
  </div>","100","html-slider-response","36","535529","0.0-5.0-2.5","125","1","2025-07-16 18:51:56","1f75c3e559b7213887762d5229550c2b","216.120.189.119","Mozilla/5.0 (Windows NT 10.0; Win64; x64) AppleWebKit/537.36 (KHTML, like Gecko) Chrome/138.0.0.0 Safari/537.36","WebKit","Chrome","138.0.0.0","Windows","10.0","https://app.prolific.com/","en-US,en;q=0.9","669c1e1fdb95a995eb1d3077","68764874ac79eee8c1d4cb03","6877f490f7896aa95302a383","2","0","669c1e1fdb95a995eb1d3077","2","0","2025-07-16T19:00:58.071Z","","","","","","","","","","","ControlQ","","50","","","","","","","","","","","","","","","","","","","","","","","","","","","","",""
"4292","","<div style=""width:500px;"">
  <p>How would you describe your current emotional state?</p>
  </div>","1","html-slider-response","37","539823","0.0-5.0-3.5","125","1","2025-07-16 18:51:56","1f75c3e559b7213887762d5229550c2b","216.120.189.119","Mozilla/5.0 (Windows NT 10.0; Win64; x64) AppleWebKit/537.36 (KHTML, like Gecko) Chrome/138.0.0.0 Safari/537.36","WebKit","Chrome","138.0.0.0","Windows","10.0","https://app.prolific.com/","en-US,en;q=0.9","669c1e1fdb95a995eb1d3077","68764874ac79eee8c1d4cb03","6877f490f7896aa95302a383","2","0","669c1e1fdb95a995eb1d3077","2","0","2025-07-16T19:01:02.365Z","","","","","","","","","","","StressQ","","50","","","","","","","","","","","","","","","","","","","","","","","","","","","","",""
"1908","","<div style=""width:500px;"">
  <p>What best describes how you currently feel?</p>
  </div>","100","html-slider-response","38","541732","0.0-5.0-4.5","125","1","2025-07-16 18:51:56","1f75c3e559b7213887762d5229550c2b","216.120.189.119","Mozilla/5.0 (Windows NT 10.0; Win64; x64) AppleWebKit/537.36 (KHTML, like Gecko) Chrome/138.0.0.0 Safari/537.36","WebKit","Chrome","138.0.0.0","Windows","10.0","https://app.prolific.com/","en-US,en;q=0.9","669c1e1fdb95a995eb1d3077","68764874ac79eee8c1d4cb03","6877f490f7896aa95302a383","2","0","669c1e1fdb95a995eb1d3077","2","0","2025-07-16T19:01:04.274Z","","","","","","","","","","","MotivationQ","","50","","","","","","","","","","","","","","","","","","","","","","","","","","","","",""
"","","","","ctl-task-cpt","39","577195","0.0-5.0-0.6","125","1","2025-07-16 18:51:56","1f75c3e559b7213887762d5229550c2b","216.120.189.119","Mozilla/5.0 (Windows NT 10.0; Win64; x64) AppleWebKit/537.36 (KHTML, like Gecko) Chrome/138.0.0.0 Safari/537.36","WebKit","Chrome","138.0.0.0","Windows","10.0","https://app.prolific.com/","en-US,en;q=0.9","669c1e1fdb95a995eb1d3077","68764874ac79eee8c1d4cb03","6877f490f7896aa95302a383","2","0","669c1e1fdb95a995eb1d3077","2","0","2025-07-16T19:01:39.737Z","","","","","","","","","","","","","","win-only","2","g1:SE,g2:NW","0.4","7","0","553198.5","1230.8","6237","32443.4","1","4","4","6","2","4","4","24","20","0.18181818181818182","2135.5","3000","610","[""left"",""up""]","{""num_key_presses"":8,""num_perfect"":4,""num_errors"":0,""num_randdir"":4,""num_randdir_good_moves"":3,""num_whilered"":0,""num_whileblue"":0,""num_blue"":1,""num_good_moves"":7}","[303.22232142857143,298.12857142857143,0.4,303.22232142857143,298.12857142857143,100.2,304.22232142857143,297.12857142857143,206.8,389.22232142857143,342.12857142857143,307.7,406.22232142857143,382.12857142857143,411.5,444.22232142857143,453.12857142857143,524.9,418.22232142857143,450.12857142857143,631.5,128.22232142857143,172.12857142857143,743.7,124.22232142857143,123.12857142857143,858,113.22232142857143,100.12857142857143,980.8,61.222321428571426,64.12857142857143,1084,53.222321428571426,50.128571428571426,1186.7,53.222321428571426,49.128571428571426,1290.4,56.222321428571426,49.128571428571426,1391.2,67.22232142857143,53.128571428571426,1514,67.22232142857143,54.128571428571426,1616.4,68.22232142857143,54.128571428571426,1726.2,68.22232142857143,54.128571428571426,1826.4,67.22232142857143,54.128571428571426,1930.4,55.222321428571426,57.128571428571426,2048.4,50.222321428571426,57.128571428571426,2150.8,49.222321428571426,57.128571428571426,2255.8,49.222321428571426,55.128571428571426,2360,50.222321428571426,53.128571428571426,2464.5,50.222321428571426,52.128571428571426,2565.3,54.222321428571426,42.128571428571426,2666.5,119.22232142857143,33.128571428571426,2782.2,122.22232142857143,30.128571428571426,2884,123.22232142857143,23.128571428571426,2998.3,123.22232142857143,21.128571428571426,3113.3,123.22232142857143,21.128571428571426,3216.6,123.22232142857143,21.128571428571426,3330.7,129.22232142857143,66.12857142857143,3433.2,148.22232142857143,123.12857142857143,3534.7,161.22232142857143,167.12857142857143,3647.6,163.22232142857143,172.12857142857143,3750.3,163.22232142857143,173.12857142857143,3850.3,163.22232142857143,173.12857142857143,3950.6,164.22232142857143,173.12857142857143,4062.7,164.22232142857143,172.12857142857143,4164.9,165.22232142857143,171.12857142857143,4265.8,170.22232142857143,164.12857142857143,4376.2,170.22232142857143,164.12857142857143,4476.6,170.22232142857143,164.12857142857143,4591.4,170.22232142857143,164.12857142857143,4691.6,170.22232142857143,164.12857142857143,4805.9,170.22232142857143,164.12857142857143,4913.2]","[4417.5,4417.5,1774.7,2006,636.8,""oops"",""up"",""left"",""good_move"",7367.2,2949,2463.8,4418.2,485.2,""oops"",""up"",""right"",""bad_move"",10504.1,3136.4,2713.6,7367.8,422.7,""smooth"",""up"",""up"",""good_move"",13604.4,3098.7,2626.9,10505.8,471.7,""oops"",""up"",""up"",""good_move"",16676.4,3071.5,2697.9,13604.9,373.6,""smooth"",""left"",""left"",""good_move"",20042,3364.3,2908.1,16677.7,456.2,""smooth"",""left"",""left"",""good_move"",22848.3,2805.3,2425.6,20043,379.7,""smooth"",""left"",""left"",""good_move"",26071,3222.2,2855,22848.9,367.2,""oops"",""up"",""up"",""good_move""]","",""
"2811","","<div style=""width:500px;"">
  <p>What determined the result of this run?</p>
  </div>","100","html-slider-response","40","580007","0.0-5.0-1.6","125","1","2025-07-16 18:51:56","1f75c3e559b7213887762d5229550c2b","216.120.189.119","Mozilla/5.0 (Windows NT 10.0; Win64; x64) AppleWebKit/537.36 (KHTML, like Gecko) Chrome/138.0.0.0 Safari/537.36","WebKit","Chrome","138.0.0.0","Windows","10.0","https://app.prolific.com/","en-US,en;q=0.9","669c1e1fdb95a995eb1d3077","68764874ac79eee8c1d4cb03","6877f490f7896aa95302a383","2","0","669c1e1fdb95a995eb1d3077","2","0","2025-07-16T19:01:42.549Z","","","","","","","","","","","AttribQ","","50","","","","","","","","","","","","","","","","","","","","","","","","","","","","",""
"2896","","<div style=""width:500px;"">
  <p>How much control did you have over the ball?</p>
  </div>","100","html-slider-response","41","582906","0.0-5.0-2.6","125","1","2025-07-16 18:51:56","1f75c3e559b7213887762d5229550c2b","216.120.189.119","Mozilla/5.0 (Windows NT 10.0; Win64; x64) AppleWebKit/537.36 (KHTML, like Gecko) Chrome/138.0.0.0 Safari/537.36","WebKit","Chrome","138.0.0.0","Windows","10.0","https://app.prolific.com/","en-US,en;q=0.9","669c1e1fdb95a995eb1d3077","68764874ac79eee8c1d4cb03","6877f490f7896aa95302a383","2","0","669c1e1fdb95a995eb1d3077","2","0","2025-07-16T19:01:45.448Z","","","","","","","","","","","ControlQ","","50","","","","","","","","","","","","","","","","","","","","","","","","","","","","",""
"3755","","<div style=""width:500px;"">
  <p>How would you describe your current emotional state?</p>
  </div>","0","html-slider-response","42","586663","0.0-5.0-3.6","125","1","2025-07-16 18:51:56","1f75c3e559b7213887762d5229550c2b","216.120.189.119","Mozilla/5.0 (Windows NT 10.0; Win64; x64) AppleWebKit/537.36 (KHTML, like Gecko) Chrome/138.0.0.0 Safari/537.36","WebKit","Chrome","138.0.0.0","Windows","10.0","https://app.prolific.com/","en-US,en;q=0.9","669c1e1fdb95a995eb1d3077","68764874ac79eee8c1d4cb03","6877f490f7896aa95302a383","2","0","669c1e1fdb95a995eb1d3077","2","0","2025-07-16T19:01:49.205Z","","","","","","","","","","","StressQ","","50","","","","","","","","","","","","","","","","","","","","","","","","","","","","",""
"2373","","<div style=""width:500px;"">
  <p>What best describes how you currently feel?</p>
  </div>","100","html-slider-response","43","589038","0.0-5.0-4.6","125","1","2025-07-16 18:51:56","1f75c3e559b7213887762d5229550c2b","216.120.189.119","Mozilla/5.0 (Windows NT 10.0; Win64; x64) AppleWebKit/537.36 (KHTML, like Gecko) Chrome/138.0.0.0 Safari/537.36","WebKit","Chrome","138.0.0.0","Windows","10.0","https://app.prolific.com/","en-US,en;q=0.9","669c1e1fdb95a995eb1d3077","68764874ac79eee8c1d4cb03","6877f490f7896aa95302a383","2","0","669c1e1fdb95a995eb1d3077","2","0","2025-07-16T19:01:51.580Z","","","","","","","","","","","MotivationQ","","50","","","","","","","","","","","","","","","","","","","","","","","","","","","","",""
"","","","","ctl-task-cpt","44","654459","0.0-5.0-0.7","125","1","2025-07-16 18:51:56","1f75c3e559b7213887762d5229550c2b","216.120.189.119","Mozilla/5.0 (Windows NT 10.0; Win64; x64) AppleWebKit/537.36 (KHTML, like Gecko) Chrome/138.0.0.0 Safari/537.36","WebKit","Chrome","138.0.0.0","Windows","10.0","https://app.prolific.com/","en-US,en;q=0.9","669c1e1fdb95a995eb1d3077","68764874ac79eee8c1d4cb03","6877f490f7896aa95302a383","2","0","669c1e1fdb95a995eb1d3077","2","0","2025-07-16T19:02:57.001Z","","","","","","","","","","","","","","win-only","3","g1:SW,g2:NE","0.3","8","0","600504.4","3200.6","8204.5","62396.7","1","4","8","6","2","-8","-10","14","24","0.10606060606060606","1136.7","3000","-1840","[""up"",""right""]","{""num_key_presses"":12,""num_perfect"":3,""num_errors"":2,""num_randdir"":7,""num_randdir_good_moves"":4,""num_whilered"":0,""num_whileblue"":2,""num_blue"":6,""num_good_moves"":8}","[299.22232142857143,296.12857142857143,0.6,300.22232142857143,297.12857142857143,104.4,300.22232142857143,297.12857142857143,214,300.22232142857143,297.12857142857143,316,303.22232142857143,303.12857142857143,421.9,297.22232142857143,314.12857142857143,523.9,368.22232142857143,207.12857142857143,634,489.22232142857143,108.12857142857143,735.4,544.2223214285714,65.12857142857143,837,550.2223214285714,48.128571428571426,943.3,552.2223214285714,45.128571428571426,1045.4,552.2223214285714,44.128571428571426,1154.4,552.2223214285714,45.128571428571426,1272.5,548.2223214285714,47.128571428571426,1375.8,534.2223214285714,57.128571428571426,1478.6,498.22232142857143,83.12857142857143,1580,448.22232142857143,121.12857142857143,1683.9,427.22232142857143,152.12857142857143,1786.2,428.22232142857143,194.12857142857143,1902.1,432.22232142857143,200.12857142857143,2002.6,432.22232142857143,200.12857142857143,2121.1,434.22232142857143,200.12857142857143,2242,434.22232142857143,200.12857142857143,2345.5,434.22232142857143,200.12857142857143,2447.1,434.22232142857143,200.12857142857143,2568.5,434.22232142857143,200.12857142857143,2670.6,434.22232142857143,200.12857142857143,2772,434.22232142857143,200.12857142857143,2872.2,434.22232142857143,200.12857142857143,2975.4,434.22232142857143,200.12857142857143,3077.7,434.22232142857143,200.12857142857143,3180.8,434.22232142857143,200.12857142857143,3281.2,434.22232142857143,200.12857142857143,3381.6,434.22232142857143,200.12857142857143,3487.7,434.22232142857143,200.12857142857143,3591.3,434.22232142857143,200.12857142857143,3692.8,434.22232142857143,200.12857142857143,3793.2,434.22232142857143,200.12857142857143,3896.3,434.22232142857143,200.12857142857143,3996.7,434.22232142857143,200.12857142857143,4097.7,434.22232142857143,200.12857142857143,4219.4,434.22232142857143,200.12857142857143,4321.8,434.22232142857143,200.12857142857143,4422.5,434.22232142857143,200.12857142857143,4531,434.22232142857143,200.12857142857143,4636.8,434.22232142857143,200.12857142857143,4743,434.22232142857143,200.12857142857143,4846,434.22232142857143,200.12857142857143,4972.3]","[5233.2,5233.2,2777.8,2003.6,451.8,""smooth"",""right"",""right"",""good_move"",8653.6,3419.8,2961.2,5233.9,458.6,""oops"",""right"",""left"",""bad_move"",12080.5,3426,2559.1,8654.5,866.9,""smooth"",""up"",""up"",""good_move"",14426.4,2345,1905.4,12081.4,439.6,""oops"",""up"",""up"",""good_move"",17834.6,3407.3,3013.6,14427.3,393.7,""while_blue"",""right"",""right"",""good_move"",21737.4,3901.7,3439.5,17835.7,462.2,""smooth"",""right"",""right"",""good_move"",29388.1,7650,3364.5,25552.1,471.5,""oops"",""right"",""down"",""bad_move"",33017,3628.1,3180.8,29388.9,447.3,""oops"",""right"",""up"",""good_move"",35822,2803.9,2308.3,33018.1,495.6,""oops"",""up"",""left"",""bad_move"",42217.6,6394.6,3004.5,38807.2,406,""oops"",""right"",""right"",""good_move"",45424.9,3206.4,2801.9,42218.6,404.5,""oops"",""right"",""right"",""good_move"",47817.1,2391.4,2113.4,45425.7,278,""while_blue"",""up"",""down"",""bad_move""]","",""
"3039","","<div style=""width:500px;"">
  <p>What determined the result of this run?</p>
  </div>","100","html-slider-response","45","657499","0.0-5.0-1.7","125","1","2025-07-16 18:51:56","1f75c3e559b7213887762d5229550c2b","216.120.189.119","Mozilla/5.0 (Windows NT 10.0; Win64; x64) AppleWebKit/537.36 (KHTML, like Gecko) Chrome/138.0.0.0 Safari/537.36","WebKit","Chrome","138.0.0.0","Windows","10.0","https://app.prolific.com/","en-US,en;q=0.9","669c1e1fdb95a995eb1d3077","68764874ac79eee8c1d4cb03","6877f490f7896aa95302a383","2","0","669c1e1fdb95a995eb1d3077","2","0","2025-07-16T19:03:00.042Z","","","","","","","","","","","AttribQ","","50","","","","","","","","","","","","","","","","","","","","","","","","","","","","",""
"3095","","<div style=""width:500px;"">
  <p>How much control did you have over the ball?</p>
  </div>","100","html-slider-response","46","660596","0.0-5.0-2.7","125","1","2025-07-16 18:51:56","1f75c3e559b7213887762d5229550c2b","216.120.189.119","Mozilla/5.0 (Windows NT 10.0; Win64; x64) AppleWebKit/537.36 (KHTML, like Gecko) Chrome/138.0.0.0 Safari/537.36","WebKit","Chrome","138.0.0.0","Windows","10.0","https://app.prolific.com/","en-US,en;q=0.9","669c1e1fdb95a995eb1d3077","68764874ac79eee8c1d4cb03","6877f490f7896aa95302a383","2","0","669c1e1fdb95a995eb1d3077","2","0","2025-07-16T19:03:03.138Z","","","","","","","","","","","ControlQ","","50","","","","","","","","","","","","","","","","","","","","","","","","","","","","",""
"3487","","<div style=""width:500px;"">
  <p>How would you describe your current emotional state?</p>
  </div>","3","html-slider-response","47","664085","0.0-5.0-3.7","125","1","2025-07-16 18:51:56","1f75c3e559b7213887762d5229550c2b","216.120.189.119","Mozilla/5.0 (Windows NT 10.0; Win64; x64) AppleWebKit/537.36 (KHTML, like Gecko) Chrome/138.0.0.0 Safari/537.36","WebKit","Chrome","138.0.0.0","Windows","10.0","https://app.prolific.com/","en-US,en;q=0.9","669c1e1fdb95a995eb1d3077","68764874ac79eee8c1d4cb03","6877f490f7896aa95302a383","2","0","669c1e1fdb95a995eb1d3077","2","0","2025-07-16T19:03:06.627Z","","","","","","","","","","","StressQ","","50","","","","","","","","","","","","","","","","","","","","","","","","","","","","",""
"2133","","<div style=""width:500px;"">
  <p>What best describes how you currently feel?</p>
  </div>","100","html-slider-response","48","666221","0.0-5.0-4.7","125","1","2025-07-16 18:51:56","1f75c3e559b7213887762d5229550c2b","216.120.189.119","Mozilla/5.0 (Windows NT 10.0; Win64; x64) AppleWebKit/537.36 (KHTML, like Gecko) Chrome/138.0.0.0 Safari/537.36","WebKit","Chrome","138.0.0.0","Windows","10.0","https://app.prolific.com/","en-US,en;q=0.9","669c1e1fdb95a995eb1d3077","68764874ac79eee8c1d4cb03","6877f490f7896aa95302a383","2","0","669c1e1fdb95a995eb1d3077","2","0","2025-07-16T19:03:08.763Z","","","","","","","","","","","MotivationQ","","50","","","","","","","","","","","","","","","","","","","","","","","","","","","","",""
"","","","","ctl-task-cpt","49","725868","0.0-5.0-0.8","125","1","2025-07-16 18:51:56","1f75c3e559b7213887762d5229550c2b","216.120.189.119","Mozilla/5.0 (Windows NT 10.0; Win64; x64) AppleWebKit/537.36 (KHTML, like Gecko) Chrome/138.0.0.0 Safari/537.36","WebKit","Chrome","138.0.0.0","Windows","10.0","https://app.prolific.com/","en-US,en;q=0.9","669c1e1fdb95a995eb1d3077","68764874ac79eee8c1d4cb03","6877f490f7896aa95302a383","2","0","669c1e1fdb95a995eb1d3077","2","0","2025-07-16T19:04:08.410Z","","","","","","","","","","","","","","win-only","0","g1:NW,g2:SE","0.2","9","0","677687.7","8470.8","13477.8","56636.9","1","4","4","6","2","-4","-4","10","14","0.07575757575757576","939.2","3000","-1810","[""down"",""right""]","{""num_key_presses"":10,""num_perfect"":2,""num_errors"":0,""num_randdir"":8,""num_randdir_good_moves"":3,""num_whilered"":0,""num_whileblue"":0,""num_blue"":4,""num_good_moves"":5}","[291.22232142857143,296.12857142857143,0.5,292.22232142857143,296.12857142857143,103.3,295.22232142857143,290.12857142857143,205.5,310.22232142857143,275.12857142857143,306.3,357.22232142857143,292.12857142857143,408.3,489.22232142857143,455.12857142857143,525.5,539.2223214285714,527.1285714285714,629.3,543.2223214285714,532.1285714285714,752.6,551.2223214285714,536.1285714285714,867,551.2223214285714,539.1285714285714,978.2,551.2223214285714,534.1285714285714,1085.8,555.2223214285714,502.12857142857143,1201.5,635.2223214285714,369.12857142857143,1307.6,663.2223214285714,300.12857142857143,1410.3,663.2223214285714,300.12857142857143,1526.6,663.2223214285714,300.12857142857143,1631.7,663.2223214285714,300.12857142857143,1747.9,663.2223214285714,300.12857142857143,1849.6,663.2223214285714,300.12857142857143,1951.1,663.2223214285714,300.12857142857143,2052.3,663.2223214285714,300.12857142857143,2163.5,663.2223214285714,300.12857142857143,2266.5,663.2223214285714,300.12857142857143,2366.6,663.2223214285714,300.12857142857143,2484.3,663.2223214285714,300.12857142857143,2585.9,663.2223214285714,300.12857142857143,2690.5,663.2223214285714,300.12857142857143,2793.3,663.2223214285714,300.12857142857143,2897.8,663.2223214285714,300.12857142857143,2999.4,663.2223214285714,300.12857142857143,3099.8,663.2223214285714,300.12857142857143,3200.9,663.2223214285714,300.12857142857143,3318.5,663.2223214285714,300.12857142857143,3419.9,663.2223214285714,300.12857142857143,3522.1,663.2223214285714,300.12857142857143,3623.8,663.2223214285714,300.12857142857143,3724.8,663.2223214285714,300.12857142857143,3844.2,663.2223214285714,300.12857142857143,3948,663.2223214285714,300.12857142857143,4053.5,663.2223214285714,300.12857142857143,4155.4,663.2223214285714,300.12857142857143,4263,663.2223214285714,300.12857142857143,4369.5,663.2223214285714,300.12857142857143,4471.1,663.2223214285714,300.12857142857143,4573.2,663.2223214285714,300.12857142857143,4681.4,663.2223214285714,300.12857142857143,4788.5,663.2223214285714,300.12857142857143,4894.1,663.2223214285714,300.12857142857143,4996.9]","[1421.1,1421.1,1000,0,421.1,""oops"",""down"",""left"",""bad_move"",7855.8,6433.6,2234.9,5182.4,438.5,""oops"",""down"",""down"",""good_move"",10716.9,2860.2,2243,7856.7,617.2,""oops"",""down"",""down"",""good_move"",13177.6,2459.2,1980,10718.6,479,""smooth"",""right"",""right"",""good_move"",16326.3,3147.4,2731.2,13178.9,416.2,""oops"",""right"",""right"",""good_move"",19178.5,2851.4,2312.5,16327.1,538.9,""oops"",""right"",""up"",""bad_move"",27823.3,8643.6,2043.7,25332,447.6,""oops"",""down"",""up"",""bad_move"",30564.5,2740.5,2354.8,27824.1,385.7,""smooth"",""right"",""right"",""good_move"",34008.3,3442.4,3045.8,30565.9,396.6,""oops"",""down"",""left"",""bad_move"",40441.1,6432,2447.6,37556.7,436.9,""oops"",""right"",""left"",""bad_move""]","",""
"2083","","<div style=""width:500px;"">
  <p>What determined the result of this run?</p>
  </div>","100","html-slider-response","50","727953","0.0-5.0-1.8","125","1","2025-07-16 18:51:56","1f75c3e559b7213887762d5229550c2b","216.120.189.119","Mozilla/5.0 (Windows NT 10.0; Win64; x64) AppleWebKit/537.36 (KHTML, like Gecko) Chrome/138.0.0.0 Safari/537.36","WebKit","Chrome","138.0.0.0","Windows","10.0","https://app.prolific.com/","en-US,en;q=0.9","669c1e1fdb95a995eb1d3077","68764874ac79eee8c1d4cb03","6877f490f7896aa95302a383","2","0","669c1e1fdb95a995eb1d3077","2","0","2025-07-16T19:04:10.496Z","","","","","","","","","","","AttribQ","","50","","","","","","","","","","","","","","","","","","","","","","","","","","","","",""
"4697","","<div style=""width:500px;"">
  <p>How much control did you have over the ball?</p>
  </div>","99","html-slider-response","51","732653","0.0-5.0-2.8","125","1","2025-07-16 18:51:56","1f75c3e559b7213887762d5229550c2b","216.120.189.119","Mozilla/5.0 (Windows NT 10.0; Win64; x64) AppleWebKit/537.36 (KHTML, like Gecko) Chrome/138.0.0.0 Safari/537.36","WebKit","Chrome","138.0.0.0","Windows","10.0","https://app.prolific.com/","en-US,en;q=0.9","669c1e1fdb95a995eb1d3077","68764874ac79eee8c1d4cb03","6877f490f7896aa95302a383","2","0","669c1e1fdb95a995eb1d3077","2","0","2025-07-16T19:04:15.195Z","","","","","","","","","","","ControlQ","","50","","","","","","","","","","","","","","","","","","","","","","","","","","","","",""
"2772","","<div style=""width:500px;"">
  <p>How would you describe your current emotional state?</p>
  </div>","8","html-slider-response","52","735426","0.0-5.0-3.8","125","1","2025-07-16 18:51:56","1f75c3e559b7213887762d5229550c2b","216.120.189.119","Mozilla/5.0 (Windows NT 10.0; Win64; x64) AppleWebKit/537.36 (KHTML, like Gecko) Chrome/138.0.0.0 Safari/537.36","WebKit","Chrome","138.0.0.0","Windows","10.0","https://app.prolific.com/","en-US,en;q=0.9","669c1e1fdb95a995eb1d3077","68764874ac79eee8c1d4cb03","6877f490f7896aa95302a383","2","0","669c1e1fdb95a995eb1d3077","2","0","2025-07-16T19:04:17.968Z","","","","","","","","","","","StressQ","","50","","","","","","","","","","","","","","","","","","","","","","","","","","","","",""
"3863","","<div style=""width:500px;"">
  <p>What best describes how you currently feel?</p>
  </div>","96","html-slider-response","53","739291","0.0-5.0-4.8","125","1","2025-07-16 18:51:56","1f75c3e559b7213887762d5229550c2b","216.120.189.119","Mozilla/5.0 (Windows NT 10.0; Win64; x64) AppleWebKit/537.36 (KHTML, like Gecko) Chrome/138.0.0.0 Safari/537.36","WebKit","Chrome","138.0.0.0","Windows","10.0","https://app.prolific.com/","en-US,en;q=0.9","669c1e1fdb95a995eb1d3077","68764874ac79eee8c1d4cb03","6877f490f7896aa95302a383","2","0","669c1e1fdb95a995eb1d3077","2","0","2025-07-16T19:04:21.834Z","","","","","","","","","","","MotivationQ","","50","","","","","","","","","","","","","","","","","","","","","","","","","","","","",""
"","","","","ctl-task-cpt","54","788079","0.0-5.0-0.9","125","1","2025-07-16 18:51:56","1f75c3e559b7213887762d5229550c2b","216.120.189.119","Mozilla/5.0 (Windows NT 10.0; Win64; x64) AppleWebKit/537.36 (KHTML, like Gecko) Chrome/138.0.0.0 Safari/537.36","WebKit","Chrome","138.0.0.0","Windows","10.0","https://app.prolific.com/","en-US,en;q=0.9","669c1e1fdb95a995eb1d3077","68764874ac79eee8c1d4cb03","6877f490f7896aa95302a383","2","0","669c1e1fdb95a995eb1d3077","2","0","2025-07-16T19:05:10.621Z","","","","","","","","","","","","","","win-only","1","g1:NE,g2:SW","0.4","10","0","750759","10635.1","15639.5","45754.3","1","4","8","6","2","8","8","18","10","0.13636363636363635","1480.3","3000","1165","[""down"",""left""]","{""num_key_presses"":10,""num_perfect"":4,""num_errors"":0,""num_randdir"":6,""num_randdir_good_moves"":4,""num_whilered"":0,""num_whileblue"":0,""num_blue"":0,""num_good_moves"":8}","[295.22232142857143,295.12857142857143,0.6,296.22232142857143,295.12857142857143,100.8,300.22232142857143,292.12857142857143,204.6,322.22232142857143,267.12857142857143,308.1,383.22232142857143,218.12857142857143,409.9,416.22232142857143,193.12857142857143,514.2,418.22232142857143,186.12857142857143,617.3,400.22232142857143,184.12857142857143,719.8,250.22232142857143,341.12857142857143,826.8,144.22232142857143,461.12857142857143,931.8,86.22232142857143,557.1285714285714,1034,62.222321428571426,595.1285714285714,1166,53.222321428571426,592.1285714285714,1268.6,46.222321428571426,573.1285714285714,1378.3,47.222321428571426,572.1285714285714,1479.1,47.222321428571426,572.1285714285714,1580.6,99.22232142857143,518.1285714285714,1696.7,340.22232142857143,312.12857142857143,1831,435.22232142857143,245.12857142857143,1933.9,478.22232142857143,219.12857142857143,2035,478.22232142857143,218.12857142857143,2138,478.22232142857143,218.12857142857143,2239.5,478.22232142857143,218.12857142857143,2341.8,478.22232142857143,218.12857142857143,2457.8,478.22232142857143,218.12857142857143,2562.4,478.22232142857143,218.12857142857143,2670.4,478.22232142857143,218.12857142857143,2772.9,478.22232142857143,218.12857142857143,2874.1,478.22232142857143,218.12857142857143,2976,478.22232142857143,218.12857142857143,3083,478.22232142857143,218.12857142857143,3185.3,478.22232142857143,218.12857142857143,3309.2,478.22232142857143,218.12857142857143,3429.6,478.22232142857143,218.12857142857143,3532.6,478.22232142857143,218.12857142857143,3638.8,478.22232142857143,218.12857142857143,3740.3,478.22232142857143,218.12857142857143,3841.3,478.22232142857143,218.12857142857143,3948.3,478.22232142857143,218.12857142857143,4051.7,478.22232142857143,218.12857142857143,4171.3,478.22232142857143,218.12857142857143,4271.8,478.22232142857143,218.12857142857143,4375.4,478.22232142857143,218.12857142857143,4478.4,478.22232142857143,218.12857142857143,4591.8,478.22232142857143,218.12857142857143,4705.5,478.22232142857143,218.12857142857143,4821.6,478.22232142857143,218.12857142857143,4939.8]","[1404.5,1404.5,1000,0,404.5,""smooth"",""down"",""down"",""good_move"",3914.1,2508.1,2038.6,1406.1,469.4,""oops"",""down"",""left"",""good_move"",7709.3,3793.6,3410.2,3915.7,383.4,""oops"",""down"",""up"",""bad_move"",10739.4,3028.7,2643.9,7710.7,384.8,""smooth"",""down"",""down"",""good_move"",14293.4,3553.2,3067.6,10740.2,485.6,""oops"",""left"",""right"",""bad_move"",17728.7,3434.3,2993.6,14294.4,440.7,""smooth"",""left"",""left"",""good_move"",20770.6,3041.2,2618.3,17729.4,422.9,""oops"",""down"",""down"",""good_move"",23597.8,2826.9,2400.7,20771,426.2,""smooth"",""left"",""left"",""good_move"",26654.6,3055.9,2047.1,23598.7,1008.8,""oops"",""down"",""left"",""good_move"",29803.2,3147.8,2312.2,26655.5,835.6,""oops"",""down"",""down"",""good_move""]","",""
"5615","","<div style=""width:500px;"">
  <p>What determined the result of this run?</p>
  </div>","100","html-slider-response","55","793697","0.0-5.0-1.9","125","1","2025-07-16 18:51:56","1f75c3e559b7213887762d5229550c2b","216.120.189.119","Mozilla/5.0 (Windows NT 10.0; Win64; x64) AppleWebKit/537.36 (KHTML, like Gecko) Chrome/138.0.0.0 Safari/537.36","WebKit","Chrome","138.0.0.0","Windows","10.0","https://app.prolific.com/","en-US,en;q=0.9","669c1e1fdb95a995eb1d3077","68764874ac79eee8c1d4cb03","6877f490f7896aa95302a383","2","0","669c1e1fdb95a995eb1d3077","2","0","2025-07-16T19:05:16.239Z","","","","","","","","","","","AttribQ","","50","","","","","","","","","","","","","","","","","","","","","","","","","","","","",""
"2401","","<div style=""width:500px;"">
  <p>How much control did you have over the ball?</p>
  </div>","98","html-slider-response","56","796102","0.0-5.0-2.9","125","1","2025-07-16 18:51:56","1f75c3e559b7213887762d5229550c2b","216.120.189.119","Mozilla/5.0 (Windows NT 10.0; Win64; x64) AppleWebKit/537.36 (KHTML, like Gecko) Chrome/138.0.0.0 Safari/537.36","WebKit","Chrome","138.0.0.0","Windows","10.0","https://app.prolific.com/","en-US,en;q=0.9","669c1e1fdb95a995eb1d3077","68764874ac79eee8c1d4cb03","6877f490f7896aa95302a383","2","0","669c1e1fdb95a995eb1d3077","2","0","2025-07-16T19:05:18.644Z","","","","","","","","","","","ControlQ","","50","","","","","","","","","","","","","","","","","","","","","","","","","","","","",""
"14776","","<div style=""width:500px;"">
  <p>How would you describe your current emotional state?</p>
  </div>","7","html-slider-response","57","810881","0.0-5.0-3.9","125","1","2025-07-16 18:51:56","1f75c3e559b7213887762d5229550c2b","216.120.189.119","Mozilla/5.0 (Windows NT 10.0; Win64; x64) AppleWebKit/537.36 (KHTML, like Gecko) Chrome/138.0.0.0 Safari/537.36","WebKit","Chrome","138.0.0.0","Windows","10.0","https://app.prolific.com/","en-US,en;q=0.9","669c1e1fdb95a995eb1d3077","68764874ac79eee8c1d4cb03","6877f490f7896aa95302a383","2","0","669c1e1fdb95a995eb1d3077","2","0","2025-07-16T19:05:33.423Z","","","","","","","","","","","StressQ","","50","","","","","","","","","","","","","","","","","","","","","","","","","","","","",""
"5238","","<div style=""width:500px;"">
  <p>What best describes how you currently feel?</p>
  </div>","100","html-slider-response","58","816122","0.0-5.0-4.9","125","1","2025-07-16 18:51:56","1f75c3e559b7213887762d5229550c2b","216.120.189.119","Mozilla/5.0 (Windows NT 10.0; Win64; x64) AppleWebKit/537.36 (KHTML, like Gecko) Chrome/138.0.0.0 Safari/537.36","WebKit","Chrome","138.0.0.0","Windows","10.0","https://app.prolific.com/","en-US,en;q=0.9","669c1e1fdb95a995eb1d3077","68764874ac79eee8c1d4cb03","6877f490f7896aa95302a383","2","0","669c1e1fdb95a995eb1d3077","2","0","2025-07-16T19:05:38.664Z","","","","","","","","","","","MotivationQ","","50","","","","","","","","","","","","","","","","","","","","","","","","","","","","",""
"","","","","ctl-task-cpt","59","977864","0.0-5.0-0.10","125","1","2025-07-16 18:51:56","1f75c3e559b7213887762d5229550c2b","216.120.189.119","Mozilla/5.0 (Windows NT 10.0; Win64; x64) AppleWebKit/537.36 (KHTML, like Gecko) Chrome/138.0.0.0 Safari/537.36","WebKit","Chrome","138.0.0.0","Windows","10.0","https://app.prolific.com/","en-US,en;q=0.9","669c1e1fdb95a995eb1d3077","68764874ac79eee8c1d4cb03","6877f490f7896aa95302a383","2","0","669c1e1fdb95a995eb1d3077","2","0","2025-07-16T19:08:20.406Z","","","","","","","","","","","","","","win-only","2","g1:SE,g2:NW","0.5","11","0","827589.3","952.3","5964.3","158670","1","4","8","6","2","8","8","26","18","0.19696969696969696","1028.7","3000","1195","[""left"",""up""]","{""num_key_presses"":24,""num_perfect"":13,""num_errors"":0,""num_randdir"":11,""num_randdir_good_moves"":2,""num_whilered"":0,""num_whileblue"":0,""num_blue"":6,""num_good_moves"":15}","[301.22232142857143,292.12857142857143,0.4,301.22232142857143,293.12857142857143,109.8,301.22232142857143,293.12857142857143,221.4,299.22232142857143,290.12857142857143,344.8,255.22232142857143,288.12857142857143,457,136.22232142857143,81.12857142857143,579.9,124.22232142857143,77.12857142857143,689,82.22232142857143,80.12857142857143,803,62.222321428571426,72.12857142857143,917.1,56.222321428571426,65.12857142857143,1022.5,56.222321428571426,65.12857142857143,1135.9,96.22232142857143,68.12857142857143,1245.9,484.22232142857143,86.12857142857143,1365.1,487.22232142857143,86.12857142857143,1472.3,487.22232142857143,86.12857142857143,1575.3,487.22232142857143,86.12857142857143,1679.2,487.22232142857143,86.12857142857143,1784.7,487.22232142857143,86.12857142857143,1887.3,487.22232142857143,86.12857142857143,1991.7,487.22232142857143,86.12857142857143,2100.5,487.22232142857143,86.12857142857143,2210.2,487.22232142857143,86.12857142857143,2316.1,487.22232142857143,86.12857142857143,2423.6,487.22232142857143,86.12857142857143,2524,487.22232142857143,86.12857142857143,2630.4,487.22232142857143,86.12857142857143,2738.8,487.22232142857143,86.12857142857143,2843.2,487.22232142857143,86.12857142857143,2947.4,487.22232142857143,86.12857142857143,3059,487.22232142857143,86.12857142857143,3164.1,487.22232142857143,86.12857142857143,3275.3,487.22232142857143,86.12857142857143,3379.9,487.22232142857143,86.12857142857143,3487,487.22232142857143,86.12857142857143,3591.6,487.22232142857143,86.12857142857143,3693.5,487.22232142857143,86.12857142857143,3798.4,487.22232142857143,86.12857142857143,3902.7,487.22232142857143,86.12857142857143,4006.4,487.22232142857143,86.12857142857143,4118.7,487.22232142857143,86.12857142857143,4228.8,487.22232142857143,86.12857142857143,4328.9,487.22232142857143,86.12857142857143,4435.7,487.22232142857143,86.12857142857143,4548.8,487.22232142857143,86.12857142857143,4652.9,487.22232142857143,86.12857142857143,4761.3,487.22232142857143,86.12857142857143,4889.4,487.22232142857143,86.12857142857143,4990.1]","[1388.9,1388.9,1000,0,388.9,""smooth"",""up"",""up"",""good_move"",4939.2,3549.8,2139.8,1389.4,1410,""smooth"",""up"",""up"",""good_move"",9800.1,4859.2,2292.8,4940.9,2566.4,""smooth"",""left"",""left"",""good_move"",18383.3,8582.4,2653.2,15344,386.1,""oops"",""left"",""up"",""good_move"",27810.7,9427,3364.1,24019.2,427.4,""oops"",""left"",""right"",""bad_move"",31153.5,3342.3,2800,27811.2,542.3,""oops"",""left"",""down"",""bad_move"",37716.2,6559.5,2297.8,34937.4,481,""smooth"",""left"",""left"",""good_move"",46501,8784.1,2517.1,43576,407.9,""oops"",""left"",""right"",""bad_move"",49338.1,2836.7,2171.5,46501.5,665.2,""oops"",""left"",""right"",""bad_move"",52087.6,2748.9,1904.7,49338.7,844.2,""smooth"",""up"",""up"",""good_move"",62943.9,10855.7,1811.4,60642.7,489.8,""smooth"",""left"",""left"",""good_move"",71304.1,8359.7,1892.9,62944.4,6466.8,""smooth"",""left"",""left"",""good_move"",79545.9,8241.3,1967.6,71304.6,6273.7,""oops"",""left"",""right"",""bad_move"",82556.9,3010.7,2424.8,79546.2,585.9,""oops"",""left"",""down"",""bad_move"",85620.6,3063.1,2366.5,82557.5,696.6,""oops"",""left"",""right"",""bad_move"",89741.1,4120,2453.9,85621.1,1666.1,""smooth"",""left"",""left"",""good_move"",98373.3,8631.7,2630.9,89741.7,6000.7,""oops"",""left"",""down"",""bad_move"",104699.3,6325.8,2473.1,101671.8,554.5,""smooth"",""left"",""left"",""good_move"",113357.8,8658.1,2704.7,104699.8,5953.3,""oops"",""left"",""left"",""good_move"",121977.6,8619.5,2654.3,113358.2,5965.1,""smooth"",""up"",""up"",""good_move"",130845.1,8867,2929.1,121978.2,5937.8,""smooth"",""up"",""up"",""good_move"",139631.2,8785.8,2893.7,130845.4,5892.1,""oops"",""left"",""down"",""bad_move"",143151.2,3519.7,2505.4,139631.5,1014.3,""smooth"",""left"",""left"",""good_move"",152097,8945,2903.8,143152,6041.2,""smooth"",""up"",""up"",""good_move""]","",""
"3152","","<div style=""width:500px;"">
  <p>What determined the result of this run?</p>
  </div>","100","html-slider-response","60","981021","0.0-5.0-1.10","125","1","2025-07-16 18:51:56","1f75c3e559b7213887762d5229550c2b","216.120.189.119","Mozilla/5.0 (Windows NT 10.0; Win64; x64) AppleWebKit/537.36 (KHTML, like Gecko) Chrome/138.0.0.0 Safari/537.36","WebKit","Chrome","138.0.0.0","Windows","10.0","https://app.prolific.com/","en-US,en;q=0.9","669c1e1fdb95a995eb1d3077","68764874ac79eee8c1d4cb03","6877f490f7896aa95302a383","2","0","669c1e1fdb95a995eb1d3077","2","0","2025-07-16T19:08:23.563Z","","","","","","","","","","","AttribQ","","50","","","","","","","","","","","","","","","","","","","","","","","","","","","","",""
"1680","","<div style=""width:500px;"">
  <p>How much control did you have over the ball?</p>
  </div>","98","html-slider-response","61","982707","0.0-5.0-2.10","125","1","2025-07-16 18:51:56","1f75c3e559b7213887762d5229550c2b","216.120.189.119","Mozilla/5.0 (Windows NT 10.0; Win64; x64) AppleWebKit/537.36 (KHTML, like Gecko) Chrome/138.0.0.0 Safari/537.36","WebKit","Chrome","138.0.0.0","Windows","10.0","https://app.prolific.com/","en-US,en;q=0.9","669c1e1fdb95a995eb1d3077","68764874ac79eee8c1d4cb03","6877f490f7896aa95302a383","2","0","669c1e1fdb95a995eb1d3077","2","0","2025-07-16T19:08:25.249Z","","","","","","","","","","","ControlQ","","50","","","","","","","","","","","","","","","","","","","","","","","","","","","","",""
"2300","","<div style=""width:500px;"">
  <p>How would you describe your current emotional state?</p>
  </div>","9","html-slider-response","62","985012","0.0-5.0-3.10","125","1","2025-07-16 18:51:56","1f75c3e559b7213887762d5229550c2b","216.120.189.119","Mozilla/5.0 (Windows NT 10.0; Win64; x64) AppleWebKit/537.36 (KHTML, like Gecko) Chrome/138.0.0.0 Safari/537.36","WebKit","Chrome","138.0.0.0","Windows","10.0","https://app.prolific.com/","en-US,en;q=0.9","669c1e1fdb95a995eb1d3077","68764874ac79eee8c1d4cb03","6877f490f7896aa95302a383","2","0","669c1e1fdb95a995eb1d3077","2","0","2025-07-16T19:08:27.554Z","","","","","","","","","","","StressQ","","50","","","","","","","","","","","","","","","","","","","","","","","","","","","","",""
"2111","","<div style=""width:500px;"">
  <p>What best describes how you currently feel?</p>
  </div>","99","html-slider-response","63","987129","0.0-5.0-4.10","125","1","2025-07-16 18:51:56","1f75c3e559b7213887762d5229550c2b","216.120.189.119","Mozilla/5.0 (Windows NT 10.0; Win64; x64) AppleWebKit/537.36 (KHTML, like Gecko) Chrome/138.0.0.0 Safari/537.36","WebKit","Chrome","138.0.0.0","Windows","10.0","https://app.prolific.com/","en-US,en;q=0.9","669c1e1fdb95a995eb1d3077","68764874ac79eee8c1d4cb03","6877f490f7896aa95302a383","2","0","669c1e1fdb95a995eb1d3077","2","0","2025-07-16T19:08:29.671Z","","","","","","","","","","","MotivationQ","","50","","","","","","","","","","","","","","","","","","","","","","","","","","","","",""
"","","","","ctl-task-cpt","64","1046795","0.0-5.0-0.11","125","1","2025-07-16 18:51:56","1f75c3e559b7213887762d5229550c2b","216.120.189.119","Mozilla/5.0 (Windows NT 10.0; Win64; x64) AppleWebKit/537.36 (KHTML, like Gecko) Chrome/138.0.0.0 Safari/537.36","WebKit","Chrome","138.0.0.0","Windows","10.0","https://app.prolific.com/","en-US,en;q=0.9","669c1e1fdb95a995eb1d3077","68764874ac79eee8c1d4cb03","6877f490f7896aa95302a383","2","0","669c1e1fdb95a995eb1d3077","2","0","2025-07-16T19:09:29.337Z","","","","","","","","","","","","","","win-only","1","g1:NE,g2:SW","0.6","12","0","998598.8","1068.9","6093.5","56546.2","1","4","4","6","2","4","3","29","26","0.2196969696969697","1187.3","3000","2725","[""down"",""left""]","{""num_key_presses"":8,""num_perfect"":5,""num_errors"":1,""num_randdir"":2,""num_randdir_good_moves"":1,""num_whilered"":0,""num_whileblue"":1,""num_blue"":2,""num_good_moves"":7}","[296.22232142857143,293.12857142857143,0.4,296.22232142857143,293.12857142857143,155.4,296.22232142857143,291.12857142857143,268.1,309.22232142857143,276.12857142857143,382.3,371.22232142857143,234.12857142857143,501.9,410.22232142857143,188.12857142857143,627.1,128.22232142857143,363.12857142857143,745.6,55.222321428571426,486.12857142857143,879.3,40.222321428571426,548.1285714285714,996.7,43.222321428571426,551.1285714285714,1111.7,44.222321428571426,553.1285714285714,1235.9,52.222321428571426,544.1285714285714,1358,418.22232142857143,376.12857142857143,1475.7,691.2223214285714,196.12857142857143,1620.4,691.2223214285714,196.12857142857143,1732.5,691.2223214285714,196.12857142857143,1847.8,691.2223214285714,196.12857142857143,1960.5,691.2223214285714,196.12857142857143,2074,691.2223214285714,196.12857142857143,2190.1,691.2223214285714,196.12857142857143,2303.9,691.2223214285714,196.12857142857143,2412.6,691.2223214285714,196.12857142857143,2522.8,691.2223214285714,196.12857142857143,2635.6,691.2223214285714,196.12857142857143,2746.1,691.2223214285714,196.12857142857143,2851.3,691.2223214285714,196.12857142857143,2962,691.2223214285714,196.12857142857143,3074.8,691.2223214285714,196.12857142857143,3188.7,691.2223214285714,196.12857142857143,3299.3,691.2223214285714,196.12857142857143,3411.4,691.2223214285714,196.12857142857143,3521.6,691.2223214285714,196.12857142857143,3633.2,691.2223214285714,196.12857142857143,3743.6,691.2223214285714,196.12857142857143,3854.9,691.2223214285714,196.12857142857143,3966.8,691.2223214285714,196.12857142857143,4081.4,691.2223214285714,196.12857142857143,4194.8,691.2223214285714,196.12857142857143,4306.8,691.2223214285714,196.12857142857143,4415.7,691.2223214285714,196.12857142857143,4526.8,691.2223214285714,196.12857142857143,4637.8,691.2223214285714,196.12857142857143,4747.6,691.2223214285714,196.12857142857143,4857.2,691.2223214285714,196.12857142857143,4967.7]","[1484.8,1484.8,1000,0,484.8,""smooth"",""down"",""down"",""good_move"",4503.4,3018.1,2558.9,1485.3,459.2,""smooth"",""down"",""down"",""good_move"",7380.7,2876.6,2379.2,4504.1,497.4,""oops"",""left"",""down"",""good_move"",14086.9,6705.4,2671.6,10927.1,488.2,""smooth"",""left"",""left"",""good_move"",24614.1,10526.7,2658.5,14087.4,7868.2,""oops"",""left"",""right"",""bad_move"",28315.6,3700.8,3032.3,24614.8,668.5,""smooth"",""left"",""left"",""good_move"",38882.2,10566.1,2546.6,28316.1,8019.5,""smooth"",""left"",""left"",""good_move"",49111.5,10228.7,9660.3,38882.8,568.4,""while_blue"",""left"",""left"",""good_move""]","",""
"3289","","<div style=""width:500px;"">
  <p>What determined the result of this run?</p>
  </div>","100","html-slider-response","65","1050092","0.0-5.0-1.11","125","1","2025-07-16 18:51:56","1f75c3e559b7213887762d5229550c2b","216.120.189.119","Mozilla/5.0 (Windows NT 10.0; Win64; x64) AppleWebKit/537.36 (KHTML, like Gecko) Chrome/138.0.0.0 Safari/537.36","WebKit","Chrome","138.0.0.0","Windows","10.0","https://app.prolific.com/","en-US,en;q=0.9","669c1e1fdb95a995eb1d3077","68764874ac79eee8c1d4cb03","6877f490f7896aa95302a383","2","0","669c1e1fdb95a995eb1d3077","2","0","2025-07-16T19:09:32.634Z","","","","","","","","","","","AttribQ","","50","","","","","","","","","","","","","","","","","","","","","","","","","","","","",""
"3933","","<div style=""width:500px;"">
  <p>How much control did you have over the ball?</p>
  </div>","100","html-slider-response","66","1054033","0.0-5.0-2.11","125","1","2025-07-16 18:51:56","1f75c3e559b7213887762d5229550c2b","216.120.189.119","Mozilla/5.0 (Windows NT 10.0; Win64; x64) AppleWebKit/537.36 (KHTML, like Gecko) Chrome/138.0.0.0 Safari/537.36","WebKit","Chrome","138.0.0.0","Windows","10.0","https://app.prolific.com/","en-US,en;q=0.9","669c1e1fdb95a995eb1d3077","68764874ac79eee8c1d4cb03","6877f490f7896aa95302a383","2","0","669c1e1fdb95a995eb1d3077","2","0","2025-07-16T19:09:36.575Z","","","","","","","","","","","ControlQ","","50","","","","","","","","","","","","","","","","","","","","","","","","","","","","",""
"4103","","<div style=""width:500px;"">
  <p>How would you describe your current emotional state?</p>
  </div>","11","html-slider-response","67","1058146","0.0-5.0-3.11","125","1","2025-07-16 18:51:56","1f75c3e559b7213887762d5229550c2b","216.120.189.119","Mozilla/5.0 (Windows NT 10.0; Win64; x64) AppleWebKit/537.36 (KHTML, like Gecko) Chrome/138.0.0.0 Safari/537.36","WebKit","Chrome","138.0.0.0","Windows","10.0","https://app.prolific.com/","en-US,en;q=0.9","669c1e1fdb95a995eb1d3077","68764874ac79eee8c1d4cb03","6877f490f7896aa95302a383","2","0","669c1e1fdb95a995eb1d3077","2","0","2025-07-16T19:09:40.688Z","","","","","","","","","","","StressQ","","50","","","","","","","","","","","","","","","","","","","","","","","","","","","","",""
"1987","","<div style=""width:500px;"">
  <p>What best describes how you currently feel?</p>
  </div>","100","html-slider-response","68","1060141","0.0-5.0-4.11","125","1","2025-07-16 18:51:56","1f75c3e559b7213887762d5229550c2b","216.120.189.119","Mozilla/5.0 (Windows NT 10.0; Win64; x64) AppleWebKit/537.36 (KHTML, like Gecko) Chrome/138.0.0.0 Safari/537.36","WebKit","Chrome","138.0.0.0","Windows","10.0","https://app.prolific.com/","en-US,en;q=0.9","669c1e1fdb95a995eb1d3077","68764874ac79eee8c1d4cb03","6877f490f7896aa95302a383","2","0","669c1e1fdb95a995eb1d3077","2","0","2025-07-16T19:09:42.683Z","","","","","","","","","","","MotivationQ","","50","","","","","","","","","","","","","","","","","","","","","","","","","","","","",""
"","","","","ctl-task-cpt","69","1141915","0.0-5.0-0.12","125","1","2025-07-16 18:51:56","1f75c3e559b7213887762d5229550c2b","216.120.189.119","Mozilla/5.0 (Windows NT 10.0; Win64; x64) AppleWebKit/537.36 (KHTML, like Gecko) Chrome/138.0.0.0 Safari/537.36","WebKit","Chrome","138.0.0.0","Windows","10.0","https://app.prolific.com/","en-US,en;q=0.9","669c1e1fdb95a995eb1d3077","68764874ac79eee8c1d4cb03","6877f490f7896aa95302a383","2","0","669c1e1fdb95a995eb1d3077","2","0","2025-07-16T19:11:04.457Z","","","","","","","","","","","","","","win-only","0","g1:NW,g2:SE","0.7","13","0","1071612.3","1841.5","6858.1","78737.1","1","4","8","6","2","8","8","37","29","0.2803030303030303","1359.6","3000","1555","[""down"",""right""]","{""num_key_presses"":12,""num_perfect"":9,""num_errors"":0,""num_randdir"":3,""num_randdir_good_moves"":0,""num_whilered"":0,""num_whileblue"":0,""num_blue"":3,""num_good_moves"":9}","[296.22232142857143,296.12857142857143,0.4,296.22232142857143,296.12857142857143,138.2,294.22232142857143,296.12857142857143,239.6,295.22232142857143,294.12857142857143,347.3,290.22232142857143,295.12857142857143,454.1,249.22232142857143,296.12857142857143,558.9,297.22232142857143,339.12857142857143,667.3,410.22232142857143,434.12857142857143,773.2,456.22232142857143,462.12857142857143,880,491.22232142857143,489.12857142857143,986.1,527.2223214285714,525.1285714285714,1092.5,536.2223214285714,537.1285714285714,1197.1,540.2223214285714,528.1285714285714,1431.1,555.2223214285714,515.1285714285714,1539.8,722.2223214285714,394.12857142857143,1648,735.2223214285714,385.12857142857143,1749.5,735.2223214285714,385.12857142857143,1851.9,735.2223214285714,385.12857142857143,1951.9,735.2223214285714,385.12857142857143,2052.1,735.2223214285714,385.12857142857143,2154.1,735.2223214285714,385.12857142857143,2261.9,735.2223214285714,385.12857142857143,2362.5,735.2223214285714,385.12857142857143,2464.7,735.2223214285714,385.12857142857143,2565.6,735.2223214285714,385.12857142857143,2666.2,735.2223214285714,385.12857142857143,2774.7,735.2223214285714,385.12857142857143,2875.7,735.2223214285714,385.12857142857143,2976.2,735.2223214285714,385.12857142857143,3079.4,735.2223214285714,385.12857142857143,3184.4,735.2223214285714,385.12857142857143,3290.1,735.2223214285714,385.12857142857143,3391.1,735.2223214285714,385.12857142857143,3492.5,735.2223214285714,385.12857142857143,3593.4,735.2223214285714,385.12857142857143,3694,735.2223214285714,385.12857142857143,3794.4,735.2223214285714,385.12857142857143,3896.1,735.2223214285714,385.12857142857143,3997.9,735.2223214285714,385.12857142857143,4099.8,735.2223214285714,385.12857142857143,4201.1,735.2223214285714,385.12857142857143,4308.6,735.2223214285714,385.12857142857143,4409.4,735.2223214285714,385.12857142857143,4510.6,735.2223214285714,385.12857142857143,4612.9,735.2223214285714,385.12857142857143,4713.8,735.2223214285714,385.12857142857143,4814.3,735.2223214285714,385.12857142857143,4914.6]","[1561.9,1561.9,1000,0,561.9,""oops"",""down"",""up"",""bad_move"",22782.3,21219.7,2503.9,19707.8,570.6,""smooth"",""down"",""down"",""good_move"",29447,6664.3,2127.3,26675.5,644.2,""oops"",""right"",""left"",""bad_move"",42729.3,13281.9,2648.6,29447.4,10633.3,""smooth"",""down"",""down"",""good_move"",46002.5,3272.5,2861.3,42730,411.2,""smooth"",""down"",""down"",""good_move"",48948,2944.6,2489.2,46003.4,455.4,""smooth"",""right"",""right"",""good_move"",52757.8,3808.5,3387,48949.3,421.5,""oops"",""right"",""left"",""bad_move"",55843.6,3085.2,2727.6,52758.4,357.6,""smooth"",""down"",""down"",""good_move"",59161.8,3317.4,2900.5,55844.4,416.9,""smooth"",""right"",""right"",""good_move"",61854,2691.7,2237.2,59162.3,454.5,""smooth"",""right"",""right"",""good_move"",64777.9,2923.5,2450.1,61854.4,473.4,""smooth"",""right"",""right"",""good_move"",71528.6,6750.3,2355.1,68746.8,426.7,""smooth"",""right"",""right"",""good_move""]","",""
"2471","","<div style=""width:500px;"">
  <p>What determined the result of this run?</p>
  </div>","99","html-slider-response","70","1144389","0.0-5.0-1.12","125","1","2025-07-16 18:51:56","1f75c3e559b7213887762d5229550c2b","216.120.189.119","Mozilla/5.0 (Windows NT 10.0; Win64; x64) AppleWebKit/537.36 (KHTML, like Gecko) Chrome/138.0.0.0 Safari/537.36","WebKit","Chrome","138.0.0.0","Windows","10.0","https://app.prolific.com/","en-US,en;q=0.9","669c1e1fdb95a995eb1d3077","68764874ac79eee8c1d4cb03","6877f490f7896aa95302a383","2","0","669c1e1fdb95a995eb1d3077","2","0","2025-07-16T19:11:06.931Z","","","","","","","","","","","AttribQ","","50","","","","","","","","","","","","","","","","","","","","","","","","","","","","",""
"1741","","<div style=""width:500px;"">
  <p>How much control did you have over the ball?</p>
  </div>","100","html-slider-response","71","1146133","0.0-5.0-2.12","125","1","2025-07-16 18:51:56","1f75c3e559b7213887762d5229550c2b","216.120.189.119","Mozilla/5.0 (Windows NT 10.0; Win64; x64) AppleWebKit/537.36 (KHTML, like Gecko) Chrome/138.0.0.0 Safari/537.36","WebKit","Chrome","138.0.0.0","Windows","10.0","https://app.prolific.com/","en-US,en;q=0.9","669c1e1fdb95a995eb1d3077","68764874ac79eee8c1d4cb03","6877f490f7896aa95302a383","2","0","669c1e1fdb95a995eb1d3077","2","0","2025-07-16T19:11:08.675Z","","","","","","","","","","","ControlQ","","50","","","","","","","","","","","","","","","","","","","","","","","","","","","","",""
"1642","","<div style=""width:500px;"">
  <p>How would you describe your current emotional state?</p>
  </div>","12","html-slider-response","72","1147778","0.0-5.0-3.12","125","1","2025-07-16 18:51:56","1f75c3e559b7213887762d5229550c2b","216.120.189.119","Mozilla/5.0 (Windows NT 10.0; Win64; x64) AppleWebKit/537.36 (KHTML, like Gecko) Chrome/138.0.0.0 Safari/537.36","WebKit","Chrome","138.0.0.0","Windows","10.0","https://app.prolific.com/","en-US,en;q=0.9","669c1e1fdb95a995eb1d3077","68764874ac79eee8c1d4cb03","6877f490f7896aa95302a383","2","0","669c1e1fdb95a995eb1d3077","2","0","2025-07-16T19:11:10.320Z","","","","","","","","","","","StressQ","","50","","","","","","","","","","","","","","","","","","","","","","","","","","","","",""
"2658","","<div style=""width:500px;"">
  <p>What best describes how you currently feel?</p>
  </div>","100","html-slider-response","73","1150439","0.0-5.0-4.12","125","1","2025-07-16 18:51:56","1f75c3e559b7213887762d5229550c2b","216.120.189.119","Mozilla/5.0 (Windows NT 10.0; Win64; x64) AppleWebKit/537.36 (KHTML, like Gecko) Chrome/138.0.0.0 Safari/537.36","WebKit","Chrome","138.0.0.0","Windows","10.0","https://app.prolific.com/","en-US,en;q=0.9","669c1e1fdb95a995eb1d3077","68764874ac79eee8c1d4cb03","6877f490f7896aa95302a383","2","0","669c1e1fdb95a995eb1d3077","2","0","2025-07-16T19:11:12.981Z","","","","","","","","","","","MotivationQ","","50","","","","","","","","","","","","","","","","","","","","","","","","","","","","",""
