"rt","response_timestamp","stimulus","response","trial_type","trial_index","time_elapsed","internal_node_id","run_id","condition","recorded_at","source_code_version","ip","user_agent","device","browser","browser_version","platform","platform_version","referer","accept_language","PROLIFIC_PID","STUDY_ID","SESSION_ID","WEEK","BATCH","prolific_id","week","batch","realtime","success","responses","item_order","radio_event_ids","radio_event_times","key_event_times","mouse_event_times","straightlining","zigzagging","honeypot","eventType","view_history","slider_start","which_type","canvas_config","goals_layout","control_level","trial_number","tutorial_trial_number","trial_start_time","phase1_start_time","phase2_start_time","phase3_start_time","goal_1_value","goal_1_distance","goal_2_value","goal_2_distance","goal_selected","outcome","outcome_total","participant_final_score","participant_initial_score","participant_final_score_prop","goal_choice_rt","allocated_time","allocated_time_remaining","goal_direction","counts","mouse_movements","key_presses","question_order","question_id"
"41940","1753276635186","<p style='font-size:40px;line-height:1.25'><strong>Welcome to the experiment!</strong></p><p style='font-size:1.1em;line-height:1.25'>Thank you for participanting in our experiment again! You will be asked to play the Dysfunctional Ball Game again. We will briefly recap the rules before we start.</p><p style='font-size:1.1em;line-height:1.25'>Press <strong>Next</strong> to continue.</p>","0","custom-html-button-response","0","41939","0.0-0.0","219","1","2025-07-23 13:16:29","1f75c3e559b7213887762d5229550c2b","41.122.132.69","Mozilla/5.0 (Macintosh; Intel Mac OS X 10_15_7) AppleWebKit/537.36 (KHTML, like Gecko) Chrome/128.0.0.0 Safari/537.36","Macintosh","Chrome","128.0.0.0","OS X","10_15_7","https://app.prolific.com/","en-GB,en-US;q=0.9,en;q=0.8","6780db9dafd89add339abb6b","683db9eb0562dbf637994deb","6880e06131b08b85e75e3f9c","2","1","6780db9dafd89add339abb6b","2","1","2025-07-23T13:17:15.187Z","","","","","","","","","","","","","","","","","","","","","","","","","","","","","","","","","","","","","","","","","",""
"9774","","","","fullscreen","1","52717","0.0-1.0","219","1","2025-07-23 13:16:29","1f75c3e559b7213887762d5229550c2b","41.122.132.69","Mozilla/5.0 (Macintosh; Intel Mac OS X 10_15_7) AppleWebKit/537.36 (KHTML, like Gecko) Chrome/128.0.0.0 Safari/537.36","Macintosh","Chrome","128.0.0.0","OS X","10_15_7","https://app.prolific.com/","en-GB,en-US;q=0.9,en;q=0.8","6780db9dafd89add339abb6b","683db9eb0562dbf637994deb","6880e06131b08b85e75e3f9c","2","1","6780db9dafd89add339abb6b","2","1","","true","","","","","","","","","","","","","","","","","","","","","","","","","","","","","","","","","","","","","","","","",""
"55864","1753276701832","<p style='font-size:1.1em;line-height:1.25'>In the following, we will ask you a few questions relating to your feelings in the last 24 hours.<br></p><p style='font-size:1.1em;line-height:1.25'>Press the <strong>Next</strong> button to continue.</p>","0","custom-html-button-response","2","108585","0.0-2.0-0.0","219","1","2025-07-23 13:16:29","1f75c3e559b7213887762d5229550c2b","41.122.132.69","Mozilla/5.0 (Macintosh; Intel Mac OS X 10_15_7) AppleWebKit/537.36 (KHTML, like Gecko) Chrome/128.0.0.0 Safari/537.36","Macintosh","Chrome","128.0.0.0","OS X","10_15_7","https://app.prolific.com/","en-GB,en-US;q=0.9,en;q=0.8","6780db9dafd89add339abb6b","683db9eb0562dbf637994deb","6880e06131b08b85e75e3f9c","2","1","6780db9dafd89add339abb6b","2","1","2025-07-23T13:18:21.833Z","","","","","","","","","","","","","","","","","","","","","","","","","","","","","","","","","","","","","","","","","",""
"148751.70000004768","","","","survey-template","3","257356","0.0-2.0-1.0","219","1","2025-07-23 13:16:29","1f75c3e559b7213887762d5229550c2b","41.122.132.69","Mozilla/5.0 (Macintosh; Intel Mac OS X 10_15_7) AppleWebKit/537.36 (KHTML, like Gecko) Chrome/128.0.0.0 Safari/537.36","Macintosh","Chrome","128.0.0.0","OS X","10_15_7","https://app.prolific.com/","en-GB,en-US;q=0.9,en;q=0.8","6780db9dafd89add339abb6b","683db9eb0562dbf637994deb","6880e06131b08b85e75e3f9c","2","1","6780db9dafd89add339abb6b","2","1","2025-07-23T13:20:50.604Z","","{""Q01"":""1"",""Q02"":""2"",""Q03"":""1"",""Q04"":""2"",""Q05"":""3"",""Q06"":""1"",""Q07"":""1"",""Q08"":""2"",""Q09"":""1"",""Q10"":""2"",""Q11"":""2"",""Q12"":""2"",""Q13"":""1"",""Q14"":""1"",""Q15"":""3"",""Q16"":""3"",""Q17"":""2"",""Q18"":""2"",""Q19"":""3"",""Q20"":""3"",""Q21"":""2"",""Q22"":""2""}","[0,1,2,3,4,5,6,7,8,9,10,11,12,13,14,15,16,17,18,19,20,21]","[""Q01"",""Q02"",""Q03"",""Q04"",""Q05"",""Q06"",""Q07"",""Q08"",""Q09"",""Q10"",""Q11"",""Q12"",""Q12"",""Q13"",""Q14"",""Q15"",""Q16"",""Q17"",""Q18"",""Q19"",""Q20"",""Q21"",""Q21"",""Q22""]","[68323.30000019073,68874.20000004768,69802,75874.20000004768,78870,85671.90000009537,87673.70000004768,93779.5,95844,101688,103561.90000009537,106150,106491.10000014305,111097.70000004768,112274.10000014305,120001.10000014305,120844.90000009537,123518.70000004768,126931.90000009537,131425.80000019073,138507.90000009537,141035.90000009537,141295,145955.60000014305]","[]","[0.10000014305114746,68323.30000019073,68874.20000004768,69802,70533.90000009537,71564.60000014305,72536.20000004768,73130.10000014305,74710.20000004768,75248.5,75874.20000004768,76957.90000009537,77648,78870,79907.70000004768,80430,81485,82245.70000004768,82695.70000004768,83467,85263.70000004768,85671.90000009537,86662.10000014305,87104.30000019073,87673.70000004768,88935.10000014305,89395.10000014305,89886.90000009537,90558.80000019073,93083.80000019073,93779.5,94761.70000004768,95355.70000004768,95844,98291.70000004768,98900.20000004768,100608.20000004768,101142.10000014305,101688,102532.10000014305,103006.5,103561.90000009537,106150,106491.10000014305,108299.20000004768,108816.5,109458.10000014305,110095.80000019073,110697.70000004768,111097.70000004768,112274.10000014305,112647.60000014305,120001.10000014305,120844.90000009537,121641.40000009537,122447,123518.70000004768,124206.5,126314,126931.90000009537,128944.80000019073,129457.90000009537,130302.70000004768,130870.5,131425.80000019073,132335.60000014305,132950.30000019073,134360.70000004768,134791.90000009537,136308.60000014305,136370.90000009537,136906.5,138038.90000009537,138507.90000009537,139564.20000004768,140013.80000019073,140378,140848,141035.90000009537,141295,142187.70000004768,142834.60000014305,144093.80000019073,144615.70000004768,145069.70000004768,145479.5,145955.60000014305,148743.20000004768]","0.45454545454545453","0.5238095238095238","0","drsp","","","","","","","","","","","","","","","","","","","","","","","","","","","","","","",""
"23788","","","","survey-template","4","281151","0.0-2.0-2.0","219","1","2025-07-23 13:16:29","1f75c3e559b7213887762d5229550c2b","41.122.132.69","Mozilla/5.0 (Macintosh; Intel Mac OS X 10_15_7) AppleWebKit/537.36 (KHTML, like Gecko) Chrome/128.0.0.0 Safari/537.36","Macintosh","Chrome","128.0.0.0","OS X","10_15_7","https://app.prolific.com/","en-GB,en-US;q=0.9,en;q=0.8","6780db9dafd89add339abb6b","683db9eb0562dbf637994deb","6880e06131b08b85e75e3f9c","2","1","6780db9dafd89add339abb6b","2","1","2025-07-23T13:21:14.399Z","","{""Q01"":""3"",""Q02"":""1"",""Q03"":""2""}","[0,1,2]","[""Q01"",""Q02"",""Q03""]","[10614.900000095367,14836.799999952316,22361]","[]","[4501.400000095367,5589,10614.900000095367,12878.700000047684,13635,14290.799999952316,14836.799999952316,21861,22361,23786.599999904633]","0.3333333333333333","0.5","0","stress","","","","","","","","","","","","","","","","","","","","","","","","","","","","","","",""
"126775","","","","instructions","5","407933","0.0-3.0-0.0","219","1","2025-07-23 13:16:29","1f75c3e559b7213887762d5229550c2b","41.122.132.69","Mozilla/5.0 (Macintosh; Intel Mac OS X 10_15_7) AppleWebKit/537.36 (KHTML, like Gecko) Chrome/128.0.0.0 Safari/537.36","Macintosh","Chrome","128.0.0.0","OS X","10_15_7","https://app.prolific.com/","en-GB,en-US;q=0.9,en;q=0.8","6780db9dafd89add339abb6b","683db9eb0562dbf637994deb","6880e06131b08b85e75e3f9c","2","1","6780db9dafd89add339abb6b","2","1","","","","","","","","","","","","","[{""page_index"":0,""viewing_time"":126775}]","","","","","","","","","","","","","","","","","","","","","","","","","","","","","",""
"3098","","<p>Before you start with this game please answer the following three questions yourself. </p>
  <p>Through this game, we measure several aspects of your cognitive performance, such as reaction times, multi-tasking capabilities </p>
  <p>and the ability to assess the situation you are in.</p>
  <p></p>
  <p><b>How good do you usually are in such tasks?</b></p>","74","html-slider-response","6","411043","0.0-4.0-0.0","219","1","2025-07-23 13:16:29","1f75c3e559b7213887762d5229550c2b","41.122.132.69","Mozilla/5.0 (Macintosh; Intel Mac OS X 10_15_7) AppleWebKit/537.36 (KHTML, like Gecko) Chrome/128.0.0.0 Safari/537.36","Macintosh","Chrome","128.0.0.0","OS X","10_15_7","https://app.prolific.com/","en-GB,en-US;q=0.9,en;q=0.8","6780db9dafd89add339abb6b","683db9eb0562dbf637994deb","6880e06131b08b85e75e3f9c","2","1","6780db9dafd89add339abb6b","2","1","2025-07-23T13:23:24.291Z","","","","","","","","","","","PreSkillQ","","50","","","","","","","","","","","","","","","","","","","","","","","","","","","","",""
"34686","","<div style=""width:500px;"">
  <p>How well do you think you will perform in this task compared to other participants?</p>
  </div>","66","html-slider-response","7","445732","0.0-4.0-1.0","219","1","2025-07-23 13:16:29","1f75c3e559b7213887762d5229550c2b","41.122.132.69","Mozilla/5.0 (Macintosh; Intel Mac OS X 10_15_7) AppleWebKit/537.36 (KHTML, like Gecko) Chrome/128.0.0.0 Safari/537.36","Macintosh","Chrome","128.0.0.0","OS X","10_15_7","https://app.prolific.com/","en-GB,en-US;q=0.9,en;q=0.8","6780db9dafd89add339abb6b","683db9eb0562dbf637994deb","6880e06131b08b85e75e3f9c","2","1","6780db9dafd89add339abb6b","2","1","2025-07-23T13:23:58.980Z","","","","","","","","","","","PrePerfQ","","50","","","","","","","","","","","","","","","","","","","","","","","","","","","","",""
"4195","","<div style=""width:500px;"">
  <p>What best describes how you currently feel?</p>
  </div>","83","html-slider-response","8","449930","0.0-4.0-2.0","219","1","2025-07-23 13:16:29","1f75c3e559b7213887762d5229550c2b","41.122.132.69","Mozilla/5.0 (Macintosh; Intel Mac OS X 10_15_7) AppleWebKit/537.36 (KHTML, like Gecko) Chrome/128.0.0.0 Safari/537.36","Macintosh","Chrome","128.0.0.0","OS X","10_15_7","https://app.prolific.com/","en-GB,en-US;q=0.9,en;q=0.8","6780db9dafd89add339abb6b","683db9eb0562dbf637994deb","6880e06131b08b85e75e3f9c","2","1","6780db9dafd89add339abb6b","2","1","2025-07-23T13:24:03.178Z","","","","","","","","","","","PreMotivationQ","","50","","","","","","","","","","","","","","","","","","","","","","","","","","","","",""
"","","","","ctl-task-cpt","9","487802","0.0-5.0-0.0","219","1","2025-07-23 13:16:29","1f75c3e559b7213887762d5229550c2b","41.122.132.69","Mozilla/5.0 (Macintosh; Intel Mac OS X 10_15_7) AppleWebKit/537.36 (KHTML, like Gecko) Chrome/128.0.0.0 Safari/537.36","Macintosh","Chrome","128.0.0.0","OS X","10_15_7","https://app.prolific.com/","en-GB,en-US;q=0.9,en;q=0.8","6780db9dafd89add339abb6b","683db9eb0562dbf637994deb","6880e06131b08b85e75e3f9c","2","1","6780db9dafd89add339abb6b","2","1","2025-07-23T13:24:41.051Z","","","","","","","","","","","","","","win-only","0","g1:NW,g2:SE","1","1","0","452388.9","2262.1","7266.6","34848","1","4","8","6","2","8","7","7","0","0.05303030303030303","3936.2","3000","960","[""down"",""right""]","{""num_key_presses"":6,""num_perfect"":5,""num_errors"":1,""num_randdir"":0,""num_randdir_good_moves"":0,""num_whilered"":0,""num_whileblue"":1,""num_blue"":4,""num_good_moves"":6}","[309.2062546075322,314.2218796822708,0.4,309.2062546075322,314.2218796822708,103.6,265.2062539518811,314.2218796822708,204.2,-406.79375606169924,250.2218787285965,308.9,-406.79375606169924,-72.17812607553788,414.5,-406.79375606169924,-72.17812607553788,514.6,-406.79375606169924,-72.17812607553788,614.9,-406.79375606169924,-72.17812607553788,714.9,-406.79375606169924,-72.17812607553788,819.2,-406.79375606169924,-72.17812607553788,921,-406.79375606169924,-72.17812607553788,1023.8,-406.79375606169924,-72.17812607553788,1124.2,-406.79375606169924,-72.17812607553788,1229.8,-406.79375606169924,-72.17812607553788,1334.2,-406.79375606169924,-72.17812607553788,1438.9,-406.79375606169924,-72.17812607553788,1539.1,-406.79375606169924,-72.17812607553788,1639.3,-406.79375606169924,-72.17812607553788,1739.4,-406.79375606169924,-72.17812607553788,1844.7,-406.79375606169924,-72.17812607553788,1949.2,-406.79375606169924,-72.17812607553788,2050.7,-406.79375606169924,-72.17812607553788,2153.9,-406.79375606169924,-72.17812607553788,2254.3,-406.79375606169924,-72.17812607553788,2359.1,-406.79375606169924,-72.17812607553788,2459.2,-406.79375606169924,-72.17812607553788,2560,-406.79375606169924,-72.17812607553788,2664.6,-406.79375606169924,-72.17812607553788,2768.9,-406.79375606169924,-72.17812607553788,2869,-406.79375606169924,-72.17812607553788,2969.2,-406.79375606169924,-72.17812607553788,3071.1,-406.79375606169924,-72.17812607553788,3173.7,292.40625435719267,99.82187648746185,3274.2,292.40625435719267,99.82187648746185,3378.8,730.8062608898617,562.2218833777588,3479.2,690.8062602938153,571.021883508889,3579.6,638.006259507034,583.0218836877029,3679.7,580.4062586487271,568.6218834731262,3787.9,580.4062586487271,567.8218834612053,3889.7,580.4062586487271,567.8218834612053,3994.7,580.4062586487271,567.8218834612053,4095.2,580.4062586487271,567.8218834612053,4199.4,499.60625744471326,535.8218829843681,4300.2,-179.59375267615542,348.62188019487076,4401.6,-406.79375606169924,-61.778125920565806,4504.4,-406.79375606169924,-61.778125920565806,4605.2,-406.79375606169924,-61.778125920565806,4710.5,-406.79375606169924,-61.778125920565806,4815,-406.79375606169924,-61.778125920565806,4915.1]","[8545.3,8545.2,2366.6,5685.2,493.5,""smooth"",""right"",""right"",""good_move"",11513.4,2967.7,2540.4,8545.7,427.3,""smooth"",""right"",""right"",""good_move"",15127,3613.4,3281.9,11513.6,331.5,""smooth"",""down"",""down"",""good_move"",19108.5,3981.2,3574.5,15127.4,406.7,""smooth"",""down"",""down"",""good_move"",24912,5803.3,2310.7,22163.9,437.4,""while_blue"",""down"",""down"",""good_move"",27493.6,2581.2,2130.5,24912.4,450.7,""smooth"",""right"",""right"",""good_move""]","",""
"3170","","<div style=""width:500px;"">
  <p>What determined the result of this run?</p>
  </div>","81","html-slider-response","10","490975","0.0-5.0-1.0","219","1","2025-07-23 13:16:29","1f75c3e559b7213887762d5229550c2b","41.122.132.69","Mozilla/5.0 (Macintosh; Intel Mac OS X 10_15_7) AppleWebKit/537.36 (KHTML, like Gecko) Chrome/128.0.0.0 Safari/537.36","Macintosh","Chrome","128.0.0.0","OS X","10_15_7","https://app.prolific.com/","en-GB,en-US;q=0.9,en;q=0.8","6780db9dafd89add339abb6b","683db9eb0562dbf637994deb","6880e06131b08b85e75e3f9c","2","1","6780db9dafd89add339abb6b","2","1","2025-07-23T13:24:44.223Z","","","","","","","","","","","AttribQ","","50","","","","","","","","","","","","","","","","","","","","","","","","","","","","",""
"4547","","<div style=""width:500px;"">
  <p>How much control did you have over the ball?</p>
  </div>","80","html-slider-response","11","495524","0.0-5.0-2.0","219","1","2025-07-23 13:16:29","1f75c3e559b7213887762d5229550c2b","41.122.132.69","Mozilla/5.0 (Macintosh; Intel Mac OS X 10_15_7) AppleWebKit/537.36 (KHTML, like Gecko) Chrome/128.0.0.0 Safari/537.36","Macintosh","Chrome","128.0.0.0","OS X","10_15_7","https://app.prolific.com/","en-GB,en-US;q=0.9,en;q=0.8","6780db9dafd89add339abb6b","683db9eb0562dbf637994deb","6880e06131b08b85e75e3f9c","2","1","6780db9dafd89add339abb6b","2","1","2025-07-23T13:24:48.773Z","","","","","","","","","","","ControlQ","","50","","","","","","","","","","","","","","","","","","","","","","","","","","","","",""
"4532","","<div style=""width:500px;"">
  <p>How would you describe your current emotional state?</p>
  </div>","29","html-slider-response","12","500059","0.0-5.0-3.0","219","1","2025-07-23 13:16:29","1f75c3e559b7213887762d5229550c2b","41.122.132.69","Mozilla/5.0 (Macintosh; Intel Mac OS X 10_15_7) AppleWebKit/537.36 (KHTML, like Gecko) Chrome/128.0.0.0 Safari/537.36","Macintosh","Chrome","128.0.0.0","OS X","10_15_7","https://app.prolific.com/","en-GB,en-US;q=0.9,en;q=0.8","6780db9dafd89add339abb6b","683db9eb0562dbf637994deb","6880e06131b08b85e75e3f9c","2","1","6780db9dafd89add339abb6b","2","1","2025-07-23T13:24:53.307Z","","","","","","","","","","","StressQ","","50","","","","","","","","","","","","","","","","","","","","","","","","","","","","",""
"3897","","<div style=""width:500px;"">
  <p>What best describes how you currently feel?</p>
  </div>","76","html-slider-response","13","503958","0.0-5.0-4.0","219","1","2025-07-23 13:16:29","1f75c3e559b7213887762d5229550c2b","41.122.132.69","Mozilla/5.0 (Macintosh; Intel Mac OS X 10_15_7) AppleWebKit/537.36 (KHTML, like Gecko) Chrome/128.0.0.0 Safari/537.36","Macintosh","Chrome","128.0.0.0","OS X","10_15_7","https://app.prolific.com/","en-GB,en-US;q=0.9,en;q=0.8","6780db9dafd89add339abb6b","683db9eb0562dbf637994deb","6880e06131b08b85e75e3f9c","2","1","6780db9dafd89add339abb6b","2","1","2025-07-23T13:24:57.206Z","","","","","","","","","","","MotivationQ","","50","","","","","","","","","","","","","","","","","","","","","","","","","","","","",""
"","","","","ctl-task-cpt","14","533147","0.0-5.0-0.1","219","1","2025-07-23 13:16:29","1f75c3e559b7213887762d5229550c2b","41.122.132.69","Mozilla/5.0 (Macintosh; Intel Mac OS X 10_15_7) AppleWebKit/537.36 (KHTML, like Gecko) Chrome/128.0.0.0 Safari/537.36","Macintosh","Chrome","128.0.0.0","OS X","10_15_7","https://app.prolific.com/","en-GB,en-US;q=0.9,en;q=0.8","6780db9dafd89add339abb6b","683db9eb0562dbf637994deb","6880e06131b08b85e75e3f9c","2","1","6780db9dafd89add339abb6b","2","1","2025-07-23T13:25:26.395Z","","","","","","","","","","","","","","win-only","0","g1:NW,g2:SE","0.9","2","0","506400.2","825.6","5826.5","26176.6","1","4","4","6","2","4","4","11","7","0.08333333333333333","1328.4","3000","390","[""down"",""right""]","{""num_key_presses"":6,""num_perfect"":5,""num_errors"":0,""num_randdir"":1,""num_randdir_good_moves"":1,""num_whilered"":0,""num_whileblue"":0,""num_blue"":1,""num_good_moves"":6}","[313.2062546671368,314.2218796822708,0.4,313.2062546671368,314.2218796822708,105.6,313.2062546671368,314.2218796822708,206.1,313.2062546671368,314.2218796822708,312,306.00625455984846,319.0218797537964,416.1,249.2062537134625,392.62188085052185,520.6,287.6062542856671,429.4218813988846,621.6,472.4062570394017,482.2218821856659,725.7,541.2062580646016,543.8218831035774,826.7,519.6062577427365,544.6218831154983,926.7,494.00625736126676,538.2218830201309,1033.2,526.0062578381039,559.0218833300751,1135.9,540.4062580526806,566.2218834373634,1241.4,541.2062580646016,565.4218834254425,1348,541.2062580646016,565.4218834254425,1448.7,522.0062577784993,551.0218832108658,1549.9,277.206254130695,483.0218821975868,1650.9,-337.99375503649935,209.42187812062912,1755.7,-406.79375606169924,11.821875176159658,1856.6,-405.1937560378574,3.0218750450294394,1963.1,-405.1937560378574,3.0218750450294394,2066.8,-405.1937560378574,3.0218750450294394,2171.7,-405.1937560378574,3.0218750450294394,2272.5,-405.1937560378574,3.0218750450294394,2375.1,-385.19375573983416,-0.9781250145752054,2481.8,-406.79375606169924,-3.3781250503379923,2585,-406.79375606169924,-4.178125062258921,2690.6,-406.79375606169924,-4.178125062258921,2790.6,-406.79375606169924,-4.178125062258921,2891.3,-406.79375606169924,-4.178125062258921,2998.4,-406.79375606169924,-4.178125062258921,3100.8,-406.79375606169924,-4.178125062258921,3205.7,-406.79375606169924,-4.178125062258921,3309.8,-406.79375606169924,-4.178125062258921,3410.3,-406.79375606169924,-4.178125062258921,3515,-406.79375606169924,-4.178125062258921,3615.4,-406.79375606169924,-4.178125062258921,3720.9,-406.79375606169924,-4.178125062258921,3825.9,-406.79375606169924,-4.178125062258921,3931.1,-406.79375606169924,-4.178125062258921,4031.7,-406.79375606169924,-4.178125062258921,4132.6,-406.79375606169924,-4.178125062258921,4233.3,-406.79375606169924,-4.178125062258921,4333.5,-406.79375606169924,-4.178125062258921,4435.7,-406.79375606169924,-4.178125062258921,4536,-406.79375606169924,-4.178125062258921,4636.2,-406.79375606169924,-4.178125062258921,4740.6,-406.79375606169924,-4.178125062258921,4845.3,-406.79375606169924,-4.178125062258921,4945.9]","[1659.1,1659.1,1000,0,659.1,""smooth"",""right"",""right"",""good_move"",8066.9,6407,2267.2,5439.7,360,""smooth"",""down"",""down"",""good_move"",11200.7,3133.6,2679.7,8067.1,453.9,""smooth"",""down"",""down"",""good_move"",14578.5,3377.8,2959.4,11200.8,418.4,""smooth"",""down"",""down"",""good_move"",17182.7,2603.9,2261.6,14578.8,342.3,""oops"",""right"",""right"",""good_move"",20264.8,3081.7,2640.9,17183.1,440.8,""smooth"",""right"",""right"",""good_move""]","",""
"4750","","<div style=""width:500px;"">
  <p>What determined the result of this run?</p>
  </div>","76","html-slider-response","15","537899","0.0-5.0-1.1","219","1","2025-07-23 13:16:29","1f75c3e559b7213887762d5229550c2b","41.122.132.69","Mozilla/5.0 (Macintosh; Intel Mac OS X 10_15_7) AppleWebKit/537.36 (KHTML, like Gecko) Chrome/128.0.0.0 Safari/537.36","Macintosh","Chrome","128.0.0.0","OS X","10_15_7","https://app.prolific.com/","en-GB,en-US;q=0.9,en;q=0.8","6780db9dafd89add339abb6b","683db9eb0562dbf637994deb","6880e06131b08b85e75e3f9c","2","1","6780db9dafd89add339abb6b","2","1","2025-07-23T13:25:31.147Z","","","","","","","","","","","AttribQ","","50","","","","","","","","","","","","","","","","","","","","","","","","","","","","",""
"4444","","<div style=""width:500px;"">
  <p>How much control did you have over the ball?</p>
  </div>","58","html-slider-response","16","542346","0.0-5.0-2.1","219","1","2025-07-23 13:16:29","1f75c3e559b7213887762d5229550c2b","41.122.132.69","Mozilla/5.0 (Macintosh; Intel Mac OS X 10_15_7) AppleWebKit/537.36 (KHTML, like Gecko) Chrome/128.0.0.0 Safari/537.36","Macintosh","Chrome","128.0.0.0","OS X","10_15_7","https://app.prolific.com/","en-GB,en-US;q=0.9,en;q=0.8","6780db9dafd89add339abb6b","683db9eb0562dbf637994deb","6880e06131b08b85e75e3f9c","2","1","6780db9dafd89add339abb6b","2","1","2025-07-23T13:25:35.594Z","","","","","","","","","","","ControlQ","","50","","","","","","","","","","","","","","","","","","","","","","","","","","","","",""
"2653","","<div style=""width:500px;"">
  <p>How would you describe your current emotional state?</p>
  </div>","20","html-slider-response","17","545001","0.0-5.0-3.1","219","1","2025-07-23 13:16:29","1f75c3e559b7213887762d5229550c2b","41.122.132.69","Mozilla/5.0 (Macintosh; Intel Mac OS X 10_15_7) AppleWebKit/537.36 (KHTML, like Gecko) Chrome/128.0.0.0 Safari/537.36","Macintosh","Chrome","128.0.0.0","OS X","10_15_7","https://app.prolific.com/","en-GB,en-US;q=0.9,en;q=0.8","6780db9dafd89add339abb6b","683db9eb0562dbf637994deb","6880e06131b08b85e75e3f9c","2","1","6780db9dafd89add339abb6b","2","1","2025-07-23T13:25:38.249Z","","","","","","","","","","","StressQ","","50","","","","","","","","","","","","","","","","","","","","","","","","","","","","",""
"5021","","<div style=""width:500px;"">
  <p>What best describes how you currently feel?</p>
  </div>","84","html-slider-response","18","550025","0.0-5.0-4.1","219","1","2025-07-23 13:16:29","1f75c3e559b7213887762d5229550c2b","41.122.132.69","Mozilla/5.0 (Macintosh; Intel Mac OS X 10_15_7) AppleWebKit/537.36 (KHTML, like Gecko) Chrome/128.0.0.0 Safari/537.36","Macintosh","Chrome","128.0.0.0","OS X","10_15_7","https://app.prolific.com/","en-GB,en-US;q=0.9,en;q=0.8","6780db9dafd89add339abb6b","683db9eb0562dbf637994deb","6880e06131b08b85e75e3f9c","2","1","6780db9dafd89add339abb6b","2","1","2025-07-23T13:25:43.273Z","","","","","","","","","","","MotivationQ","","50","","","","","","","","","","","","","","","","","","","","","","","","","","","","",""
"","","","","ctl-task-cpt","19","579514","0.0-5.0-0.2","219","1","2025-07-23 13:16:29","1f75c3e559b7213887762d5229550c2b","41.122.132.69","Mozilla/5.0 (Macintosh; Intel Mac OS X 10_15_7) AppleWebKit/537.36 (KHTML, like Gecko) Chrome/128.0.0.0 Safari/537.36","Macintosh","Chrome","128.0.0.0","OS X","10_15_7","https://app.prolific.com/","en-GB,en-US;q=0.9,en;q=0.8","6780db9dafd89add339abb6b","683db9eb0562dbf637994deb","6880e06131b08b85e75e3f9c","2","1","6780db9dafd89add339abb6b","2","1","2025-07-23T13:26:12.762Z","","","","","","","","","","","","","","win-only","3","g1:SW,g2:NE","0.8","3","0","552466.4","1700.9","6701.3","26471.2","1","4","8","6","2","8","8","19","11","0.14393939393939395","989.5","3000","745","[""up"",""right""]","{""num_key_presses"":6,""num_perfect"":5,""num_errors"":0,""num_randdir"":1,""num_randdir_good_moves"":1,""num_whilered"":0,""num_whileblue"":0,""num_blue"":1,""num_good_moves"":6}","[315.6062547028996,311.0218796345871,0.2,315.6062547028996,311.0218796345871,106.5,316.40625471482053,309.42187961074524,214.4,316.40625471482053,309.42187961074524,316,316.40625471482053,308.6218795988243,416.4,404.4062560261227,228.6218784067314,519.5,506.0062575400807,89.42187633248977,620.6,521.2062577665783,75.82187612983398,723.1,541.2062580646016,72.62187608215027,830.4,542.0062580765225,72.62187608215027,935.8,542.0062580765225,72.62187608215027,1044.8,542.0062580765225,72.62187608215027,1146.4,493.20625734934583,109.421876630513,1250.6,429.2062563956715,135.82187702390365,1352.5,417.2062562168576,142.22187711927108,1456.2,417.2062562168576,142.22187711927108,1560.3,417.2062562168576,142.22187711927108,1661.6,417.2062562168576,142.22187711927108,1763.3,417.2062562168576,142.22187711927108,1865.8,417.2062562168576,142.22187711927108,1969.5,417.2062562168576,142.22187711927108,2070.2,417.2062562168576,142.22187711927108,2176.4,417.2062562168576,142.22187711927108,2280.7,417.2062562168576,142.22187711927108,2384.6,417.2062562168576,142.22187711927108,2484.6,417.2062562168576,142.22187711927108,2585.2,417.2062562168576,142.22187711927108,2691.2,417.2062562168576,142.22187711927108,2795.1,417.2062562168576,142.22187711927108,2895.5,417.2062562168576,142.22187711927108,3000.4,417.2062562168576,142.22187711927108,3106.1,417.2062562168576,142.22187711927108,3209.7,417.2062562168576,142.22187711927108,3310.3,417.2062562168576,142.22187711927108,3410.4,417.2062562168576,142.22187711927108,3515.2,417.2062562168576,142.22187711927108,3620.2,417.2062562168576,142.22187711927108,3721.8,417.2062562168576,142.22187711927108,3825.1,417.2062562168576,142.22187711927108,3927.1,417.2062562168576,142.22187711927108,4032.5,417.2062562168576,142.22187711927108,4135.7,417.2062562168576,142.22187711927108,4239.9,417.2062562168576,142.22187711927108,4344.5,417.2062562168576,142.22187711927108,4445.1,417.2062562168576,142.22187711927108,4545.1,417.2062562168576,142.22187711927108,4650.1,417.2062562168576,142.22187711927108,4751,417.2062562168576,142.22187711927108,4851.6,417.2062562168576,142.22187711927108,4957.2]","[1564.5,1564.5,1000,0,564.5,""smooth"",""right"",""right"",""good_move"",8059.6,6494.3,2754.2,4955,350.4,""smooth"",""up"",""up"",""good_move"",11434.3,3374.1,2883.5,8060.2,490.6,""smooth"",""up"",""up"",""good_move"",14000.3,2565.6,2149.8,11434.7,415.8,""smooth"",""right"",""right"",""good_move"",16378.7,2377,2044.9,14001.7,332.1,""oops"",""up"",""up"",""good_move"",19663.7,3284.3,2926.9,16379.4,357.4,""smooth"",""right"",""right"",""good_move""]","",""
"2499","","<div style=""width:500px;"">
  <p>What determined the result of this run?</p>
  </div>","82","html-slider-response","20","582014","0.0-5.0-1.2","219","1","2025-07-23 13:16:29","1f75c3e559b7213887762d5229550c2b","41.122.132.69","Mozilla/5.0 (Macintosh; Intel Mac OS X 10_15_7) AppleWebKit/537.36 (KHTML, like Gecko) Chrome/128.0.0.0 Safari/537.36","Macintosh","Chrome","128.0.0.0","OS X","10_15_7","https://app.prolific.com/","en-GB,en-US;q=0.9,en;q=0.8","6780db9dafd89add339abb6b","683db9eb0562dbf637994deb","6880e06131b08b85e75e3f9c","2","1","6780db9dafd89add339abb6b","2","1","2025-07-23T13:26:15.262Z","","","","","","","","","","","AttribQ","","50","","","","","","","","","","","","","","","","","","","","","","","","","","","","",""
"3033","","<div style=""width:500px;"">
  <p>How much control did you have over the ball?</p>
  </div>","66","html-slider-response","21","585049","0.0-5.0-2.2","219","1","2025-07-23 13:16:29","1f75c3e559b7213887762d5229550c2b","41.122.132.69","Mozilla/5.0 (Macintosh; Intel Mac OS X 10_15_7) AppleWebKit/537.36 (KHTML, like Gecko) Chrome/128.0.0.0 Safari/537.36","Macintosh","Chrome","128.0.0.0","OS X","10_15_7","https://app.prolific.com/","en-GB,en-US;q=0.9,en;q=0.8","6780db9dafd89add339abb6b","683db9eb0562dbf637994deb","6880e06131b08b85e75e3f9c","2","1","6780db9dafd89add339abb6b","2","1","2025-07-23T13:26:18.298Z","","","","","","","","","","","ControlQ","","50","","","","","","","","","","","","","","","","","","","","","","","","","","","","",""
"3289","","<div style=""width:500px;"">
  <p>How would you describe your current emotional state?</p>
  </div>","28","html-slider-response","22","588341","0.0-5.0-3.2","219","1","2025-07-23 13:16:29","1f75c3e559b7213887762d5229550c2b","41.122.132.69","Mozilla/5.0 (Macintosh; Intel Mac OS X 10_15_7) AppleWebKit/537.36 (KHTML, like Gecko) Chrome/128.0.0.0 Safari/537.36","Macintosh","Chrome","128.0.0.0","OS X","10_15_7","https://app.prolific.com/","en-GB,en-US;q=0.9,en;q=0.8","6780db9dafd89add339abb6b","683db9eb0562dbf637994deb","6880e06131b08b85e75e3f9c","2","1","6780db9dafd89add339abb6b","2","1","2025-07-23T13:26:21.589Z","","","","","","","","","","","StressQ","","50","","","","","","","","","","","","","","","","","","","","","","","","","","","","",""
"3298","","<div style=""width:500px;"">
  <p>What best describes how you currently feel?</p>
  </div>","85","html-slider-response","23","591641","0.0-5.0-4.2","219","1","2025-07-23 13:16:29","1f75c3e559b7213887762d5229550c2b","41.122.132.69","Mozilla/5.0 (Macintosh; Intel Mac OS X 10_15_7) AppleWebKit/537.36 (KHTML, like Gecko) Chrome/128.0.0.0 Safari/537.36","Macintosh","Chrome","128.0.0.0","OS X","10_15_7","https://app.prolific.com/","en-GB,en-US;q=0.9,en;q=0.8","6780db9dafd89add339abb6b","683db9eb0562dbf637994deb","6880e06131b08b85e75e3f9c","2","1","6780db9dafd89add339abb6b","2","1","2025-07-23T13:26:24.889Z","","","","","","","","","","","MotivationQ","","50","","","","","","","","","","","","","","","","","","","","","","","","","","","","",""
"","","","","ctl-task-cpt","24","639699","0.0-5.0-0.3","219","1","2025-07-23 13:16:29","1f75c3e559b7213887762d5229550c2b","41.122.132.69","Mozilla/5.0 (Macintosh; Intel Mac OS X 10_15_7) AppleWebKit/537.36 (KHTML, like Gecko) Chrome/128.0.0.0 Safari/537.36","Macintosh","Chrome","128.0.0.0","OS X","10_15_7","https://app.prolific.com/","en-GB,en-US;q=0.9,en;q=0.8","6780db9dafd89add339abb6b","683db9eb0562dbf637994deb","6880e06131b08b85e75e3f9c","2","1","6780db9dafd89add339abb6b","2","1","2025-07-23T13:27:12.948Z","","","","","","","","","","","","","","win-only","2","g1:SE,g2:NW","0.7","4","0","594082.6","3028.6","8031.9","45043.5","1","4","4","6","2","-4","-5","14","19","0.10606060606060606","1770.8","3000","-2430","[""left"",""up""]","{""num_key_presses"":8,""num_perfect"":5,""num_errors"":1,""num_randdir"":2,""num_randdir_good_moves"":1,""num_whilered"":0,""num_whileblue"":1,""num_blue"":4,""num_good_moves"":6}","[306.00625455984846,310.22187962266617,0.7,306.00625455984846,310.22187962266617,100,306.00625455984846,310.22187962266617,203.3,305.20625454792753,310.22187962266617,308.7,274.8062540949322,319.0218797537964,410,206.00625306973234,268.62187900277786,510.1,166.0062524736859,263.02187891933136,611,227.60625339159742,259.0218788597267,712.7,358.80625534662977,357.421880326001,814.4,444.40625662216917,489.42188229295425,917,500.4062574566342,547.8218831631821,1021.8,221.20625329623,279.82187916967086,1122.2,7.60625011334195,68.62187602254562,1226.4,-93.99375140061602,3.0218750450294394,1328.7,-77.99375116219744,-0.17812500265427644,1429.4,10.806250161025666,48.62187572452239,1535.2,14.80625022063031,47.82187571260146,1637.8,36.40625054249539,47.82187571260146,1738.6,36.40625054249539,47.82187571260146,1842.7,34.006250506732606,50.22187574836425,1944,-98.7937514721416,97.42187645169906,2050.5,-187.5937527953647,87.82187630864792,2159.8,-187.5937527953647,87.82187630864792,2261.3,-187.5937527953647,87.82187630864792,2362.9,-187.5937527953647,87.82187630864792,2471.2,-187.5937527953647,87.82187630864792,2571.6,-187.5937527953647,87.82187630864792,2674.1,-187.5937527953647,87.82187630864792,2778,-187.5937527953647,87.82187630864792,2879,-187.5937527953647,87.82187630864792,2983.9,-187.5937527953647,87.82187630864792,3089.5,-187.5937527953647,87.82187630864792,3192.6,-187.5937527953647,87.82187630864792,3295.1,-187.5937527953647,87.82187630864792,3400.6,-187.5937527953647,87.82187630864792,3503.8,-187.5937527953647,87.82187630864792,3607.2,-187.5937527953647,87.82187630864792,3709.7,-187.5937527953647,87.82187630864792,3812.7,-187.5937527953647,87.82187630864792,3913.1,-187.5937527953647,87.82187630864792,4013.2,-187.5937527953647,87.82187630864792,4114.2,-187.5937527953647,87.82187630864792,4219.6,-187.5937527953647,87.82187630864792,4321.8,-187.5937527953647,87.82187630864792,4424.1,-187.5937527953647,87.82187630864792,4527.5,-187.5937527953647,87.82187630864792,4627.6,-187.5937527953647,87.82187630864792,4734.4,-187.5937527953647,87.82187630864792,4836.4,-187.5937527953647,87.82187630864792,4938.7]","[5102.1,5102.1,2718.3,2005.6,378.3,""smooth"",""up"",""up"",""good_move"",9303,4200.2,3497.2,5102.8,703,""smooth"",""left"",""left"",""good_move"",12852,3548.2,3200.9,9303.8,347.3,""while_blue"",""left"",""down"",""bad_move"",18847,5993.9,2576.6,15854.4,416,""smooth"",""up"",""up"",""good_move"",21917.4,3070.1,2315.9,18847.3,754.2,""oops"",""up"",""left"",""good_move"",27896.6,5978.8,2706.3,24824.7,365.6,""smooth"",""up"",""up"",""good_move"",31515.7,3618.5,3188,27897.3,430.4,""smooth"",""left"",""left"",""good_move"",34315.1,2798.5,2453.4,31516.6,345.1,""oops"",""up"",""right"",""bad_move""]","",""
"17355","","<div style=""width:500px;"">
  <p>What determined the result of this run?</p>
  </div>","22","html-slider-response","25","657057","0.0-5.0-1.3","219","1","2025-07-23 13:16:29","1f75c3e559b7213887762d5229550c2b","41.122.132.69","Mozilla/5.0 (Macintosh; Intel Mac OS X 10_15_7) AppleWebKit/537.36 (KHTML, like Gecko) Chrome/128.0.0.0 Safari/537.36","Macintosh","Chrome","128.0.0.0","OS X","10_15_7","https://app.prolific.com/","en-GB,en-US;q=0.9,en;q=0.8","6780db9dafd89add339abb6b","683db9eb0562dbf637994deb","6880e06131b08b85e75e3f9c","2","1","6780db9dafd89add339abb6b","2","1","2025-07-23T13:27:30.305Z","","","","","","","","","","","AttribQ","","50","","","","","","","","","","","","","","","","","","","","","","","","","","","","",""
"3582","","<div style=""width:500px;"">
  <p>How much control did you have over the ball?</p>
  </div>","23","html-slider-response","26","660642","0.0-5.0-2.3","219","1","2025-07-23 13:16:29","1f75c3e559b7213887762d5229550c2b","41.122.132.69","Mozilla/5.0 (Macintosh; Intel Mac OS X 10_15_7) AppleWebKit/537.36 (KHTML, like Gecko) Chrome/128.0.0.0 Safari/537.36","Macintosh","Chrome","128.0.0.0","OS X","10_15_7","https://app.prolific.com/","en-GB,en-US;q=0.9,en;q=0.8","6780db9dafd89add339abb6b","683db9eb0562dbf637994deb","6880e06131b08b85e75e3f9c","2","1","6780db9dafd89add339abb6b","2","1","2025-07-23T13:27:33.890Z","","","","","","","","","","","ControlQ","","50","","","","","","","","","","","","","","","","","","","","","","","","","","","","",""
"4127","","<div style=""width:500px;"">
  <p>How would you describe your current emotional state?</p>
  </div>","58","html-slider-response","27","664770","0.0-5.0-3.3","219","1","2025-07-23 13:16:29","1f75c3e559b7213887762d5229550c2b","41.122.132.69","Mozilla/5.0 (Macintosh; Intel Mac OS X 10_15_7) AppleWebKit/537.36 (KHTML, like Gecko) Chrome/128.0.0.0 Safari/537.36","Macintosh","Chrome","128.0.0.0","OS X","10_15_7","https://app.prolific.com/","en-GB,en-US;q=0.9,en;q=0.8","6780db9dafd89add339abb6b","683db9eb0562dbf637994deb","6880e06131b08b85e75e3f9c","2","1","6780db9dafd89add339abb6b","2","1","2025-07-23T13:27:38.018Z","","","","","","","","","","","StressQ","","50","","","","","","","","","","","","","","","","","","","","","","","","","","","","",""
"2694","","<div style=""width:500px;"">
  <p>What best describes how you currently feel?</p>
  </div>","67","html-slider-response","28","667466","0.0-5.0-4.3","219","1","2025-07-23 13:16:29","1f75c3e559b7213887762d5229550c2b","41.122.132.69","Mozilla/5.0 (Macintosh; Intel Mac OS X 10_15_7) AppleWebKit/537.36 (KHTML, like Gecko) Chrome/128.0.0.0 Safari/537.36","Macintosh","Chrome","128.0.0.0","OS X","10_15_7","https://app.prolific.com/","en-GB,en-US;q=0.9,en;q=0.8","6780db9dafd89add339abb6b","683db9eb0562dbf637994deb","6880e06131b08b85e75e3f9c","2","1","6780db9dafd89add339abb6b","2","1","2025-07-23T13:27:40.714Z","","","","","","","","","","","MotivationQ","","50","","","","","","","","","","","","","","","","","","","","","","","","","","","","",""
"","","","","ctl-task-cpt","29","708493","0.0-5.0-0.4","219","1","2025-07-23 13:16:29","1f75c3e559b7213887762d5229550c2b","41.122.132.69","Mozilla/5.0 (Macintosh; Intel Mac OS X 10_15_7) AppleWebKit/537.36 (KHTML, like Gecko) Chrome/128.0.0.0 Safari/537.36","Macintosh","Chrome","128.0.0.0","OS X","10_15_7","https://app.prolific.com/","en-GB,en-US;q=0.9,en;q=0.8","6780db9dafd89add339abb6b","683db9eb0562dbf637994deb","6880e06131b08b85e75e3f9c","2","1","6780db9dafd89add339abb6b","2","1","2025-07-23T13:28:21.741Z","","","","","","","","","","","","","","win-only","3","g1:SW,g2:NE","0.6","5","0","669903.3","799.3","5805.4","38008","1","4","4","6","2","4","3","17","14","0.12878787878787878","2142.2","3000","90","[""up"",""right""]","{""num_key_presses"":10,""num_perfect"":5,""num_errors"":1,""num_randdir"":4,""num_randdir_good_moves"":2,""num_whilered"":0,""num_whileblue"":1,""num_blue"":2,""num_good_moves"":8}","[317.20625472674146,319.0218797537964,0.8,317.20625472674146,319.0218797537964,105.8,297.20625442871824,333.4218799683731,208.5,220.40625328430906,380.6218806717079,314.5,174.8062526048161,517.4218827101868,424.7,93.20625138888136,518.2218827221077,530.4,71.60625106701627,519.0218827340286,633.1,-113.19375168671831,721.4218857500236,739.6,-12.393750184681274,721.4218857500236,841.4,1032.406265384052,433.4218814584892,945.8,1032.406265384052,-34.57812551525422,1053.5,1032.406265384052,-34.57812551525422,1160.2,1032.406265384052,-34.57812551525422,1263.4,1032.406265384052,-34.57812551525422,1375.9,1032.406265384052,-34.57812551525422,1481.9,722.0062607587315,-2.5781250384170633,1584.5,683.6062601865269,33.42187549802474,1688.6,636.4062594831921,41.42187561723403,1796.5,622.0062592686154,48.62187572452239,1900.5,608.4062590659596,52.621875784127035,2008.7,606.0062590301968,52.621875784127035,2117.5,606.0062590301968,52.621875784127035,2220.9,606.0062590301968,52.621875784127035,2327.8,491.606257325504,60.621875903336324,2447,273.20625407109037,74.22187610599212,2552.7,160.4062523902394,72.62187608215027,2653.2,30.00625044712796,103.02187653514557,2759.9,30.00625044712796,103.02187653514557,2871,30.00625044712796,103.02187653514557,2975.6,30.00625044712796,103.02187653514557,3076.9,30.00625044712796,103.02187653514557,3177.3,30.00625044712796,103.02187653514557,3280.8,30.00625044712796,103.02187653514557,3381.6,30.00625044712796,103.02187653514557,3488.1,30.00625044712796,103.02187653514557,3590,30.00625044712796,103.02187653514557,3696.1,30.00625044712796,103.02187653514557,3804.2,30.00625044712796,103.02187653514557,3910.2,30.00625044712796,103.02187653514557,4015,30.00625044712796,103.02187653514557,4123.5,30.00625044712796,103.02187653514557,4224.4,30.00625044712796,103.02187653514557,4325.2,30.00625044712796,103.02187653514557,4426.1,30.00625044712796,103.02187653514557,4529.1,30.00625044712796,103.02187653514557,4629.8,30.00625044712796,103.02187653514557,4736.7,30.00625044712796,103.02187653514557,4838.7,30.00625044712796,103.02187653514557,4938.9]","[1725.6,1725.6,1000,0,725.6,""oops"",""right"",""left"",""bad_move"",7246,5520.1,2379.2,4438.2,428.6,""smooth"",""up"",""up"",""good_move"",10488.9,3241.9,2824.3,7247,417.7,""smooth"",""up"",""up"",""good_move"",13660.1,3170.9,2265.7,10489.2,905.2,""smooth"",""right"",""right"",""good_move"",16630.3,2968.9,2627.7,13661.4,341.2,""oops"",""right"",""right"",""good_move"",19989.5,3357.9,3007.8,16631.6,350.1,""oops"",""right"",""left"",""bad_move"",23271.4,3279.6,2935.5,19991.8,344.1,""smooth"",""up"",""up"",""good_move"",25902.3,2630.7,2289.5,23271.6,341.2,""oops"",""right"",""right"",""good_move"",29259,3356.5,2973.6,25902.5,382.9,""while_blue"",""right"",""right"",""good_move"",32061.5,2800.7,2470.7,29260.8,330,""smooth"",""right"",""right"",""good_move""]","",""
"11934","","<div style=""width:500px;"">
  <p>What determined the result of this run?</p>
  </div>","68","html-slider-response","30","720431","0.0-5.0-1.4","219","1","2025-07-23 13:16:29","1f75c3e559b7213887762d5229550c2b","41.122.132.69","Mozilla/5.0 (Macintosh; Intel Mac OS X 10_15_7) AppleWebKit/537.36 (KHTML, like Gecko) Chrome/128.0.0.0 Safari/537.36","Macintosh","Chrome","128.0.0.0","OS X","10_15_7","https://app.prolific.com/","en-GB,en-US;q=0.9,en;q=0.8","6780db9dafd89add339abb6b","683db9eb0562dbf637994deb","6880e06131b08b85e75e3f9c","2","1","6780db9dafd89add339abb6b","2","1","2025-07-23T13:28:33.679Z","","","","","","","","","","","AttribQ","","50","","","","","","","","","","","","","","","","","","","","","","","","","","","","",""
"3445","","<div style=""width:500px;"">
  <p>How much control did you have over the ball?</p>
  </div>","61","html-slider-response","31","723878","0.0-5.0-2.4","219","1","2025-07-23 13:16:29","1f75c3e559b7213887762d5229550c2b","41.122.132.69","Mozilla/5.0 (Macintosh; Intel Mac OS X 10_15_7) AppleWebKit/537.36 (KHTML, like Gecko) Chrome/128.0.0.0 Safari/537.36","Macintosh","Chrome","128.0.0.0","OS X","10_15_7","https://app.prolific.com/","en-GB,en-US;q=0.9,en;q=0.8","6780db9dafd89add339abb6b","683db9eb0562dbf637994deb","6880e06131b08b85e75e3f9c","2","1","6780db9dafd89add339abb6b","2","1","2025-07-23T13:28:37.126Z","","","","","","","","","","","ControlQ","","50","","","","","","","","","","","","","","","","","","","","","","","","","","","","",""
"4530","","<div style=""width:500px;"">
  <p>How would you describe your current emotional state?</p>
  </div>","25","html-slider-response","32","728413","0.0-5.0-3.4","219","1","2025-07-23 13:16:29","1f75c3e559b7213887762d5229550c2b","41.122.132.69","Mozilla/5.0 (Macintosh; Intel Mac OS X 10_15_7) AppleWebKit/537.36 (KHTML, like Gecko) Chrome/128.0.0.0 Safari/537.36","Macintosh","Chrome","128.0.0.0","OS X","10_15_7","https://app.prolific.com/","en-GB,en-US;q=0.9,en;q=0.8","6780db9dafd89add339abb6b","683db9eb0562dbf637994deb","6880e06131b08b85e75e3f9c","2","1","6780db9dafd89add339abb6b","2","1","2025-07-23T13:28:41.661Z","","","","","","","","","","","StressQ","","50","","","","","","","","","","","","","","","","","","","","","","","","","","","","",""
"3818","","<div style=""width:500px;"">
  <p>What best describes how you currently feel?</p>
  </div>","77","html-slider-response","33","732233","0.0-5.0-4.4","219","1","2025-07-23 13:16:29","1f75c3e559b7213887762d5229550c2b","41.122.132.69","Mozilla/5.0 (Macintosh; Intel Mac OS X 10_15_7) AppleWebKit/537.36 (KHTML, like Gecko) Chrome/128.0.0.0 Safari/537.36","Macintosh","Chrome","128.0.0.0","OS X","10_15_7","https://app.prolific.com/","en-GB,en-US;q=0.9,en;q=0.8","6780db9dafd89add339abb6b","683db9eb0562dbf637994deb","6880e06131b08b85e75e3f9c","2","1","6780db9dafd89add339abb6b","2","1","2025-07-23T13:28:45.482Z","","","","","","","","","","","MotivationQ","","50","","","","","","","","","","","","","","","","","","","","","","","","","","","","",""
"","","","","ctl-task-cpt","34","774337","0.0-5.0-0.5","219","1","2025-07-23 13:16:29","1f75c3e559b7213887762d5229550c2b","41.122.132.69","Mozilla/5.0 (Macintosh; Intel Mac OS X 10_15_7) AppleWebKit/537.36 (KHTML, like Gecko) Chrome/128.0.0.0 Safari/537.36","Macintosh","Chrome","128.0.0.0","OS X","10_15_7","https://app.prolific.com/","en-GB,en-US;q=0.9,en;q=0.8","6780db9dafd89add339abb6b","683db9eb0562dbf637994deb","6880e06131b08b85e75e3f9c","2","1","6780db9dafd89add339abb6b","2","1","2025-07-23T13:29:27.585Z","","","","","","","","","","","","","","win-only","2","g1:SE,g2:NW","0.5","6","0","734671.1","1869.5","6889","39081.9","1","4","8","6","2","-8","-8","9","17","0.06818181818181818","1473.8","3000","-1820","[""left"",""up""]","{""num_key_presses"":10,""num_perfect"":5,""num_errors"":0,""num_randdir"":5,""num_randdir_good_moves"":3,""num_whilered"":0,""num_whileblue"":0,""num_blue"":0,""num_good_moves"":7}","[310.0062546194531,305.4218795511406,0.2,310.0062546194531,305.4218795511406,102.6,310.0062546194531,305.4218795511406,205.5,310.0062546194531,305.4218795511406,309.4,310.0062546194531,305.4218795511406,412.7,374.0062555731274,277.4218791339081,516.4,528.4062578738667,319.8218797657173,625.1,538.8062580288388,316.6218797180336,726.1,366.00625545391813,130.22187694045715,827.4,80.40625119814649,-15.378125229151927,935.2,-9.993750148918487,-11.378125169547282,1038,18.006250268314027,3.8218750569503683,1147.8,32.40625048289075,10.2218751523178,1248.7,37.20625055441632,15.021875223843374,1358.4,37.20625055441632,15.021875223843374,1460.1,37.20625055441632,15.021875223843374,1564.6,36.40625054249539,16.62187524768523,1677,42.006250625941895,34.22187550994567,1784.5,30.80625045904889,83.82187624904327,1893.2,82.00625122198835,172.62187757226638,2002.4,282.0062542022206,284.62187924119644,2107,361.20625538239256,306.2218795630615,2207.7,359.6062553585507,291.8218793484848,2315.2,359.6062553585507,291.8218793484848,2415.5,359.6062553585507,291.8218793484848,2522.6,359.6062553585507,291.8218793484848,2624.6,359.6062553585507,291.8218793484848,2726.6,359.6062553585507,291.8218793484848,2828.5,359.6062553585507,291.8218793484848,2937.6,359.6062553585507,291.8218793484848,3038.2,359.6062553585507,291.8218793484848,3141.6,359.6062553585507,291.8218793484848,3243.6,359.6062553585507,291.8218793484848,3347.6,359.6062553585507,291.8218793484848,3459.3,359.6062553585507,291.8218793484848,3560.3,359.6062553585507,291.8218793484848,3669.6,359.6062553585507,291.8218793484848,3773.2,359.6062553585507,291.8218793484848,3879.4,359.6062553585507,291.8218793484848,3981.6,359.6062553585507,291.8218793484848,4089.4,359.6062553585507,291.8218793484848,4194.7,359.6062553585507,291.8218793484848,4297.1,359.6062553585507,291.8218793484848,4402.5,359.6062553585507,291.8218793484848,4508.2,359.6062553585507,291.8218793484848,4609.9,359.6062553585507,291.8218793484848,4750.9,359.6062553585507,291.8218793484848,4860,359.6062553585507,291.8218793484848,4981.1]","[2182.3,2182.3,1000,0,1182.3,""smooth"",""right"",""right"",""bad_move"",5802.9,3615.6,3183.4,2187.3,432.2,""smooth"",""left"",""left"",""good_move"",8574.5,2770.3,2407,5804.2,363.3,""oops"",""left"",""up"",""good_move"",12326.5,3751.7,3402.6,8574.9,349.1,""smooth"",""left"",""left"",""good_move"",15262.7,2935.2,2528.2,12327.5,407,""oops"",""left"",""left"",""good_move"",18561.6,3298.2,2958.5,15263.5,339.7,""smooth"",""up"",""up"",""good_move"",21551.6,2989.5,2623.8,18562.1,365.7,""oops"",""left"",""down"",""bad_move"",24072.7,2520,2122.6,21552.7,397.4,""smooth"",""up"",""up"",""good_move"",27065.4,2992.3,2617,24073.1,375.3,""oops"",""left"",""left"",""good_move"",29475.1,2409.3,2018.1,27065.9,391.2,""oops"",""up"",""down"",""bad_move""]","",""
"3899","","<div style=""width:500px;"">
  <p>What determined the result of this run?</p>
  </div>","17","html-slider-response","35","778238","0.0-5.0-1.5","219","1","2025-07-23 13:16:29","1f75c3e559b7213887762d5229550c2b","41.122.132.69","Mozilla/5.0 (Macintosh; Intel Mac OS X 10_15_7) AppleWebKit/537.36 (KHTML, like Gecko) Chrome/128.0.0.0 Safari/537.36","Macintosh","Chrome","128.0.0.0","OS X","10_15_7","https://app.prolific.com/","en-GB,en-US;q=0.9,en;q=0.8","6780db9dafd89add339abb6b","683db9eb0562dbf637994deb","6880e06131b08b85e75e3f9c","2","1","6780db9dafd89add339abb6b","2","1","2025-07-23T13:29:31.486Z","","","","","","","","","","","AttribQ","","50","","","","","","","","","","","","","","","","","","","","","","","","","","","","",""
"2750","","<div style=""width:500px;"">
  <p>How much control did you have over the ball?</p>
  </div>","21","html-slider-response","36","780990","0.0-5.0-2.5","219","1","2025-07-23 13:16:29","1f75c3e559b7213887762d5229550c2b","41.122.132.69","Mozilla/5.0 (Macintosh; Intel Mac OS X 10_15_7) AppleWebKit/537.36 (KHTML, like Gecko) Chrome/128.0.0.0 Safari/537.36","Macintosh","Chrome","128.0.0.0","OS X","10_15_7","https://app.prolific.com/","en-GB,en-US;q=0.9,en;q=0.8","6780db9dafd89add339abb6b","683db9eb0562dbf637994deb","6880e06131b08b85e75e3f9c","2","1","6780db9dafd89add339abb6b","2","1","2025-07-23T13:29:34.238Z","","","","","","","","","","","ControlQ","","50","","","","","","","","","","","","","","","","","","","","","","","","","","","","",""
"5537","","<div style=""width:500px;"">
  <p>How would you describe your current emotional state?</p>
  </div>","65","html-slider-response","37","786531","0.0-5.0-3.5","219","1","2025-07-23 13:16:29","1f75c3e559b7213887762d5229550c2b","41.122.132.69","Mozilla/5.0 (Macintosh; Intel Mac OS X 10_15_7) AppleWebKit/537.36 (KHTML, like Gecko) Chrome/128.0.0.0 Safari/537.36","Macintosh","Chrome","128.0.0.0","OS X","10_15_7","https://app.prolific.com/","en-GB,en-US;q=0.9,en;q=0.8","6780db9dafd89add339abb6b","683db9eb0562dbf637994deb","6880e06131b08b85e75e3f9c","2","1","6780db9dafd89add339abb6b","2","1","2025-07-23T13:29:39.779Z","","","","","","","","","","","StressQ","","50","","","","","","","","","","","","","","","","","","","","","","","","","","","","",""
"3947","","<div style=""width:500px;"">
  <p>What best describes how you currently feel?</p>
  </div>","26","html-slider-response","38","790481","0.0-5.0-4.5","219","1","2025-07-23 13:16:29","1f75c3e559b7213887762d5229550c2b","41.122.132.69","Mozilla/5.0 (Macintosh; Intel Mac OS X 10_15_7) AppleWebKit/537.36 (KHTML, like Gecko) Chrome/128.0.0.0 Safari/537.36","Macintosh","Chrome","128.0.0.0","OS X","10_15_7","https://app.prolific.com/","en-GB,en-US;q=0.9,en;q=0.8","6780db9dafd89add339abb6b","683db9eb0562dbf637994deb","6880e06131b08b85e75e3f9c","2","1","6780db9dafd89add339abb6b","2","1","2025-07-23T13:29:43.729Z","","","","","","","","","","","MotivationQ","","50","","","","","","","","","","","","","","","","","","","","","","","","","","","","",""
"","","","","ctl-task-cpt","39","847506","0.0-5.0-0.6","219","1","2025-07-23 13:16:29","1f75c3e559b7213887762d5229550c2b","41.122.132.69","Mozilla/5.0 (Macintosh; Intel Mac OS X 10_15_7) AppleWebKit/537.36 (KHTML, like Gecko) Chrome/128.0.0.0 Safari/537.36","Macintosh","Chrome","128.0.0.0","OS X","10_15_7","https://app.prolific.com/","en-GB,en-US;q=0.9,en;q=0.8","6780db9dafd89add339abb6b","683db9eb0562dbf637994deb","6880e06131b08b85e75e3f9c","2","1","6780db9dafd89add339abb6b","2","1","2025-07-23T13:30:40.755Z","","","","","","","","","","","","","","win-only","0","g1:NW,g2:SE","0.4","7","0","792914.9","1479.6","6492.4","56553.7","1","4","4","6","2","-4","-4","5","9","0.03787878787878788","1113.1","3000","-1290","[""down"",""right""]","{""num_key_presses"":14,""num_perfect"":6,""num_errors"":0,""num_randdir"":8,""num_randdir_good_moves"":1,""num_whilered"":0,""num_whileblue"":0,""num_blue"":2,""num_good_moves"":7}","[308.40625459561124,322.2218798014801,0.7,308.40625459561124,322.2218798014801,107.6,308.40625459561124,322.2218798014801,221.8,308.40625459561124,322.2218798014801,331,235.6062535108067,319.8218797657173,433.1,238.80625355849043,383.0218807074707,541.8,427.60625637182966,515.8218826863449,653.1,552.4062582314946,590.2218837949913,789.3,578.8062586248852,615.0218841645401,893.9,565.2062584222294,606.2218840334099,996.2,565.2062584222294,603.0218839857262,1116.5,565.2062584222294,603.0218839857262,1223.3,565.2062584222294,603.0218839857262,1335.8,435.60625649103895,570.2218834969681,1448,197.20625293860212,530.2218829009216,1550.3,-47.59375070920215,597.4218839022797,1662.3,-47.59375070920215,597.4218839022797,1768,-47.59375070920215,597.4218839022797,1871.3,-47.59375070920215,597.4218839022797,1978.8,-47.59375070920215,597.4218839022797,2091.9,-47.59375070920215,597.4218839022797,2200.9,-47.59375070920215,597.4218839022797,2310.4,-47.59375070920215,597.4218839022797,2418.5,-47.59375070920215,597.4218839022797,2528.7,-47.59375070920215,597.4218839022797,2630.5,-47.59375070920215,597.4218839022797,2733.7,-47.59375070920215,597.4218839022797,2841.8,-47.59375070920215,597.4218839022797,2945.4,-47.59375070920215,597.4218839022797,3058.2,-47.59375070920215,597.4218839022797,3160.4,-47.59375070920215,597.4218839022797,3264.7,-47.59375070920215,597.4218839022797,3367.7,-47.59375070920215,597.4218839022797,3478.3,-47.59375070920215,597.4218839022797,3579.4,-47.59375070920215,597.4218839022797,3682.9,-47.59375070920215,597.4218839022797,3793.8,-47.59375070920215,597.4218839022797,3894.5,-47.59375070920215,597.4218839022797,3998.8,-47.59375070920215,597.4218839022797,4107,-47.59375070920215,597.4218839022797,4214.9,-47.59375070920215,597.4218839022797,4323.7,-47.59375070920215,597.4218839022797,4426.2,-47.59375070920215,597.4218839022797,4529.5,-47.59375070920215,597.4218839022797,4633.8,-47.59375070920215,597.4218839022797,4734.3,-47.59375070920215,597.4218839022797,4835.5,-47.59375070920215,597.4218839022797,4939.9]","[1456.4,1456.4,1000,0,456.4,""oops"",""right"",""up"",""bad_move"",4296.7,2838.6,2448.8,1458.2,389.7,""oops"",""down"",""left"",""bad_move"",10469.1,6170.4,1604.3,8369.7,495.1,""smooth"",""right"",""right"",""good_move"",17120.9,6651.3,2770.1,13843.7,507.2,""smooth"",""down"",""down"",""good_move"",20590.7,3468.6,2981.5,17122.1,487.1,""oops"",""down"",""left"",""bad_move"",23433.3,2841.1,2422.7,20592.2,418.4,""oops"",""down"",""down"",""good_move"",26873.4,3439.5,3041.7,23433.9,397.8,""oops"",""down"",""up"",""bad_move"",29880.5,3006.3,2571.7,26874.3,434.6,""oops"",""down"",""left"",""bad_move"",32142.5,2261.1,1373.6,29881.4,887.5,""smooth"",""down"",""down"",""good_move"",34978,2832.5,2450.1,32145.5,382.4,""smooth"",""right"",""right"",""good_move"",37906.7,2924.9,2502.8,34981.9,422,""smooth"",""right"",""right"",""good_move"",40674.5,2767.3,2411.1,37907.2,356.2,""smooth"",""right"",""right"",""good_move"",43591.1,2915.8,2533.2,40675.3,382.6,""oops"",""right"",""up"",""bad_move"",46989.6,3398.2,2898.1,43591.5,500.1,""oops"",""down"",""left"",""bad_move""]","",""
"3681","","<div style=""width:500px;"">
  <p>What determined the result of this run?</p>
  </div>","7","html-slider-response","40","851190","0.0-5.0-1.6","219","1","2025-07-23 13:16:29","1f75c3e559b7213887762d5229550c2b","41.122.132.69","Mozilla/5.0 (Macintosh; Intel Mac OS X 10_15_7) AppleWebKit/537.36 (KHTML, like Gecko) Chrome/128.0.0.0 Safari/537.36","Macintosh","Chrome","128.0.0.0","OS X","10_15_7","https://app.prolific.com/","en-GB,en-US;q=0.9,en;q=0.8","6780db9dafd89add339abb6b","683db9eb0562dbf637994deb","6880e06131b08b85e75e3f9c","2","1","6780db9dafd89add339abb6b","2","1","2025-07-23T13:30:44.438Z","","","","","","","","","","","AttribQ","","50","","","","","","","","","","","","","","","","","","","","","","","","","","","","",""
"3078","","<div style=""width:500px;"">
  <p>How much control did you have over the ball?</p>
  </div>","27","html-slider-response","41","854270","0.0-5.0-2.6","219","1","2025-07-23 13:16:29","1f75c3e559b7213887762d5229550c2b","41.122.132.69","Mozilla/5.0 (Macintosh; Intel Mac OS X 10_15_7) AppleWebKit/537.36 (KHTML, like Gecko) Chrome/128.0.0.0 Safari/537.36","Macintosh","Chrome","128.0.0.0","OS X","10_15_7","https://app.prolific.com/","en-GB,en-US;q=0.9,en;q=0.8","6780db9dafd89add339abb6b","683db9eb0562dbf637994deb","6880e06131b08b85e75e3f9c","2","1","6780db9dafd89add339abb6b","2","1","2025-07-23T13:30:47.518Z","","","","","","","","","","","ControlQ","","50","","","","","","","","","","","","","","","","","","","","","","","","","","","","",""
"3388","","<div style=""width:500px;"">
  <p>How would you describe your current emotional state?</p>
  </div>","62","html-slider-response","42","857661","0.0-5.0-3.6","219","1","2025-07-23 13:16:29","1f75c3e559b7213887762d5229550c2b","41.122.132.69","Mozilla/5.0 (Macintosh; Intel Mac OS X 10_15_7) AppleWebKit/537.36 (KHTML, like Gecko) Chrome/128.0.0.0 Safari/537.36","Macintosh","Chrome","128.0.0.0","OS X","10_15_7","https://app.prolific.com/","en-GB,en-US;q=0.9,en;q=0.8","6780db9dafd89add339abb6b","683db9eb0562dbf637994deb","6880e06131b08b85e75e3f9c","2","1","6780db9dafd89add339abb6b","2","1","2025-07-23T13:30:50.909Z","","","","","","","","","","","StressQ","","50","","","","","","","","","","","","","","","","","","","","","","","","","","","","",""
"4450","","<div style=""width:500px;"">
  <p>What best describes how you currently feel?</p>
  </div>","38","html-slider-response","43","862112","0.0-5.0-4.6","219","1","2025-07-23 13:16:29","1f75c3e559b7213887762d5229550c2b","41.122.132.69","Mozilla/5.0 (Macintosh; Intel Mac OS X 10_15_7) AppleWebKit/537.36 (KHTML, like Gecko) Chrome/128.0.0.0 Safari/537.36","Macintosh","Chrome","128.0.0.0","OS X","10_15_7","https://app.prolific.com/","en-GB,en-US;q=0.9,en;q=0.8","6780db9dafd89add339abb6b","683db9eb0562dbf637994deb","6880e06131b08b85e75e3f9c","2","1","6780db9dafd89add339abb6b","2","1","2025-07-23T13:30:55.361Z","","","","","","","","","","","MotivationQ","","50","","","","","","","","","","","","","","","","","","","","","","","","","","","","",""
"","","","","ctl-task-cpt","44","924296","0.0-5.0-0.7","219","1","2025-07-23 13:16:29","1f75c3e559b7213887762d5229550c2b","41.122.132.69","Mozilla/5.0 (Macintosh; Intel Mac OS X 10_15_7) AppleWebKit/537.36 (KHTML, like Gecko) Chrome/128.0.0.0 Safari/537.36","Macintosh","Chrome","128.0.0.0","OS X","10_15_7","https://app.prolific.com/","en-GB,en-US;q=0.9,en;q=0.8","6780db9dafd89add339abb6b","683db9eb0562dbf637994deb","6880e06131b08b85e75e3f9c","2","1","6780db9dafd89add339abb6b","2","1","2025-07-23T13:31:57.544Z","","","","","","","","","","","","","","win-only","2","g1:SE,g2:NW","0.3","8","0","867094.9","1666.3","6667","59159.8","1","4","8","6","2","-8","-8","0","5","0","1154.7","3000","-1395","[""left"",""up""]","{""num_key_presses"":13,""num_perfect"":4,""num_errors"":0,""num_randdir"":9,""num_randdir_good_moves"":2,""num_whilered"":0,""num_whileblue"":0,""num_blue"":4,""num_good_moves"":6}","[306.00625455984846,313.4218796703499,0.3,306.00625455984846,313.4218796703499,103.9,306.00625455984846,313.4218796703499,204.5,306.00625455984846,313.4218796703499,313.2,404.4062560261227,346.22188015910797,414.9,421.2062562764622,396.6218809101265,516.3,452.40625674137846,405.4218810412567,623.8,324.4062548340298,295.0218793961685,738.7,127.6062519014813,83.02187623712234,843.6,80.40625119814649,55.02187581988982,951.5,80.40625119814649,55.02187581988982,1064,80.40625119814649,53.42187579604796,1174.5,81.20625121006742,51.821875772206106,1292,87.60625130543485,67.82187601062469,1409.5,106.80625159153715,94.22187640401535,1517.1,229.20625341543928,185.42187776300125,1622.4,394.8062558830716,343.02188011142425,1736.6,433.20625645527616,370.22188051673584,1847.9,433.20625645527616,370.22188051673584,1952,434.0062564671971,368.621880492894,2054.6,434.806256479118,365.42188044521026,2155.1,434.0062564671971,360.6218803736847,2255.7,432.40625644335523,357.421880326001,2361.7,431.6062564314343,355.0218802902382,2464,431.6062564314343,355.0218802902382,2570,431.6062564314343,355.0218802902382,2671.5,431.6062564314343,355.0218802902382,2775.2,431.6062564314343,355.0218802902382,2886.8,431.6062564314343,355.0218802902382,2996.6,431.6062564314343,355.0218802902382,3097.4,431.6062564314343,355.0218802902382,3200.7,431.6062564314343,355.0218802902382,3301.3,431.6062564314343,355.0218802902382,3415,431.6062564314343,355.0218802902382,3516.5,431.6062564314343,355.0218802902382,3624.4,431.6062564314343,355.0218802902382,3724.4,431.6062564314343,355.0218802902382,3830,431.6062564314343,355.0218802902382,3943.6,431.6062564314343,355.0218802902382,4055.3,431.6062564314343,355.0218802902382,4168.5,431.6062564314343,355.0218802902382,4271,431.6062564314343,355.0218802902382,4376.5,431.6062564314343,355.0218802902382,4478.1,431.6062564314343,355.0218802902382,4585.4,431.6062564314343,355.0218802902382,4685.9,431.6062564314343,355.0218802902382,4792.1,431.6062564314343,355.0218802902382,4897.6]","[1423.2,1423.2,1000,0,423.2,""smooth"",""left"",""left"",""good_move"",3886.5,2462.8,1983.3,1423.7,479.5,""oops"",""left"",""down"",""bad_move"",7148.8,3261.5,2893.2,3887.3,368.3,""oops"",""left"",""down"",""bad_move"",9423.3,2274.1,1867.8,7149.3,406.3,""smooth"",""left"",""left"",""good_move"",16370.5,6946.1,3035.6,12969.4,365.5,""oops"",""left"",""right"",""bad_move"",19201.9,2830.7,2403.6,16371.2,427.1,""oops"",""up"",""right"",""bad_move"",21999,2793.8,2388.8,19205.2,405,""smooth"",""left"",""left"",""good_move"",24733.9,2734.1,2331.2,21999.8,402.9,""oops"",""left"",""right"",""bad_move"",34479.7,9745.5,2312.7,31724.5,442.5,""oops"",""up"",""left"",""good_move"",37168,2688.1,1794.9,34479.9,893.2,""oops"",""up"",""right"",""bad_move"",43155.4,5987.1,2274.3,40438.7,442.4,""oops"",""up"",""left"",""good_move"",46006.2,2849.6,2392.3,43156.6,457.3,""smooth"",""up"",""up"",""good_move"",49669.4,3662.2,3167.8,46007.2,494.4,""oops"",""up"",""right"",""bad_move""]","",""
"141262","","<div style=""width:500px;"">
  <p>What determined the result of this run?</p>
  </div>","72","html-slider-response","45","1065560","0.0-5.0-1.7","219","1","2025-07-23 13:16:29","1f75c3e559b7213887762d5229550c2b","41.122.132.69","Mozilla/5.0 (Macintosh; Intel Mac OS X 10_15_7) AppleWebKit/537.36 (KHTML, like Gecko) Chrome/128.0.0.0 Safari/537.36","Macintosh","Chrome","128.0.0.0","OS X","10_15_7","https://app.prolific.com/","en-GB,en-US;q=0.9,en;q=0.8","6780db9dafd89add339abb6b","683db9eb0562dbf637994deb","6880e06131b08b85e75e3f9c","2","1","6780db9dafd89add339abb6b","2","1","2025-07-23T13:34:18.809Z","","","","","","","","","","","AttribQ","","50","","","","","","","","","","","","","","","","","","","","","","","","","","","","",""
"2825","","<div style=""width:500px;"">
  <p>How much control did you have over the ball?</p>
  </div>","29","html-slider-response","46","1068388","0.0-5.0-2.7","219","1","2025-07-23 13:16:29","1f75c3e559b7213887762d5229550c2b","41.122.132.69","Mozilla/5.0 (Macintosh; Intel Mac OS X 10_15_7) AppleWebKit/537.36 (KHTML, like Gecko) Chrome/128.0.0.0 Safari/537.36","Macintosh","Chrome","128.0.0.0","OS X","10_15_7","https://app.prolific.com/","en-GB,en-US;q=0.9,en;q=0.8","6780db9dafd89add339abb6b","683db9eb0562dbf637994deb","6880e06131b08b85e75e3f9c","2","1","6780db9dafd89add339abb6b","2","1","2025-07-23T13:34:21.636Z","","","","","","","","","","","ControlQ","","50","","","","","","","","","","","","","","","","","","","","","","","","","","","","",""
"2813","","<div style=""width:500px;"">
  <p>How would you describe your current emotional state?</p>
  </div>","66","html-slider-response","47","1071204","0.0-5.0-3.7","219","1","2025-07-23 13:16:29","1f75c3e559b7213887762d5229550c2b","41.122.132.69","Mozilla/5.0 (Macintosh; Intel Mac OS X 10_15_7) AppleWebKit/537.36 (KHTML, like Gecko) Chrome/128.0.0.0 Safari/537.36","Macintosh","Chrome","128.0.0.0","OS X","10_15_7","https://app.prolific.com/","en-GB,en-US;q=0.9,en;q=0.8","6780db9dafd89add339abb6b","683db9eb0562dbf637994deb","6880e06131b08b85e75e3f9c","2","1","6780db9dafd89add339abb6b","2","1","2025-07-23T13:34:24.453Z","","","","","","","","","","","StressQ","","50","","","","","","","","","","","","","","","","","","","","","","","","","","","","",""
"3669","","<div style=""width:500px;"">
  <p>What best describes how you currently feel?</p>
  </div>","20","html-slider-response","48","1074877","0.0-5.0-4.7","219","1","2025-07-23 13:16:29","1f75c3e559b7213887762d5229550c2b","41.122.132.69","Mozilla/5.0 (Macintosh; Intel Mac OS X 10_15_7) AppleWebKit/537.36 (KHTML, like Gecko) Chrome/128.0.0.0 Safari/537.36","Macintosh","Chrome","128.0.0.0","OS X","10_15_7","https://app.prolific.com/","en-GB,en-US;q=0.9,en;q=0.8","6780db9dafd89add339abb6b","683db9eb0562dbf637994deb","6880e06131b08b85e75e3f9c","2","1","6780db9dafd89add339abb6b","2","1","2025-07-23T13:34:28.125Z","","","","","","","","","","","MotivationQ","","50","","","","","","","","","","","","","","","","","","","","","","","","","","","","",""
"","","","","ctl-task-cpt","49","1142620","0.0-5.0-0.8","219","1","2025-07-23 13:16:29","1f75c3e559b7213887762d5229550c2b","41.122.132.69","Mozilla/5.0 (Macintosh; Intel Mac OS X 10_15_7) AppleWebKit/537.36 (KHTML, like Gecko) Chrome/128.0.0.0 Safari/537.36","Macintosh","Chrome","128.0.0.0","OS X","10_15_7","https://app.prolific.com/","en-GB,en-US;q=0.9,en;q=0.8","6780db9dafd89add339abb6b","683db9eb0562dbf637994deb","6880e06131b08b85e75e3f9c","2","1","6780db9dafd89add339abb6b","2","1","2025-07-23T13:35:35.868Z","","","","","","","","","","","","","","win-only","3","g1:SW,g2:NE","0.2","9","0","1079862.9","1936.6","6941.6","64723.6","1","4","4","6","2","-4","-4","0","0","0","1199.9","3000","-1145","[""up"",""right""]","{""num_key_presses"":15,""num_perfect"":2,""num_errors"":0,""num_randdir"":13,""num_randdir_good_moves"":7,""num_whilered"":0,""num_whileblue"":0,""num_blue"":3,""num_good_moves"":8}","[315.6062547028996,311.821879646508,0.3,315.6062547028996,311.821879646508,111.6,315.6062547028996,311.821879646508,212.7,315.6062547028996,314.2218796822708,329.7,316.40625471482053,331.0218799326103,443.3,296.4062544167973,390.22188081475906,550.3,305.20625454792753,364.62188043328933,697.3,458.00625682482496,303.0218795153778,802.8,551.6062582195736,96.62187643977813,903.9,550.8062582076527,79.0218761775177,1004.8,551.6062582195736,54.22187580796889,1115.6,551.6062582195736,54.22187580796889,1227.1,550.8062582076527,55.82187583181075,1341.3,550.0062581957318,70.22187604638748,1447.9,578.8062586248852,135.02187701198272,1553.4,582.006258672569,139.02187707158737,1672.2,582.006258672569,139.02187707158737,1782.7,582.006258672569,139.02187707158737,1890.5,582.006258672569,139.02187707158737,1992.7,582.006258672569,139.02187707158737,2107.1,582.006258672569,139.02187707158737,2220.7,582.006258672569,139.02187707158737,2349.8,582.006258672569,139.02187707158737,2466.1,582.006258672569,139.02187707158737,2580.2,582.006258672569,139.02187707158737,2682.8,582.006258672569,139.02187707158737,2788.7,582.006258672569,139.02187707158737,2909.4,582.006258672569,139.02187707158737,3011.8,582.006258672569,139.02187707158737,3115.9,582.006258672569,139.02187707158737,3225.3,582.006258672569,139.02187707158737,3327.6,582.006258672569,139.02187707158737,3430,582.006258672569,139.02187707158737,3544.5,582.006258672569,139.02187707158737,3651.5,582.006258672569,139.02187707158737,3751.9,582.006258672569,139.02187707158737,3863.6,582.006258672569,139.02187707158737,3965.1,582.006258672569,139.02187707158737,4068.6,582.006258672569,139.02187707158737,4184,582.006258672569,139.02187707158737,4294.1,582.006258672569,139.02187707158737,4410.4,582.006258672569,139.02187707158737,4526.1,582.006258672569,139.02187707158737,4630.3,582.006258672569,139.02187707158737,4730.4,582.006258672569,139.02187707158737,4845.1,582.006258672569,139.02187707158737,4947.3]","[1478.5,1478.5,1000,0,478.5,""oops"",""right"",""up"",""good_move"",5240.7,3761.4,3361.9,1479.3,399.5,""oops"",""right"",""up"",""good_move"",8462.8,3221.5,2735.9,5241.3,485.6,""oops"",""up"",""right"",""good_move"",11305.7,2842.3,2360.5,8463.4,481.8,""smooth"",""up"",""up"",""good_move"",13885.5,2579.4,2189.6,11306.2,389.8,""oops"",""right"",""down"",""bad_move"",16549.6,2663.5,2278.3,13886.1,385.2,""oops"",""right"",""down"",""bad_move"",20040.6,3487.8,3088.5,16552.8,399.3,""oops"",""up"",""left"",""bad_move"",29584.6,9543.5,2997.7,26106.8,480.1,""oops"",""left"",""right"",""good_move"",32634.9,3049.9,2644.4,29585,405.5,""smooth"",""left"",""left"",""bad_move"",39773.6,7138.5,3357.1,35930.1,486.4,""oops"",""up"",""up"",""good_move"",43043.6,3267.8,2453.7,39775.8,814.1,""oops"",""right"",""down"",""bad_move"",46356.8,3312.4,2377.4,43044.4,935.1,""oops"",""up"",""right"",""good_move"",49276.3,2918.4,2470.4,46357.9,448,""oops"",""up"",""down"",""bad_move"",52561,3283.4,2828.4,49277.6,455,""oops"",""up"",""right"",""good_move"",54830.8,2268.9,1705.3,52561.9,563.6,""oops"",""up"",""down"",""bad_move""]","",""
"43481","","<div style=""width:500px;"">
  <p>What determined the result of this run?</p>
  </div>","27","html-slider-response","50","1186103","0.0-5.0-1.8","219","1","2025-07-23 13:16:29","1f75c3e559b7213887762d5229550c2b","41.122.132.69","Mozilla/5.0 (Macintosh; Intel Mac OS X 10_15_7) AppleWebKit/537.36 (KHTML, like Gecko) Chrome/128.0.0.0 Safari/537.36","Macintosh","Chrome","128.0.0.0","OS X","10_15_7","https://app.prolific.com/","en-GB,en-US;q=0.9,en;q=0.8","6780db9dafd89add339abb6b","683db9eb0562dbf637994deb","6880e06131b08b85e75e3f9c","2","1","6780db9dafd89add339abb6b","2","1","2025-07-23T13:36:19.351Z","","","","","","","","","","","AttribQ","","50","","","","","","","","","","","","","","","","","","","","","","","","","","","","",""
"3880","","<div style=""width:500px;"">
  <p>How much control did you have over the ball?</p>
  </div>","28","html-slider-response","51","1189986","0.0-5.0-2.8","219","1","2025-07-23 13:16:29","1f75c3e559b7213887762d5229550c2b","41.122.132.69","Mozilla/5.0 (Macintosh; Intel Mac OS X 10_15_7) AppleWebKit/537.36 (KHTML, like Gecko) Chrome/128.0.0.0 Safari/537.36","Macintosh","Chrome","128.0.0.0","OS X","10_15_7","https://app.prolific.com/","en-GB,en-US;q=0.9,en;q=0.8","6780db9dafd89add339abb6b","683db9eb0562dbf637994deb","6880e06131b08b85e75e3f9c","2","1","6780db9dafd89add339abb6b","2","1","2025-07-23T13:36:23.234Z","","","","","","","","","","","ControlQ","","50","","","","","","","","","","","","","","","","","","","","","","","","","","","","",""
"2129","","<div style=""width:500px;"">
  <p>How would you describe your current emotional state?</p>
  </div>","69","html-slider-response","52","1192116","0.0-5.0-3.8","219","1","2025-07-23 13:16:29","1f75c3e559b7213887762d5229550c2b","41.122.132.69","Mozilla/5.0 (Macintosh; Intel Mac OS X 10_15_7) AppleWebKit/537.36 (KHTML, like Gecko) Chrome/128.0.0.0 Safari/537.36","Macintosh","Chrome","128.0.0.0","OS X","10_15_7","https://app.prolific.com/","en-GB,en-US;q=0.9,en;q=0.8","6780db9dafd89add339abb6b","683db9eb0562dbf637994deb","6880e06131b08b85e75e3f9c","2","1","6780db9dafd89add339abb6b","2","1","2025-07-23T13:36:25.364Z","","","","","","","","","","","StressQ","","50","","","","","","","","","","","","","","","","","","","","","","","","","","","","",""
"2751","","<div style=""width:500px;"">
  <p>What best describes how you currently feel?</p>
  </div>","27","html-slider-response","53","1194869","0.0-5.0-4.8","219","1","2025-07-23 13:16:29","1f75c3e559b7213887762d5229550c2b","41.122.132.69","Mozilla/5.0 (Macintosh; Intel Mac OS X 10_15_7) AppleWebKit/537.36 (KHTML, like Gecko) Chrome/128.0.0.0 Safari/537.36","Macintosh","Chrome","128.0.0.0","OS X","10_15_7","https://app.prolific.com/","en-GB,en-US;q=0.9,en;q=0.8","6780db9dafd89add339abb6b","683db9eb0562dbf637994deb","6880e06131b08b85e75e3f9c","2","1","6780db9dafd89add339abb6b","2","1","2025-07-23T13:36:28.117Z","","","","","","","","","","","MotivationQ","","50","","","","","","","","","","","","","","","","","","","","","","","","","","","","",""
"","","","","ctl-task-cpt","54","1282735","0.0-5.0-0.9","219","1","2025-07-23 13:16:29","1f75c3e559b7213887762d5229550c2b","41.122.132.69","Mozilla/5.0 (Macintosh; Intel Mac OS X 10_15_7) AppleWebKit/537.36 (KHTML, like Gecko) Chrome/128.0.0.0 Safari/537.36","Macintosh","Chrome","128.0.0.0","OS X","10_15_7","https://app.prolific.com/","en-GB,en-US;q=0.9,en;q=0.8","6780db9dafd89add339abb6b","683db9eb0562dbf637994deb","6880e06131b08b85e75e3f9c","2","1","6780db9dafd89add339abb6b","2","1","2025-07-23T13:37:55.983Z","","","","","","","","","","","","","","win-only","1","g1:NE,g2:SW","0.4","10","0","1199854.2","1625.8","6642","84849.4","1","4","8","6","2","-8","-8","0","0","0","2020.9","3000","-1125","[""down"",""left""]","{""num_key_presses"":20,""num_perfect"":8,""num_errors"":0,""num_randdir"":12,""num_randdir_good_moves"":5,""num_whilered"":0,""num_whileblue"":0,""num_blue"":4,""num_good_moves"":12}","[314.8062546909787,317.4218797299545,0.8,314.8062546909787,317.4218797299545,101.4,314.8062546909787,317.4218797299545,205.3,314.8062546909787,317.4218797299545,318.3,343.6062551201321,349.4218802067917,430.6,358.00625533470884,431.82188143464737,539.5,346.80625516781583,492.62188234063797,643.8,316.40625471482053,472.62188204261474,754.7,310.80625463137403,447.82188167306595,858.7,313.2062546671368,446.2218816492241,967.9,313.2062546671368,446.2218816492241,1076.7,313.2062546671368,446.2218816492241,1191.5,313.2062546671368,446.2218816492241,1301.6,262.00625390419737,464.62188192340545,1405.2,189.20625281939283,516.6218826982658,1511.3,93.20625138888136,612.6218841287773,1611.3,29.206250435207032,626.2218843314331,1723.5,31.60625047096982,621.4218842599075,1827.7,37.20625055441632,605.421884021489,1935.9,38.00625056633725,601.4218839618843,2048,38.00625056633725,601.4218839618843,2161.5,38.00625056633725,595.0218838665169,2273,38.00625056633725,595.0218838665169,2384.2,38.00625056633725,595.0218838665169,2491.3,38.00625056633725,595.0218838665169,2598.4,38.00625056633725,595.0218838665169,2704,38.00625056633725,595.0218838665169,2809.9,38.00625056633725,595.0218838665169,2920.7,38.00625056633725,595.0218838665169,3021.3,38.00625056633725,595.0218838665169,3124,38.00625056633725,595.0218838665169,3236.2,38.00625056633725,595.0218838665169,3340.5,38.00625056633725,595.0218838665169,3448.3,38.00625056633725,595.0218838665169,3564.3,38.00625056633725,595.0218838665169,3692.3,38.00625056633725,595.0218838665169,3796.3,38.00625056633725,595.0218838665169,3908.1,38.00625056633725,595.0218838665169,4011.2,38.00625056633725,595.0218838665169,4118.8,38.00625056633725,595.0218838665169,4226.9,38.00625056633725,595.0218838665169,4343.4,38.00625056633725,595.0218838665169,4460.6,38.00625056633725,595.0218838665169,4561.8,38.00625056633725,595.0218838665169,4675.1,38.00625056633725,595.0218838665169,4781.3,38.00625056633725,595.0218838665169,4884.6,38.00625056633725,595.0218838665169,4988.2]","[1618.1,1618.1,1000,0,618.1,""oops"",""left"",""right"",""bad_move"",4535.3,2914.8,2500,1620.5,414.8,""smooth"",""left"",""left"",""good_move"",7242.1,2706.4,2261.2,4535.8,445.2,""smooth"",""down"",""down"",""good_move"",9740.8,2497.7,2026.7,7243.2,471,""oops"",""left"",""down"",""good_move"",13144.3,3402.5,3012.3,9741.8,390.2,""smooth"",""left"",""left"",""good_move"",16262.5,3117.2,2703.2,13145.3,414,""oops"",""left"",""down"",""good_move"",18544.4,2281.4,1869.3,16263,412.1,""oops"",""left"",""right"",""bad_move"",21626.7,3081.9,2656.3,18544.9,425.5,""oops"",""right"",""right"",""bad_move"",24835.9,3208.7,2809.5,21627.2,399.2,""smooth"",""left"",""left"",""good_move"",28307.7,3469.7,3101.7,24838.1,367.9,""oops"",""left"",""right"",""bad_move"",34741.2,6430.7,2423.5,31810.7,507,""oops"",""left"",""right"",""bad_move"",37772.2,3030.2,2540,34742.1,490.1,""oops"",""right"",""left"",""good_move"",41256.9,3483.7,3076,37773.2,407.7,""smooth"",""right"",""right"",""bad_move"",47829.7,6572.4,2405,45046.6,378.1,""oops"",""left"",""left"",""good_move"",51499.5,3668.8,3247.7,47830.7,421.1,""smooth"",""left"",""left"",""good_move"",62389.4,10887.8,2458.2,59462.7,468.5,""smooth"",""left"",""left"",""good_move"",65740.9,3350.6,2850.6,62390.3,500,""oops"",""left"",""left"",""good_move"",68766.9,3025.1,2549.7,65741.8,475.4,""oops"",""left"",""right"",""bad_move"",71662.3,2894.5,2488.8,68767.8,405.7,""oops"",""left"",""up"",""bad_move"",75110,3446.2,2967.2,71663.8,479,""smooth"",""left"",""left"",""good_move""]","",""
"52381","","<div style=""width:500px;"">
  <p>What determined the result of this run?</p>
  </div>","22","html-slider-response","55","1335118","0.0-5.0-1.9","219","1","2025-07-23 13:16:29","1f75c3e559b7213887762d5229550c2b","41.122.132.69","Mozilla/5.0 (Macintosh; Intel Mac OS X 10_15_7) AppleWebKit/537.36 (KHTML, like Gecko) Chrome/128.0.0.0 Safari/537.36","Macintosh","Chrome","128.0.0.0","OS X","10_15_7","https://app.prolific.com/","en-GB,en-US;q=0.9,en;q=0.8","6780db9dafd89add339abb6b","683db9eb0562dbf637994deb","6880e06131b08b85e75e3f9c","2","1","6780db9dafd89add339abb6b","2","1","2025-07-23T13:38:48.366Z","","","","","","","","","","","AttribQ","","50","","","","","","","","","","","","","","","","","","","","","","","","","","","","",""
"2590","","<div style=""width:500px;"">
  <p>How much control did you have over the ball?</p>
  </div>","17","html-slider-response","56","1337711","0.0-5.0-2.9","219","1","2025-07-23 13:16:29","1f75c3e559b7213887762d5229550c2b","41.122.132.69","Mozilla/5.0 (Macintosh; Intel Mac OS X 10_15_7) AppleWebKit/537.36 (KHTML, like Gecko) Chrome/128.0.0.0 Safari/537.36","Macintosh","Chrome","128.0.0.0","OS X","10_15_7","https://app.prolific.com/","en-GB,en-US;q=0.9,en;q=0.8","6780db9dafd89add339abb6b","683db9eb0562dbf637994deb","6880e06131b08b85e75e3f9c","2","1","6780db9dafd89add339abb6b","2","1","2025-07-23T13:38:50.959Z","","","","","","","","","","","ControlQ","","50","","","","","","","","","","","","","","","","","","","","","","","","","","","","",""
"3842","","<div style=""width:500px;"">
  <p>How would you describe your current emotional state?</p>
  </div>","36","html-slider-response","57","1341557","0.0-5.0-3.9","219","1","2025-07-23 13:16:29","1f75c3e559b7213887762d5229550c2b","41.122.132.69","Mozilla/5.0 (Macintosh; Intel Mac OS X 10_15_7) AppleWebKit/537.36 (KHTML, like Gecko) Chrome/128.0.0.0 Safari/537.36","Macintosh","Chrome","128.0.0.0","OS X","10_15_7","https://app.prolific.com/","en-GB,en-US;q=0.9,en;q=0.8","6780db9dafd89add339abb6b","683db9eb0562dbf637994deb","6880e06131b08b85e75e3f9c","2","1","6780db9dafd89add339abb6b","2","1","2025-07-23T13:38:54.805Z","","","","","","","","","","","StressQ","","50","","","","","","","","","","","","","","","","","","","","","","","","","","","","",""
"3199","","<div style=""width:500px;"">
  <p>What best describes how you currently feel?</p>
  </div>","63","html-slider-response","58","1344757","0.0-5.0-4.9","219","1","2025-07-23 13:16:29","1f75c3e559b7213887762d5229550c2b","41.122.132.69","Mozilla/5.0 (Macintosh; Intel Mac OS X 10_15_7) AppleWebKit/537.36 (KHTML, like Gecko) Chrome/128.0.0.0 Safari/537.36","Macintosh","Chrome","128.0.0.0","OS X","10_15_7","https://app.prolific.com/","en-GB,en-US;q=0.9,en;q=0.8","6780db9dafd89add339abb6b","683db9eb0562dbf637994deb","6880e06131b08b85e75e3f9c","2","1","6780db9dafd89add339abb6b","2","1","2025-07-23T13:38:58.005Z","","","","","","","","","","","MotivationQ","","50","","","","","","","","","","","","","","","","","","","","","","","","","","","","",""
"","","","","ctl-task-cpt","59","1400459","0.0-5.0-0.10","219","1","2025-07-23 13:16:29","1f75c3e559b7213887762d5229550c2b","41.122.132.69","Mozilla/5.0 (Macintosh; Intel Mac OS X 10_15_7) AppleWebKit/537.36 (KHTML, like Gecko) Chrome/128.0.0.0 Safari/537.36","Macintosh","Chrome","128.0.0.0","OS X","10_15_7","https://app.prolific.com/","en-GB,en-US;q=0.9,en;q=0.8","6780db9dafd89add339abb6b","683db9eb0562dbf637994deb","6880e06131b08b85e75e3f9c","2","1","6780db9dafd89add339abb6b","2","1","2025-07-23T13:39:53.708Z","","","","","","","","","","","","","","win-only","2","g1:SE,g2:NW","0.5","11","0","1349743","1265.7","6267.9","52674.6","1","4","8","6","2","-8","-8","0","0","0","1450.2","3000","-1045","[""left"",""up""]","{""num_key_presses"":11,""num_perfect"":5,""num_errors"":0,""num_randdir"":6,""num_randdir_good_moves"":2,""num_whilered"":0,""num_whileblue"":0,""num_blue"":2,""num_good_moves"":7}","[305.20625454792753,316.6218797180336,0.4,305.20625454792753,316.6218797180336,115.5,306.00625455984846,315.82187970611267,226.6,306.8062545717694,318.22187974187545,330.7,354.8062552870251,437.42188151809387,448.3,422.00625628838316,501.4218824717682,553.4,503.6062575043179,537.42188300821,663.2,434.806256479118,492.62188234063797,765.9,88.40625131735578,180.62187769147567,873.4,-31.59375047078357,44.621875664917745,989.1,-31.59375047078357,43.821875652996816,1094.6,64.40625095972791,67.82187601062469,1208.9,62.80625093588605,63.82187595102004,1315.7,58.006250864360474,59.821875891415395,1421.1,58.006250864360474,59.821875891415395,1524.9,49.206250733230256,69.42187603446655,1628.7,14.006250208709382,106.22187658282928,1740.4,13.206250196788453,106.22187658282928,1856.5,13.206250196788453,106.22187658282928,1968.2,13.206250196788453,107.02187659475021,2077,13.206250196788453,107.02187659475021,2186.3,13.206250196788453,107.02187659475021,2292.2,13.206250196788453,107.02187659475021,2395.2,13.206250196788453,107.02187659475021,2503.7,13.206250196788453,107.02187659475021,2607,13.206250196788453,107.02187659475021,2713.8,13.206250196788453,107.02187659475021,2816.5,13.206250196788453,107.02187659475021,2928.2,13.206250196788453,107.02187659475021,3039.7,13.206250196788453,107.02187659475021,3158,13.206250196788453,107.02187659475021,3258.5,13.206250196788453,107.02187659475021,3365.1,13.206250196788453,107.02187659475021,3467.9,13.206250196788453,107.02187659475021,3570.2,13.206250196788453,107.02187659475021,3673.5,13.206250196788453,107.02187659475021,3782,13.206250196788453,107.02187659475021,3887.3,13.206250196788453,107.02187659475021,3989.5,13.206250196788453,107.02187659475021,4104.5,13.206250196788453,107.02187659475021,4210.2,13.206250196788453,107.02187659475021,4311.7,13.206250196788453,107.02187659475021,4416.5,13.206250196788453,107.02187659475021,4521.6,13.206250196788453,107.02187659475021,4627.5,13.206250196788453,107.02187659475021,4736.4,13.206250196788453,107.02187659475021,4842.2,13.206250196788453,107.02187659475021,4949.8]","[1526.4,1526.4,1000,0,526.4,""oops"",""left"",""left"",""good_move"",4555.5,3027.6,2610,1527.9,417.6,""smooth"",""left"",""left"",""good_move"",7411.7,2855.6,2268.3,4556.1,587.3,""smooth"",""left"",""left"",""good_move"",10301.2,2887.6,2286.3,7413.7,601.2,""oops"",""up"",""down"",""bad_move"",17021.5,6719.6,2521.5,13672.9,827.1,""smooth"",""up"",""up"",""good_move"",23397.9,6375.5,1901.3,21025.3,471.3,""oops"",""up"",""down"",""bad_move"",30500.4,7101.4,2899.2,23399,4202.2,""smooth"",""up"",""up"",""good_move"",33807.8,3305.9,2779.5,30501.9,526.4,""smooth"",""up"",""up"",""good_move"",37431.6,3623,3206,33808.6,417,""oops"",""up"",""down"",""bad_move"",39820.4,2387.9,1780.8,37432.5,607.1,""oops"",""up"",""down"",""bad_move"",43299.9,3479.1,2883.1,39820.8,596,""oops"",""up"",""up"",""good_move""]","",""
"70187","","<div style=""width:500px;"">
  <p>What determined the result of this run?</p>
  </div>","74","html-slider-response","60","1470647","0.0-5.0-1.10","219","1","2025-07-23 13:16:29","1f75c3e559b7213887762d5229550c2b","41.122.132.69","Mozilla/5.0 (Macintosh; Intel Mac OS X 10_15_7) AppleWebKit/537.36 (KHTML, like Gecko) Chrome/128.0.0.0 Safari/537.36","Macintosh","Chrome","128.0.0.0","OS X","10_15_7","https://app.prolific.com/","en-GB,en-US;q=0.9,en;q=0.8","6780db9dafd89add339abb6b","683db9eb0562dbf637994deb","6880e06131b08b85e75e3f9c","2","1","6780db9dafd89add339abb6b","2","1","2025-07-23T13:41:03.895Z","","","","","","","","","","","AttribQ","","50","","","","","","","","","","","","","","","","","","","","","","","","","","","","",""
"4941","","<div style=""width:500px;"">
  <p>How much control did you have over the ball?</p>
  </div>","37","html-slider-response","61","1475591","0.0-5.0-2.10","219","1","2025-07-23 13:16:29","1f75c3e559b7213887762d5229550c2b","41.122.132.69","Mozilla/5.0 (Macintosh; Intel Mac OS X 10_15_7) AppleWebKit/537.36 (KHTML, like Gecko) Chrome/128.0.0.0 Safari/537.36","Macintosh","Chrome","128.0.0.0","OS X","10_15_7","https://app.prolific.com/","en-GB,en-US;q=0.9,en;q=0.8","6780db9dafd89add339abb6b","683db9eb0562dbf637994deb","6880e06131b08b85e75e3f9c","2","1","6780db9dafd89add339abb6b","2","1","2025-07-23T13:41:08.839Z","","","","","","","","","","","ControlQ","","50","","","","","","","","","","","","","","","","","","","","","","","","","","","","",""
"6948","","<div style=""width:500px;"">
  <p>How would you describe your current emotional state?</p>
  </div>","68","html-slider-response","62","1482540","0.0-5.0-3.10","219","1","2025-07-23 13:16:29","1f75c3e559b7213887762d5229550c2b","41.122.132.69","Mozilla/5.0 (Macintosh; Intel Mac OS X 10_15_7) AppleWebKit/537.36 (KHTML, like Gecko) Chrome/128.0.0.0 Safari/537.36","Macintosh","Chrome","128.0.0.0","OS X","10_15_7","https://app.prolific.com/","en-GB,en-US;q=0.9,en;q=0.8","6780db9dafd89add339abb6b","683db9eb0562dbf637994deb","6880e06131b08b85e75e3f9c","2","1","6780db9dafd89add339abb6b","2","1","2025-07-23T13:41:15.788Z","","","","","","","","","","","StressQ","","50","","","","","","","","","","","","","","","","","","","","","","","","","","","","",""
"20285","","<div style=""width:500px;"">
  <p>What best describes how you currently feel?</p>
  </div>","70","html-slider-response","63","1502826","0.0-5.0-4.10","219","1","2025-07-23 13:16:29","1f75c3e559b7213887762d5229550c2b","41.122.132.69","Mozilla/5.0 (Macintosh; Intel Mac OS X 10_15_7) AppleWebKit/537.36 (KHTML, like Gecko) Chrome/128.0.0.0 Safari/537.36","Macintosh","Chrome","128.0.0.0","OS X","10_15_7","https://app.prolific.com/","en-GB,en-US;q=0.9,en;q=0.8","6780db9dafd89add339abb6b","683db9eb0562dbf637994deb","6880e06131b08b85e75e3f9c","2","1","6780db9dafd89add339abb6b","2","1","2025-07-23T13:41:36.074Z","","","","","","","","","","","MotivationQ","","50","","","","","","","","","","","","","","","","","","","","","","","","","","","","",""
"","","","","ctl-task-cpt","64","1578295","0.0-5.0-0.11","219","1","2025-07-23 13:16:29","1f75c3e559b7213887762d5229550c2b","41.122.132.69","Mozilla/5.0 (Macintosh; Intel Mac OS X 10_15_7) AppleWebKit/537.36 (KHTML, like Gecko) Chrome/128.0.0.0 Safari/537.36","Macintosh","Chrome","128.0.0.0","OS X","10_15_7","https://app.prolific.com/","en-GB,en-US;q=0.9,en;q=0.8","6780db9dafd89add339abb6b","683db9eb0562dbf637994deb","6880e06131b08b85e75e3f9c","2","1","6780db9dafd89add339abb6b","2","1","2025-07-23T13:42:51.543Z","","","","","","","","","","","","","","win-only","0","g1:NW,g2:SE","0.6","12","0","1507814.4","2520.4","7535.7","72438.2","1","4","4","6","2","4","4","4","0","0.030303030303030304","1238.3","3000","360","[""down"",""right""]","{""num_key_presses"":18,""num_perfect"":10,""num_errors"":0,""num_randdir"":8,""num_randdir_good_moves"":4,""num_whilered"":0,""num_whileblue"":0,""num_blue"":3,""num_good_moves"":12}","[311.60625464329496,312.62187965842895,0.3,311.60625464329496,312.62187965842895,103.5,311.60625464329496,312.62187965842895,221.1,311.60625464329496,312.62187965842895,336.6,309.2062546075322,319.8218797657173,450,358.80625534662977,351.82188024255447,563.1,479.60625714669004,450.22188170882873,678.2,498.0062574208714,491.82188232871704,786.5,510.80625761160627,513.4218826505821,890.8,530.8062579096295,525.421882829396,992.7,543.6062581003644,529.4218828890007,1105.6,554.8062582672574,534.2218829605263,1209.6,554.8062582672574,534.2218829605263,1322.7,554.0062582553364,534.2218829605263,1436.5,539.6062580407597,533.4218829486053,1550,308.40625459561124,558.2218833181541,1661.2,120.40625179419294,557.4218833062332,1773.9,94.00625140080228,555.0218832704704,1878,94.00625140080228,555.0218832704704,1984.9,94.00625140080228,555.0218832704704,2088,94.00625140080228,555.0218832704704,2188,94.00625140080228,555.0218832704704,2299.4,94.00625140080228,555.0218832704704,2405.1,94.00625140080228,555.0218832704704,2523.2,94.00625140080228,555.0218832704704,2624.6,94.00625140080228,555.0218832704704,2732,94.00625140080228,555.0218832704704,2844.6,94.00625140080228,555.0218832704704,2952.8,94.00625140080228,555.0218832704704,3062.7,94.00625140080228,555.0218832704704,3182.6,94.00625140080228,555.0218832704704,3293.8,94.00625140080228,555.0218832704704,3406,94.00625140080228,555.0218832704704,3517.6,94.00625140080228,555.0218832704704,3625.5,94.00625140080228,555.0218832704704,3736.6,94.00625140080228,555.0218832704704,3840.2,94.00625140080228,555.0218832704704,3945.9,94.00625140080228,555.0218832704704,4050.6,94.00625140080228,555.0218832704704,4158.8,94.00625140080228,555.0218832704704,4259.3,94.00625140080228,555.0218832704704,4360.7,94.00625140080228,555.0218832704704,4469.4,94.00625140080228,555.0218832704704,4573,94.00625140080228,555.0218832704704,4675.3,94.00625140080228,555.0218832704704,4775.5,94.00625140080228,555.0218832704704,4877.9,94.00625140080228,555.0218832704704,4985.9]","[5193.2,5193.2,2664.1,2005.9,523.2,""smooth"",""right"",""right"",""good_move"",8805.1,3611.5,3110.8,5193.6,500.7,""smooth"",""right"",""right"",""good_move"",11873,3067.6,2528,8805.4,539.6,""oops"",""right"",""down"",""good_move"",14647.4,2774,2359.8,11873.4,414.2,""smooth"",""right"",""right"",""good_move"",21768.3,7120,2815,18363.7,589.6,""oops"",""down"",""left"",""bad_move"",24769.3,2998.9,2105.3,21770.4,893.6,""oops"",""down"",""left"",""bad_move"",27842.3,3072.5,2360.4,24769.8,712.1,""smooth"",""down"",""down"",""good_move"",31093.4,3250.4,2716,27843,534.4,""smooth"",""right"",""right"",""good_move"",37558.2,6463.6,2465.7,34596.8,495.7,""smooth"",""right"",""right"",""good_move"",40391.3,2831.1,2332.5,37560.2,498.6,""oops"",""down"",""up"",""bad_move"",43587.9,3194.9,2529,40393,665.9,""smooth"",""up"",""up"",""bad_move"",46622.9,3033.4,2043.3,43589.5,990.1,""smooth"",""down"",""down"",""good_move"",49005.4,2381.2,1936.5,46624.2,444.7,""oops"",""down"",""down"",""good_move"",51592.5,2585.9,2159.1,49006.7,426.7,""oops"",""down"",""up"",""bad_move"",55077.4,3484.3,3059.5,51593.1,424.8,""smooth"",""up"",""up"",""bad_move"",58594.3,3516.4,3030.5,55077.9,485.9,""oops"",""down"",""down"",""good_move"",61862.8,3267.6,2878.6,58595.2,389,""oops"",""down"",""down"",""good_move"",64587.9,2724.7,2305.3,61863.3,419.4,""smooth"",""down"",""down"",""good_move""]","",""
"57577","","<div style=""width:500px;"">
  <p>What determined the result of this run?</p>
  </div>","36","html-slider-response","65","1635874","0.0-5.0-1.11","219","1","2025-07-23 13:16:29","1f75c3e559b7213887762d5229550c2b","41.122.132.69","Mozilla/5.0 (Macintosh; Intel Mac OS X 10_15_7) AppleWebKit/537.36 (KHTML, like Gecko) Chrome/128.0.0.0 Safari/537.36","Macintosh","Chrome","128.0.0.0","OS X","10_15_7","https://app.prolific.com/","en-GB,en-US;q=0.9,en;q=0.8","6780db9dafd89add339abb6b","683db9eb0562dbf637994deb","6880e06131b08b85e75e3f9c","2","1","6780db9dafd89add339abb6b","2","1","2025-07-23T13:43:49.122Z","","","","","","","","","","","AttribQ","","50","","","","","","","","","","","","","","","","","","","","","","","","","","","","",""
"3718","","<div style=""width:500px;"">
  <p>How much control did you have over the ball?</p>
  </div>","20","html-slider-response","66","1639593","0.0-5.0-2.11","219","1","2025-07-23 13:16:29","1f75c3e559b7213887762d5229550c2b","41.122.132.69","Mozilla/5.0 (Macintosh; Intel Mac OS X 10_15_7) AppleWebKit/537.36 (KHTML, like Gecko) Chrome/128.0.0.0 Safari/537.36","Macintosh","Chrome","128.0.0.0","OS X","10_15_7","https://app.prolific.com/","en-GB,en-US;q=0.9,en;q=0.8","6780db9dafd89add339abb6b","683db9eb0562dbf637994deb","6880e06131b08b85e75e3f9c","2","1","6780db9dafd89add339abb6b","2","1","2025-07-23T13:43:52.842Z","","","","","","","","","","","ControlQ","","50","","","","","","","","","","","","","","","","","","","","","","","","","","","","",""
"4889","","<div style=""width:500px;"">
  <p>How would you describe your current emotional state?</p>
  </div>","59","html-slider-response","67","1644484","0.0-5.0-3.11","219","1","2025-07-23 13:16:29","1f75c3e559b7213887762d5229550c2b","41.122.132.69","Mozilla/5.0 (Macintosh; Intel Mac OS X 10_15_7) AppleWebKit/537.36 (KHTML, like Gecko) Chrome/128.0.0.0 Safari/537.36","Macintosh","Chrome","128.0.0.0","OS X","10_15_7","https://app.prolific.com/","en-GB,en-US;q=0.9,en;q=0.8","6780db9dafd89add339abb6b","683db9eb0562dbf637994deb","6880e06131b08b85e75e3f9c","2","1","6780db9dafd89add339abb6b","2","1","2025-07-23T13:43:57.732Z","","","","","","","","","","","StressQ","","50","","","","","","","","","","","","","","","","","","","","","","","","","","","","",""
"2998","","<div style=""width:500px;"">
  <p>What best describes how you currently feel?</p>
  </div>","57","html-slider-response","68","1647483","0.0-5.0-4.11","219","1","2025-07-23 13:16:29","1f75c3e559b7213887762d5229550c2b","41.122.132.69","Mozilla/5.0 (Macintosh; Intel Mac OS X 10_15_7) AppleWebKit/537.36 (KHTML, like Gecko) Chrome/128.0.0.0 Safari/537.36","Macintosh","Chrome","128.0.0.0","OS X","10_15_7","https://app.prolific.com/","en-GB,en-US;q=0.9,en;q=0.8","6780db9dafd89add339abb6b","683db9eb0562dbf637994deb","6880e06131b08b85e75e3f9c","2","1","6780db9dafd89add339abb6b","2","1","2025-07-23T13:44:00.731Z","","","","","","","","","","","MotivationQ","","50","","","","","","","","","","","","","","","","","","","","","","","","","","","","",""
"","","","","ctl-task-cpt","69","1709865","0.0-5.0-0.12","219","1","2025-07-23 13:16:29","1f75c3e559b7213887762d5229550c2b","41.122.132.69","Mozilla/5.0 (Macintosh; Intel Mac OS X 10_15_7) AppleWebKit/537.36 (KHTML, like Gecko) Chrome/128.0.0.0 Safari/537.36","Macintosh","Chrome","128.0.0.0","OS X","10_15_7","https://app.prolific.com/","en-GB,en-US;q=0.9,en;q=0.8","6780db9dafd89add339abb6b","683db9eb0562dbf637994deb","6880e06131b08b85e75e3f9c","2","1","6780db9dafd89add339abb6b","2","1","2025-07-23T13:45:03.113Z","","","","","","","","","","","","","","win-only","0","g1:NW,g2:SE","0.7","13","0","1652471.7","2044.7","7049.7","59356.6","1","4","8","6","2","8","7","11","4","0.08333333333333333","798.1","3000","1520","[""down"",""right""]","{""num_key_presses"":12,""num_perfect"":8,""num_errors"":1,""num_randdir"":3,""num_randdir_good_moves"":1,""num_whilered"":0,""num_whileblue"":1,""num_blue"":5,""num_good_moves"":9}","[310.0062546194531,314.2218796822708,0.7,310.0062546194531,314.2218796822708,104.9,310.80625463137403,315.02187969419174,219.3,375.6062555969693,384.62188073131256,333.6,522.8062577904202,520.6218827578705,450.7,548.4062581718899,545.4218831274193,570.2,570.006258493755,570.2218834969681,678.2,570.006258493755,570.2218834969681,784.7,570.006258493755,570.2218834969681,886.8,570.006258493755,570.2218834969681,1003.5,570.006258493755,570.2218834969681,1103.6,570.006258493755,570.2218834969681,1215.2,572.4062585295178,563.8218834016006,1321.4,571.6062585175969,542.2218830797356,1425.8,571.6062585175969,542.2218830797356,1526.8,571.6062585175969,542.2218830797356,1651.1,571.6062585175969,542.2218830797356,1764.9,571.6062585175969,542.2218830797356,1882.5,571.6062585175969,542.2218830797356,1984.4,571.6062585175969,542.2218830797356,2093.4,571.6062585175969,542.2218830797356,2203.6,571.6062585175969,542.2218830797356,2304.4,571.6062585175969,542.2218830797356,2418,571.6062585175969,542.2218830797356,2521.2,571.6062585175969,542.2218830797356,2634.4,571.6062585175969,542.2218830797356,2744.1,571.6062585175969,542.2218830797356,2844.8,571.6062585175969,542.2218830797356,2963.4,571.6062585175969,542.2218830797356,3072.2,571.6062585175969,542.2218830797356,3172.5,571.6062585175969,542.2218830797356,3274.9,571.6062585175969,542.2218830797356,3381.4,571.6062585175969,542.2218830797356,3487.1,571.6062585175969,542.2218830797356,3601.3,571.6062585175969,542.2218830797356,3712.3,571.6062585175969,542.2218830797356,3815.8,571.6062585175969,542.2218830797356,3929.9,571.6062585175969,542.2218830797356,4044.3,571.6062585175969,542.2218830797356,4150.3,571.6062585175969,542.2218830797356,4251.9,571.6062585175969,542.2218830797356,4361.7,571.6062585175969,542.2218830797356,4466.6,571.6062585175969,542.2218830797356,4569.4,571.6062585175969,542.2218830797356,4685.3,571.6062585175969,542.2218830797356,4802.6,571.6062585175969,542.2218830797356,4908.8]","[1665.1,1665.1,1000,0,665.1,""smooth"",""right"",""right"",""good_move"",5247.9,3582.1,3065.4,1665.8,516.7,""smooth"",""right"",""right"",""good_move"",12270.1,7021.7,2874.5,8931.5,464.1,""smooth"",""right"",""right"",""good_move"",26869.9,14599.5,2747.6,23581.3,541,""oops"",""down"",""up"",""bad_move"",30451,3580.6,2774.2,26870.5,806.3,""smooth"",""up"",""up"",""bad_move"",33926,3474.5,2791.8,30451.5,682.7,""smooth"",""down"",""down"",""good_move"",37445.1,3518.6,3066.5,33926.5,452.1,""oops"",""down"",""down"",""good_move"",39808.1,2362.6,1883.9,37445.5,478.7,""smooth"",""down"",""down"",""good_move"",42710.2,2901.7,2442.6,39808.5,459.1,""oops"",""down"",""up"",""bad_move"",46084.9,3374.1,2958.4,42710.8,415.7,""while_blue"",""down"",""down"",""good_move"",48692.3,2606.8,2122.4,46085.5,484.4,""smooth"",""down"",""down"",""good_move"",51951.8,3259.3,2751.3,48692.5,508,""smooth"",""down"",""down"",""good_move""]","",""
"68224","","<div style=""width:500px;"">
  <p>What determined the result of this run?</p>
  </div>","28","html-slider-response","70","1778089","0.0-5.0-1.12","219","1","2025-07-23 13:16:29","1f75c3e559b7213887762d5229550c2b","41.122.132.69","Mozilla/5.0 (Macintosh; Intel Mac OS X 10_15_7) AppleWebKit/537.36 (KHTML, like Gecko) Chrome/128.0.0.0 Safari/537.36","Macintosh","Chrome","128.0.0.0","OS X","10_15_7","https://app.prolific.com/","en-GB,en-US;q=0.9,en;q=0.8","6780db9dafd89add339abb6b","683db9eb0562dbf637994deb","6880e06131b08b85e75e3f9c","2","1","6780db9dafd89add339abb6b","2","1","2025-07-23T13:46:11.337Z","","","","","","","","","","","AttribQ","","50","","","","","","","","","","","","","","","","","","","","","","","","","","","","",""
"3338","","<div style=""width:500px;"">
  <p>How much control did you have over the ball?</p>
  </div>","19","html-slider-response","71","1781429","0.0-5.0-2.12","219","1","2025-07-23 13:16:29","1f75c3e559b7213887762d5229550c2b","41.122.132.69","Mozilla/5.0 (Macintosh; Intel Mac OS X 10_15_7) AppleWebKit/537.36 (KHTML, like Gecko) Chrome/128.0.0.0 Safari/537.36","Macintosh","Chrome","128.0.0.0","OS X","10_15_7","https://app.prolific.com/","en-GB,en-US;q=0.9,en;q=0.8","6780db9dafd89add339abb6b","683db9eb0562dbf637994deb","6880e06131b08b85e75e3f9c","2","1","6780db9dafd89add339abb6b","2","1","2025-07-23T13:46:14.677Z","","","","","","","","","","","ControlQ","","50","","","","","","","","","","","","","","","","","","","","","","","","","","","","",""
"7827","","<div style=""width:500px;"">
  <p>How would you describe your current emotional state?</p>
  </div>","36","html-slider-response","72","1789257","0.0-5.0-3.12","219","1","2025-07-23 13:16:29","1f75c3e559b7213887762d5229550c2b","41.122.132.69","Mozilla/5.0 (Macintosh; Intel Mac OS X 10_15_7) AppleWebKit/537.36 (KHTML, like Gecko) Chrome/128.0.0.0 Safari/537.36","Macintosh","Chrome","128.0.0.0","OS X","10_15_7","https://app.prolific.com/","en-GB,en-US;q=0.9,en;q=0.8","6780db9dafd89add339abb6b","683db9eb0562dbf637994deb","6880e06131b08b85e75e3f9c","2","1","6780db9dafd89add339abb6b","2","1","2025-07-23T13:46:22.505Z","","","","","","","","","","","StressQ","","50","","","","","","","","","","","","","","","","","","","","","","","","","","","","",""
"6679","","<div style=""width:500px;"">
  <p>What best describes how you currently feel?</p>
