"rt","response_timestamp","stimulus","response","trial_type","trial_index","time_elapsed","internal_node_id","run_id","condition","recorded_at","source_code_version","ip","user_agent","device","browser","browser_version","platform","platform_version","referer","accept_language","PROLIFIC_PID","STUDY_ID","SESSION_ID","WEEK","BATCH","prolific_id","week","batch","realtime","success","responses","item_order","radio_event_ids","radio_event_times","key_event_times","mouse_event_times","straightlining","zigzagging","honeypot","eventType","view_history","slider_start","which_type","canvas_config","goals_layout","control_level","trial_number","tutorial_trial_number","trial_start_time","phase1_start_time","phase2_start_time","phase3_start_time","goal_1_value","goal_1_distance","goal_2_value","goal_2_distance","goal_selected","outcome","outcome_total","participant_final_score","participant_initial_score","participant_final_score_prop","goal_choice_rt","allocated_time","allocated_time_remaining","goal_direction","counts","mouse_movements","key_presses","question_order","question_id"
"2765","1752662332046","<p style='font-size:40px;line-height:1.25'><strong>Welcome to the experiment!</strong></p><p style='font-size:1.1em;line-height:1.25'>Thank you for participanting in our experiment again! You will be asked to play the Dysfunctional Ball Game again. We will briefly recap the rules before we start.</p><p style='font-size:1.1em;line-height:1.25'>Press <strong>Next</strong> to continue.</p>","0","custom-html-button-response","0","2766","0.0-0.0","101","1","2025-07-16 10:38:47","1f75c3e559b7213887762d5229550c2b","102.221.201.13","Mozilla/5.0 (Windows NT 10.0; Win64; x64) AppleWebKit/537.36 (KHTML, like Gecko) Chrome/138.0.0.0 Safari/537.36 Edg/138.0.0.0","WebKit","Edge","138.0.0.0","Windows","10.0","https://app.prolific.com/","en-US,en;q=0.9,en-ZA;q=0.8","606e3cce02e2e8a8c965ca75","686e379bc37a29ffa5cdc956","68777cf9fb003201f56dba4a","1","1","606e3cce02e2e8a8c965ca75","1","1","2025-07-16T10:38:52.047Z","","","","","","","","","","","","","","","","","","","","","","","","","","","","","","","","","","","","","","","","","",""
"8973","","","","fullscreen","1","12748","0.0-1.0","101","1","2025-07-16 10:38:47","1f75c3e559b7213887762d5229550c2b","102.221.201.13","Mozilla/5.0 (Windows NT 10.0; Win64; x64) AppleWebKit/537.36 (KHTML, like Gecko) Chrome/138.0.0.0 Safari/537.36 Edg/138.0.0.0","WebKit","Edge","138.0.0.0","Windows","10.0","https://app.prolific.com/","en-US,en;q=0.9,en-ZA;q=0.8","606e3cce02e2e8a8c965ca75","686e379bc37a29ffa5cdc956","68777cf9fb003201f56dba4a","1","1","606e3cce02e2e8a8c965ca75","1","1","","true","","","","","","","","","","","","","","","","","","","","","","","","","","","","","","","","","","","","","","","","",""
"5614","1752662347647","<p style='font-size:1.1em;line-height:1.25'>In the following, we will ask you a few questions relating to your feelings in the last 24 hours.<br></p><p style='font-size:1.1em;line-height:1.25'>Press the <strong>Next</strong> button to continue.</p>","0","custom-html-button-response","2","18366","0.0-2.0-0.0","101","1","2025-07-16 10:38:47","1f75c3e559b7213887762d5229550c2b","102.221.201.13","Mozilla/5.0 (Windows NT 10.0; Win64; x64) AppleWebKit/537.36 (KHTML, like Gecko) Chrome/138.0.0.0 Safari/537.36 Edg/138.0.0.0","WebKit","Edge","138.0.0.0","Windows","10.0","https://app.prolific.com/","en-US,en;q=0.9,en-ZA;q=0.8","606e3cce02e2e8a8c965ca75","686e379bc37a29ffa5cdc956","68777cf9fb003201f56dba4a","1","1","606e3cce02e2e8a8c965ca75","1","1","2025-07-16T10:39:07.647Z","","","","","","","","","","","","","","","","","","","","","","","","","","","","","","","","","","","","","","","","","",""
"122827.30000007153","","","","survey-template","3","141199","0.0-2.0-1.0","101","1","2025-07-16 10:38:47","1f75c3e559b7213887762d5229550c2b","102.221.201.13","Mozilla/5.0 (Windows NT 10.0; Win64; x64) AppleWebKit/537.36 (KHTML, like Gecko) Chrome/138.0.0.0 Safari/537.36 Edg/138.0.0.0","WebKit","Edge","138.0.0.0","Windows","10.0","https://app.prolific.com/","en-US,en;q=0.9,en-ZA;q=0.8","606e3cce02e2e8a8c965ca75","686e379bc37a29ffa5cdc956","68777cf9fb003201f56dba4a","1","1","606e3cce02e2e8a8c965ca75","1","1","2025-07-16T10:41:10.480Z","","{""Q01"":""0"",""Q02"":""0"",""Q03"":""0"",""Q04"":""0"",""Q05"":""1"",""Q06"":""1"",""Q07"":""0"",""Q08"":""1"",""Q09"":""0"",""Q10"":""0"",""Q11"":""1"",""Q12"":""4"",""Q13"":""5"",""Q14"":""4"",""Q15"":""2"",""Q16"":""0"",""Q17"":""1"",""Q18"":""0"",""Q19"":""2"",""Q20"":""1"",""Q21"":""1"",""Q22"":""1""}","[0,1,2,3,4,5,6,7,8,9,10,11,12,13,14,15,16,17,18,19,20,21]","[""Q01"",""Q02"",""Q02"",""Q03"",""Q04"",""Q05"",""Q06"",""Q07"",""Q08"",""Q09"",""Q10"",""Q11"",""Q12"",""Q13"",""Q14"",""Q15"",""Q16"",""Q17"",""Q18"",""Q19"",""Q19"",""Q20"",""Q21"",""Q22""]","[12450,14300.300000071526,16347.600000023842,18929.700000047684,23649.400000095367,25249,33051.300000071526,37580.800000071526,42310.90000009537,48506.200000047684,51153.300000071526,53720.90000009537,58628,64586.700000047684,68898.40000009537,73127.70000004768,78641.80000007153,84620.60000002384,89687.60000002384,96726.70000004768,101188.80000007153,110497.40000009537,118988.70000004768,121065.80000007153]","[]","[0.10000002384185791,9303.300000071526,12450,14300.300000071526,16347.600000023842,18929.700000047684,21025.700000047684,22041.200000047684,23649.400000095367,25249,28057,31021.400000095367,33051.300000071526,36282.40000009537,37580.800000071526,42310.90000009537,48506.200000047684,51153.300000071526,53720.90000009537,58628,64586.700000047684,68898.40000009537,73127.70000004768,78641.80000007153,83106.30000007153,84620.60000002384,89687.60000002384,96726.70000004768,99540.20000004768,100359.90000009537,101188.80000007153,110497.40000009537,117090.40000009537,118988.70000004768,121065.80000007153,122822.5]","0.4090909090909091","0.47619047619047616","0","drsp","","","","","","","","","","","","","","","","","","","","","","","","","","","","","","",""
"27913.200000047684","","","","survey-template","4","169114","0.0-2.0-2.0","101","1","2025-07-16 10:38:47","1f75c3e559b7213887762d5229550c2b","102.221.201.13","Mozilla/5.0 (Windows NT 10.0; Win64; x64) AppleWebKit/537.36 (KHTML, like Gecko) Chrome/138.0.0.0 Safari/537.36 Edg/138.0.0.0","WebKit","Edge","138.0.0.0","Windows","10.0","https://app.prolific.com/","en-US,en;q=0.9,en-ZA;q=0.8","606e3cce02e2e8a8c965ca75","686e379bc37a29ffa5cdc956","68777cf9fb003201f56dba4a","1","1","606e3cce02e2e8a8c965ca75","1","1","2025-07-16T10:41:38.396Z","","{""Q01"":""1"",""Q02"":""3"",""Q03"":""2""}","[0,1,2]","[""Q01"",""Q02"",""Q03""]","[8495.300000071526,17071.400000095367,26510.800000071526]","[]","[7201.400000095367,8495.300000071526,17071.400000095367,25347.700000047684,26510.800000071526,27912.200000047684]","0.6666666666666666","0.5","0","stress","","","","","","","","","","","","","","","","","","","","","","","","","","","","","","",""
"18428","","","","instructions","5","187545","0.0-3.0-0.0","101","1","2025-07-16 10:38:47","1f75c3e559b7213887762d5229550c2b","102.221.201.13","Mozilla/5.0 (Windows NT 10.0; Win64; x64) AppleWebKit/537.36 (KHTML, like Gecko) Chrome/138.0.0.0 Safari/537.36 Edg/138.0.0.0","WebKit","Edge","138.0.0.0","Windows","10.0","https://app.prolific.com/","en-US,en;q=0.9,en-ZA;q=0.8","606e3cce02e2e8a8c965ca75","686e379bc37a29ffa5cdc956","68777cf9fb003201f56dba4a","1","1","606e3cce02e2e8a8c965ca75","1","1","","","","","","","","","","","","","[{""page_index"":0,""viewing_time"":18428}]","","","","","","","","","","","","","","","","","","","","","","","","","","","","","",""
"15115","","<p>Before you start with this game please answer the following three questions yourself. </p>
  <p>Through this game, we measure several aspects of your cognitive performance, such as reaction times, multi-tasking capabilities </p>
  <p>and the ability to assess the situation you are in.</p>
  <p></p>
  <p><b>How good do you usually are in such tasks?</b></p>","77","html-slider-response","6","202662","0.0-4.0-0.0","101","1","2025-07-16 10:38:47","1f75c3e559b7213887762d5229550c2b","102.221.201.13","Mozilla/5.0 (Windows NT 10.0; Win64; x64) AppleWebKit/537.36 (KHTML, like Gecko) Chrome/138.0.0.0 Safari/537.36 Edg/138.0.0.0","WebKit","Edge","138.0.0.0","Windows","10.0","https://app.prolific.com/","en-US,en;q=0.9,en-ZA;q=0.8","606e3cce02e2e8a8c965ca75","686e379bc37a29ffa5cdc956","68777cf9fb003201f56dba4a","1","1","606e3cce02e2e8a8c965ca75","1","1","2025-07-16T10:42:11.943Z","","","","","","","","","","","PreSkillQ","","50","","","","","","","","","","","","","","","","","","","","","","","","","","","","",""
"6794","","<div style=""width:500px;"">
  <p>How well do you think you will perform in this task compared to other participants?</p>
  </div>","90","html-slider-response","7","209458","0.0-4.0-1.0","101","1","2025-07-16 10:38:47","1f75c3e559b7213887762d5229550c2b","102.221.201.13","Mozilla/5.0 (Windows NT 10.0; Win64; x64) AppleWebKit/537.36 (KHTML, like Gecko) Chrome/138.0.0.0 Safari/537.36 Edg/138.0.0.0","WebKit","Edge","138.0.0.0","Windows","10.0","https://app.prolific.com/","en-US,en;q=0.9,en-ZA;q=0.8","606e3cce02e2e8a8c965ca75","686e379bc37a29ffa5cdc956","68777cf9fb003201f56dba4a","1","1","606e3cce02e2e8a8c965ca75","1","1","2025-07-16T10:42:18.739Z","","","","","","","","","","","PrePerfQ","","50","","","","","","","","","","","","","","","","","","","","","","","","","","","","",""
"6647","","<div style=""width:500px;"">
  <p>What best describes how you currently feel?</p>
  </div>","93","html-slider-response","8","216106","0.0-4.0-2.0","101","1","2025-07-16 10:38:47","1f75c3e559b7213887762d5229550c2b","102.221.201.13","Mozilla/5.0 (Windows NT 10.0; Win64; x64) AppleWebKit/537.36 (KHTML, like Gecko) Chrome/138.0.0.0 Safari/537.36 Edg/138.0.0.0","WebKit","Edge","138.0.0.0","Windows","10.0","https://app.prolific.com/","en-US,en;q=0.9,en-ZA;q=0.8","606e3cce02e2e8a8c965ca75","686e379bc37a29ffa5cdc956","68777cf9fb003201f56dba4a","1","1","606e3cce02e2e8a8c965ca75","1","1","2025-07-16T10:42:25.388Z","","","","","","","","","","","PreMotivationQ","","50","","","","","","","","","","","","","","","","","","","","","","","","","","","","",""
"","","","","ctl-task-cpt","9","240457","0.0-5.0-0.0","101","1","2025-07-16 10:38:47","1f75c3e559b7213887762d5229550c2b","102.221.201.13","Mozilla/5.0 (Windows NT 10.0; Win64; x64) AppleWebKit/537.36 (KHTML, like Gecko) Chrome/138.0.0.0 Safari/537.36 Edg/138.0.0.0","WebKit","Edge","138.0.0.0","Windows","10.0","https://app.prolific.com/","en-US,en;q=0.9,en-ZA;q=0.8","606e3cce02e2e8a8c965ca75","686e379bc37a29ffa5cdc956","68777cf9fb003201f56dba4a","1","1","606e3cce02e2e8a8c965ca75","1","1","2025-07-16T10:42:49.738Z","","","","","","","","","","","","","","win-only","2","g1:SE,g2:NW","1","1","0","218218.6","4079.2","9081.4","21345.3","1","4","4","6","2","-4","-4","0","0","0","5002.2","3000","-2670","[""left"",""up""]","{""num_key_presses"":3,""num_perfect"":3,""num_errors"":0,""num_randdir"":0,""num_randdir_good_moves"":0,""num_whilered"":0,""num_whileblue"":0,""num_blue"":0,""num_good_moves"":2}","[419.0714133126395,424.07142761775424,0.3,419.0714133126395,424.07142761775424,101.5,419.0714133126395,424.07142761775424,201.9,419.0714133126395,424.07142761775424,301.9,419.0714133126395,424.07142761775424,406.5,419.0714133126395,424.07142761775424,513.7,419.0714133126395,424.07142761775424,617,419.0714133126395,424.07142761775424,717.4,419.0714133126395,424.07142761775424,818.2,419.0714133126395,424.07142761775424,922.5,419.0714133126395,424.07142761775424,1029.7,419.0714133126395,424.07142761775424,1131.7,419.0714133126395,424.07142761775424,1232.4,419.0714133126395,424.07142761775424,1337.2,419.0714133126395,424.07142761775424,1437.6,419.0714133126395,424.07142761775424,1541.5,419.0714133126395,424.07142761775424,1645.5,419.0714133126395,424.07142761775424,1745.7,419.0714133126395,424.07142761775424,1846.2,419.0714133126395,424.07142761775424,1949.4,419.0714133126395,424.07142761775424,2051.3,419.0714133126395,424.07142761775424,2151.9,419.0714133126395,424.07142761775424,2252,419.0714133126395,424.07142761775424,2361.8,419.0714133126395,424.07142761775424,2467.7,419.0714133126395,424.07142761775424,2567.7,419.0714133126395,424.07142761775424,2672.2,419.0714133126395,424.07142761775424,2777.9,419.0714133126395,424.07142761775424,2878,419.0714133126395,424.07142761775424,2981.3,419.0714133126395,424.07142761775424,3081.4,419.0714133126395,424.07142761775424,3181.6,419.0714133126395,424.07142761775424,3282.2,419.0714133126395,424.07142761775424,3386.6,419.0714133126395,424.07142761775424,3488.1,419.0714133126395,424.07142761775424,3593.8,419.0714133126395,424.07142761775424,3697.9,419.0714133126395,424.07142761775424,3802.2,419.0714133126395,424.07142761775424,3902.2,419.0714133126395,424.07142761775424,4009.9,419.0714133126395,424.07142761775424,4110,419.0714133126395,424.07142761775424,4211.6,419.0714133126395,424.07142761775424,4311.6,419.0714133126395,424.07142761775424,4417.8,419.0714133126395,424.07142761775424,4526.6,419.0714133126395,424.07142761775424,4626.6,419.0714133126395,424.07142761775424,4731.7,419.0714133126395,424.07142761775424,4837,419.0714133126395,424.07142761775424,4937.3]","[2005.1,2005.1,1000,0,1005.1,""smooth"",""right"",""right"",""bad_move"",5901.3,3896,2616,2005.4,1280,""smooth"",""up"",""up"",""good_move"",9581.1,3679.5,2984.4,5901.6,695.1,""smooth"",""up"",""up"",""good_move""]","",""
"6810","","<div style=""width:500px;"">
  <p>What determined the result of this run?</p>
  </div>","7","html-slider-response","10","247268","0.0-5.0-1.0","101","1","2025-07-16 10:38:47","1f75c3e559b7213887762d5229550c2b","102.221.201.13","Mozilla/5.0 (Windows NT 10.0; Win64; x64) AppleWebKit/537.36 (KHTML, like Gecko) Chrome/138.0.0.0 Safari/537.36 Edg/138.0.0.0","WebKit","Edge","138.0.0.0","Windows","10.0","https://app.prolific.com/","en-US,en;q=0.9,en-ZA;q=0.8","606e3cce02e2e8a8c965ca75","686e379bc37a29ffa5cdc956","68777cf9fb003201f56dba4a","1","1","606e3cce02e2e8a8c965ca75","1","1","2025-07-16T10:42:56.549Z","","","","","","","","","","","AttribQ","","50","","","","","","","","","","","","","","","","","","","","","","","","","","","","",""
"7535","","<div style=""width:500px;"">
  <p>How much control did you have over the ball?</p>
  </div>","78","html-slider-response","11","254804","0.0-5.0-2.0","101","1","2025-07-16 10:38:47","1f75c3e559b7213887762d5229550c2b","102.221.201.13","Mozilla/5.0 (Windows NT 10.0; Win64; x64) AppleWebKit/537.36 (KHTML, like Gecko) Chrome/138.0.0.0 Safari/537.36 Edg/138.0.0.0","WebKit","Edge","138.0.0.0","Windows","10.0","https://app.prolific.com/","en-US,en;q=0.9,en-ZA;q=0.8","606e3cce02e2e8a8c965ca75","686e379bc37a29ffa5cdc956","68777cf9fb003201f56dba4a","1","1","606e3cce02e2e8a8c965ca75","1","1","2025-07-16T10:43:04.085Z","","","","","","","","","","","ControlQ","","50","","","","","","","","","","","","","","","","","","","","","","","","","","","","",""
"5672","","<div style=""width:500px;"">
  <p>How would you describe your current emotional state?</p>
  </div>","13","html-slider-response","12","260477","0.0-5.0-3.0","101","1","2025-07-16 10:38:47","1f75c3e559b7213887762d5229550c2b","102.221.201.13","Mozilla/5.0 (Windows NT 10.0; Win64; x64) AppleWebKit/537.36 (KHTML, like Gecko) Chrome/138.0.0.0 Safari/537.36 Edg/138.0.0.0","WebKit","Edge","138.0.0.0","Windows","10.0","https://app.prolific.com/","en-US,en;q=0.9,en-ZA;q=0.8","606e3cce02e2e8a8c965ca75","686e379bc37a29ffa5cdc956","68777cf9fb003201f56dba4a","1","1","606e3cce02e2e8a8c965ca75","1","1","2025-07-16T10:43:09.758Z","","","","","","","","","","","StressQ","","50","","","","","","","","","","","","","","","","","","","","","","","","","","","","",""
"6033","","<div style=""width:500px;"">
  <p>What best describes how you currently feel?</p>
  </div>","90","html-slider-response","13","266512","0.0-5.0-4.0","101","1","2025-07-16 10:38:47","1f75c3e559b7213887762d5229550c2b","102.221.201.13","Mozilla/5.0 (Windows NT 10.0; Win64; x64) AppleWebKit/537.36 (KHTML, like Gecko) Chrome/138.0.0.0 Safari/537.36 Edg/138.0.0.0","WebKit","Edge","138.0.0.0","Windows","10.0","https://app.prolific.com/","en-US,en;q=0.9,en-ZA;q=0.8","606e3cce02e2e8a8c965ca75","686e379bc37a29ffa5cdc956","68777cf9fb003201f56dba4a","1","1","606e3cce02e2e8a8c965ca75","1","1","2025-07-16T10:43:15.793Z","","","","","","","","","","","MotivationQ","","50","","","","","","","","","","","","","","","","","","","","","","","","","","","","",""
"","","","","ctl-task-cpt","14","292390","0.0-5.0-0.1","101","1","2025-07-16 10:38:47","1f75c3e559b7213887762d5229550c2b","102.221.201.13","Mozilla/5.0 (Windows NT 10.0; Win64; x64) AppleWebKit/537.36 (KHTML, like Gecko) Chrome/138.0.0.0 Safari/537.36 Edg/138.0.0.0","WebKit","Edge","138.0.0.0","Windows","10.0","https://app.prolific.com/","en-US,en;q=0.9,en-ZA;q=0.8","606e3cce02e2e8a8c965ca75","686e379bc37a29ffa5cdc956","68777cf9fb003201f56dba4a","1","1","606e3cce02e2e8a8c965ca75","1","1","2025-07-16T10:43:41.671Z","","","","","","","","","","","","","","win-only","2","g1:SE,g2:NW","0.9","2","0","268621.9","3801.8","8806.3","22860.1","1","4","8","6","2","-8","-8","0","0","0","5004.5","3000","-2780","[""left"",""up""]","{""num_key_presses"":4,""num_perfect"":4,""num_errors"":0,""num_randdir"":0,""num_randdir_good_moves"":0,""num_whilered"":0,""num_whileblue"":0,""num_blue"":0,""num_good_moves"":3}","[416.5714133126395,419.07142761775424,0.2,416.5714133126395,419.07142761775424,109.1,416.5714133126395,419.07142761775424,214.4,416.5714133126395,419.07142761775424,318.7,416.5714133126395,419.07142761775424,419.1,416.5714133126395,419.07142761775424,525.4,416.5714133126395,419.07142761775424,625.5,416.5714133126395,419.07142761775424,728.9,416.5714133126395,419.07142761775424,829.1,416.5714133126395,419.07142761775424,934.3,416.5714133126395,419.07142761775424,1034.5,416.5714133126395,419.07142761775424,1141.2,416.5714133126395,419.07142761775424,1244,416.5714133126395,419.07142761775424,1349.3,416.5714133126395,419.07142761775424,1457.6,416.5714133126395,419.07142761775424,1557.6,416.5714133126395,419.07142761775424,1658,416.5714133126395,419.07142761775424,1759,416.5714133126395,419.07142761775424,1859.1,416.5714133126395,419.07142761775424,1959.1,416.5714133126395,419.07142761775424,2059.2,416.5714133126395,419.07142761775424,2159.4,416.5714133126395,419.07142761775424,2263.7,416.5714133126395,419.07142761775424,2364.2,416.5714133126395,419.07142761775424,2473.3,416.5714133126395,419.07142761775424,2573.3,416.5714133126395,419.07142761775424,2680,416.5714133126395,419.07142761775424,2780.2,416.5714133126395,419.07142761775424,2890.6,416.5714133126395,419.07142761775424,2993.8,416.5714133126395,419.07142761775424,3094.8,416.5714133126395,419.07142761775424,3198.9,416.5714133126395,419.07142761775424,3299,416.5714133126395,419.07142761775424,3399,416.5714133126395,419.07142761775424,3499.1,416.5714133126395,419.07142761775424,3605.6,416.5714133126395,419.07142761775424,3705.6,416.5714133126395,419.07142761775424,3808.8,416.5714133126395,419.07142761775424,3909.1,416.5714133126395,419.07142761775424,4014.4,416.5714133126395,419.07142761775424,4121.7,416.5714133126395,419.07142761775424,4222.1,416.5714133126395,419.07142761775424,4324.4,416.5714133126395,419.07142761775424,4429.1,416.5714133126395,419.07142761775424,4538.1,416.5714133126395,419.07142761775424,4640.5,416.5714133126395,419.07142761775424,4743.4,416.5714133126395,419.07142761775424,4843.4,416.5714133126395,419.07142761775424,4943.5]","[2498.5,2498.5,1000,0,1498.5,""smooth"",""down"",""down"",""bad_move"",5713.3,3214.6,2708.5,2498.7,506.1,""smooth"",""up"",""up"",""good_move"",8849.9,3136.2,2687.4,5713.7,448.8,""smooth"",""up"",""up"",""good_move"",11461.9,2611.9,2150.7,8850,461.2,""smooth"",""up"",""up"",""good_move""]","",""
"7592","","<div style=""width:500px;"">
  <p>What determined the result of this run?</p>
  </div>","31","html-slider-response","15","299983","0.0-5.0-1.1","101","1","2025-07-16 10:38:47","1f75c3e559b7213887762d5229550c2b","102.221.201.13","Mozilla/5.0 (Windows NT 10.0; Win64; x64) AppleWebKit/537.36 (KHTML, like Gecko) Chrome/138.0.0.0 Safari/537.36 Edg/138.0.0.0","WebKit","Edge","138.0.0.0","Windows","10.0","https://app.prolific.com/","en-US,en;q=0.9,en-ZA;q=0.8","606e3cce02e2e8a8c965ca75","686e379bc37a29ffa5cdc956","68777cf9fb003201f56dba4a","1","1","606e3cce02e2e8a8c965ca75","1","1","2025-07-16T10:43:49.264Z","","","","","","","","","","","AttribQ","","50","","","","","","","","","","","","","","","","","","","","","","","","","","","","",""
"4475","","<div style=""width:500px;"">
  <p>How much control did you have over the ball?</p>
  </div>","81","html-slider-response","16","304459","0.0-5.0-2.1","101","1","2025-07-16 10:38:47","1f75c3e559b7213887762d5229550c2b","102.221.201.13","Mozilla/5.0 (Windows NT 10.0; Win64; x64) AppleWebKit/537.36 (KHTML, like Gecko) Chrome/138.0.0.0 Safari/537.36 Edg/138.0.0.0","WebKit","Edge","138.0.0.0","Windows","10.0","https://app.prolific.com/","en-US,en;q=0.9,en-ZA;q=0.8","606e3cce02e2e8a8c965ca75","686e379bc37a29ffa5cdc956","68777cf9fb003201f56dba4a","1","1","606e3cce02e2e8a8c965ca75","1","1","2025-07-16T10:43:53.741Z","","","","","","","","","","","ControlQ","","50","","","","","","","","","","","","","","","","","","","","","","","","","","","","",""
"5963","","<div style=""width:500px;"">
  <p>How would you describe your current emotional state?</p>
  </div>","5","html-slider-response","17","310423","0.0-5.0-3.1","101","1","2025-07-16 10:38:47","1f75c3e559b7213887762d5229550c2b","102.221.201.13","Mozilla/5.0 (Windows NT 10.0; Win64; x64) AppleWebKit/537.36 (KHTML, like Gecko) Chrome/138.0.0.0 Safari/537.36 Edg/138.0.0.0","WebKit","Edge","138.0.0.0","Windows","10.0","https://app.prolific.com/","en-US,en;q=0.9,en-ZA;q=0.8","606e3cce02e2e8a8c965ca75","686e379bc37a29ffa5cdc956","68777cf9fb003201f56dba4a","1","1","606e3cce02e2e8a8c965ca75","1","1","2025-07-16T10:43:59.704Z","","","","","","","","","","","StressQ","","50","","","","","","","","","","","","","","","","","","","","","","","","","","","","",""
"5269","","<div style=""width:500px;"">
  <p>What best describes how you currently feel?</p>
  </div>","80","html-slider-response","18","315693","0.0-5.0-4.1","101","1","2025-07-16 10:38:47","1f75c3e559b7213887762d5229550c2b","102.221.201.13","Mozilla/5.0 (Windows NT 10.0; Win64; x64) AppleWebKit/537.36 (KHTML, like Gecko) Chrome/138.0.0.0 Safari/537.36 Edg/138.0.0.0","WebKit","Edge","138.0.0.0","Windows","10.0","https://app.prolific.com/","en-US,en;q=0.9,en-ZA;q=0.8","606e3cce02e2e8a8c965ca75","686e379bc37a29ffa5cdc956","68777cf9fb003201f56dba4a","1","1","606e3cce02e2e8a8c965ca75","1","1","2025-07-16T10:44:04.974Z","","","","","","","","","","","MotivationQ","","50","","","","","","","","","","","","","","","","","","","","","","","","","","","","",""
"","","","","ctl-task-cpt","19","351848","0.0-5.0-0.2","101","1","2025-07-16 10:38:47","1f75c3e559b7213887762d5229550c2b","102.221.201.13","Mozilla/5.0 (Windows NT 10.0; Win64; x64) AppleWebKit/537.36 (KHTML, like Gecko) Chrome/138.0.0.0 Safari/537.36 Edg/138.0.0.0","WebKit","Edge","138.0.0.0","Windows","10.0","https://app.prolific.com/","en-US,en;q=0.9,en-ZA;q=0.8","606e3cce02e2e8a8c965ca75","686e379bc37a29ffa5cdc956","68777cf9fb003201f56dba4a","1","1","606e3cce02e2e8a8c965ca75","1","1","2025-07-16T10:44:41.129Z","","","","","","","","","","","","","","win-only","0","g1:NW,g2:SE","0.8","3","0","317803.5","3324.9","8330.1","33131.3","1","4","4","6","1","1","1","1","0","0.007575757575757576","5005.2","3000","555","[""left"",""up""]","{""num_key_presses"":4,""num_perfect"":4,""num_errors"":0,""num_randdir"":0,""num_randdir_good_moves"":0,""num_whilered"":0,""num_whileblue"":0,""num_blue"":4,""num_good_moves"":4}","[420.3214133126395,425.32142761775424,0.1,420.3214133126395,425.32142761775424,101.5,420.3214133126395,425.32142761775424,209.6,420.3214133126395,425.32142761775424,309.6,420.3214133126395,425.32142761775424,411.8,420.3214133126395,425.32142761775424,516.1,420.3214133126395,425.32142761775424,625.4,420.3214133126395,425.32142761775424,725.6,420.3214133126395,425.32142761775424,825.6,420.3214133126395,425.32142761775424,925.6,420.3214133126395,425.32142761775424,1031.1,420.3214133126395,425.32142761775424,1142.4,420.3214133126395,425.32142761775424,1244,420.3214133126395,425.32142761775424,1346.5,420.3214133126395,425.32142761775424,1451.7,420.3214133126395,425.32142761775424,1551.7,420.3214133126395,425.32142761775424,1658.2,420.3214133126395,425.32142761775424,1761.3,420.3214133126395,425.32142761775424,1861.7,420.3214133126395,425.32142761775424,1966.7,420.3214133126395,425.32142761775424,2074.6,420.3214133126395,425.32142761775424,2176.5,420.3214133126395,425.32142761775424,2276.5,420.3214133126395,425.32142761775424,2381.3,420.3214133126395,425.32142761775424,2481.5,420.3214133126395,425.32142761775424,2590.7,420.3214133126395,425.32142761775424,2696.2,420.3214133126395,425.32142761775424,2796.4,420.3214133126395,425.32142761775424,2907,420.3214133126395,425.32142761775424,3007.8,420.3214133126395,425.32142761775424,3110.4,420.3214133126395,425.32142761775424,3211.2,420.3214133126395,425.32142761775424,3311.6,420.3214133126395,425.32142761775424,3416.4,420.3214133126395,425.32142761775424,3523.5,420.3214133126395,425.32142761775424,3626.2,420.3214133126395,425.32142761775424,3726.5,420.3214133126395,425.32142761775424,3830.7,420.3214133126395,425.32142761775424,3931.5,420.3214133126395,425.32142761775424,4038.8,420.3214133126395,425.32142761775424,4139.2,420.3214133126395,425.32142761775424,4241.6,420.3214133126395,425.32142761775424,4341.9,420.3214133126395,425.32142761775424,4446.3,420.3214133126395,425.32142761775424,4546.3,420.3214133126395,425.32142761775424,4655.1,420.3214133126395,425.32142761775424,4755.2,420.3214133126395,425.32142761775424,4855.3,420.3214133126395,425.32142761775424,4955.4]","[2314,2314,1000,0,1314,""smooth"",""up"",""up"",""good_move"",4387.7,2073.3,1597.2,2314.4,476.1,""smooth"",""up"",""up"",""good_move"",11409.2,7021.4,2936,8072.8,400.4,""smooth"",""left"",""left"",""good_move"",24709.4,13299.9,2155.6,22150.9,402.9,""smooth"",""left"",""left"",""good_move""]","",""
"5864","","<div style=""width:500px;"">
  <p>What determined the result of this run?</p>
  </div>","96","html-slider-response","20","357713","0.0-5.0-1.2","101","1","2025-07-16 10:38:47","1f75c3e559b7213887762d5229550c2b","102.221.201.13","Mozilla/5.0 (Windows NT 10.0; Win64; x64) AppleWebKit/537.36 (KHTML, like Gecko) Chrome/138.0.0.0 Safari/537.36 Edg/138.0.0.0","WebKit","Edge","138.0.0.0","Windows","10.0","https://app.prolific.com/","en-US,en;q=0.9,en-ZA;q=0.8","606e3cce02e2e8a8c965ca75","686e379bc37a29ffa5cdc956","68777cf9fb003201f56dba4a","1","1","606e3cce02e2e8a8c965ca75","1","1","2025-07-16T10:44:46.994Z","","","","","","","","","","","AttribQ","","50","","","","","","","","","","","","","","","","","","","","","","","","","","","","",""
"5112","","<div style=""width:500px;"">
  <p>How much control did you have over the ball?</p>
  </div>","95","html-slider-response","21","362826","0.0-5.0-2.2","101","1","2025-07-16 10:38:47","1f75c3e559b7213887762d5229550c2b","102.221.201.13","Mozilla/5.0 (Windows NT 10.0; Win64; x64) AppleWebKit/537.36 (KHTML, like Gecko) Chrome/138.0.0.0 Safari/537.36 Edg/138.0.0.0","WebKit","Edge","138.0.0.0","Windows","10.0","https://app.prolific.com/","en-US,en;q=0.9,en-ZA;q=0.8","606e3cce02e2e8a8c965ca75","686e379bc37a29ffa5cdc956","68777cf9fb003201f56dba4a","1","1","606e3cce02e2e8a8c965ca75","1","1","2025-07-16T10:44:52.107Z","","","","","","","","","","","ControlQ","","50","","","","","","","","","","","","","","","","","","","","","","","","","","","","",""
"4964","","<div style=""width:500px;"">
  <p>How would you describe your current emotional state?</p>
  </div>","0","html-slider-response","22","367791","0.0-5.0-3.2","101","1","2025-07-16 10:38:47","1f75c3e559b7213887762d5229550c2b","102.221.201.13","Mozilla/5.0 (Windows NT 10.0; Win64; x64) AppleWebKit/537.36 (KHTML, like Gecko) Chrome/138.0.0.0 Safari/537.36 Edg/138.0.0.0","WebKit","Edge","138.0.0.0","Windows","10.0","https://app.prolific.com/","en-US,en;q=0.9,en-ZA;q=0.8","606e3cce02e2e8a8c965ca75","686e379bc37a29ffa5cdc956","68777cf9fb003201f56dba4a","1","1","606e3cce02e2e8a8c965ca75","1","1","2025-07-16T10:44:57.072Z","","","","","","","","","","","StressQ","","50","","","","","","","","","","","","","","","","","","","","","","","","","","","","",""
"4956","","<div style=""width:500px;"">
  <p>What best describes how you currently feel?</p>
  </div>","100","html-slider-response","23","372748","0.0-5.0-4.2","101","1","2025-07-16 10:38:47","1f75c3e559b7213887762d5229550c2b","102.221.201.13","Mozilla/5.0 (Windows NT 10.0; Win64; x64) AppleWebKit/537.36 (KHTML, like Gecko) Chrome/138.0.0.0 Safari/537.36 Edg/138.0.0.0","WebKit","Edge","138.0.0.0","Windows","10.0","https://app.prolific.com/","en-US,en;q=0.9,en-ZA;q=0.8","606e3cce02e2e8a8c965ca75","686e379bc37a29ffa5cdc956","68777cf9fb003201f56dba4a","1","1","606e3cce02e2e8a8c965ca75","1","1","2025-07-16T10:45:02.029Z","","","","","","","","","","","MotivationQ","","50","","","","","","","","","","","","","","","","","","","","","","","","","","","","",""
"","","","","ctl-task-cpt","24","407213","0.0-5.0-0.3","101","1","2025-07-16 10:38:47","1f75c3e559b7213887762d5229550c2b","102.221.201.13","Mozilla/5.0 (Windows NT 10.0; Win64; x64) AppleWebKit/537.36 (KHTML, like Gecko) Chrome/138.0.0.0 Safari/537.36 Edg/138.0.0.0","WebKit","Edge","138.0.0.0","Windows","10.0","https://app.prolific.com/","en-US,en;q=0.9,en-ZA;q=0.8","606e3cce02e2e8a8c965ca75","686e379bc37a29ffa5cdc956","68777cf9fb003201f56dba4a","1","1","606e3cce02e2e8a8c965ca75","1","1","2025-07-16T10:45:36.494Z","","","","","","","","","","","","","","win-only","1","g1:NE,g2:SW","0.7","4","0","374859.1","4682.9","9690.2","31445.9","1","4","8","6","1","1","1","2","1","0.015151515151515152","5007.2","3000","1135","[""up"",""right""]","{""num_key_presses"":4,""num_perfect"":3,""num_errors"":0,""num_randdir"":1,""num_randdir_good_moves"":1,""num_whilered"":0,""num_whileblue"":0,""num_blue"":3,""num_good_moves"":4}","[420.3214133126395,409.07142761775424,0.2,420.3214133126395,409.07142761775424,111.5,420.3214133126395,409.07142761775424,212.2,420.3214133126395,409.07142761775424,314.7,420.3214133126395,409.07142761775424,418.8,420.3214133126395,409.07142761775424,528.3,420.3214133126395,409.07142761775424,628.8,420.3214133126395,409.07142761775424,733,420.3214133126395,409.07142761775424,833.3,420.3214133126395,409.07142761775424,948.6,420.3214133126395,409.07142761775424,1049,420.3214133126395,409.07142761775424,1153.7,420.3214133126395,409.07142761775424,1264.8,420.3214133126395,409.07142761775424,1379.9,420.3214133126395,409.07142761775424,1482.8,420.3214133126395,409.07142761775424,1590.5,420.3214133126395,409.07142761775424,1690.8,420.3214133126395,409.07142761775424,1791.9,420.3214133126395,409.07142761775424,1892.8,420.3214133126395,409.07142761775424,1993.6,420.3214133126395,409.07142761775424,2098.4,420.3214133126395,409.07142761775424,2210,420.3214133126395,409.07142761775424,2313.2,420.3214133126395,409.07142761775424,2418.5,420.3214133126395,409.07142761775424,2526,420.3214133126395,409.07142761775424,2627.5,420.3214133126395,409.07142761775424,2728.4,420.3214133126395,409.07142761775424,2842.4,420.3214133126395,409.07142761775424,2942.5,420.3214133126395,409.07142761775424,3042.8,420.3214133126395,409.07142761775424,3147.6,420.3214133126395,409.07142761775424,3255.1,420.3214133126395,409.07142761775424,3357.9,420.3214133126395,409.07142761775424,3462.1,420.3214133126395,409.07142761775424,3562.6,420.3214133126395,409.07142761775424,3675.4,420.3214133126395,409.07142761775424,3777.6,420.3214133126395,409.07142761775424,3882.8,420.3214133126395,409.07142761775424,3996.2,420.3214133126395,409.07142761775424,4098.8,420.3214133126395,409.07142761775424,4208.6,420.3214133126395,409.07142761775424,4313.1,420.3214133126395,409.07142761775424,4418.6,420.3214133126395,409.07142761775424,4523.6,420.3214133126395,409.07142761775424,4627.8,420.3214133126395,409.07142761775424,4728.1,420.3214133126395,409.07142761775424,4845.3,420.3214133126395,409.07142761775424,4959.2]","[1964.4,1964.5,1000,0,964.5,""smooth"",""up"",""up"",""good_move"",4334.7,2369.9,1709.2,1964.8,660.7,""oops"",""up"",""up"",""good_move"",10623,6288.2,2444.6,7726.2,452.2,""smooth"",""right"",""right"",""good_move"",21605.9,10982.6,2936,18177.8,492.1,""smooth"",""right"",""right"",""good_move""]","",""
"8134","","<div style=""width:500px;"">
  <p>What determined the result of this run?</p>
  </div>","93","html-slider-response","25","415351","0.0-5.0-1.3","101","1","2025-07-16 10:38:47","1f75c3e559b7213887762d5229550c2b","102.221.201.13","Mozilla/5.0 (Windows NT 10.0; Win64; x64) AppleWebKit/537.36 (KHTML, like Gecko) Chrome/138.0.0.0 Safari/537.36 Edg/138.0.0.0","WebKit","Edge","138.0.0.0","Windows","10.0","https://app.prolific.com/","en-US,en;q=0.9,en-ZA;q=0.8","606e3cce02e2e8a8c965ca75","686e379bc37a29ffa5cdc956","68777cf9fb003201f56dba4a","1","1","606e3cce02e2e8a8c965ca75","1","1","2025-07-16T10:45:44.633Z","","","","","","","","","","","AttribQ","","50","","","","","","","","","","","","","","","","","","","","","","","","","","","","",""
"5942","","<div style=""width:500px;"">
  <p>How much control did you have over the ball?</p>
  </div>","96","html-slider-response","26","421304","0.0-5.0-2.3","101","1","2025-07-16 10:38:47","1f75c3e559b7213887762d5229550c2b","102.221.201.13","Mozilla/5.0 (Windows NT 10.0; Win64; x64) AppleWebKit/537.36 (KHTML, like Gecko) Chrome/138.0.0.0 Safari/537.36 Edg/138.0.0.0","WebKit","Edge","138.0.0.0","Windows","10.0","https://app.prolific.com/","en-US,en;q=0.9,en-ZA;q=0.8","606e3cce02e2e8a8c965ca75","686e379bc37a29ffa5cdc956","68777cf9fb003201f56dba4a","1","1","606e3cce02e2e8a8c965ca75","1","1","2025-07-16T10:45:50.586Z","","","","","","","","","","","ControlQ","","50","","","","","","","","","","","","","","","","","","","","","","","","","","","","",""
"6996","","<div style=""width:500px;"">
  <p>How would you describe your current emotional state?</p>
  </div>","7","html-slider-response","27","428306","0.0-5.0-3.3","101","1","2025-07-16 10:38:47","1f75c3e559b7213887762d5229550c2b","102.221.201.13","Mozilla/5.0 (Windows NT 10.0; Win64; x64) AppleWebKit/537.36 (KHTML, like Gecko) Chrome/138.0.0.0 Safari/537.36 Edg/138.0.0.0","WebKit","Edge","138.0.0.0","Windows","10.0","https://app.prolific.com/","en-US,en;q=0.9,en-ZA;q=0.8","606e3cce02e2e8a8c965ca75","686e379bc37a29ffa5cdc956","68777cf9fb003201f56dba4a","1","1","606e3cce02e2e8a8c965ca75","1","1","2025-07-16T10:45:57.587Z","","","","","","","","","","","StressQ","","50","","","","","","","","","","","","","","","","","","","","","","","","","","","","",""
"7923","","<div style=""width:500px;"">
  <p>What best describes how you currently feel?</p>
  </div>","86","html-slider-response","28","436232","0.0-5.0-4.3","101","1","2025-07-16 10:38:47","1f75c3e559b7213887762d5229550c2b","102.221.201.13","Mozilla/5.0 (Windows NT 10.0; Win64; x64) AppleWebKit/537.36 (KHTML, like Gecko) Chrome/138.0.0.0 Safari/537.36 Edg/138.0.0.0","WebKit","Edge","138.0.0.0","Windows","10.0","https://app.prolific.com/","en-US,en;q=0.9,en-ZA;q=0.8","606e3cce02e2e8a8c965ca75","686e379bc37a29ffa5cdc956","68777cf9fb003201f56dba4a","1","1","606e3cce02e2e8a8c965ca75","1","1","2025-07-16T10:46:05.514Z","","","","","","","","","","","MotivationQ","","50","","","","","","","","","","","","","","","","","","","","","","","","","","","","",""
"","","","","ctl-task-cpt","29","459665","0.0-5.0-0.4","101","1","2025-07-16 10:38:47","1f75c3e559b7213887762d5229550c2b","102.221.201.13","Mozilla/5.0 (Windows NT 10.0; Win64; x64) AppleWebKit/537.36 (KHTML, like Gecko) Chrome/138.0.0.0 Safari/537.36 Edg/138.0.0.0","WebKit","Edge","138.0.0.0","Windows","10.0","https://app.prolific.com/","en-US,en;q=0.9,en-ZA;q=0.8","606e3cce02e2e8a8c965ca75","686e379bc37a29ffa5cdc956","68777cf9fb003201f56dba4a","1","1","606e3cce02e2e8a8c965ca75","1","1","2025-07-16T10:46:28.946Z","","","","","","","","","","","","","","win-only","1","g1:NE,g2:SW","0.6","5","0","438352.5","2444.9","7449.6","20396","1","4","4","6","1","1","1","3","2","0.022727272727272728","5004.7","3000","1370","[""up"",""right""]","{""num_key_presses"":4,""num_perfect"":4,""num_errors"":0,""num_randdir"":0,""num_randdir_good_moves"":0,""num_whilered"":0,""num_whileblue"":0,""num_blue"":1,""num_good_moves"":4}","[421.5714133126395,411.57142761775424,0.3,421.5714133126395,411.57142761775424,100.5,421.5714133126395,411.57142761775424,200.9,421.5714133126395,411.57142761775424,317,421.5714133126395,411.57142761775424,421,421.5714133126395,411.57142761775424,521.9,421.5714133126395,411.57142761775424,631.8,421.5714133126395,411.57142761775424,733.2,421.5714133126395,411.57142761775424,834.2,421.5714133126395,411.57142761775424,935.9,421.5714133126395,411.57142761775424,1045.2,421.5714133126395,411.57142761775424,1145.3,421.5714133126395,411.57142761775424,1245.7,421.5714133126395,411.57142761775424,1345.9,421.5714133126395,411.57142761775424,1450.8,421.5714133126395,411.57142761775424,1551.7,421.5714133126395,411.57142761775424,1661.4,421.5714133126395,411.57142761775424,1765.3,421.5714133126395,411.57142761775424,1865.9,421.5714133126395,411.57142761775424,1967,421.5714133126395,411.57142761775424,2073.1,421.5714133126395,411.57142761775424,2175.5,421.5714133126395,411.57142761775424,2275.5,421.5714133126395,411.57142761775424,2376.2,421.5714133126395,411.57142761775424,2477.8,421.5714133126395,411.57142761775424,2579,421.5714133126395,411.57142761775424,2682.6,421.5714133126395,411.57142761775424,2787.1,421.5714133126395,411.57142761775424,2895.5,421.5714133126395,411.57142761775424,2999.3,421.5714133126395,411.57142761775424,3101.2,421.5714133126395,411.57142761775424,3207.5,421.5714133126395,411.57142761775424,3307.8,421.5714133126395,411.57142761775424,3413.3,421.5714133126395,411.57142761775424,3514.6,421.5714133126395,411.57142761775424,3615.5,421.5714133126395,411.57142761775424,3715.9,421.5714133126395,411.57142761775424,3820.4,421.5714133126395,411.57142761775424,3920.6,421.5714133126395,411.57142761775424,4020.6,421.5714133126395,411.57142761775424,4122.9,421.5714133126395,411.57142761775424,4226,421.5714133126395,411.57142761775424,4327.7,421.5714133126395,411.57142761775424,4430.4,421.5714133126395,411.57142761775424,4531.7,421.5714133126395,411.57142761775424,4642.4,421.5714133126395,411.57142761775424,4746.5,421.5714133126395,411.57142761775424,4846.8,421.5714133126395,411.57142761775424,4951.7]","[4751.3,4751.3,2121.4,2007.2,622.7,""smooth"",""right"",""right"",""good_move"",7195.5,2441.6,1868.4,4753.9,573.2,""smooth"",""right"",""right"",""good_move"",9519.2,2323.4,1764.7,7195.8,558.7,""smooth"",""up"",""up"",""good_move"",12825.6,3306,2833.9,9519.6,472.1,""smooth"",""up"",""up"",""good_move""]","",""
"7573","","<div style=""width:500px;"">
  <p>What determined the result of this run?</p>
  </div>","100","html-slider-response","30","467239","0.0-5.0-1.4","101","1","2025-07-16 10:38:47","1f75c3e559b7213887762d5229550c2b","102.221.201.13","Mozilla/5.0 (Windows NT 10.0; Win64; x64) AppleWebKit/537.36 (KHTML, like Gecko) Chrome/138.0.0.0 Safari/537.36 Edg/138.0.0.0","WebKit","Edge","138.0.0.0","Windows","10.0","https://app.prolific.com/","en-US,en;q=0.9,en-ZA;q=0.8","606e3cce02e2e8a8c965ca75","686e379bc37a29ffa5cdc956","68777cf9fb003201f56dba4a","1","1","606e3cce02e2e8a8c965ca75","1","1","2025-07-16T10:46:36.520Z","","","","","","","","","","","AttribQ","","50","","","","","","","","","","","","","","","","","","","","","","","","","","","","",""
"9038","","<div style=""width:500px;"">
  <p>How much control did you have over the ball?</p>
  </div>","100","html-slider-response","31","476279","0.0-5.0-2.4","101","1","2025-07-16 10:38:47","1f75c3e559b7213887762d5229550c2b","102.221.201.13","Mozilla/5.0 (Windows NT 10.0; Win64; x64) AppleWebKit/537.36 (KHTML, like Gecko) Chrome/138.0.0.0 Safari/537.36 Edg/138.0.0.0","WebKit","Edge","138.0.0.0","Windows","10.0","https://app.prolific.com/","en-US,en;q=0.9,en-ZA;q=0.8","606e3cce02e2e8a8c965ca75","686e379bc37a29ffa5cdc956","68777cf9fb003201f56dba4a","1","1","606e3cce02e2e8a8c965ca75","1","1","2025-07-16T10:46:45.561Z","","","","","","","","","","","ControlQ","","50","","","","","","","","","","","","","","","","","","","","","","","","","","","","",""
"6514","","<div style=""width:500px;"">
  <p>How would you describe your current emotional state?</p>
  </div>","1","html-slider-response","32","482802","0.0-5.0-3.4","101","1","2025-07-16 10:38:47","1f75c3e559b7213887762d5229550c2b","102.221.201.13","Mozilla/5.0 (Windows NT 10.0; Win64; x64) AppleWebKit/537.36 (KHTML, like Gecko) Chrome/138.0.0.0 Safari/537.36 Edg/138.0.0.0","WebKit","Edge","138.0.0.0","Windows","10.0","https://app.prolific.com/","en-US,en;q=0.9,en-ZA;q=0.8","606e3cce02e2e8a8c965ca75","686e379bc37a29ffa5cdc956","68777cf9fb003201f56dba4a","1","1","606e3cce02e2e8a8c965ca75","1","1","2025-07-16T10:46:52.084Z","","","","","","","","","","","StressQ","","50","","","","","","","","","","","","","","","","","","","","","","","","","","","","",""
"6659","","<div style=""width:500px;"">
  <p>What best describes how you currently feel?</p>
  </div>","91","html-slider-response","33","489471","0.0-5.0-4.4","101","1","2025-07-16 10:38:47","1f75c3e559b7213887762d5229550c2b","102.221.201.13","Mozilla/5.0 (Windows NT 10.0; Win64; x64) AppleWebKit/537.36 (KHTML, like Gecko) Chrome/138.0.0.0 Safari/537.36 Edg/138.0.0.0","WebKit","Edge","138.0.0.0","Windows","10.0","https://app.prolific.com/","en-US,en;q=0.9,en-ZA;q=0.8","606e3cce02e2e8a8c965ca75","686e379bc37a29ffa5cdc956","68777cf9fb003201f56dba4a","1","1","606e3cce02e2e8a8c965ca75","1","1","2025-07-16T10:46:58.753Z","","","","","","","","","","","MotivationQ","","50","","","","","","","","","","","","","","","","","","","","","","","","","","","","",""
"","","","","ctl-task-cpt","34","528763","0.0-5.0-0.5","101","1","2025-07-16 10:38:47","1f75c3e559b7213887762d5229550c2b","102.221.201.13","Mozilla/5.0 (Windows NT 10.0; Win64; x64) AppleWebKit/537.36 (KHTML, like Gecko) Chrome/138.0.0.0 Safari/537.36 Edg/138.0.0.0","WebKit","Edge","138.0.0.0","Windows","10.0","https://app.prolific.com/","en-US,en;q=0.9,en-ZA;q=0.8","606e3cce02e2e8a8c965ca75","686e379bc37a29ffa5cdc956","68777cf9fb003201f56dba4a","1","1","606e3cce02e2e8a8c965ca75","1","1","2025-07-16T10:47:38.044Z","","","","","","","","","","","","","","win-only","1","g1:NE,g2:SW","0.5","6","0","491593.4","3235","8237.6","36260.1","1","4","8","6","2","-8","-8","0","3","0","5002.6","3000","-2235","[""down"",""left""]","{""num_key_presses"":7,""num_perfect"":5,""num_errors"":0,""num_randdir"":2,""num_randdir_good_moves"":0,""num_whilered"":0,""num_whileblue"":0,""num_blue"":1,""num_good_moves"":4}","[412.8214133126395,414.07142761775424,0.3,412.8214133126395,414.07142761775424,100.4,412.8214133126395,414.07142761775424,209.6,412.8214133126395,414.07142761775424,321.4,412.8214133126395,414.07142761775424,425.1,412.8214133126395,414.07142761775424,536.4,412.8214133126395,414.07142761775424,647.5,412.8214133126395,414.07142761775424,748.7,412.8214133126395,414.07142761775424,857,412.8214133126395,414.07142761775424,972.9,412.8214133126395,414.07142761775424,1088.2,412.8214133126395,414.07142761775424,1191.6,412.8214133126395,414.07142761775424,1294.5,412.8214133126395,414.07142761775424,1399.7,412.8214133126395,414.07142761775424,1500.8,412.8214133126395,414.07142761775424,1605.5,412.8214133126395,414.07142761775424,1705.9,412.8214133126395,414.07142761775424,1814,412.8214133126395,414.07142761775424,1914.6,412.8214133126395,414.07142761775424,2016.7,412.8214133126395,414.07142761775424,2120.2,412.8214133126395,414.07142761775424,2220.6,412.8214133126395,414.07142761775424,2322,412.8214133126395,414.07142761775424,2423.7,412.8214133126395,414.07142761775424,2537.8,412.8214133126395,414.07142761775424,2641,412.8214133126395,414.07142761775424,2746.6,412.8214133126395,414.07142761775424,2852.8,412.8214133126395,414.07142761775424,2957.1,412.8214133126395,414.07142761775424,3063.2,412.8214133126395,414.07142761775424,3165.9,412.8214133126395,414.07142761775424,3269.3,412.8214133126395,414.07142761775424,3384.4,412.8214133126395,414.07142761775424,3486,412.8214133126395,414.07142761775424,3586.2,412.8214133126395,414.07142761775424,3686.3,412.8214133126395,414.07142761775424,3794.1,412.8214133126395,414.07142761775424,3896.4,412.8214133126395,414.07142761775424,3999.8,412.8214133126395,414.07142761775424,4101.5,412.8214133126395,414.07142761775424,4206.5,412.8214133126395,414.07142761775424,4311.7,412.8214133126395,414.07142761775424,4412.4,412.8214133126395,414.07142761775424,4516.1,412.8214133126395,414.07142761775424,4616.2,412.8214133126395,414.07142761775424,4733.6,412.8214133126395,414.07142761775424,4849,412.8214133126395,414.07142761775424,4950.6]","[2449.3,2449.3,1000,0,1449.3,""smooth"",""left"",""left"",""good_move"",5555.3,3103.7,2580.8,2451.7,522.8,""oops"",""left"",""right"",""bad_move"",8983.8,3428.1,2961.7,5555.7,466.4,""smooth"",""down"",""down"",""good_move"",12174.7,3190.3,2685.2,8984.4,505.1,""smooth"",""down"",""down"",""good_move"",15266.3,3091.3,2560.1,12175.1,531.1,""oops"",""left"",""right"",""bad_move"",18360.6,3094.2,2663.5,15266.4,430.7,""smooth"",""down"",""down"",""good_move"",21102.2,2741.4,2285.6,18360.8,455.8,""smooth"",""down"",""right"",""bad_move""]","",""
"7433","","<div style=""width:500px;"">
  <p>What determined the result of this run?</p>
  </div>","82","html-slider-response","35","536206","0.0-5.0-1.5","101","1","2025-07-16 10:38:47","1f75c3e559b7213887762d5229550c2b","102.221.201.13","Mozilla/5.0 (Windows NT 10.0; Win64; x64) AppleWebKit/537.36 (KHTML, like Gecko) Chrome/138.0.0.0 Safari/537.36 Edg/138.0.0.0","WebKit","Edge","138.0.0.0","Windows","10.0","https://app.prolific.com/","en-US,en;q=0.9,en-ZA;q=0.8","606e3cce02e2e8a8c965ca75","686e379bc37a29ffa5cdc956","68777cf9fb003201f56dba4a","1","1","606e3cce02e2e8a8c965ca75","1","1","2025-07-16T10:47:45.488Z","","","","","","","","","","","AttribQ","","50","","","","","","","","","","","","","","","","","","","","","","","","","","","","",""
"5553","","<div style=""width:500px;"">
  <p>How much control did you have over the ball?</p>
  </div>","90","html-slider-response","36","541768","0.0-5.0-2.5","101","1","2025-07-16 10:38:47","1f75c3e559b7213887762d5229550c2b","102.221.201.13","Mozilla/5.0 (Windows NT 10.0; Win64; x64) AppleWebKit/537.36 (KHTML, like Gecko) Chrome/138.0.0.0 Safari/537.36 Edg/138.0.0.0","WebKit","Edge","138.0.0.0","Windows","10.0","https://app.prolific.com/","en-US,en;q=0.9,en-ZA;q=0.8","606e3cce02e2e8a8c965ca75","686e379bc37a29ffa5cdc956","68777cf9fb003201f56dba4a","1","1","606e3cce02e2e8a8c965ca75","1","1","2025-07-16T10:47:51.050Z","","","","","","","","","","","ControlQ","","50","","","","","","","","","","","","","","","","","","","","","","","","","","","","",""
"11984","","<div style=""width:500px;"">
  <p>How would you describe your current emotional state?</p>
  </div>","87","html-slider-response","37","553760","0.0-5.0-3.5","101","1","2025-07-16 10:38:47","1f75c3e559b7213887762d5229550c2b","102.221.201.13","Mozilla/5.0 (Windows NT 10.0; Win64; x64) AppleWebKit/537.36 (KHTML, like Gecko) Chrome/138.0.0.0 Safari/537.36 Edg/138.0.0.0","WebKit","Edge","138.0.0.0","Windows","10.0","https://app.prolific.com/","en-US,en;q=0.9,en-ZA;q=0.8","606e3cce02e2e8a8c965ca75","686e379bc37a29ffa5cdc956","68777cf9fb003201f56dba4a","1","1","606e3cce02e2e8a8c965ca75","1","1","2025-07-16T10:48:03.041Z","","","","","","","","","","","StressQ","","50","","","","","","","","","","","","","","","","","","","","","","","","","","","","",""
"12679","","<div style=""width:500px;"">
  <p>What best describes how you currently feel?</p>
  </div>","92","html-slider-response","38","566446","0.0-5.0-4.5","101","1","2025-07-16 10:38:47","1f75c3e559b7213887762d5229550c2b","102.221.201.13","Mozilla/5.0 (Windows NT 10.0; Win64; x64) AppleWebKit/537.36 (KHTML, like Gecko) Chrome/138.0.0.0 Safari/537.36 Edg/138.0.0.0","WebKit","Edge","138.0.0.0","Windows","10.0","https://app.prolific.com/","en-US,en;q=0.9,en-ZA;q=0.8","606e3cce02e2e8a8c965ca75","686e379bc37a29ffa5cdc956","68777cf9fb003201f56dba4a","1","1","606e3cce02e2e8a8c965ca75","1","1","2025-07-16T10:48:15.728Z","","","","","","","","","","","MotivationQ","","50","","","","","","","","","","","","","","","","","","","","","","","","","","","","",""
"","","","","ctl-task-cpt","39","606415","0.0-5.0-0.6","101","1","2025-07-16 10:38:47","1f75c3e559b7213887762d5229550c2b","102.221.201.13","Mozilla/5.0 (Windows NT 10.0; Win64; x64) AppleWebKit/537.36 (KHTML, like Gecko) Chrome/138.0.0.0 Safari/537.36 Edg/138.0.0.0","WebKit","Edge","138.0.0.0","Windows","10.0","https://app.prolific.com/","en-US,en;q=0.9,en-ZA;q=0.8","606e3cce02e2e8a8c965ca75","686e379bc37a29ffa5cdc956","68777cf9fb003201f56dba4a","1","1","606e3cce02e2e8a8c965ca75","1","1","2025-07-16T10:48:55.696Z","","","","","","","","","","","","","","win-only","1","g1:NE,g2:SW","0.4","7","0","568557.7","4619.5","9627.8","36949.1","1","4","8","6","2","-8","-8","0","0","0","5008.3","3000","-2125","[""down"",""left""]","{""num_key_presses"":6,""num_perfect"":3,""num_errors"":0,""num_randdir"":3,""num_randdir_good_moves"":2,""num_whilered"":0,""num_whileblue"":0,""num_blue"":2,""num_good_moves"":5}","[421.5714133126395,426.57142761775424,0.2,421.5714133126395,426.57142761775424,101.4,421.5714133126395,426.57142761775424,214.5,421.5714133126395,426.57142761775424,318.3,421.5714133126395,426.57142761775424,421,421.5714133126395,426.57142761775424,521.5,421.5714133126395,426.57142761775424,621.8,421.5714133126395,426.57142761775424,727.4,421.5714133126395,426.57142761775424,830.1,421.5714133126395,426.57142761775424,932.2,421.5714133126395,426.57142761775424,1032.2,421.5714133126395,426.57142761775424,1138.8,421.5714133126395,426.57142761775424,1244.4,421.5714133126395,426.57142761775424,1346.4,424.0714133126395,422.82142761775424,1446.4,442.8214133126395,405.32142761775424,1546.6,470.3214133126395,381.57142761775424,1647.3,522.8214133126395,346.57142761775424,1764.3,531.5714133126395,341.57142761775424,1868.6,525.3214133126395,347.82142761775424,1980.3,512.8214133126395,354.07142761775424,2081.3,505.3214133126395,359.07142761775424,2182,497.8214133126395,362.82142761775424,2298,497.8214133126395,362.82142761775424,2414.2,497.8214133126395,362.82142761775424,2516.3,497.8214133126395,362.82142761775424,2619.8,497.8214133126395,362.82142761775424,2719.8,497.8214133126395,362.82142761775424,2824.1,497.8214133126395,362.82142761775424,2925.4,499.0714133126395,361.57142761775424,3037.2,502.8214133126395,361.57142761775424,3151.4,509.0714133126395,361.57142761775424,3255.5,510.3214133126395,361.57142761775424,3362.9,510.3214133126395,361.57142761775424,3468,510.3214133126395,361.57142761775424,3568.2,510.3214133126395,361.57142761775424,3673,510.3214133126395,361.57142761775424,3773.4,510.3214133126395,361.57142761775424,3876.7,510.3214133126395,361.57142761775424,3977.7,510.3214133126395,361.57142761775424,4081,510.3214133126395,361.57142761775424,4181,510.3214133126395,361.57142761775424,4282.5,510.3214133126395,361.57142761775424,4393.7,510.3214133126395,361.57142761775424,4498.9,510.3214133126395,361.57142761775424,4604.5,510.3214133126395,361.57142761775424,4716.5,510.3214133126395,361.57142761775424,4820.2,510.3214133126395,361.57142761775424,4925]","[2049.5,2049.5,1000,0,1049.5,""smooth"",""left"",""left"",""good_move"",4667,2617.1,2151.5,2049.9,465.6,""oops"",""left"",""left"",""good_move"",14921.3,10254.1,2909.1,11442.7,569.5,""smooth"",""left"",""left"",""good_move"",18418.8,3497.3,2981.8,14921.5,515.5,""oops"",""down"",""down"",""good_move"",21844.7,3425.6,2912.5,18419.1,513.1,""oops"",""down"",""right"",""bad_move"",24576.3,2731.2,2029.5,21845.1,701.7,""smooth"",""down"",""down"",""good_move""]","",""
"5974","","<div style=""width:500px;"">
  <p>What determined the result of this run?</p>
  </div>","87","html-slider-response","40","612392","0.0-5.0-1.6","101","1","2025-07-16 10:38:47","1f75c3e559b7213887762d5229550c2b","102.221.201.13","Mozilla/5.0 (Windows NT 10.0; Win64; x64) AppleWebKit/537.36 (KHTML, like Gecko) Chrome/138.0.0.0 Safari/537.36 Edg/138.0.0.0","WebKit","Edge","138.0.0.0","Windows","10.0","https://app.prolific.com/","en-US,en;q=0.9,en-ZA;q=0.8","606e3cce02e2e8a8c965ca75","686e379bc37a29ffa5cdc956","68777cf9fb003201f56dba4a","1","1","606e3cce02e2e8a8c965ca75","1","1","2025-07-16T10:49:01.674Z","","","","","","","","","","","AttribQ","","50","","","","","","","","","","","","","","","","","","","","","","","","","","","","",""
"6297","","<div style=""width:500px;"">
  <p>How much control did you have over the ball?</p>
  </div>","85","html-slider-response","41","618697","0.0-5.0-2.6","101","1","2025-07-16 10:38:47","1f75c3e559b7213887762d5229550c2b","102.221.201.13","Mozilla/5.0 (Windows NT 10.0; Win64; x64) AppleWebKit/537.36 (KHTML, like Gecko) Chrome/138.0.0.0 Safari/537.36 Edg/138.0.0.0","WebKit","Edge","138.0.0.0","Windows","10.0","https://app.prolific.com/","en-US,en;q=0.9,en-ZA;q=0.8","606e3cce02e2e8a8c965ca75","686e379bc37a29ffa5cdc956","68777cf9fb003201f56dba4a","1","1","606e3cce02e2e8a8c965ca75","1","1","2025-07-16T10:49:07.979Z","","","","","","","","","","","ControlQ","","50","","","","","","","","","","","","","","","","","","","","","","","","","","","","",""
"5350","","<div style=""width:500px;"">
  <p>How would you describe your current emotional state?</p>
  </div>","92","html-slider-response","42","624056","0.0-5.0-3.6","101","1","2025-07-16 10:38:47","1f75c3e559b7213887762d5229550c2b","102.221.201.13","Mozilla/5.0 (Windows NT 10.0; Win64; x64) AppleWebKit/537.36 (KHTML, like Gecko) Chrome/138.0.0.0 Safari/537.36 Edg/138.0.0.0","WebKit","Edge","138.0.0.0","Windows","10.0","https://app.prolific.com/","en-US,en;q=0.9,en-ZA;q=0.8","606e3cce02e2e8a8c965ca75","686e379bc37a29ffa5cdc956","68777cf9fb003201f56dba4a","1","1","606e3cce02e2e8a8c965ca75","1","1","2025-07-16T10:49:13.338Z","","","","","","","","","","","StressQ","","50","","","","","","","","","","","","","","","","","","","","","","","","","","","","",""
"8162","","<div style=""width:500px;"">
  <p>What best describes how you currently feel?</p>
  </div>","72","html-slider-response","43","632226","0.0-5.0-4.6","101","1","2025-07-16 10:38:47","1f75c3e559b7213887762d5229550c2b","102.221.201.13","Mozilla/5.0 (Windows NT 10.0; Win64; x64) AppleWebKit/537.36 (KHTML, like Gecko) Chrome/138.0.0.0 Safari/537.36 Edg/138.0.0.0","WebKit","Edge","138.0.0.0","Windows","10.0","https://app.prolific.com/","en-US,en;q=0.9,en-ZA;q=0.8","606e3cce02e2e8a8c965ca75","686e379bc37a29ffa5cdc956","68777cf9fb003201f56dba4a","1","1","606e3cce02e2e8a8c965ca75","1","1","2025-07-16T10:49:21.508Z","","","","","","","","","","","MotivationQ","","50","","","","","","","","","","","","","","","","","","","","","","","","","","","","",""
"","","","","ctl-task-cpt","44","677100","0.0-5.0-0.7","101","1","2025-07-16 10:38:47","1f75c3e559b7213887762d5229550c2b","102.221.201.13","Mozilla/5.0 (Windows NT 10.0; Win64; x64) AppleWebKit/537.36 (KHTML, like Gecko) Chrome/138.0.0.0 Safari/537.36 Edg/138.0.0.0","WebKit","Edge","138.0.0.0","Windows","10.0","https://app.prolific.com/","en-US,en;q=0.9,en-ZA;q=0.8","606e3cce02e2e8a8c965ca75","686e379bc37a29ffa5cdc956","68777cf9fb003201f56dba4a","1","1","606e3cce02e2e8a8c965ca75","1","1","2025-07-16T10:50:06.383Z","","","","","","","","","","","","","","win-only","2","g1:SE,g2:NW","0.3","8","0","634347.7","2702.5","7703.9","41850.7","1","4","4","6","1","-1","-1","0","0","0","5001.4","3000","-1935","[""down"",""right""]","{""num_key_presses"":8,""num_perfect"":3,""num_errors"":0,""num_randdir"":5,""num_randdir_good_moves"":2,""num_whilered"":0,""num_whileblue"":0,""num_blue"":2,""num_good_moves"":5}","[425.3214133126395,411.57142761775424,0.2,425.3214133126395,411.57142761775424,105.5,425.3214133126395,411.57142761775424,222.1,425.3214133126395,411.57142761775424,325.1,425.3214133126395,411.57142761775424,426.8,425.3214133126395,411.57142761775424,531.8,425.3214133126395,411.57142761775424,633.9,425.3214133126395,411.57142761775424,741.8,425.3214133126395,411.57142761775424,846.7,425.3214133126395,411.57142761775424,950.5,425.3214133126395,411.57142761775424,1054.3,425.3214133126395,411.57142761775424,1163.9,425.3214133126395,411.57142761775424,1264.7,425.3214133126395,411.57142761775424,1382.5,425.3214133126395,411.57142761775424,1489.5,425.3214133126395,411.57142761775424,1593.2,425.3214133126395,411.57142761775424,1702.6,425.3214133126395,411.57142761775424,1803.1,425.3214133126395,411.57142761775424,1912.6,425.3214133126395,411.57142761775424,2012.9,425.3214133126395,411.57142761775424,2114.1,425.3214133126395,411.57142761775424,2214.5,425.3214133126395,411.57142761775424,2331.9,425.3214133126395,411.57142761775424,2435.2,425.3214133126395,411.57142761775424,2544.4,425.3214133126395,411.57142761775424,2645.4,425.3214133126395,411.57142761775424,2749.7,425.3214133126395,411.57142761775424,2858.7,425.3214133126395,411.57142761775424,2959.2,425.3214133126395,411.57142761775424,3065.6,425.3214133126395,411.57142761775424,3170.5,425.3214133126395,411.57142761775424,3276.5,425.3214133126395,411.57142761775424,3377.8,425.3214133126395,411.57142761775424,3479.1,425.3214133126395,411.57142761775424,3579.7,425.3214133126395,411.57142761775424,3680,425.3214133126395,411.57142761775424,3796.5,425.3214133126395,411.57142761775424,3896.5,425.3214133126395,411.57142761775424,3998.5,425.3214133126395,411.57142761775424,4112.2,425.3214133126395,411.57142761775424,4213.1,425.3214133126395,411.57142761775424,4313.8,425.3214133126395,411.57142761775424,4434.1,425.3214133126395,411.57142761775424,4534.2,425.3214133126395,411.57142761775424,4640.1,425.3214133126395,411.57142761775424,4743.8,425.3214133126395,411.57142761775424,4843.8,425.3214133126395,411.57142761775424,4943.9]","[2058.5,2058.5,1000,0,1058.5,""oops"",""down"",""left"",""bad_move"",5406.1,3347.2,2813.8,2058.9,533.5,""smooth"",""right"",""right"",""good_move"",7902,2495.5,1914.3,5406.6,581.2,""smooth"",""right"",""right"",""good_move"",10075.3,2171.8,1600.4,7903.5,571.4,""smooth"",""right"",""right"",""good_move"",12486.2,2410.6,1992,10075.6,418.6,""oops"",""down"",""left"",""bad_move"",19947.6,7461.2,3162.4,16374.2,411,""oops"",""down"",""left"",""bad_move"",27315.2,7367.3,2905.2,23939.9,470.1,""oops"",""right"",""down"",""good_move"",31127.8,3812.2,3217.8,27315.6,594.4,""oops"",""right"",""down"",""good_move""]","",""
"5938","","<div style=""width:500px;"">
  <p>What determined the result of this run?</p>
  </div>","81","html-slider-response","45","683044","0.0-5.0-1.7","101","1","2025-07-16 10:38:47","1f75c3e559b7213887762d5229550c2b","102.221.201.13","Mozilla/5.0 (Windows NT 10.0; Win64; x64) AppleWebKit/537.36 (KHTML, like Gecko) Chrome/138.0.0.0 Safari/537.36 Edg/138.0.0.0","WebKit","Edge","138.0.0.0","Windows","10.0","https://app.prolific.com/","en-US,en;q=0.9,en-ZA;q=0.8","606e3cce02e2e8a8c965ca75","686e379bc37a29ffa5cdc956","68777cf9fb003201f56dba4a","1","1","606e3cce02e2e8a8c965ca75","1","1","2025-07-16T10:50:12.325Z","","","","","","","","","","","AttribQ","","50","","","","","","","","","","","","","","","","","","","","","","","","","","","","",""
"10216","","<div style=""width:500px;"">
  <p>How much control did you have over the ball?</p>
  </div>","62","html-slider-response","46","693265","0.0-5.0-2.7","101","1","2025-07-16 10:38:47","1f75c3e559b7213887762d5229550c2b","102.221.201.13","Mozilla/5.0 (Windows NT 10.0; Win64; x64) AppleWebKit/537.36 (KHTML, like Gecko) Chrome/138.0.0.0 Safari/537.36 Edg/138.0.0.0","WebKit","Edge","138.0.0.0","Windows","10.0","https://app.prolific.com/","en-US,en;q=0.9,en-ZA;q=0.8","606e3cce02e2e8a8c965ca75","686e379bc37a29ffa5cdc956","68777cf9fb003201f56dba4a","1","1","606e3cce02e2e8a8c965ca75","1","1","2025-07-16T10:50:22.546Z","","","","","","","","","","","ControlQ","","50","","","","","","","","","","","","","","","","","","","","","","","","","","","","",""
"3401","","<div style=""width:500px;"">
  <p>How would you describe your current emotional state?</p>
  </div>","68","html-slider-response","47","696667","0.0-5.0-3.7","101","1","2025-07-16 10:38:47","1f75c3e559b7213887762d5229550c2b","102.221.201.13","Mozilla/5.0 (Windows NT 10.0; Win64; x64) AppleWebKit/537.36 (KHTML, like Gecko) Chrome/138.0.0.0 Safari/537.36 Edg/138.0.0.0","WebKit","Edge","138.0.0.0","Windows","10.0","https://app.prolific.com/","en-US,en;q=0.9,en-ZA;q=0.8","606e3cce02e2e8a8c965ca75","686e379bc37a29ffa5cdc956","68777cf9fb003201f56dba4a","1","1","606e3cce02e2e8a8c965ca75","1","1","2025-07-16T10:50:25.948Z","","","","","","","","","","","StressQ","","50","","","","","","","","","","","","","","","","","","","","","","","","","","","","",""
"5050","","<div style=""width:500px;"">
  <p>What best describes how you currently feel?</p>
  </div>","71","html-slider-response","48","701718","0.0-5.0-4.7","101","1","2025-07-16 10:38:47","1f75c3e559b7213887762d5229550c2b","102.221.201.13","Mozilla/5.0 (Windows NT 10.0; Win64; x64) AppleWebKit/537.36 (KHTML, like Gecko) Chrome/138.0.0.0 Safari/537.36 Edg/138.0.0.0","WebKit","Edge","138.0.0.0","Windows","10.0","https://app.prolific.com/","en-US,en;q=0.9,en-ZA;q=0.8","606e3cce02e2e8a8c965ca75","686e379bc37a29ffa5cdc956","68777cf9fb003201f56dba4a","1","1","606e3cce02e2e8a8c965ca75","1","1","2025-07-16T10:50:30.999Z","","","","","","","","","","","MotivationQ","","50","","","","","","","","","","","","","","","","","","","","","","","","","","","","",""
"","","","","ctl-task-cpt","49","733439","0.0-5.0-0.8","101","1","2025-07-16 10:38:47","1f75c3e559b7213887762d5229550c2b","102.221.201.13","Mozilla/5.0 (Windows NT 10.0; Win64; x64) AppleWebKit/537.36 (KHTML, like Gecko) Chrome/138.0.0.0 Safari/537.36 Edg/138.0.0.0","WebKit","Edge","138.0.0.0","Windows","10.0","https://app.prolific.com/","en-US,en;q=0.9,en-ZA;q=0.8","606e3cce02e2e8a8c965ca75","686e379bc37a29ffa5cdc956","68777cf9fb003201f56dba4a","1","1","606e3cce02e2e8a8c965ca75","1","1","2025-07-16T10:51:02.720Z","","","","","","","","","","","","","","win-only","2","g1:SE,g2:NW","0.2","9","0","703827.7","3359","8372.9","28707.8","1","4","4","6","2","4","4","4","0","0.030303030303030304","5013.9","3000","1250","[""left"",""up""]","{""num_key_presses"":6,""num_perfect"":1,""num_errors"":0,""num_randdir"":5,""num_randdir_good_moves"":5,""num_whilered"":0,""num_whileblue"":0,""num_blue"":1,""num_good_moves"":6}","[411.5714133126395,426.57142761775424,0.3,411.5714133126395,426.57142761775424,114.8,411.5714133126395,426.57142761775424,216.8,411.5714133126395,426.57142761775424,321.6,411.5714133126395,426.57142761775424,424.2,411.5714133126395,426.57142761775424,538.4,411.5714133126395,426.57142761775424,647.7,411.5714133126395,426.57142761775424,756.5,411.5714133126395,426.57142761775424,865.5,411.5714133126395,426.57142761775424,974.6,411.5714133126395,426.57142761775424,1082.1,411.5714133126395,426.57142761775424,1192.3,411.5714133126395,426.57142761775424,1298,411.5714133126395,426.57142761775424,1401.5,411.5714133126395,426.57142761775424,1502.2,411.5714133126395,426.57142761775424,1611.1,411.5714133126395,426.57142761775424,1718.1,411.5714133126395,426.57142761775424,1824,411.5714133126395,426.57142761775424,1927.4,411.5714133126395,426.57142761775424,2033.2,411.5714133126395,426.57142761775424,2141.2,411.5714133126395,426.57142761775424,2246.8,411.5714133126395,426.57142761775424,2346.8,411.5714133126395,426.57142761775424,2447.8,411.5714133126395,426.57142761775424,2554,411.5714133126395,426.57142761775424,2659.6,411.5714133126395,426.57142761775424,2770.9,411.5714133126395,426.57142761775424,2879.2,411.5714133126395,426.57142761775424,2984.8,411.5714133126395,426.57142761775424,3095.8,411.5714133126395,426.57142761775424,3196.4,411.5714133126395,426.57142761775424,3309.4,411.5714133126395,426.57142761775424,3412.7,411.5714133126395,426.57142761775424,3522.2,411.5714133126395,426.57142761775424,3632.1,411.5714133126395,426.57142761775424,3738,411.5714133126395,426.57142761775424,3838.5,411.5714133126395,426.57142761775424,3945.9,411.5714133126395,426.57142761775424,4055.5,411.5714133126395,426.57142761775424,4157.6,411.5714133126395,426.57142761775424,4261.6,411.5714133126395,426.57142761775424,4364.8,411.5714133126395,426.57142761775424,4470.3,411.5714133126395,426.57142761775424,4575.3,411.5714133126395,426.57142761775424,4676.6,411.5714133126395,426.57142761775424,4782.5,411.5714133126395,426.57142761775424,4889.5,411.5714133126395,426.57142761775424,4998.1]","[2259.5,2259.5,1000,0,1259.5,""oops"",""up"",""up"",""good_move"",4893.5,2633.6,1598.5,2259.9,1035.1,""oops"",""up"",""left"",""good_move"",11286.1,6392.1,2671.3,8125.3,489.5,""oops"",""up"",""up"",""good_move"",13872.6,2586.4,2066.7,11286.2,519.7,""oops"",""up"",""left"",""good_move"",17159.8,3287,2744.3,13872.8,542.7,""oops"",""up"",""up"",""good_move"",20136,2976,2365.6,17160,610.4,""smooth"",""left"",""left"",""good_move""]","",""
"4073","","<div style=""width:500px;"">
  <p>What determined the result of this run?</p>
  </div>","80","html-slider-response","50","737513","0.0-5.0-1.8","101","1","2025-07-16 10:38:47","1f75c3e559b7213887762d5229550c2b","102.221.201.13","Mozilla/5.0 (Windows NT 10.0; Win64; x64) AppleWebKit/537.36 (KHTML, like Gecko) Chrome/138.0.0.0 Safari/537.36 Edg/138.0.0.0","WebKit","Edge","138.0.0.0","Windows","10.0","https://app.prolific.com/","en-US,en;q=0.9,en-ZA;q=0.8","606e3cce02e2e8a8c965ca75","686e379bc37a29ffa5cdc956","68777cf9fb003201f56dba4a","1","1","606e3cce02e2e8a8c965ca75","1","1","2025-07-16T10:51:06.794Z","","","","","","","","","","","AttribQ","","50","","","","","","","","","","","","","","","","","","","","","","","","","","","","",""
"4342","","<div style=""width:500px;"">
  <p>How much control did you have over the ball?</p>
  </div>","85","html-slider-response","51","741856","0.0-5.0-2.8","101","1","2025-07-16 10:38:47","1f75c3e559b7213887762d5229550c2b","102.221.201.13","Mozilla/5.0 (Windows NT 10.0; Win64; x64) AppleWebKit/537.36 (KHTML, like Gecko) Chrome/138.0.0.0 Safari/537.36 Edg/138.0.0.0","WebKit","Edge","138.0.0.0","Windows","10.0","https://app.prolific.com/","en-US,en;q=0.9,en-ZA;q=0.8","606e3cce02e2e8a8c965ca75","686e379bc37a29ffa5cdc956","68777cf9fb003201f56dba4a","1","1","606e3cce02e2e8a8c965ca75","1","1","2025-07-16T10:51:11.137Z","","","","","","","","","","","ControlQ","","50","","","","","","","","","","","","","","","","","","","","","","","","","","","","",""
"4891","","<div style=""width:500px;"">
  <p>How would you describe your current emotional state?</p>
  </div>","8","html-slider-response","52","746747","0.0-5.0-3.8","101","1","2025-07-16 10:38:47","1f75c3e559b7213887762d5229550c2b","102.221.201.13","Mozilla/5.0 (Windows NT 10.0; Win64; x64) AppleWebKit/537.36 (KHTML, like Gecko) Chrome/138.0.0.0 Safari/537.36 Edg/138.0.0.0","WebKit","Edge","138.0.0.0","Windows","10.0","https://app.prolific.com/","en-US,en;q=0.9,en-ZA;q=0.8","606e3cce02e2e8a8c965ca75","686e379bc37a29ffa5cdc956","68777cf9fb003201f56dba4a","1","1","606e3cce02e2e8a8c965ca75","1","1","2025-07-16T10:51:16.028Z","","","","","","","","","","","StressQ","","50","","","","","","","","","","","","","","","","","","","","","","","","","","","","",""
"3332","","<div style=""width:500px;"">
  <p>What best describes how you currently feel?</p>
  </div>","81","html-slider-response","53","750080","0.0-5.0-4.8","101","1","2025-07-16 10:38:47","1f75c3e559b7213887762d5229550c2b","102.221.201.13","Mozilla/5.0 (Windows NT 10.0; Win64; x64) AppleWebKit/537.36 (KHTML, like Gecko) Chrome/138.0.0.0 Safari/537.36 Edg/138.0.0.0","WebKit","Edge","138.0.0.0","Windows","10.0","https://app.prolific.com/","en-US,en;q=0.9,en-ZA;q=0.8","606e3cce02e2e8a8c965ca75","686e379bc37a29ffa5cdc956","68777cf9fb003201f56dba4a","1","1","606e3cce02e2e8a8c965ca75","1","1","2025-07-16T10:51:19.361Z","","","","","","","","","","","MotivationQ","","50","","","","","","","","","","","","","","","","","","","","","","","","","","","","",""
"","","","","ctl-task-cpt","54","866280","0.0-5.0-0.9","101","1","2025-07-16 10:38:47","1f75c3e559b7213887762d5229550c2b","102.221.201.13","Mozilla/5.0 (Windows NT 10.0; Win64; x64) AppleWebKit/537.36 (KHTML, like Gecko) Chrome/138.0.0.0 Safari/537.36 Edg/138.0.0.0","WebKit","Edge","138.0.0.0","Windows","10.0","https://app.prolific.com/","en-US,en;q=0.9,en-ZA;q=0.8","606e3cce02e2e8a8c965ca75","686e379bc37a29ffa5cdc956","68777cf9fb003201f56dba4a","1","1","606e3cce02e2e8a8c965ca75","1","1","2025-07-16T10:53:15.561Z","","","","","","","","","","","","","","win-only","2","g1:SE,g2:NW","0.4","10","0","752190.6","5986.7","10987.8","113175.5","1","4","8","6","2","-8","-11","0","4","0","5001.1","3000","-1280","[""left"",""up""]","{""num_key_presses"":20,""num_perfect"":7,""num_errors"":3,""num_randdir"":10,""num_randdir_good_moves"":6,""num_whilered"":0,""num_whileblue"":3,""num_blue"":10,""num_good_moves"":10}","[420.3214133126395,416.57142761775424,0.9,420.3214133126395,416.57142761775424,104,420.3214133126395,416.57142761775424,210.1,420.3214133126395,416.57142761775424,323.5,420.3214133126395,416.57142761775424,431.2,420.3214133126395,416.57142761775424,539.8,420.3214133126395,416.57142761775424,652.6,420.3214133126395,416.57142761775424,767.1,420.3214133126395,416.57142761775424,870,420.3214133126395,416.57142761775424,973.5,420.3214133126395,416.57142761775424,1089.3,420.3214133126395,416.57142761775424,1192.5,420.3214133126395,416.57142761775424,1304.4,420.3214133126395,416.57142761775424,1405,420.3214133126395,416.57142761775424,1522.7,420.3214133126395,416.57142761775424,1638.1,420.3214133126395,416.57142761775424,1743.3,420.3214133126395,416.57142761775424,1853.6,420.3214133126395,416.57142761775424,1953.8,420.3214133126395,416.57142761775424,2063.1,420.3214133126395,416.57142761775424,2166.6,420.3214133126395,416.57142761775424,2273.3,420.3214133126395,416.57142761775424,2375.2,420.3214133126395,416.57142761775424,2484.7,420.3214133126395,416.57142761775424,2588.1,420.3214133126395,416.57142761775424,2699.3,420.3214133126395,416.57142761775424,2807.5,420.3214133126395,416.57142761775424,2914.2,420.3214133126395,416.57142761775424,3021.7,420.3214133126395,416.57142761775424,3139.5,420.3214133126395,416.57142761775424,3255.7,420.3214133126395,416.57142761775424,3357.6,420.3214133126395,416.57142761775424,3469.9,420.3214133126395,416.57142761775424,3578.2,420.3214133126395,416.57142761775424,3685.3,420.3214133126395,416.57142761775424,3802,420.3214133126395,416.57142761775424,3906.1,420.3214133126395,416.57142761775424,4010.9,420.3214133126395,416.57142761775424,4125.1,420.3214133126395,416.57142761775424,4237.7,420.3214133126395,416.57142761775424,4341.4,420.3214133126395,416.57142761775424,4455.7,420.3214133126395,416.57142761775424,4567,420.3214133126395,416.57142761775424,4669.6,420.3214133126395,416.57142761775424,4784,420.3214133126395,416.57142761775424,4895]","[1729.1,1729.1,1000,0,729.1,""smooth"",""up"",""up"",""good_move"",5563.6,3834.3,2400.1,1729.3,1434.2,""oops"",""up"",""up"",""good_move"",9373.4,3809.6,2342.7,5563.8,1466.9,""smooth"",""up"",""up"",""good_move"",13189.2,3815.6,3011.6,9373.6,804,""smooth"",""up"",""right"",""bad_move"",16643.9,3454.5,2681.1,13189.4,773.4,""oops"",""left"",""left"",""good_move"",20546.8,3901.2,2004,16645.6,1897.2,""smooth"",""left"",""left"",""good_move"",27837.4,7290.5,2354.3,25020.5,462.6,""oops"",""left"",""right"",""bad_move"",34585,6747.4,3132.2,30855.6,597.2,""oops"",""left"",""right"",""bad_move"",38232.2,3647,3063.4,34585.2,583.6,""oops"",""right"",""right"",""bad_move"",41348.3,3116,2600.2,38232.4,515.8,""oops"",""up"",""left"",""good_move"",48495.4,7146.8,3279.6,41348.7,3867.1,""smooth"",""up"",""right"",""bad_move"",51818.9,3323.4,2659.2,48495.5,664.2,""while_blue"",""up"",""left"",""good_move"",57296.8,5477.6,2409.9,51819.2,3067.7,""oops"",""up"",""left"",""good_move"",60244.5,2947.4,2464,57297.1,483.4,""oops"",""up"",""right"",""bad_move"",63329.3,3084.6,2526.9,60244.7,557.7,""smooth"",""down"",""down"",""bad_move"",66621.9,3292.3,2814.2,63329.6,478.1,""oops"",""left"",""up"",""good_move"",69835,3212.8,2812.9,66622.2,399.9,""smooth"",""down"",""down"",""bad_move"",73651.8,3816.6,3427.7,69835.2,388.9,""while_blue"",""down"",""right"",""bad_move"",76877.5,3225.4,2587.8,73652.1,637.6,""oops"",""down"",""left"",""good_move"",80103.4,3225.6,2733.9,76877.8,491.7,""while_blue"",""down"",""down"",""bad_move""]","",""
"4654","","<div style=""width:500px;"">
  <p>What determined the result of this run?</p>
  </div>","83","html-slider-response","55","870935","0.0-5.0-1.9","101","1","2025-07-16 10:38:47","1f75c3e559b7213887762d5229550c2b","102.221.201.13","Mozilla/5.0 (Windows NT 10.0; Win64; x64) AppleWebKit/537.36 (KHTML, like Gecko) Chrome/138.0.0.0 Safari/537.36 Edg/138.0.0.0","WebKit","Edge","138.0.0.0","Windows","10.0","https://app.prolific.com/","en-US,en;q=0.9,en-ZA;q=0.8","606e3cce02e2e8a8c965ca75","686e379bc37a29ffa5cdc956","68777cf9fb003201f56dba4a","1","1","606e3cce02e2e8a8c965ca75","1","1","2025-07-16T10:53:20.216Z","","","","","","","","","","","AttribQ","","50","","","","","","","","","","","","","","","","","","","","","","","","","","","","",""
"4877","","<div style=""width:500px;"">
  <p>How much control did you have over the ball?</p>
  </div>","85","html-slider-response","56","875813","0.0-5.0-2.9","101","1","2025-07-16 10:38:47","1f75c3e559b7213887762d5229550c2b","102.221.201.13","Mozilla/5.0 (Windows NT 10.0; Win64; x64) AppleWebKit/537.36 (KHTML, like Gecko) Chrome/138.0.0.0 Safari/537.36 Edg/138.0.0.0","WebKit","Edge","138.0.0.0","Windows","10.0","https://app.prolific.com/","en-US,en;q=0.9,en-ZA;q=0.8","606e3cce02e2e8a8c965ca75","686e379bc37a29ffa5cdc956","68777cf9fb003201f56dba4a","1","1","606e3cce02e2e8a8c965ca75","1","1","2025-07-16T10:53:25.094Z","","","","","","","","","","","ControlQ","","50","","","","","","","","","","","","","","","","","","","","","","","","","","","","",""
"3945","","<div style=""width:500px;"">
  <p>How would you describe your current emotional state?</p>
  </div>","93","html-slider-response","57","879759","0.0-5.0-3.9","101","1","2025-07-16 10:38:47","1f75c3e559b7213887762d5229550c2b","102.221.201.13","Mozilla/5.0 (Windows NT 10.0; Win64; x64) AppleWebKit/537.36 (KHTML, like Gecko) Chrome/138.0.0.0 Safari/537.36 Edg/138.0.0.0","WebKit","Edge","138.0.0.0","Windows","10.0","https://app.prolific.com/","en-US,en;q=0.9,en-ZA;q=0.8","606e3cce02e2e8a8c965ca75","686e379bc37a29ffa5cdc956","68777cf9fb003201f56dba4a","1","1","606e3cce02e2e8a8c965ca75","1","1","2025-07-16T10:53:29.040Z","","","","","","","","","","","StressQ","","50","","","","","","","","","","","","","","","","","","","","","","","","","","","","",""
"5071","","<div style=""width:500px;"">
  <p>What best describes how you currently feel?</p>
  </div>","82","html-slider-response","58","884831","0.0-5.0-4.9","101","1","2025-07-16 10:38:47","1f75c3e559b7213887762d5229550c2b","102.221.201.13","Mozilla/5.0 (Windows NT 10.0; Win64; x64) AppleWebKit/537.36 (KHTML, like Gecko) Chrome/138.0.0.0 Safari/537.36 Edg/138.0.0.0","WebKit","Edge","138.0.0.0","Windows","10.0","https://app.prolific.com/","en-US,en;q=0.9,en-ZA;q=0.8","606e3cce02e2e8a8c965ca75","686e379bc37a29ffa5cdc956","68777cf9fb003201f56dba4a","1","1","606e3cce02e2e8a8c965ca75","1","1","2025-07-16T10:53:34.112Z","","","","","","","","","","","MotivationQ","","50","","","","","","","","","","","","","","","","","","","","","","","","","","","","",""
"","","","","ctl-task-cpt","59","933098","0.0-5.0-0.10","101","1","2025-07-16 10:38:47","1f75c3e559b7213887762d5229550c2b","102.221.201.13","Mozilla/5.0 (Windows NT 10.0; Win64; x64) AppleWebKit/537.36 (KHTML, like Gecko) Chrome/138.0.0.0 Safari/537.36 Edg/138.0.0.0","WebKit","Edge","138.0.0.0","Windows","10.0","https://app.prolific.com/","en-US,en;q=0.9,en-ZA;q=0.8","606e3cce02e2e8a8c965ca75","686e379bc37a29ffa5cdc956","68777cf9fb003201f56dba4a","1","1","606e3cce02e2e8a8c965ca75","1","1","2025-07-16T10:54:22.379Z","","","","","","","","","","","","","","win-only","0","g1:NW,g2:SE","0.5","11","0","886942.2","1631.4","6645.3","45236.6","1","4","4","6","1","-1","-2","0","0","0","5013.9","3000","-1195","[""left"",""up""]","{""num_key_presses"":10,""num_perfect"":4,""num_errors"":1,""num_randdir"":5,""num_randdir_good_moves"":0,""num_whilered"":0,""num_whileblue"":0,""num_blue"":1,""num_good_moves"":4}","[411.5714133126395,421.57142761775424,1.9,411.5714133126395,421.57142761775424,106.2,411.5714133126395,421.57142761775424,220.6,411.5714133126395,421.57142761775424,329.8,411.5714133126395,421.57142761775424,441.8,411.5714133126395,421.57142761775424,552.4,411.5714133126395,421.57142761775424,659.9,411.5714133126395,421.57142761775424,767.5,411.5714133126395,421.57142761775424,869.6,411.5714133126395,421.57142761775424,975.4,411.5714133126395,421.57142761775424,1078.6,411.5714133126395,421.57142761775424,1189.5,411.5714133126395,421.57142761775424,1292.4,411.5714133126395,421.57142761775424,1404.1,411.5714133126395,421.57142761775424,1513.2,411.5714133126395,421.57142761775424,1618.2,411.5714133126395,421.57142761775424,1729.2,411.5714133126395,421.57142761775424,1837,411.5714133126395,421.57142761775424,1945.1,411.5714133126395,421.57142761775424,2048.5,411.5714133126395,421.57142761775424,2149.2,411.5714133126395,421.57142761775424,2257.2,411.5714133126395,421.57142761775424,2360.1,411.5714133126395,421.57142761775424,2466.1,411.5714133126395,421.57142761775424,2575.1,411.5714133126395,421.57142761775424,2684.8,411.5714133126395,421.57142761775424,2790.9,411.5714133126395,421.57142761775424,2893,411.5714133126395,421.57142761775424,2993.8,411.5714133126395,421.57142761775424,3105.2,411.5714133126395,421.57142761775424,3208.5,411.5714133126395,421.57142761775424,3313.7,411.5714133126395,421.57142761775424,3414.5,411.5714133126395,421.57142761775424,3523.4,411.5714133126395,421.57142761775424,3626.6,411.5714133126395,421.57142761775424,3734.3,411.5714133126395,421.57142761775424,3842.4,411.5714133126395,421.57142761775424,3944.7,411.5714133126395,421.57142761775424,4050.9,411.5714133126395,421.57142761775424,4159,411.5714133126395,421.57142761775424,4268.8,411.5714133126395,421.57142761775424,4384.5,411.5714133126395,421.57142761775424,4497.3,411.5714133126395,421.57142761775424,4601.6,411.5714133126395,421.57142761775424,4706.9,411.5714133126395,421.57142761775424,4813.4,411.5714133126395,421.57142761775424,4922]","[2633.2,2633.3,1000,0,1633.3,""smooth"",""left"",""left"",""good_move"",6399,3765.4,2180.4,2633.6,1585,""smooth"",""up"",""up"",""good_move"",9360.9,2961.5,2433.7,6399.4,527.8,""smooth"",""left"",""left"",""good_move"",12037.8,2676.6,2262,9361.2,414.6,""oops"",""up"",""down"",""bad_move"",15510.3,3472.2,3025,12038.1,447.2,""smooth"",""up"",""up"",""good_move"",18094.5,2583.9,2057.9,15510.6,526,""oops"",""up"",""down"",""bad_move"",21298.4,3203.6,2518.3,18094.8,685.3,""oops"",""down"",""down"",""bad_move"",24978.8,3680.2,3070.9,21298.6,609.3,""oops"",""up"",""down"",""bad_move"",29042.2,4063.3,2600.6,28095.8,-1654.2,""error"",""-"",""-"",""no_move"",34286.5,5243.9,2916.8,30049.6,1320.1,""oops"",""left"",""down"",""bad_move""]","",""
"3192","","<div style=""width:500px;"">
  <p>What determined the result of this run?</p>
  </div>","77","html-slider-response","60","936291","0.0-5.0-1.10","101","1","2025-07-16 10:38:47","1f75c3e559b7213887762d5229550c2b","102.221.201.13","Mozilla/5.0 (Windows NT 10.0; Win64; x64) AppleWebKit/537.36 (KHTML, like Gecko) Chrome/138.0.0.0 Safari/537.36 Edg/138.0.0.0","WebKit","Edge","138.0.0.0","Windows","10.0","https://app.prolific.com/","en-US,en;q=0.9,en-ZA;q=0.8","606e3cce02e2e8a8c965ca75","686e379bc37a29ffa5cdc956","68777cf9fb003201f56dba4a","1","1","606e3cce02e2e8a8c965ca75","1","1","2025-07-16T10:54:25.572Z","","","","","","","","","","","AttribQ","","50","","","","","","","","","","","","","","","","","","","","","","","","","","","","",""
"3413","","<div style=""width:500px;"">
  <p>How much control did you have over the ball?</p>
  </div>","75","html-slider-response","61","939705","0.0-5.0-2.10","101","1","2025-07-16 10:38:47","1f75c3e559b7213887762d5229550c2b","102.221.201.13","Mozilla/5.0 (Windows NT 10.0; Win64; x64) AppleWebKit/537.36 (KHTML, like Gecko) Chrome/138.0.0.0 Safari/537.36 Edg/138.0.0.0","WebKit","Edge","138.0.0.0","Windows","10.0","https://app.prolific.com/","en-US,en;q=0.9,en-ZA;q=0.8","606e3cce02e2e8a8c965ca75","686e379bc37a29ffa5cdc956","68777cf9fb003201f56dba4a","1","1","606e3cce02e2e8a8c965ca75","1","1","2025-07-16T10:54:28.986Z","","","","","","","","","","","ControlQ","","50","","","","","","","","","","","","","","","","","","","","","","","","","","","","",""
"4078","","<div style=""width:500px;"">
  <p>How would you describe your current emotional state?</p>
  </div>","100","html-slider-response","62","943784","0.0-5.0-3.10","101","1","2025-07-16 10:38:47","1f75c3e559b7213887762d5229550c2b","102.221.201.13","Mozilla/5.0 (Windows NT 10.0; Win64; x64) AppleWebKit/537.36 (KHTML, like Gecko) Chrome/138.0.0.0 Safari/537.36 Edg/138.0.0.0","WebKit","Edge","138.0.0.0","Windows","10.0","https://app.prolific.com/","en-US,en;q=0.9,en-ZA;q=0.8","606e3cce02e2e8a8c965ca75","686e379bc37a29ffa5cdc956","68777cf9fb003201f56dba4a","1","1","606e3cce02e2e8a8c965ca75","1","1","2025-07-16T10:54:33.065Z","","","","","","","","","","","StressQ","","50","","","","","","","","","","","","","","","","","","","","","","","","","","","","",""
"4310","","<div style=""width:500px;"">
  <p>What best describes how you currently feel?</p>
  </div>","77","html-slider-response","63","948095","0.0-5.0-4.10","101","1","2025-07-16 10:38:47","1f75c3e559b7213887762d5229550c2b","102.221.201.13","Mozilla/5.0 (Windows NT 10.0; Win64; x64) AppleWebKit/537.36 (KHTML, like Gecko) Chrome/138.0.0.0 Safari/537.36 Edg/138.0.0.0","WebKit","Edge","138.0.0.0","Windows","10.0","https://app.prolific.com/","en-US,en;q=0.9,en-ZA;q=0.8","606e3cce02e2e8a8c965ca75","686e379bc37a29ffa5cdc956","68777cf9fb003201f56dba4a","1","1","606e3cce02e2e8a8c965ca75","1","1","2025-07-16T10:54:37.376Z","","","","","","","","","","","MotivationQ","","50","","","","","","","","","","","","","","","","","","","","","","","","","","","","",""
"","","","","ctl-task-cpt","64","976134","0.0-5.0-0.11","101","1","2025-07-16 10:38:47","1f75c3e559b7213887762d5229550c2b","102.221.201.13","Mozilla/5.0 (Windows NT 10.0; Win64; x64) AppleWebKit/537.36 (KHTML, like Gecko) Chrome/138.0.0.0 Safari/537.36 Edg/138.0.0.0","WebKit","Edge","138.0.0.0","Windows","10.0","https://app.prolific.com/","en-US,en;q=0.9,en-ZA;q=0.8","606e3cce02e2e8a8c965ca75","686e379bc37a29ffa5cdc956","68777cf9fb003201f56dba4a","1","1","606e3cce02e2e8a8c965ca75","1","1","2025-07-16T10:55:05.415Z","","","","","","","","","","","","","","win-only","0","g1:NW,g2:SE","0.6","12","0","950205","1412.8","6416.7","25010.1","1","4","8","6","2","8","8","8","0","0.06060606060606061","5003.9","3000","1550","[""down"",""right""]","{""num_key_presses"":6,""num_perfect"":3,""num_errors"":0,""num_randdir"":3,""num_randdir_good_moves"":3,""num_whilered"":0,""num_whileblue"":0,""num_blue"":0,""num_good_moves"":6}","[421.5714133126395,415.32142761775424,0.2,421.5714133126395,415.32142761775424,106,421.5714133126395,415.32142761775424,211.1,421.5714133126395,415.32142761775424,328.6,421.5714133126395,415.32142761775424,441.7,421.5714133126395,415.32142761775424,551.6,421.5714133126395,415.32142761775424,654,421.5714133126395,415.32142761775424,771.6,421.5714133126395,415.32142761775424,883.3,421.5714133126395,415.32142761775424,995.1,421.5714133126395,415.32142761775424,1108.9,421.5714133126395,415.32142761775424,1226.6,421.5714133126395,415.32142761775424,1336.7,421.5714133126395,415.32142761775424,1454.9,421.5714133126395,415.32142761775424,1564.5,421.5714133126395,415.32142761775424,1670.8,421.5714133126395,415.32142761775424,1781.4,421.5714133126395,415.32142761775424,1882.6,421.5714133126395,415.32142761775424,1984.1,421.5714133126395,415.32142761775424,2098.5,421.5714133126395,415.32142761775424,2205,421.5714133126395,415.32142761775424,2317.8,421.5714133126395,415.32142761775424,2430.1,421.5714133126395,415.32142761775424,2544.8,421.5714133126395,415.32142761775424,2656,421.5714133126395,415.32142761775424,2772,421.5714133126395,415.32142761775424,2873.8,421.5714133126395,415.32142761775424,2982.6,421.5714133126395,415.32142761775424,3090.3,421.5714133126395,415.32142761775424,3196.9,421.5714133126395,415.32142761775424,3306.3,421.5714133126395,415.32142761775424,3416.4,421.5714133126395,415.32142761775424,3528.1,421.5714133126395,415.32142761775424,3629.3,421.5714133126395,415.32142761775424,3747,421.5714133126395,415.32142761775424,3849.5,421.5714133126395,415.32142761775424,3950.5,421.5714133126395,415.32142761775424,4073.5,421.5714133126395,415.32142761775424,4186.1,421.5714133126395,415.32142761775424,4297.8,421.5714133126395,415.32142761775424,4399,421.5714133126395,415.32142761775424,4500.1,421.5714133126395,415.32142761775424,4610.4,421.5714133126395,415.32142761775424,4727.3,421.5714133126395,415.32142761775424,4834.3,421.5714133126395,415.32142761775424,4952.4]","[2842,2842,1000,0,1842,""smooth"",""down"",""down"",""good_move"",5270.6,2428.2,1632.7,2842.4,795.5,""oops"",""down"",""right"",""good_move"",8634.9,3363,2890.4,5272,472.5,""smooth"",""down"",""down"",""good_move"",10965.8,2330.7,1729.9,8635.1,600.9,""oops"",""down"",""right"",""good_move"",14663.2,3697.1,3094.5,10966.1,602.6,""oops"",""down"",""right"",""good_move"",18295.5,3632.2,3190.7,14663.3,441.5,""smooth"",""down"",""down"",""good_move""]","",""
"4832","","<div style=""width:500px;"">
  <p>What determined the result of this run?</p>
  </div>","86","html-slider-response","65","980966","0.0-5.0-1.11","101","1","2025-07-16 10:38:47","1f75c3e559b7213887762d5229550c2b","102.221.201.13","Mozilla/5.0 (Windows NT 10.0; Win64; x64) AppleWebKit/537.36 (KHTML, like Gecko) Chrome/138.0.0.0 Safari/537.36 Edg/138.0.0.0","WebKit","Edge","138.0.0.0","Windows","10.0","https://app.prolific.com/","en-US,en;q=0.9,en-ZA;q=0.8","606e3cce02e2e8a8c965ca75","686e379bc37a29ffa5cdc956","68777cf9fb003201f56dba4a","1","1","606e3cce02e2e8a8c965ca75","1","1","2025-07-16T10:55:10.247Z","","","","","","","","","","","AttribQ","","50","","","","","","","","","","","","","","","","","","","","","","","","","","","","",""
"4914","","<div style=""width:500px;"">
  <p>How much control did you have over the ball?</p>
  </div>","87","html-slider-response","66","985881","0.0-5.0-2.11","101","1","2025-07-16 10:38:47","1f75c3e559b7213887762d5229550c2b","102.221.201.13","Mozilla/5.0 (Windows NT 10.0; Win64; x64) AppleWebKit/537.36 (KHTML, like Gecko) Chrome/138.0.0.0 Safari/537.36 Edg/138.0.0.0","WebKit","Edge","138.0.0.0","Windows","10.0","https://app.prolific.com/","en-US,en;q=0.9,en-ZA;q=0.8","606e3cce02e2e8a8c965ca75","686e379bc37a29ffa5cdc956","68777cf9fb003201f56dba4a","1","1","606e3cce02e2e8a8c965ca75","1","1","2025-07-16T10:55:15.162Z","","","","","","","","","","","ControlQ","","50","","","","","","","","","","","","","","","","","","","","","","","","","","","","",""
"4423","","<div style=""width:500px;"">
  <p>How would you describe your current emotional state?</p>
  </div>","5","html-slider-response","67","990305","0.0-5.0-3.11","101","1","2025-07-16 10:38:47","1f75c3e559b7213887762d5229550c2b","102.221.201.13","Mozilla/5.0 (Windows NT 10.0; Win64; x64) AppleWebKit/537.36 (KHTML, like Gecko) Chrome/138.0.0.0 Safari/537.36 Edg/138.0.0.0","WebKit","Edge","138.0.0.0","Windows","10.0","https://app.prolific.com/","en-US,en;q=0.9,en-ZA;q=0.8","606e3cce02e2e8a8c965ca75","686e379bc37a29ffa5cdc956","68777cf9fb003201f56dba4a","1","1","606e3cce02e2e8a8c965ca75","1","1","2025-07-16T10:55:19.586Z","","","","","","","","","","","StressQ","","50","","","","","","","","","","","","","","","","","","","","","","","","","","","","",""
"3367","","<div style=""width:500px;"">
  <p>What best describes how you currently feel?</p>
  </div>","88","html-slider-response","68","993673","0.0-5.0-4.11","101","1","2025-07-16 10:38:47","1f75c3e559b7213887762d5229550c2b","102.221.201.13","Mozilla/5.0 (Windows NT 10.0; Win64; x64) AppleWebKit/537.36 (KHTML, like Gecko) Chrome/138.0.0.0 Safari/537.36 Edg/138.0.0.0","WebKit","Edge","138.0.0.0","Windows","10.0","https://app.prolific.com/","en-US,en;q=0.9,en-ZA;q=0.8","606e3cce02e2e8a8c965ca75","686e379bc37a29ffa5cdc956","68777cf9fb003201f56dba4a","1","1","606e3cce02e2e8a8c965ca75","1","1","2025-07-16T10:55:22.954Z","","","","","","","","","","","MotivationQ","","50","","","","","","","","","","","","","","","","","","","","","","","","","","","","",""
"","","","","ctl-task-cpt","69","1027646","0.0-5.0-0.12","101","1","2025-07-16 10:38:47","1f75c3e559b7213887762d5229550c2b","102.221.201.13","Mozilla/5.0 (Windows NT 10.0; Win64; x64) AppleWebKit/537.36 (KHTML, like Gecko) Chrome/138.0.0.0 Safari/537.36 Edg/138.0.0.0","WebKit","Edge","138.0.0.0","Windows","10.0","https://app.prolific.com/","en-US,en;q=0.9,en-ZA;q=0.8","606e3cce02e2e8a8c965ca75","686e379bc37a29ffa5cdc956","68777cf9fb003201f56dba4a","1","1","606e3cce02e2e8a8c965ca75","1","1","2025-07-16T10:55:56.927Z","","","","","","","","","","","","","","win-only","3","g1:SW,g2:NE","0.7","13","0","995782.6","1942.3","6948.8","30946.1","1","4","4","6","1","1","1","9","8","0.06818181818181818","5006.5","3000","1595","[""down"",""left""]","{""num_key_presses"":8,""num_perfect"":5,""num_errors"":0,""num_randdir"":3,""num_randdir_good_moves"":1,""num_whilered"":0,""num_whileblue"":0,""num_blue"":0,""num_good_moves"":6}","[411.5714133126395,419.07142761775424,0.2,411.5714133126395,419.07142761775424,117,411.5714133126395,419.07142761775424,225.2,411.5714133126395,419.07142761775424,333.5,411.5714133126395,419.07142761775424,433.6,411.5714133126395,419.07142761775424,549.7,411.5714133126395,419.07142761775424,652.1,411.5714133126395,419.07142761775424,767.6,411.5714133126395,419.07142761775424,868.6,411.5714133126395,419.07142761775424,983.5,411.5714133126395,419.07142761775424,1102.2,411.5714133126395,419.07142761775424,1220.4,411.5714133126395,419.07142761775424,1330.1,411.5714133126395,419.07142761775424,1442.7,411.5714133126395,419.07142761775424,1549.6,411.5714133126395,419.07142761775424,1649.6,411.5714133126395,419.07142761775424,1750.8,411.5714133126395,419.07142761775424,1870.1,411.5714133126395,419.07142761775424,1979.1,411.5714133126395,419.07142761775424,2083.8,411.5714133126395,419.07142761775424,2187.5,411.5714133126395,419.07142761775424,2305.5,411.5714133126395,419.07142761775424,2406.4,411.5714133126395,419.07142761775424,2523.8,411.5714133126395,419.07142761775424,2635.2,411.5714133126395,419.07142761775424,2736.1,411.5714133126395,419.07142761775424,2845,411.5714133126395,419.07142761775424,2948.6,411.5714133126395,419.07142761775424,3056.1,411.5714133126395,420.32142761775424,3162.1,411.5714133126395,420.32142761775424,3266.8,411.5714133126395,421.57142761775424,3385.5,410.3214133126395,421.57142761775424,3495.7,409.0714133126395,422.82142761775424,3597.7,409.0714133126395,424.07142761775424,3698.3,409.0714133126395,425.32142761775424,3807.3,409.0714133126395,425.32142761775424,3916.2,409.0714133126395,425.32142761775424,4022.9,409.0714133126395,426.57142761775424,4126.3,406.5714133126395,426.57142761775424,4236.4,406.5714133126395,427.82142761775424,4350.7,406.5714133126395,427.82142761775424,4458.8,406.5714133126395,427.82142761775424,4560.2,401.5714133126395,431.57142761775424,4663.6,396.5714133126395,436.57142761775424,4779.2,394.0714133126395,440.32142761775424,4887.5,394.0714133126395,440.32142761775424,4988.4]","[1955.2,1955.2,1000,0,955.2,""oops"",""left"",""up"",""bad_move"",5287.4,3331.9,2598.8,1955.5,733.1,""smooth"",""down"",""down"",""good_move"",8450.7,3162.8,2643.4,5287.9,519.4,""smooth"",""down"",""down"",""good_move"",11241.4,2790.5,1992.5,8451,797.9,""smooth"",""down"",""down"",""good_move"",14567.4,3325.8,2789.9,11241.6,536,""oops"",""left"",""up"",""bad_move"",17907.1,3339.5,2330.9,14567.6,1008.6,""smooth"",""left"",""left"",""good_move"",20863.8,2956.4,2414.7,17907.4,541.7,""smooth"",""left"",""left"",""good_move"",23735.9,2871.8,2362.4,20864.1,509.4,""oops"",""down"",""down"",""good_move""]","",""
"7216","","<div style=""width:500px;"">
  <p>What determined the result of this run?</p>
  </div>","86","html-slider-response","70","1034863","0.0-5.0-1.12","101","1","2025-07-16 10:38:47","1f75c3e559b7213887762d5229550c2b","102.221.201.13","Mozilla/5.0 (Windows NT 10.0; Win64; x64) AppleWebKit/537.36 (KHTML, like Gecko) Chrome/138.0.0.0 Safari/537.36 Edg/138.0.0.0","WebKit","Edge","138.0.0.0","Windows","10.0","https://app.prolific.com/","en-US,en;q=0.9,en-ZA;q=0.8","606e3cce02e2e8a8c965ca75","686e379bc37a29ffa5cdc956","68777cf9fb003201f56dba4a","1","1","606e3cce02e2e8a8c965ca75","1","1","2025-07-16T10:56:04.144Z","","","","","","","","","","","AttribQ","","50","","","","","","","","","","","","","","","","","","","","","","","","","","","","",""
"2717","","<div style=""width:500px;"">
  <p>How much control did you have over the ball?</p>
  </div>","90","html-slider-response","71","1037580","0.0-5.0-2.12","101","1","2025-07-16 10:38:47","1f75c3e559b7213887762d5229550c2b","102.221.201.13","Mozilla/5.0 (Windows NT 10.0; Win64; x64) AppleWebKit/537.36 (KHTML, like Gecko) Chrome/138.0.0.0 Safari/537.36 Edg/138.0.0.0","WebKit","Edge","138.0.0.0","Windows","10.0","https://app.prolific.com/","en-US,en;q=0.9,en-ZA;q=0.8","606e3cce02e2e8a8c965ca75","686e379bc37a29ffa5cdc956","68777cf9fb003201f56dba4a","1","1","606e3cce02e2e8a8c965ca75","1","1","2025-07-16T10:56:06.861Z","","","","","","","","","","","ControlQ","","50","","","","","","","","","","","","","","","","","","","","","","","","","","","","",""
"5427","","<div style=""width:500px;"">
  <p>How would you describe your current emotional state?</p>
  </div>","8","html-slider-response","72","1043008","0.0-5.0-3.12","101","1","2025-07-16 10:38:47","1f75c3e559b7213887762d5229550c2b","102.221.201.13","Mozilla/5.0 (Windows NT 10.0; Win64; x64) AppleWebKit/537.36 (KHTML, like Gecko) Chrome/138.0.0.0 Safari/537.36 Edg/138.0.0.0","WebKit","Edge","138.0.0.0","Windows","10.0","https://app.prolific.com/","en-US,en;q=0.9,en-ZA;q=0.8","606e3cce02e2e8a8c965ca75","686e379bc37a29ffa5cdc956","68777cf9fb003201f56dba4a","1","1","606e3cce02e2e8a8c965ca75","1","1","2025-07-16T10:56:12.289Z","","","","","","","","","","","StressQ","","50","","","","","","","","","","","","","","","","","","","","","","","","","","","","",""
"4112","","<div style=""width:500px;"">
  <p>What best describes how you currently feel?</p>
  </div>","84","html-slider-response","73","1047121","0.0-5.0-4.12","101","1","2025-07-16 10:38:47","1f75c3e559b7213887762d5229550c2b","102.221.201.13","Mozilla/5.0 (Windows NT 10.0; Win64; x64) AppleWebKit/537.36 (KHTML, like Gecko) Chrome/138.0.0.0 Safari/537.36 Edg/138.0.0.0","WebKit","Edge","138.0.0.0","Windows","10.0","https://app.prolific.com/","en-US,en;q=0.9,en-ZA;q=0.8","606e3cce02e2e8a8c965ca75","686e379bc37a29ffa5cdc956","68777cf9fb003201f56dba4a","1","1","606e3cce02e2e8a8c965ca75","1","1","2025-07-16T10:56:16.402Z","","","","","","","","","","","MotivationQ","","50","","","","","","","","","","","","","","","","","","","","","","","","","","","","",""
"","","","","ctl-task-cpt","74","1117897","0.0-5.0-0.13","101","1","2025-07-16 10:38:47","1f75c3e559b7213887762d5229550c2b","102.221.201.13","Mozilla/5.0 (Windows NT 10.0; Win64; x64) AppleWebKit/537.36 (KHTML, like Gecko) Chrome/138.0.0.0 Safari/537.36 Edg/138.0.0.0","WebKit","Edge","138.0.0.0","Windows","10.0","https://app.prolific.com/","en-US,en;q=0.9,en-ZA;q=0.8","606e3cce02e2e8a8c965ca75","686e379bc37a29ffa5cdc956","68777cf9fb003201f56dba4a","1","1","606e3cce02e2e8a8c965ca75","1","1","2025-07-16T10:57:27.178Z","","","","","","","","","","","","","","win-only","2","g1:SE,g2:NW","0.8","14","0","1049230.8","3030.1","8038.9","67749.8","1","4","8","6","2","-8","-8","1","9","0.007575757575757576","5008.8","3000","-920","[""left"",""up""]","{""num_key_presses"":14,""num_perfect"":11,""num_errors"":0,""num_randdir"":3,""num_randdir_good_moves"":2,""num_whilered"":0,""num_whileblue"":0,""num_blue"":3,""num_good_moves"":7}","[412.8214133126395,410.32142761775424,0.3,412.8214133126395,410.32142761775424,112.9,412.8214133126395,410.32142761775424,225.8,412.8214133126395,410.32142761775424,341.3,412.8214133126395,410.32142761775424,447.7,412.8214133126395,410.32142761775424,549.8,412.8214133126395,410.32142761775424,663.1,412.8214133126395,410.32142761775424,767.9,412.8214133126395,410.32142761775424,879.6,412.8214133126395,410.32142761775424,994.3,412.8214133126395,410.32142761775424,1100.9,412.8214133126395,410.32142761775424,1216.3,412.8214133126395,410.32142761775424,1317.2,412.8214133126395,410.32142761775424,1421.1,412.8214133126395,410.32142761775424,1523.4,412.8214133126395,410.32142761775424,1642.3,412.8214133126395,410.32142761775424,1749.9,412.8214133126395,410.32142761775424,1864.9,412.8214133126395,410.32142761775424,1979.4,412.8214133126395,410.32142761775424,2081.4,412.8214133126395,410.32142761775424,2186.6,412.8214133126395,410.32142761775424,2288.2,412.8214133126395,410.32142761775424,2389.8,412.8214133126395,410.32142761775424,2494.4,412.8214133126395,410.32142761775424,2597,412.8214133126395,410.32142761775424,2701.4,412.8214133126395,410.32142761775424,2814.1,412.8214133126395,410.32142761775424,2928.4,412.8214133126395,410.32142761775424,3044.7,412.8214133126395,410.32142761775424,3152.2,412.8214133126395,410.32142761775424,3256.9,412.8214133126395,410.32142761775424,3362.3,412.8214133126395,410.32142761775424,3466.9,412.8214133126395,410.32142761775424,3586.1,412.8214133126395,410.32142761775424,3693.6,412.8214133126395,410.32142761775424,3811.9,412.8214133126395,410.32142761775424,3925.8,412.8214133126395,410.32142761775424,4044.2,412.8214133126395,410.32142761775424,4144.9,412.8214133126395,410.32142761775424,4247.5,412.8214133126395,410.32142761775424,4361.3,412.8214133126395,410.32142761775424,4464.2,412.8214133126395,410.32142761775424,4579.9,412.8214133126395,410.32142761775424,4684.5,412.8214133126395,410.32142761775424,4795.5,412.8214133126395,410.32142761775424,4909.4]","[1816.8,1816.8,1000,0,816.8,""smooth"",""up"",""up"",""good_move"",5184.3,3367.2,1891.8,1817.1,1475.4,""smooth"",""up"",""up"",""good_move"",8836,3651.5,2996.2,5184.5,655.3,""smooth"",""up"",""up"",""good_move"",12087.4,3250.8,2100,8836.6,1150.8,""smooth"",""up"",""right"",""bad_move"",20897,8809.4,1885.8,18497.7,513.6,""smooth"",""up"",""right"",""bad_move"",24446.6,3549.4,2696,20897.3,853.4,""oops"",""right"",""up"",""good_move"",28073.7,3626.3,2530.9,24447.4,1095.4,""smooth"",""down"",""down"",""bad_move"",31338.9,3264.8,2142.9,28074.1,1121.9,""oops"",""down"",""left"",""good_move"",34826.1,3487.1,2476.1,31339.1,1010.9,""smooth"",""down"",""down"",""bad_move"",41865.4,7039.2,2142,39216.7,506.7,""smooth"",""down"",""down"",""bad_move"",45961.8,4096.3,2613.3,41865.5,1483,""smooth"",""left"",""left"",""good_move"",49663.8,3701.2,3099.5,45962.6,601.7,""oops"",""left"",""right"",""bad_move"",53332.4,3668.3,2969.4,49664.1,698.9,""smooth"",""left"",""left"",""good_move"",57297.6,3965,2644.3,53332.6,1320.7,""smooth"",""down"",""down"",""bad_move""]","",""
"5033","","<div style=""width:500px;"">
  <p>What determined the result of this run?</p>
