"rt","response_timestamp","stimulus","response","trial_type","trial_index","time_elapsed","internal_node_id","run_id","condition","recorded_at","source_code_version","ip","user_agent","device","browser","browser_version","platform","platform_version","referer","accept_language","PROLIFIC_PID","STUDY_ID","SESSION_ID","WEEK","BATCH","prolific_id","week","batch","realtime","success","responses","item_order","radio_event_ids","radio_event_times","key_event_times","mouse_event_times","straightlining","zigzagging","honeypot","eventType","view_history","slider_start","which_type","canvas_config","goals_layout","control_level","trial_number","tutorial_trial_number","trial_start_time","phase1_start_time","phase2_start_time","phase3_start_time","goal_1_value","goal_1_distance","goal_2_value","goal_2_distance","goal_selected","outcome","outcome_total","participant_final_score","participant_initial_score","participant_final_score_prop","goal_choice_rt","allocated_time","allocated_time_remaining","goal_direction","counts","mouse_movements","key_presses","question_order","question_id"
"1949","1753266740855","<p style='font-size:40px;line-height:1.25'><strong>Welcome to the experiment!</strong></p><p style='font-size:1.1em;line-height:1.25'>Thank you for participanting in our experiment again! You will be asked to play the Dysfunctional Ball Game again. We will briefly recap the rules before we start.</p><p style='font-size:1.1em;line-height:1.25'>Press <strong>Next</strong> to continue.</p>","0","custom-html-button-response","0","1952","0.0-0.0","209","1","2025-07-23 10:32:17","1f75c3e559b7213887762d5229550c2b","102.221.201.12","Mozilla/5.0 (Windows NT 10.0; Win64; x64) AppleWebKit/537.36 (KHTML, like Gecko) Chrome/138.0.0.0 Safari/537.36 Edg/138.0.0.0","WebKit","Edge","138.0.0.0","Windows","10.0","https://app.prolific.com/","en-US,en;q=0.9,en-ZA;q=0.8","606e3cce02e2e8a8c965ca75","683db9eb0562dbf637994deb","6880b9df2ba19161174ebb57","2","1","606e3cce02e2e8a8c965ca75","2","1","2025-07-23T10:32:20.856Z","","","","","","","","","","","","","","","","","","","","","","","","","","","","","","","","","","","","","","","","","",""
"1857","","","","fullscreen","1","4828","0.0-1.0","209","1","2025-07-23 10:32:17","1f75c3e559b7213887762d5229550c2b","102.221.201.12","Mozilla/5.0 (Windows NT 10.0; Win64; x64) AppleWebKit/537.36 (KHTML, like Gecko) Chrome/138.0.0.0 Safari/537.36 Edg/138.0.0.0","WebKit","Edge","138.0.0.0","Windows","10.0","https://app.prolific.com/","en-US,en;q=0.9,en-ZA;q=0.8","606e3cce02e2e8a8c965ca75","683db9eb0562dbf637994deb","6880b9df2ba19161174ebb57","2","1","606e3cce02e2e8a8c965ca75","2","1","","true","","","","","","","","","","","","","","","","","","","","","","","","","","","","","","","","","","","","","","","","",""
"1963","1753266745696","<p style='font-size:1.1em;line-height:1.25'>In the following, we will ask you a few questions relating to your feelings in the last 24 hours.<br></p><p style='font-size:1.1em;line-height:1.25'>Press the <strong>Next</strong> button to continue.</p>","0","custom-html-button-response","2","6793","0.0-2.0-0.0","209","1","2025-07-23 10:32:17","1f75c3e559b7213887762d5229550c2b","102.221.201.12","Mozilla/5.0 (Windows NT 10.0; Win64; x64) AppleWebKit/537.36 (KHTML, like Gecko) Chrome/138.0.0.0 Safari/537.36 Edg/138.0.0.0","WebKit","Edge","138.0.0.0","Windows","10.0","https://app.prolific.com/","en-US,en;q=0.9,en-ZA;q=0.8","606e3cce02e2e8a8c965ca75","683db9eb0562dbf637994deb","6880b9df2ba19161174ebb57","2","1","606e3cce02e2e8a8c965ca75","2","1","2025-07-23T10:32:25.697Z","","","","","","","","","","","","","","","","","","","","","","","","","","","","","","","","","","","","","","","","","",""
"131085.70000004768","","","","survey-template","3","137888","0.0-2.0-1.0","209","1","2025-07-23 10:32:17","1f75c3e559b7213887762d5229550c2b","102.221.201.12","Mozilla/5.0 (Windows NT 10.0; Win64; x64) AppleWebKit/537.36 (KHTML, like Gecko) Chrome/138.0.0.0 Safari/537.36 Edg/138.0.0.0","WebKit","Edge","138.0.0.0","Windows","10.0","https://app.prolific.com/","en-US,en;q=0.9,en-ZA;q=0.8","606e3cce02e2e8a8c965ca75","683db9eb0562dbf637994deb","6880b9df2ba19161174ebb57","2","1","606e3cce02e2e8a8c965ca75","2","1","2025-07-23T10:34:36.792Z","","{""Q01"":""0"",""Q02"":""0"",""Q03"":""0"",""Q04"":""0"",""Q05"":""0"",""Q06"":""0"",""Q07"":""0"",""Q08"":""0"",""Q09"":""0"",""Q10"":""0"",""Q11"":""0"",""Q12"":""4"",""Q13"":""5"",""Q14"":""2"",""Q15"":""1"",""Q16"":""0"",""Q17"":""0"",""Q18"":""0"",""Q19"":""2"",""Q20"":""0"",""Q21"":""0"",""Q22"":""0""}","[0,1,2,3,4,5,6,7,8,9,10,11,12,13,14,15,16,17,18,19,20,21]","[""Q01"",""Q02"",""Q03"",""Q04"",""Q05"",""Q06"",""Q07"",""Q08"",""Q09"",""Q10"",""Q11"",""Q12"",""Q13"",""Q14"",""Q15"",""Q16"",""Q17"",""Q18"",""Q19"",""Q20"",""Q21"",""Q22""]","[8245.399999856949,9855.700000047684,11442.599999904633,15867.599999904633,17279.89999985695,21595.099999904633,26229.599999904633,29420.200000047684,33425.89999985695,39565.799999952316,53992.5,57877.5,64611.5,73103.29999995232,77123.79999995232,81419.79999995232,83606.20000004768,85558.20000004768,93729.29999995232,103160.20000004768,109880.89999985695,115295.59999990463]","[]","[0.20000004768371582,8245.399999856949,9855.700000047684,11442.599999904633,14417,15867.599999904633,17279.89999985695,21595.099999904633,24409,26229.599999904633,29420.200000047684,33425.89999985695,36580.799999952316,38026.09999990463,39565.799999952316,53992.5,57877.5,64611.5,73103.29999995232,77123.79999995232,81419.79999995232,83606.20000004768,85558.20000004768,93729.29999995232,103160.20000004768,108547.09999990463,109880.89999985695,115295.59999990463,131079.09999990463]","0.7727272727272727","0.14285714285714285","0","drsp","","","","","","","","","","","","","","","","","","","","","","","","","","","","","","",""
"25001.400000095367","","","","survey-template","4","162892","0.0-2.0-2.0","209","1","2025-07-23 10:32:17","1f75c3e559b7213887762d5229550c2b","102.221.201.12","Mozilla/5.0 (Windows NT 10.0; Win64; x64) AppleWebKit/537.36 (KHTML, like Gecko) Chrome/138.0.0.0 Safari/537.36 Edg/138.0.0.0","WebKit","Edge","138.0.0.0","Windows","10.0","https://app.prolific.com/","en-US,en;q=0.9,en-ZA;q=0.8","606e3cce02e2e8a8c965ca75","683db9eb0562dbf637994deb","6880b9df2ba19161174ebb57","2","1","606e3cce02e2e8a8c965ca75","2","1","2025-07-23T10:35:01.796Z","","{""Q01"":""0"",""Q02"":""4"",""Q03"":""0""}","[0,1,2]","[""Q01"",""Q02"",""Q03""]","[6978.300000190735,18023.10000014305,23485.900000095367]","[]","[6978.300000190735,18023.10000014305,23485.900000095367,25000.200000047684]","0.6666666666666666","1","0","stress","","","","","","","","","","","","","","","","","","","","","","","","","","","","","","",""
"32326","","","","instructions","5","195220","0.0-3.0-0.0","209","1","2025-07-23 10:32:17","1f75c3e559b7213887762d5229550c2b","102.221.201.12","Mozilla/5.0 (Windows NT 10.0; Win64; x64) AppleWebKit/537.36 (KHTML, like Gecko) Chrome/138.0.0.0 Safari/537.36 Edg/138.0.0.0","WebKit","Edge","138.0.0.0","Windows","10.0","https://app.prolific.com/","en-US,en;q=0.9,en-ZA;q=0.8","606e3cce02e2e8a8c965ca75","683db9eb0562dbf637994deb","6880b9df2ba19161174ebb57","2","1","606e3cce02e2e8a8c965ca75","2","1","","","","","","","","","","","","","[{""page_index"":0,""viewing_time"":32326}]","","","","","","","","","","","","","","","","","","","","","","","","","","","","","",""
"8895","","<p>Before you start with this game please answer the following three questions yourself. </p>
  <p>Through this game, we measure several aspects of your cognitive performance, such as reaction times, multi-tasking capabilities </p>
  <p>and the ability to assess the situation you are in.</p>
  <p></p>
  <p><b>How good do you usually are in such tasks?</b></p>","94","html-slider-response","6","204118","0.0-4.0-0.0","209","1","2025-07-23 10:32:17","1f75c3e559b7213887762d5229550c2b","102.221.201.12","Mozilla/5.0 (Windows NT 10.0; Win64; x64) AppleWebKit/537.36 (KHTML, like Gecko) Chrome/138.0.0.0 Safari/537.36 Edg/138.0.0.0","WebKit","Edge","138.0.0.0","Windows","10.0","https://app.prolific.com/","en-US,en;q=0.9,en-ZA;q=0.8","606e3cce02e2e8a8c965ca75","683db9eb0562dbf637994deb","6880b9df2ba19161174ebb57","2","1","606e3cce02e2e8a8c965ca75","2","1","2025-07-23T10:35:43.022Z","","","","","","","","","","","PreSkillQ","","50","","","","","","","","","","","","","","","","","","","","","","","","","","","","",""
"5850","","<div style=""width:500px;"">
  <p>How well do you think you will perform in this task compared to other participants?</p>
  </div>","89","html-slider-response","7","209970","0.0-4.0-1.0","209","1","2025-07-23 10:32:17","1f75c3e559b7213887762d5229550c2b","102.221.201.12","Mozilla/5.0 (Windows NT 10.0; Win64; x64) AppleWebKit/537.36 (KHTML, like Gecko) Chrome/138.0.0.0 Safari/537.36 Edg/138.0.0.0","WebKit","Edge","138.0.0.0","Windows","10.0","https://app.prolific.com/","en-US,en;q=0.9,en-ZA;q=0.8","606e3cce02e2e8a8c965ca75","683db9eb0562dbf637994deb","6880b9df2ba19161174ebb57","2","1","606e3cce02e2e8a8c965ca75","2","1","2025-07-23T10:35:48.875Z","","","","","","","","","","","PrePerfQ","","50","","","","","","","","","","","","","","","","","","","","","","","","","","","","",""
"19182","","<div style=""width:500px;"">
  <p>What best describes how you currently feel?</p>
  </div>","89","html-slider-response","8","229154","0.0-4.0-2.0","209","1","2025-07-23 10:32:17","1f75c3e559b7213887762d5229550c2b","102.221.201.12","Mozilla/5.0 (Windows NT 10.0; Win64; x64) AppleWebKit/537.36 (KHTML, like Gecko) Chrome/138.0.0.0 Safari/537.36 Edg/138.0.0.0","WebKit","Edge","138.0.0.0","Windows","10.0","https://app.prolific.com/","en-US,en;q=0.9,en-ZA;q=0.8","606e3cce02e2e8a8c965ca75","683db9eb0562dbf637994deb","6880b9df2ba19161174ebb57","2","1","606e3cce02e2e8a8c965ca75","2","1","2025-07-23T10:36:08.058Z","","","","","","","","","","","PreMotivationQ","","50","","","","","","","","","","","","","","","","","","","","","","","","","","","","",""
"","","","","ctl-task-cpt","9","259981","0.0-5.0-0.0","209","1","2025-07-23 10:32:17","1f75c3e559b7213887762d5229550c2b","102.221.201.12","Mozilla/5.0 (Windows NT 10.0; Win64; x64) AppleWebKit/537.36 (KHTML, like Gecko) Chrome/138.0.0.0 Safari/537.36 Edg/138.0.0.0","WebKit","Edge","138.0.0.0","Windows","10.0","https://app.prolific.com/","en-US,en;q=0.9,en-ZA;q=0.8","606e3cce02e2e8a8c965ca75","683db9eb0562dbf637994deb","6880b9df2ba19161174ebb57","2","1","606e3cce02e2e8a8c965ca75","2","1","2025-07-23T10:36:38.885Z","","","","","","","","","","","","","","win-only","3","g1:SW,g2:NE","1","1","0","230512.8","5600.3","10608.4","27811.7","1","4","8","6","2","8","8","8","0","0.06060606060606061","5008.1","3000","820","[""up"",""right""]","{""num_key_presses"":6,""num_perfect"":6,""num_errors"":0,""num_randdir"":0,""num_randdir_good_moves"":0,""num_whilered"":0,""num_whileblue"":0,""num_blue"":0,""num_good_moves"":6}","[404.0714133126395,412.82142761775424,0.3,404.0714133126395,412.82142761775424,101.8,404.0714133126395,412.82142761775424,202.5,404.0714133126395,412.82142761775424,303,404.0714133126395,412.82142761775424,413.6,404.0714133126395,412.82142761775424,515.5,404.0714133126395,412.82142761775424,623.9,404.0714133126395,412.82142761775424,727.7,404.0714133126395,412.82142761775424,828,404.0714133126395,412.82142761775424,928.6,404.0714133126395,412.82142761775424,1029.4,404.0714133126395,412.82142761775424,1133.4,404.0714133126395,412.82142761775424,1238.1,404.0714133126395,412.82142761775424,1344,404.0714133126395,412.82142761775424,1445.7,404.0714133126395,412.82142761775424,1561.3,404.0714133126395,412.82142761775424,1674,404.0714133126395,412.82142761775424,1776.5,404.0714133126395,412.82142761775424,1877,404.0714133126395,412.82142761775424,1978.2,404.0714133126395,412.82142761775424,2080.2,404.0714133126395,412.82142761775424,2184.1,404.0714133126395,412.82142761775424,2290.2,404.0714133126395,412.82142761775424,2392.8,404.0714133126395,412.82142761775424,2493.6,404.0714133126395,412.82142761775424,2601.9,404.0714133126395,412.82142761775424,2701.9,404.0714133126395,412.82142761775424,2809.1,404.0714133126395,412.82142761775424,2916,404.0714133126395,412.82142761775424,3025.5,404.0714133126395,412.82142761775424,3126.3,404.0714133126395,412.82142761775424,3228.3,404.0714133126395,412.82142761775424,3336.2,404.0714133126395,412.82142761775424,3439.8,404.0714133126395,412.82142761775424,3542.1,404.0714133126395,412.82142761775424,3643.1,404.0714133126395,412.82142761775424,3747.3,404.0714133126395,412.82142761775424,3848,404.0714133126395,412.82142761775424,3954.5,404.0714133126395,412.82142761775424,4058.3,404.0714133126395,412.82142761775424,4159.1,404.0714133126395,412.82142761775424,4263.8,404.0714133126395,412.82142761775424,4374.2,404.0714133126395,412.82142761775424,4475.6,404.0714133126395,412.82142761775424,4593,404.0714133126395,412.82142761775424,4697.4,404.0714133126395,412.82142761775424,4799.2,404.0714133126395,412.82142761775424,4907.4]","[1784.8,1784.8,1000,0,784.8,""smooth"",""up"",""up"",""good_move"",4456.2,2670.9,2113.7,1785.3,557.2,""smooth"",""up"",""up"",""good_move"",7649,3192.6,2698.6,4456.6,493.9,""smooth"",""up"",""up"",""good_move"",10995.4,3346.1,2856.6,7649.3,489.5,""smooth"",""up"",""right"",""good_move"",13702.7,2706.1,2251.6,10996.6,454.5,""smooth"",""up"",""right"",""good_move"",17078.2,3375.2,2926.4,13703.1,448.7,""smooth"",""up"",""right"",""good_move""]","",""
"5235","","<div style=""width:500px;"">
  <p>What determined the result of this run?</p>
  </div>","99","html-slider-response","10","265217","0.0-5.0-1.0","209","1","2025-07-23 10:32:17","1f75c3e559b7213887762d5229550c2b","102.221.201.12","Mozilla/5.0 (Windows NT 10.0; Win64; x64) AppleWebKit/537.36 (KHTML, like Gecko) Chrome/138.0.0.0 Safari/537.36 Edg/138.0.0.0","WebKit","Edge","138.0.0.0","Windows","10.0","https://app.prolific.com/","en-US,en;q=0.9,en-ZA;q=0.8","606e3cce02e2e8a8c965ca75","683db9eb0562dbf637994deb","6880b9df2ba19161174ebb57","2","1","606e3cce02e2e8a8c965ca75","2","1","2025-07-23T10:36:44.121Z","","","","","","","","","","","AttribQ","","50","","","","","","","","","","","","","","","","","","","","","","","","","","","","",""
"5151","","<div style=""width:500px;"">
  <p>How much control did you have over the ball?</p>
  </div>","95","html-slider-response","11","270369","0.0-5.0-2.0","209","1","2025-07-23 10:32:17","1f75c3e559b7213887762d5229550c2b","102.221.201.12","Mozilla/5.0 (Windows NT 10.0; Win64; x64) AppleWebKit/537.36 (KHTML, like Gecko) Chrome/138.0.0.0 Safari/537.36 Edg/138.0.0.0","WebKit","Edge","138.0.0.0","Windows","10.0","https://app.prolific.com/","en-US,en;q=0.9,en-ZA;q=0.8","606e3cce02e2e8a8c965ca75","683db9eb0562dbf637994deb","6880b9df2ba19161174ebb57","2","1","606e3cce02e2e8a8c965ca75","2","1","2025-07-23T10:36:49.274Z","","","","","","","","","","","ControlQ","","50","","","","","","","","","","","","","","","","","","","","","","","","","","","","",""
"4163","","<div style=""width:500px;"">
  <p>How would you describe your current emotional state?</p>
  </div>","1","html-slider-response","12","274534","0.0-5.0-3.0","209","1","2025-07-23 10:32:17","1f75c3e559b7213887762d5229550c2b","102.221.201.12","Mozilla/5.0 (Windows NT 10.0; Win64; x64) AppleWebKit/537.36 (KHTML, like Gecko) Chrome/138.0.0.0 Safari/537.36 Edg/138.0.0.0","WebKit","Edge","138.0.0.0","Windows","10.0","https://app.prolific.com/","en-US,en;q=0.9,en-ZA;q=0.8","606e3cce02e2e8a8c965ca75","683db9eb0562dbf637994deb","6880b9df2ba19161174ebb57","2","1","606e3cce02e2e8a8c965ca75","2","1","2025-07-23T10:36:53.438Z","","","","","","","","","","","StressQ","","50","","","","","","","","","","","","","","","","","","","","","","","","","","","","",""
"4876","","<div style=""width:500px;"">
  <p>What best describes how you currently feel?</p>
  </div>","96","html-slider-response","13","279411","0.0-5.0-4.0","209","1","2025-07-23 10:32:17","1f75c3e559b7213887762d5229550c2b","102.221.201.12","Mozilla/5.0 (Windows NT 10.0; Win64; x64) AppleWebKit/537.36 (KHTML, like Gecko) Chrome/138.0.0.0 Safari/537.36 Edg/138.0.0.0","WebKit","Edge","138.0.0.0","Windows","10.0","https://app.prolific.com/","en-US,en;q=0.9,en-ZA;q=0.8","606e3cce02e2e8a8c965ca75","683db9eb0562dbf637994deb","6880b9df2ba19161174ebb57","2","1","606e3cce02e2e8a8c965ca75","2","1","2025-07-23T10:36:58.316Z","","","","","","","","","","","MotivationQ","","50","","","","","","","","","","","","","","","","","","","","","","","","","","","","",""
"","","","","ctl-task-cpt","14","308836","0.0-5.0-0.1","209","1","2025-07-23 10:32:17","1f75c3e559b7213887762d5229550c2b","102.221.201.12","Mozilla/5.0 (Windows NT 10.0; Win64; x64) AppleWebKit/537.36 (KHTML, like Gecko) Chrome/138.0.0.0 Safari/537.36 Edg/138.0.0.0","WebKit","Edge","138.0.0.0","Windows","10.0","https://app.prolific.com/","en-US,en;q=0.9,en-ZA;q=0.8","606e3cce02e2e8a8c965ca75","683db9eb0562dbf637994deb","6880b9df2ba19161174ebb57","2","1","606e3cce02e2e8a8c965ca75","2","1","2025-07-23T10:37:27.740Z","","","","","","","","","","","","","","win-only","1","g1:NE,g2:SW","0.9","2","0","280767.7","1751.9","6759.3","26416.6","1","4","4","6","1","1","1","9","8","0.06818181818181818","5007.4","3000","1180","[""up"",""right""]","{""num_key_presses"":4,""num_perfect"":4,""num_errors"":0,""num_randdir"":0,""num_randdir_good_moves"":0,""num_whilered"":0,""num_whileblue"":0,""num_blue"":2,""num_good_moves"":4}","[416.5714133126395,425.32142761775424,1.1,416.5714133126395,425.32142761775424,101.2,416.5714133126395,425.32142761775424,209.8,416.5714133126395,425.32142761775424,310.1,416.5714133126395,425.32142761775424,410.4,416.5714133126395,425.32142761775424,514.6,416.5714133126395,425.32142761775424,626.5,416.5714133126395,425.32142761775424,726.8,416.5714133126395,425.32142761775424,833.7,416.5714133126395,425.32142761775424,936.2,416.5714133126395,425.32142761775424,1040.3,416.5714133126395,425.32142761775424,1144.4,416.5714133126395,425.32142761775424,1251.7,416.5714133126395,425.32142761775424,1359.7,416.5714133126395,425.32142761775424,1464,416.5714133126395,425.32142761775424,1564.6,416.5714133126395,425.32142761775424,1665.4,416.5714133126395,425.32142761775424,1767.2,416.5714133126395,425.32142761775424,1876,416.5714133126395,425.32142761775424,1981.4,416.5714133126395,425.32142761775424,2088.5,416.5714133126395,425.32142761775424,2188.5,416.5714133126395,425.32142761775424,2289.3,416.5714133126395,425.32142761775424,2394.7,416.5714133126395,425.32142761775424,2496.7,416.5714133126395,425.32142761775424,2604.7,416.5714133126395,425.32142761775424,2706.7,416.5714133126395,425.32142761775424,2807.3,416.5714133126395,425.32142761775424,2911.6,416.5714133126395,425.32142761775424,3014,416.5714133126395,425.32142761775424,3114.9,416.5714133126395,425.32142761775424,3223,416.5714133126395,425.32142761775424,3327.6,416.5714133126395,425.32142761775424,3430.8,416.5714133126395,425.32142761775424,3542.3,416.5714133126395,425.32142761775424,3651.7,416.5714133126395,425.32142761775424,3759,416.5714133126395,425.32142761775424,3859.8,416.5714133126395,425.32142761775424,3961.8,416.5714133126395,425.32142761775424,4066,416.5714133126395,425.32142761775424,4168.9,416.5714133126395,425.32142761775424,4276.4,416.5714133126395,425.32142761775424,4387,416.5714133126395,425.32142761775424,4492.8,416.5714133126395,425.32142761775424,4595.2,416.5714133126395,425.32142761775424,4698.8,416.5714133126395,425.32142761775424,4799.1,416.5714133126395,425.32142761775424,4905.7]","[5287.1,5287.1,2695.2,2005.5,586.4,""smooth"",""up"",""up"",""good_move"",8519.3,3231.8,2529.1,5287.5,702.7,""smooth"",""up"",""up"",""good_move"",11963.3,3443.8,2886.3,8519.6,557.4,""smooth"",""up"",""right"",""good_move"",19541,7577.4,3270.6,15768.2,502.2,""smooth"",""up"",""right"",""good_move""]","",""
"5132","","<div style=""width:500px;"">
  <p>What determined the result of this run?</p>
  </div>","100","html-slider-response","15","313970","0.0-5.0-1.1","209","1","2025-07-23 10:32:17","1f75c3e559b7213887762d5229550c2b","102.221.201.12","Mozilla/5.0 (Windows NT 10.0; Win64; x64) AppleWebKit/537.36 (KHTML, like Gecko) Chrome/138.0.0.0 Safari/537.36 Edg/138.0.0.0","WebKit","Edge","138.0.0.0","Windows","10.0","https://app.prolific.com/","en-US,en;q=0.9,en-ZA;q=0.8","606e3cce02e2e8a8c965ca75","683db9eb0562dbf637994deb","6880b9df2ba19161174ebb57","2","1","606e3cce02e2e8a8c965ca75","2","1","2025-07-23T10:37:32.874Z","","","","","","","","","","","AttribQ","","50","","","","","","","","","","","","","","","","","","","","","","","","","","","","",""
"3825","","<div style=""width:500px;"">
  <p>How much control did you have over the ball?</p>
  </div>","100","html-slider-response","16","317796","0.0-5.0-2.1","209","1","2025-07-23 10:32:17","1f75c3e559b7213887762d5229550c2b","102.221.201.12","Mozilla/5.0 (Windows NT 10.0; Win64; x64) AppleWebKit/537.36 (KHTML, like Gecko) Chrome/138.0.0.0 Safari/537.36 Edg/138.0.0.0","WebKit","Edge","138.0.0.0","Windows","10.0","https://app.prolific.com/","en-US,en;q=0.9,en-ZA;q=0.8","606e3cce02e2e8a8c965ca75","683db9eb0562dbf637994deb","6880b9df2ba19161174ebb57","2","1","606e3cce02e2e8a8c965ca75","2","1","2025-07-23T10:37:36.700Z","","","","","","","","","","","ControlQ","","50","","","","","","","","","","","","","","","","","","","","","","","","","","","","",""
"4108","","<div style=""width:500px;"">
  <p>How would you describe your current emotional state?</p>
  </div>","0","html-slider-response","17","321906","0.0-5.0-3.1","209","1","2025-07-23 10:32:17","1f75c3e559b7213887762d5229550c2b","102.221.201.12","Mozilla/5.0 (Windows NT 10.0; Win64; x64) AppleWebKit/537.36 (KHTML, like Gecko) Chrome/138.0.0.0 Safari/537.36 Edg/138.0.0.0","WebKit","Edge","138.0.0.0","Windows","10.0","https://app.prolific.com/","en-US,en;q=0.9,en-ZA;q=0.8","606e3cce02e2e8a8c965ca75","683db9eb0562dbf637994deb","6880b9df2ba19161174ebb57","2","1","606e3cce02e2e8a8c965ca75","2","1","2025-07-23T10:37:40.810Z","","","","","","","","","","","StressQ","","50","","","","","","","","","","","","","","","","","","","","","","","","","","","","",""
"4961","","<div style=""width:500px;"">
  <p>What best describes how you currently feel?</p>
  </div>","99","html-slider-response","18","326868","0.0-5.0-4.1","209","1","2025-07-23 10:32:17","1f75c3e559b7213887762d5229550c2b","102.221.201.12","Mozilla/5.0 (Windows NT 10.0; Win64; x64) AppleWebKit/537.36 (KHTML, like Gecko) Chrome/138.0.0.0 Safari/537.36 Edg/138.0.0.0","WebKit","Edge","138.0.0.0","Windows","10.0","https://app.prolific.com/","en-US,en;q=0.9,en-ZA;q=0.8","606e3cce02e2e8a8c965ca75","683db9eb0562dbf637994deb","6880b9df2ba19161174ebb57","2","1","606e3cce02e2e8a8c965ca75","2","1","2025-07-23T10:37:45.772Z","","","","","","","","","","","MotivationQ","","50","","","","","","","","","","","","","","","","","","","","","","","","","","","","",""
"","","","","ctl-task-cpt","19","367613","0.0-5.0-0.2","209","1","2025-07-23 10:32:17","1f75c3e559b7213887762d5229550c2b","102.221.201.12","Mozilla/5.0 (Windows NT 10.0; Win64; x64) AppleWebKit/537.36 (KHTML, like Gecko) Chrome/138.0.0.0 Safari/537.36 Edg/138.0.0.0","WebKit","Edge","138.0.0.0","Windows","10.0","https://app.prolific.com/","en-US,en;q=0.9,en-ZA;q=0.8","606e3cce02e2e8a8c965ca75","683db9eb0562dbf637994deb","6880b9df2ba19161174ebb57","2","1","606e3cce02e2e8a8c965ca75","2","1","2025-07-23T10:38:26.517Z","","","","","","","","","","","","","","win-only","1","g1:NE,g2:SW","0.8","3","0","328225.4","2486.1","7493.9","37736.1","1","4","8","6","2","-8","-8","1","9","0.007575757575757576","5007.8","3000","-2230","[""down"",""left""]","{""num_key_presses"":7,""num_perfect"":6,""num_errors"":0,""num_randdir"":1,""num_randdir_good_moves"":1,""num_whilered"":0,""num_whileblue"":0,""num_blue"":2,""num_good_moves"":4}","[416.5714133126395,415.32142761775424,0.3,416.5714133126395,415.32142761775424,102.2,416.5714133126395,415.32142761775424,208.9,416.5714133126395,415.32142761775424,311.1,416.5714133126395,415.32142761775424,413.1,416.5714133126395,415.32142761775424,519.7,416.5714133126395,415.32142761775424,629.2,416.5714133126395,415.32142761775424,734,416.5714133126395,415.32142761775424,838.7,416.5714133126395,415.32142761775424,940.4,416.5714133126395,415.32142761775424,1046.4,416.5714133126395,415.32142761775424,1146.4,416.5714133126395,415.32142761775424,1252.1,416.5714133126395,415.32142761775424,1355.9,416.5714133126395,415.32142761775424,1456,416.5714133126395,415.32142761775424,1556.3,416.5714133126395,415.32142761775424,1659.2,416.5714133126395,415.32142761775424,1763.4,416.5714133126395,415.32142761775424,1872,416.5714133126395,415.32142761775424,1978.7,416.5714133126395,415.32142761775424,2084.2,416.5714133126395,415.32142761775424,2188.1,416.5714133126395,415.32142761775424,2289.9,416.5714133126395,415.32142761775424,2396.5,416.5714133126395,415.32142761775424,2502.4,416.5714133126395,415.32142761775424,2609.5,416.5714133126395,415.32142761775424,2714.9,416.5714133126395,415.32142761775424,2821.7,416.5714133126395,415.32142761775424,2928,416.5714133126395,415.32142761775424,3029.2,416.5714133126395,415.32142761775424,3130.5,416.5714133126395,415.32142761775424,3238.2,416.5714133126395,415.32142761775424,3338.4,416.5714133126395,415.32142761775424,3443.2,416.5714133126395,415.32142761775424,3546.5,416.5714133126395,415.32142761775424,3651.3,416.5714133126395,415.32142761775424,3754.9,416.5714133126395,415.32142761775424,3860.1,416.5714133126395,415.32142761775424,3965.5,416.5714133126395,415.32142761775424,4074.8,416.5714133126395,415.32142761775424,4178.8,416.5714133126395,415.32142761775424,4281.6,416.5714133126395,415.32142761775424,4386.4,416.5714133126395,415.32142761775424,4486.4,416.5714133126395,415.32142761775424,4592,416.5714133126395,415.32142761775424,4697.6,416.5714133126395,415.32142761775424,4802.3,416.5714133126395,415.32142761775424,4902.4]","[1755.2,1755.2,1000,0,755.2,""smooth"",""down"",""down"",""good_move"",4307.3,2551.6,1884,1755.7,667.6,""smooth"",""down"",""down"",""good_move"",8174.9,3867.2,3318.6,4307.7,548.6,""oops"",""down"",""left"",""good_move"",13338.5,5162.7,2169.6,10675.8,493.1,""smooth"",""down"",""down"",""good_move"",17252.7,3913.5,3475.5,13339.3,437.9,""smooth"",""down"",""right"",""bad_move"",20925.6,3672.4,3216.8,17253.3,455.6,""smooth"",""down"",""right"",""bad_move"",23964.1,3038.1,2528.5,20926,509.6,""smooth"",""down"",""right"",""bad_move""]","",""
"5007","","<div style=""width:500px;"">
  <p>What determined the result of this run?</p>
  </div>","100","html-slider-response","20","372621","0.0-5.0-1.2","209","1","2025-07-23 10:32:17","1f75c3e559b7213887762d5229550c2b","102.221.201.12","Mozilla/5.0 (Windows NT 10.0; Win64; x64) AppleWebKit/537.36 (KHTML, like Gecko) Chrome/138.0.0.0 Safari/537.36 Edg/138.0.0.0","WebKit","Edge","138.0.0.0","Windows","10.0","https://app.prolific.com/","en-US,en;q=0.9,en-ZA;q=0.8","606e3cce02e2e8a8c965ca75","683db9eb0562dbf637994deb","6880b9df2ba19161174ebb57","2","1","606e3cce02e2e8a8c965ca75","2","1","2025-07-23T10:38:31.525Z","","","","","","","","","","","AttribQ","","50","","","","","","","","","","","","","","","","","","","","","","","","","","","","",""
"4110","","<div style=""width:500px;"">
  <p>How much control did you have over the ball?</p>
  </div>","100","html-slider-response","21","376732","0.0-5.0-2.2","209","1","2025-07-23 10:32:17","1f75c3e559b7213887762d5229550c2b","102.221.201.12","Mozilla/5.0 (Windows NT 10.0; Win64; x64) AppleWebKit/537.36 (KHTML, like Gecko) Chrome/138.0.0.0 Safari/537.36 Edg/138.0.0.0","WebKit","Edge","138.0.0.0","Windows","10.0","https://app.prolific.com/","en-US,en;q=0.9,en-ZA;q=0.8","606e3cce02e2e8a8c965ca75","683db9eb0562dbf637994deb","6880b9df2ba19161174ebb57","2","1","606e3cce02e2e8a8c965ca75","2","1","2025-07-23T10:38:35.637Z","","","","","","","","","","","ControlQ","","50","","","","","","","","","","","","","","","","","","","","","","","","","","","","",""
"4116","","<div style=""width:500px;"">
  <p>How would you describe your current emotional state?</p>
  </div>","64","html-slider-response","22","380850","0.0-5.0-3.2","209","1","2025-07-23 10:32:17","1f75c3e559b7213887762d5229550c2b","102.221.201.12","Mozilla/5.0 (Windows NT 10.0; Win64; x64) AppleWebKit/537.36 (KHTML, like Gecko) Chrome/138.0.0.0 Safari/537.36 Edg/138.0.0.0","WebKit","Edge","138.0.0.0","Windows","10.0","https://app.prolific.com/","en-US,en;q=0.9,en-ZA;q=0.8","606e3cce02e2e8a8c965ca75","683db9eb0562dbf637994deb","6880b9df2ba19161174ebb57","2","1","606e3cce02e2e8a8c965ca75","2","1","2025-07-23T10:38:39.755Z","","","","","","","","","","","StressQ","","50","","","","","","","","","","","","","","","","","","","","","","","","","","","","",""
"5399","","<div style=""width:500px;"">
  <p>What best describes how you currently feel?</p>
  </div>","81","html-slider-response","23","386250","0.0-5.0-4.2","209","1","2025-07-23 10:32:17","1f75c3e559b7213887762d5229550c2b","102.221.201.12","Mozilla/5.0 (Windows NT 10.0; Win64; x64) AppleWebKit/537.36 (KHTML, like Gecko) Chrome/138.0.0.0 Safari/537.36 Edg/138.0.0.0","WebKit","Edge","138.0.0.0","Windows","10.0","https://app.prolific.com/","en-US,en;q=0.9,en-ZA;q=0.8","606e3cce02e2e8a8c965ca75","683db9eb0562dbf637994deb","6880b9df2ba19161174ebb57","2","1","606e3cce02e2e8a8c965ca75","2","1","2025-07-23T10:38:45.155Z","","","","","","","","","","","MotivationQ","","50","","","","","","","","","","","","","","","","","","","","","","","","","","","","",""
"","","","","ctl-task-cpt","24","418239","0.0-5.0-0.3","209","1","2025-07-23 10:32:17","1f75c3e559b7213887762d5229550c2b","102.221.201.12","Mozilla/5.0 (Windows NT 10.0; Win64; x64) AppleWebKit/537.36 (KHTML, like Gecko) Chrome/138.0.0.0 Safari/537.36 Edg/138.0.0.0","WebKit","Edge","138.0.0.0","Windows","10.0","https://app.prolific.com/","en-US,en;q=0.9,en-ZA;q=0.8","606e3cce02e2e8a8c965ca75","683db9eb0562dbf637994deb","6880b9df2ba19161174ebb57","2","1","606e3cce02e2e8a8c965ca75","2","1","2025-07-23T10:39:17.143Z","","","","","","","","","","","","","","win-only","1","g1:NE,g2:SW","0.7","4","0","387608.1","11331.7","16332.3","28975.9","1","4","4","6","1","1","1","2","1","0.015151515151515152","5000.6","3000","1260","[""up"",""right""]","{""num_key_presses"":4,""num_perfect"":3,""num_errors"":0,""num_randdir"":1,""num_randdir_good_moves"":1,""num_whilered"":0,""num_whileblue"":0,""num_blue"":0,""num_good_moves"":4}","[422.8214133126395,426.57142761775424,0.5,422.8214133126395,426.57142761775424,107.9,422.8214133126395,426.57142761775424,210.5,422.8214133126395,426.57142761775424,318.1,422.8214133126395,426.57142761775424,420,422.8214133126395,426.57142761775424,524.3,422.8214133126395,426.57142761775424,624.3,422.8214133126395,426.57142761775424,724.3,422.8214133126395,426.57142761775424,831.5,422.8214133126395,426.57142761775424,932.5,422.8214133126395,426.57142761775424,1038.9,422.8214133126395,426.57142761775424,1138.9,422.8214133126395,426.57142761775424,1248,422.8214133126395,426.57142761775424,1350,422.8214133126395,426.57142761775424,1457.4,422.8214133126395,426.57142761775424,1560.7,422.8214133126395,426.57142761775424,1664,422.8214133126395,426.57142761775424,1764.3,422.8214133126395,426.57142761775424,1873.5,422.8214133126395,426.57142761775424,1977.1,422.8214133126395,426.57142761775424,2087.8,422.8214133126395,426.57142761775424,2193.1,422.8214133126395,426.57142761775424,2303.9,422.8214133126395,426.57142761775424,2408.6,422.8214133126395,426.57142761775424,2509.8,422.8214133126395,426.57142761775424,2614,422.8214133126395,426.57142761775424,2719,422.8214133126395,426.57142761775424,2820,422.8214133126395,426.57142761775424,2920,422.8214133126395,426.57142761775424,3026.5,422.8214133126395,426.57142761775424,3129,422.8214133126395,426.57142761775424,3236.9,422.8214133126395,426.57142761775424,3338.1,422.8214133126395,426.57142761775424,3445.4,422.8214133126395,426.57142761775424,3546.8,422.8214133126395,426.57142761775424,3652.4,422.8214133126395,426.57142761775424,3753.1,422.8214133126395,426.57142761775424,3858.9,422.8214133126395,426.57142761775424,3963.8,422.8214133126395,426.57142761775424,4069.1,422.8214133126395,426.57142761775424,4173.6,422.8214133126395,426.57142761775424,4278.5,422.8214133126395,426.57142761775424,4378.9,422.8214133126395,426.57142761775424,4486.5,422.8214133126395,426.57142761775424,4589.3,422.8214133126395,426.57142761775424,4694.1,422.8214133126395,426.57142761775424,4803,422.8214133126395,426.57142761775424,4908.2]","[2187.2,2187.2,1000,0,1187.2,""smooth"",""up"",""up"",""good_move"",5947.5,3760,3223.3,2187.5,536.7,""oops"",""up"",""right"",""good_move"",9612.2,3664.2,3198.3,5948,465.9,""smooth"",""up"",""up"",""good_move"",12499.6,2887.2,2474.3,9612.4,412.9,""smooth"",""up"",""right"",""good_move""]","",""
"4404","","<div style=""width:500px;"">
  <p>What determined the result of this run?</p>
  </div>","100","html-slider-response","25","422647","0.0-5.0-1.3","209","1","2025-07-23 10:32:17","1f75c3e559b7213887762d5229550c2b","102.221.201.12","Mozilla/5.0 (Windows NT 10.0; Win64; x64) AppleWebKit/537.36 (KHTML, like Gecko) Chrome/138.0.0.0 Safari/537.36 Edg/138.0.0.0","WebKit","Edge","138.0.0.0","Windows","10.0","https://app.prolific.com/","en-US,en;q=0.9,en-ZA;q=0.8","606e3cce02e2e8a8c965ca75","683db9eb0562dbf637994deb","6880b9df2ba19161174ebb57","2","1","606e3cce02e2e8a8c965ca75","2","1","2025-07-23T10:39:21.552Z","","","","","","","","","","","AttribQ","","50","","","","","","","","","","","","","","","","","","","","","","","","","","","","",""
"9648","","<div style=""width:500px;"">
  <p>How much control did you have over the ball?</p>
  </div>","100","html-slider-response","26","432304","0.0-5.0-2.3","209","1","2025-07-23 10:32:17","1f75c3e559b7213887762d5229550c2b","102.221.201.12","Mozilla/5.0 (Windows NT 10.0; Win64; x64) AppleWebKit/537.36 (KHTML, like Gecko) Chrome/138.0.0.0 Safari/537.36 Edg/138.0.0.0","WebKit","Edge","138.0.0.0","Windows","10.0","https://app.prolific.com/","en-US,en;q=0.9,en-ZA;q=0.8","606e3cce02e2e8a8c965ca75","683db9eb0562dbf637994deb","6880b9df2ba19161174ebb57","2","1","606e3cce02e2e8a8c965ca75","2","1","2025-07-23T10:39:31.209Z","","","","","","","","","","","ControlQ","","50","","","","","","","","","","","","","","","","","","","","","","","","","","","","",""
"37345","","<div style=""width:500px;"">
  <p>How would you describe your current emotional state?</p>
  </div>","7","html-slider-response","27","469659","0.0-5.0-3.3","209","1","2025-07-23 10:32:17","1f75c3e559b7213887762d5229550c2b","102.221.201.12","Mozilla/5.0 (Windows NT 10.0; Win64; x64) AppleWebKit/537.36 (KHTML, like Gecko) Chrome/138.0.0.0 Safari/537.36 Edg/138.0.0.0","WebKit","Edge","138.0.0.0","Windows","10.0","https://app.prolific.com/","en-US,en;q=0.9,en-ZA;q=0.8","606e3cce02e2e8a8c965ca75","683db9eb0562dbf637994deb","6880b9df2ba19161174ebb57","2","1","606e3cce02e2e8a8c965ca75","2","1","2025-07-23T10:40:08.564Z","","","","","","","","","","","StressQ","","50","","","","","","","","","","","","","","","","","","","","","","","","","","","","",""
"16649","","<div style=""width:500px;"">
  <p>What best describes how you currently feel?</p>
  </div>","91","html-slider-response","28","486315","0.0-5.0-4.3","209","1","2025-07-23 10:32:17","1f75c3e559b7213887762d5229550c2b","102.221.201.12","Mozilla/5.0 (Windows NT 10.0; Win64; x64) AppleWebKit/537.36 (KHTML, like Gecko) Chrome/138.0.0.0 Safari/537.36 Edg/138.0.0.0","WebKit","Edge","138.0.0.0","Windows","10.0","https://app.prolific.com/","en-US,en;q=0.9,en-ZA;q=0.8","606e3cce02e2e8a8c965ca75","683db9eb0562dbf637994deb","6880b9df2ba19161174ebb57","2","1","606e3cce02e2e8a8c965ca75","2","1","2025-07-23T10:40:25.219Z","","","","","","","","","","","MotivationQ","","50","","","","","","","","","","","","","","","","","","","","","","","","","","","","",""
"","","","","ctl-task-cpt","29","534188","0.0-5.0-0.4","209","1","2025-07-23 10:32:17","1f75c3e559b7213887762d5229550c2b","102.221.201.12","Mozilla/5.0 (Windows NT 10.0; Win64; x64) AppleWebKit/537.36 (KHTML, like Gecko) Chrome/138.0.0.0 Safari/537.36 Edg/138.0.0.0","WebKit","Edge","138.0.0.0","Windows","10.0","https://app.prolific.com/","en-US,en;q=0.9,en-ZA;q=0.8","606e3cce02e2e8a8c965ca75","683db9eb0562dbf637994deb","6880b9df2ba19161174ebb57","2","1","606e3cce02e2e8a8c965ca75","2","1","2025-07-23T10:41:13.092Z","","","","","","","","","","","","","","win-only","0","g1:NW,g2:SE","0.6","5","0","487672.9","10357.6","15362.7","44865.1","1","4","4","6","1","-1","-1","1","2","0.007575757575757576","5005.1","3000","-2115","[""left"",""up""]","{""num_key_presses"":5,""num_perfect"":3,""num_errors"":0,""num_randdir"":2,""num_randdir_good_moves"":1,""num_whilered"":0,""num_whileblue"":0,""num_blue"":3,""num_good_moves"":2}","[406.5714133126395,420.32142761775424,0.4,406.5714133126395,420.32142761775424,104.7,406.5714133126395,420.32142761775424,208.8,406.5714133126395,420.32142761775424,315.1,406.5714133126395,420.32142761775424,424.7,406.5714133126395,420.32142761775424,531,406.5714133126395,420.32142761775424,640.2,406.5714133126395,420.32142761775424,743.2,406.5714133126395,420.32142761775424,846.6,420.3214133126395,411.57142761775424,949.5,426.5714133126395,407.82142761775424,1056.3,429.0714133126395,406.57142761775424,1163.3,429.0714133126395,406.57142761775424,1265.3,429.0714133126395,406.57142761775424,1375.7,429.0714133126395,406.57142761775424,1479.3,429.0714133126395,406.57142761775424,1588.4,430.3214133126395,406.57142761775424,1689.2,431.5714133126395,406.57142761775424,1806.6,431.5714133126395,406.57142761775424,1912.8,432.8214133126395,406.57142761775424,2012.9,432.8214133126395,406.57142761775424,2113.1,432.8214133126395,406.57142761775424,2223,432.8214133126395,406.57142761775424,2323.3,432.8214133126395,406.57142761775424,2423.5,435.3214133126395,407.82142761775424,2526.5,435.3214133126395,407.82142761775424,2638.3,435.3214133126395,407.82142761775424,2745.1,435.3214133126395,407.82142761775424,2846.2,435.3214133126395,407.82142761775424,2947.3,435.3214133126395,407.82142761775424,3051.8,435.3214133126395,407.82142761775424,3153.9,435.3214133126395,407.82142761775424,3261.5,435.3214133126395,407.82142761775424,3362.6,435.3214133126395,407.82142761775424,3462.8,435.3214133126395,407.82142761775424,3569.2,435.3214133126395,407.82142761775424,3669.8,435.3214133126395,407.82142761775424,3772.6,435.3214133126395,407.82142761775424,3878.1,435.3214133126395,407.82142761775424,3988.3,435.3214133126395,407.82142761775424,4094.5,435.3214133126395,407.82142761775424,4204.1,435.3214133126395,407.82142761775424,4310.5,435.3214133126395,407.82142761775424,4410.5,435.3214133126395,407.82142761775424,4510.7,435.3214133126395,407.82142761775424,4618.2,435.3214133126395,407.82142761775424,4718.7,435.3214133126395,407.82142761775424,4824.8,435.3214133126395,407.82142761775424,4929.9]","[2780.4,2780.4,1000,0,1780.4,""smooth"",""up"",""up"",""good_move"",9095.8,6314.8,2693.7,5929,473.1,""oops"",""up"",""up"",""good_move"",12770.7,3674.5,3248.7,9096.2,425.8,""smooth"",""up"",""right"",""bad_move"",15979.8,3208.8,2664.3,12771,544.5,""oops"",""up"",""right"",""bad_move"",19475.8,3495.8,2943.4,15980,552.4,""smooth"",""up"",""right"",""bad_move""]","",""
"10103","","<div style=""width:500px;"">
  <p>What determined the result of this run?</p>
  </div>","100","html-slider-response","30","544298","0.0-5.0-1.4","209","1","2025-07-23 10:32:17","1f75c3e559b7213887762d5229550c2b","102.221.201.12","Mozilla/5.0 (Windows NT 10.0; Win64; x64) AppleWebKit/537.36 (KHTML, like Gecko) Chrome/138.0.0.0 Safari/537.36 Edg/138.0.0.0","WebKit","Edge","138.0.0.0","Windows","10.0","https://app.prolific.com/","en-US,en;q=0.9,en-ZA;q=0.8","606e3cce02e2e8a8c965ca75","683db9eb0562dbf637994deb","6880b9df2ba19161174ebb57","2","1","606e3cce02e2e8a8c965ca75","2","1","2025-07-23T10:41:23.204Z","","","","","","","","","","","AttribQ","","50","","","","","","","","","","","","","","","","","","","","","","","","","","","","",""
"11704","","<div style=""width:500px;"">
  <p>How much control did you have over the ball?</p>
  </div>","97","html-slider-response","31","556013","0.0-5.0-2.4","209","1","2025-07-23 10:32:17","1f75c3e559b7213887762d5229550c2b","102.221.201.12","Mozilla/5.0 (Windows NT 10.0; Win64; x64) AppleWebKit/537.36 (KHTML, like Gecko) Chrome/138.0.0.0 Safari/537.36 Edg/138.0.0.0","WebKit","Edge","138.0.0.0","Windows","10.0","https://app.prolific.com/","en-US,en;q=0.9,en-ZA;q=0.8","606e3cce02e2e8a8c965ca75","683db9eb0562dbf637994deb","6880b9df2ba19161174ebb57","2","1","606e3cce02e2e8a8c965ca75","2","1","2025-07-23T10:41:34.917Z","","","","","","","","","","","ControlQ","","50","","","","","","","","","","","","","","","","","","","","","","","","","","","","",""
"16868","","<div style=""width:500px;"">
  <p>How would you describe your current emotional state?</p>
  </div>","17","html-slider-response","32","572886","0.0-5.0-3.4","209","1","2025-07-23 10:32:17","1f75c3e559b7213887762d5229550c2b","102.221.201.12","Mozilla/5.0 (Windows NT 10.0; Win64; x64) AppleWebKit/537.36 (KHTML, like Gecko) Chrome/138.0.0.0 Safari/537.36 Edg/138.0.0.0","WebKit","Edge","138.0.0.0","Windows","10.0","https://app.prolific.com/","en-US,en;q=0.9,en-ZA;q=0.8","606e3cce02e2e8a8c965ca75","683db9eb0562dbf637994deb","6880b9df2ba19161174ebb57","2","1","606e3cce02e2e8a8c965ca75","2","1","2025-07-23T10:41:51.791Z","","","","","","","","","","","StressQ","","50","","","","","","","","","","","","","","","","","","","","","","","","","","","","",""
"9311","","<div style=""width:500px;"">
  <p>What best describes how you currently feel?</p>
  </div>","90","html-slider-response","33","582206","0.0-5.0-4.4","209","1","2025-07-23 10:32:17","1f75c3e559b7213887762d5229550c2b","102.221.201.12","Mozilla/5.0 (Windows NT 10.0; Win64; x64) AppleWebKit/537.36 (KHTML, like Gecko) Chrome/138.0.0.0 Safari/537.36 Edg/138.0.0.0","WebKit","Edge","138.0.0.0","Windows","10.0","https://app.prolific.com/","en-US,en;q=0.9,en-ZA;q=0.8","606e3cce02e2e8a8c965ca75","683db9eb0562dbf637994deb","6880b9df2ba19161174ebb57","2","1","606e3cce02e2e8a8c965ca75","2","1","2025-07-23T10:42:01.110Z","","","","","","","","","","","MotivationQ","","50","","","","","","","","","","","","","","","","","","","","","","","","","","","","",""
"","","","","ctl-task-cpt","34","614308","0.0-5.0-0.5","209","1","2025-07-23 10:32:17","1f75c3e559b7213887762d5229550c2b","102.221.201.12","Mozilla/5.0 (Windows NT 10.0; Win64; x64) AppleWebKit/537.36 (KHTML, like Gecko) Chrome/138.0.0.0 Safari/537.36 Edg/138.0.0.0","WebKit","Edge","138.0.0.0","Windows","10.0","https://app.prolific.com/","en-US,en;q=0.9,en-ZA;q=0.8","606e3cce02e2e8a8c965ca75","683db9eb0562dbf637994deb","6880b9df2ba19161174ebb57","2","1","606e3cce02e2e8a8c965ca75","2","1","2025-07-23T10:42:33.212Z","","","","","","","","","","","","","","win-only","2","g1:SE,g2:NW","0.5","6","0","583562.8","2230.4","7231.6","29093.2","1","4","8","6","1","-1","-1","0","1","0","5001.2","3000","-1990","[""down"",""right""]","{""num_key_presses"":6,""num_perfect"":3,""num_errors"":0,""num_randdir"":3,""num_randdir_good_moves"":1,""num_whilered"":0,""num_whileblue"":0,""num_blue"":0,""num_good_moves"":3}","[416.5714133126395,417.82142761775424,0.3,416.5714133126395,417.82142761775424,100.1,416.5714133126395,417.82142761775424,203,416.5714133126395,417.82142761775424,303.4,416.5714133126395,417.82142761775424,405.6,416.5714133126395,417.82142761775424,512.8,416.5714133126395,417.82142761775424,614.1,416.5714133126395,417.82142761775424,717.5,416.5714133126395,417.82142761775424,819.1,416.5714133126395,417.82142761775424,920.5,416.5714133126395,417.82142761775424,1021.7,416.5714133126395,417.82142761775424,1125.6,416.5714133126395,417.82142761775424,1228.6,416.5714133126395,417.82142761775424,1331.7,416.5714133126395,417.82142761775424,1435,416.5714133126395,417.82142761775424,1535.3,416.5714133126395,417.82142761775424,1646,416.5714133126395,417.82142761775424,1746.7,416.5714133126395,417.82142761775424,1848,416.5714133126395,417.82142761775424,1951.4,416.5714133126395,417.82142761775424,2060.4,416.5714133126395,417.82142761775424,2162.3,416.5714133126395,417.82142761775424,2276.7,416.5714133126395,417.82142761775424,2384.2,416.5714133126395,417.82142761775424,2486.8,416.5714133126395,417.82142761775424,2594.9,416.5714133126395,417.82142761775424,2698.8,416.5714133126395,417.82142761775424,2799.5,416.5714133126395,417.82142761775424,2903.3,416.5714133126395,417.82142761775424,3005.6,416.5714133126395,417.82142761775424,3111.4,416.5714133126395,417.82142761775424,3223.3,416.5714133126395,417.82142761775424,3324.5,416.5714133126395,417.82142761775424,3432.8,416.5714133126395,417.82142761775424,3541.8,416.5714133126395,417.82142761775424,3645.9,416.5714133126395,417.82142761775424,3750,416.5714133126395,417.82142761775424,3859.6,416.5714133126395,417.82142761775424,3965.4,416.5714133126395,417.82142761775424,4065.9,416.5714133126395,417.82142761775424,4177.8,416.5714133126395,417.82142761775424,4296.6,416.5714133126395,417.82142761775424,4398.4,416.5714133126395,417.82142761775424,4509.1,416.5714133126395,417.82142761775424,4615.4,416.5714133126395,417.82142761775424,4727.2,416.5714133126395,417.82142761775424,4827.5,416.5714133126395,417.82142761775424,4927.5]","[1761.3,1761.3,1000,0,761.3,""smooth"",""down"",""down"",""good_move"",5065.2,3302.6,2773.7,1762.6,528.9,""smooth"",""down"",""down"",""good_move"",8728.6,3663.1,2741.6,5065.5,921.5,""oops"",""down"",""up"",""bad_move"",12278.1,3549.1,2354.9,8729,1194.2,""oops"",""down"",""up"",""bad_move"",15273.3,2994.8,2449,12278.5,545.8,""smooth"",""up"",""up"",""bad_move"",18975,3701.5,3280.8,15273.5,420.7,""oops"",""up"",""down"",""good_move""]","",""
"14974","","<div style=""width:500px;"">
  <p>What determined the result of this run?</p>
  </div>","4","html-slider-response","35","629286","0.0-5.0-1.5","209","1","2025-07-23 10:32:17","1f75c3e559b7213887762d5229550c2b","102.221.201.12","Mozilla/5.0 (Windows NT 10.0; Win64; x64) AppleWebKit/537.36 (KHTML, like Gecko) Chrome/138.0.0.0 Safari/537.36 Edg/138.0.0.0","WebKit","Edge","138.0.0.0","Windows","10.0","https://app.prolific.com/","en-US,en;q=0.9,en-ZA;q=0.8","606e3cce02e2e8a8c965ca75","683db9eb0562dbf637994deb","6880b9df2ba19161174ebb57","2","1","606e3cce02e2e8a8c965ca75","2","1","2025-07-23T10:42:48.191Z","","","","","","","","","","","AttribQ","","50","","","","","","","","","","","","","","","","","","","","","","","","","","","","",""
"56175","","<div style=""width:500px;"">
  <p>How much control did you have over the ball?</p>
  </div>","21","html-slider-response","36","685473","0.0-5.0-2.5","209","1","2025-07-23 10:32:17","1f75c3e559b7213887762d5229550c2b","102.221.201.12","Mozilla/5.0 (Windows NT 10.0; Win64; x64) AppleWebKit/537.36 (KHTML, like Gecko) Chrome/138.0.0.0 Safari/537.36 Edg/138.0.0.0","WebKit","Edge","138.0.0.0","Windows","10.0","https://app.prolific.com/","en-US,en;q=0.9,en-ZA;q=0.8","606e3cce02e2e8a8c965ca75","683db9eb0562dbf637994deb","6880b9df2ba19161174ebb57","2","1","606e3cce02e2e8a8c965ca75","2","1","2025-07-23T10:43:44.377Z","","","","","","","","","","","ControlQ","","50","","","","","","","","","","","","","","","","","","","","","","","","","","","","",""
"5232","","<div style=""width:500px;"">
  <p>How would you describe your current emotional state?</p>
  </div>","82","html-slider-response","37","690706","0.0-5.0-3.5","209","1","2025-07-23 10:32:17","1f75c3e559b7213887762d5229550c2b","102.221.201.12","Mozilla/5.0 (Windows NT 10.0; Win64; x64) AppleWebKit/537.36 (KHTML, like Gecko) Chrome/138.0.0.0 Safari/537.36 Edg/138.0.0.0","WebKit","Edge","138.0.0.0","Windows","10.0","https://app.prolific.com/","en-US,en;q=0.9,en-ZA;q=0.8","606e3cce02e2e8a8c965ca75","683db9eb0562dbf637994deb","6880b9df2ba19161174ebb57","2","1","606e3cce02e2e8a8c965ca75","2","1","2025-07-23T10:43:49.611Z","","","","","","","","","","","StressQ","","50","","","","","","","","","","","","","","","","","","","","","","","","","","","","",""
"8884","","<div style=""width:500px;"">
  <p>What best describes how you currently feel?</p>
  </div>","72","html-slider-response","38","699592","0.0-5.0-4.5","209","1","2025-07-23 10:32:17","1f75c3e559b7213887762d5229550c2b","102.221.201.12","Mozilla/5.0 (Windows NT 10.0; Win64; x64) AppleWebKit/537.36 (KHTML, like Gecko) Chrome/138.0.0.0 Safari/537.36 Edg/138.0.0.0","WebKit","Edge","138.0.0.0","Windows","10.0","https://app.prolific.com/","en-US,en;q=0.9,en-ZA;q=0.8","606e3cce02e2e8a8c965ca75","683db9eb0562dbf637994deb","6880b9df2ba19161174ebb57","2","1","606e3cce02e2e8a8c965ca75","2","1","2025-07-23T10:43:58.496Z","","","","","","","","","","","MotivationQ","","50","","","","","","","","","","","","","","","","","","","","","","","","","","","","",""
"","","","","ctl-task-cpt","39","745093","0.0-5.0-0.6","209","1","2025-07-23 10:32:17","1f75c3e559b7213887762d5229550c2b","102.221.201.12","Mozilla/5.0 (Windows NT 10.0; Win64; x64) AppleWebKit/537.36 (KHTML, like Gecko) Chrome/138.0.0.0 Safari/537.36 Edg/138.0.0.0","WebKit","Edge","138.0.0.0","Windows","10.0","https://app.prolific.com/","en-US,en;q=0.9,en-ZA;q=0.8","606e3cce02e2e8a8c965ca75","683db9eb0562dbf637994deb","6880b9df2ba19161174ebb57","2","1","606e3cce02e2e8a8c965ca75","2","1","2025-07-23T10:44:43.997Z","","","","","","","","","","","","","","win-only","3","g1:SW,g2:NE","0.4","7","0","700948.6","4765.9","9768.4","42487.4","1","4","4","6","2","-4","-4","0","0","0","5002.5","3000","-1200","[""up"",""right""]","{""num_key_presses"":9,""num_perfect"":4,""num_errors"":0,""num_randdir"":5,""num_randdir_good_moves"":1,""num_whilered"":0,""num_whileblue"":0,""num_blue"":1,""num_good_moves"":5}","[415.3214133126395,419.07142761775424,0.2,415.3214133126395,419.07142761775424,109.6,415.3214133126395,419.07142761775424,217.2,415.3214133126395,419.07142761775424,328.1,415.3214133126395,419.07142761775424,429.1,415.3214133126395,419.07142761775424,531.7,415.3214133126395,419.07142761775424,645.4,415.3214133126395,419.07142761775424,749.9,415.3214133126395,419.07142761775424,859.2,415.3214133126395,419.07142761775424,964.3,415.3214133126395,419.07142761775424,1068.8,415.3214133126395,419.07142761775424,1178.3,415.3214133126395,419.07142761775424,1279.3,415.3214133126395,419.07142761775424,1386.1,415.3214133126395,419.07142761775424,1496.5,415.3214133126395,419.07142761775424,1599.5,415.3214133126395,419.07142761775424,1706.4,415.3214133126395,419.07142761775424,1815.6,415.3214133126395,419.07142761775424,1919.1,415.3214133126395,419.07142761775424,2023.7,415.3214133126395,419.07142761775424,2129.3,415.3214133126395,419.07142761775424,2231.7,415.3214133126395,419.07142761775424,2343.4,415.3214133126395,419.07142761775424,2445.1,415.3214133126395,419.07142761775424,2551.3,415.3214133126395,419.07142761775424,2657.1,415.3214133126395,419.07142761775424,2758.3,415.3214133126395,419.07142761775424,2865.1,415.3214133126395,419.07142761775424,2971.2,415.3214133126395,419.07142761775424,3078.5,415.3214133126395,419.07142761775424,3182.5,415.3214133126395,419.07142761775424,3283.7,415.3214133126395,419.07142761775424,3386.4,415.3214133126395,419.07142761775424,3495.1,415.3214133126395,419.07142761775424,3602.3,415.3214133126395,419.07142761775424,3711.5,415.3214133126395,419.07142761775424,3813.4,415.3214133126395,419.07142761775424,3922.9,415.3214133126395,419.07142761775424,4029.8,415.3214133126395,419.07142761775424,4134.4,415.3214133126395,419.07142761775424,4235.9,415.3214133126395,419.07142761775424,4343.5,415.3214133126395,419.07142761775424,4445.3,415.3214133126395,419.07142761775424,4547.8,415.3214133126395,419.07142761775424,4657.9,415.3214133126395,419.07142761775424,4768.4,415.3214133126395,419.07142761775424,4877.4,415.3214133126395,419.07142761775424,4991.4]","[2229,2229,1000,0,1229,""oops"",""up"",""right"",""good_move"",7970,5740.5,1900.7,5565.4,503.9,""oops"",""up"",""down"",""bad_move"",11388,3417.7,2284.7,7970.3,1133,""smooth"",""up"",""up"",""good_move"",14164.3,2775.7,2209.7,11388.6,566,""oops"",""up"",""down"",""bad_move"",16900.3,2735.7,2238.8,14164.6,496.9,""smooth"",""right"",""right"",""good_move"",19741.4,2841,2286.2,16900.4,554.8,""smooth"",""right"",""right"",""good_move"",23048.1,3306.3,2893.8,19741.8,412.5,""oops"",""right"",""left"",""bad_move"",26197.8,3149.3,1562.3,23048.5,1587,""oops"",""up"",""down"",""bad_move"",29038.4,2840.5,2239.9,26197.9,600.6,""smooth"",""right"",""right"",""good_move""]","",""
"3550","","<div style=""width:500px;"">
  <p>What determined the result of this run?</p>
  </div>","0","html-slider-response","40","748649","0.0-5.0-1.6","209","1","2025-07-23 10:32:17","1f75c3e559b7213887762d5229550c2b","102.221.201.12","Mozilla/5.0 (Windows NT 10.0; Win64; x64) AppleWebKit/537.36 (KHTML, like Gecko) Chrome/138.0.0.0 Safari/537.36 Edg/138.0.0.0","WebKit","Edge","138.0.0.0","Windows","10.0","https://app.prolific.com/","en-US,en;q=0.9,en-ZA;q=0.8","606e3cce02e2e8a8c965ca75","683db9eb0562dbf637994deb","6880b9df2ba19161174ebb57","2","1","606e3cce02e2e8a8c965ca75","2","1","2025-07-23T10:44:47.553Z","","","","","","","","","","","AttribQ","","50","","","","","","","","","","","","","","","","","","","","","","","","","","","","",""
"4724","","<div style=""width:500px;"">
  <p>How much control did you have over the ball?</p>
  </div>","16","html-slider-response","41","753374","0.0-5.0-2.6","209","1","2025-07-23 10:32:17","1f75c3e559b7213887762d5229550c2b","102.221.201.12","Mozilla/5.0 (Windows NT 10.0; Win64; x64) AppleWebKit/537.36 (KHTML, like Gecko) Chrome/138.0.0.0 Safari/537.36 Edg/138.0.0.0","WebKit","Edge","138.0.0.0","Windows","10.0","https://app.prolific.com/","en-US,en;q=0.9,en-ZA;q=0.8","606e3cce02e2e8a8c965ca75","683db9eb0562dbf637994deb","6880b9df2ba19161174ebb57","2","1","606e3cce02e2e8a8c965ca75","2","1","2025-07-23T10:44:52.278Z","","","","","","","","","","","ControlQ","","50","","","","","","","","","","","","","","","","","","","","","","","","","","","","",""
"4964","","<div style=""width:500px;"">
  <p>How would you describe your current emotional state?</p>
  </div>","19","html-slider-response","42","758339","0.0-5.0-3.6","209","1","2025-07-23 10:32:17","1f75c3e559b7213887762d5229550c2b","102.221.201.12","Mozilla/5.0 (Windows NT 10.0; Win64; x64) AppleWebKit/537.36 (KHTML, like Gecko) Chrome/138.0.0.0 Safari/537.36 Edg/138.0.0.0","WebKit","Edge","138.0.0.0","Windows","10.0","https://app.prolific.com/","en-US,en;q=0.9,en-ZA;q=0.8","606e3cce02e2e8a8c965ca75","683db9eb0562dbf637994deb","6880b9df2ba19161174ebb57","2","1","606e3cce02e2e8a8c965ca75","2","1","2025-07-23T10:44:57.243Z","","","","","","","","","","","StressQ","","50","","","","","","","","","","","","","","","","","","","","","","","","","","","","",""
"5101","","<div style=""width:500px;"">
  <p>What best describes how you currently feel?</p>
  </div>","76","html-slider-response","43","763440","0.0-5.0-4.6","209","1","2025-07-23 10:32:17","1f75c3e559b7213887762d5229550c2b","102.221.201.12","Mozilla/5.0 (Windows NT 10.0; Win64; x64) AppleWebKit/537.36 (KHTML, like Gecko) Chrome/138.0.0.0 Safari/537.36 Edg/138.0.0.0","WebKit","Edge","138.0.0.0","Windows","10.0","https://app.prolific.com/","en-US,en;q=0.9,en-ZA;q=0.8","606e3cce02e2e8a8c965ca75","683db9eb0562dbf637994deb","6880b9df2ba19161174ebb57","2","1","606e3cce02e2e8a8c965ca75","2","1","2025-07-23T10:45:02.344Z","","","","","","","","","","","MotivationQ","","50","","","","","","","","","","","","","","","","","","","","","","","","","","","","",""
"","","","","ctl-task-cpt","44","814625","0.0-5.0-0.7","209","1","2025-07-23 10:32:17","1f75c3e559b7213887762d5229550c2b","102.221.201.12","Mozilla/5.0 (Windows NT 10.0; Win64; x64) AppleWebKit/537.36 (KHTML, like Gecko) Chrome/138.0.0.0 Safari/537.36 Edg/138.0.0.0","WebKit","Edge","138.0.0.0","Windows","10.0","https://app.prolific.com/","en-US,en;q=0.9,en-ZA;q=0.8","606e3cce02e2e8a8c965ca75","683db9eb0562dbf637994deb","6880b9df2ba19161174ebb57","2","1","606e3cce02e2e8a8c965ca75","2","1","2025-07-23T10:45:53.529Z","","","","","","","","","","","","","","win-only","1","g1:NE,g2:SW","0.3","8","0","764796.5","2027.7","7037.6","48162.7","1","4","8","6","1","1","1","1","0","0.007575757575757576","5009.9","3000","40","[""up"",""right""]","{""num_key_presses"":10,""num_perfect"":3,""num_errors"":0,""num_randdir"":7,""num_randdir_good_moves"":4,""num_whilered"":0,""num_whileblue"":0,""num_blue"":3,""num_good_moves"":7}","[419.0714133126395,415.32142761775424,0.4,419.0714133126395,415.32142761775424,113.5,419.0714133126395,415.32142761775424,231.2,419.0714133126395,415.32142761775424,331.8,419.0714133126395,415.32142761775424,432.5,419.0714133126395,415.32142761775424,533.6,419.0714133126395,415.32142761775424,639.6,419.0714133126395,415.32142761775424,749,419.0714133126395,415.32142761775424,852.8,419.0714133126395,415.32142761775424,957.4,419.0714133126395,415.32142761775424,1062.4,419.0714133126395,415.32142761775424,1175.5,419.0714133126395,415.32142761775424,1281.2,419.0714133126395,415.32142761775424,1386.3,419.0714133126395,415.32142761775424,1489.7,419.0714133126395,415.32142761775424,1600.2,419.0714133126395,415.32142761775424,1705.4,419.0714133126395,415.32142761775424,1806.9,419.0714133126395,415.32142761775424,1912.6,419.0714133126395,415.32142761775424,2016,419.0714133126395,415.32142761775424,2121.2,419.0714133126395,415.32142761775424,2227.3,419.0714133126395,415.32142761775424,2334.6,419.0714133126395,415.32142761775424,2444.9,419.0714133126395,415.32142761775424,2546.2,419.0714133126395,415.32142761775424,2647.9,419.0714133126395,415.32142761775424,2755.5,419.0714133126395,415.32142761775424,2862.2,419.0714133126395,415.32142761775424,2964.1,419.0714133126395,415.32142761775424,3064.8,419.0714133126395,415.32142761775424,3169.5,419.0714133126395,415.32142761775424,3282.2,424.0714133126395,411.57142761775424,3382.5,429.0714133126395,407.82142761775424,3485.9,435.3214133126395,407.82142761775424,3593.6,435.3214133126395,407.82142761775424,3694.9,435.3214133126395,407.82142761775424,3802,435.3214133126395,407.82142761775424,3903.7,435.3214133126395,407.82142761775424,4004.9,435.3214133126395,407.82142761775424,4109.7,435.3214133126395,407.82142761775424,4216.5,435.3214133126395,407.82142761775424,4324.1,435.3214133126395,407.82142761775424,4430.5,435.3214133126395,407.82142761775424,4541.8,435.3214133126395,407.82142761775424,4643.2,435.3214133126395,407.82142761775424,4746.1,435.3214133126395,407.82142761775424,4849.4,435.3214133126395,407.82142761775424,4963.4]","[1830,1830,1000,0,830,""oops"",""up"",""right"",""good_move"",5615.7,3785.2,3228.9,1830.5,556.3,""oops"",""up"",""right"",""good_move"",11163,5547,2234.9,8409.1,519.1,""smooth"",""up"",""up"",""good_move"",14503.6,3339.5,2491.2,11164.3,848.1,""oops"",""up"",""down"",""bad_move"",18004.2,3500.2,2311.4,14504,1188.8,""smooth"",""up"",""up"",""good_move"",21222.8,3218,2173.9,18004.8,1044.1,""oops"",""up"",""left"",""bad_move"",31237.9,10013.9,2429,28122.2,686.7,""smooth"",""up"",""up"",""good_move"",34247.5,3009.4,2576.1,31238.1,433.3,""oops"",""up"",""left"",""bad_move"",38013.1,3765.4,2823.9,34247.7,941.5,""oops"",""up"",""right"",""good_move"",40886.3,2872.6,2404,38013.7,468.6,""oops"",""up"",""right"",""good_move""]","",""
"25088","","<div style=""width:500px;"">
  <p>What determined the result of this run?</p>
  </div>","88","html-slider-response","45","839714","0.0-5.0-1.7","209","1","2025-07-23 10:32:17","1f75c3e559b7213887762d5229550c2b","102.221.201.12","Mozilla/5.0 (Windows NT 10.0; Win64; x64) AppleWebKit/537.36 (KHTML, like Gecko) Chrome/138.0.0.0 Safari/537.36 Edg/138.0.0.0","WebKit","Edge","138.0.0.0","Windows","10.0","https://app.prolific.com/","en-US,en;q=0.9,en-ZA;q=0.8","606e3cce02e2e8a8c965ca75","683db9eb0562dbf637994deb","6880b9df2ba19161174ebb57","2","1","606e3cce02e2e8a8c965ca75","2","1","2025-07-23T10:46:18.618Z","","","","","","","","","","","AttribQ","","50","","","","","","","","","","","","","","","","","","","","","","","","","","","","",""
"22479","","<div style=""width:500px;"">
  <p>How much control did you have over the ball?</p>
  </div>","86","html-slider-response","46","862194","0.0-5.0-2.7","209","1","2025-07-23 10:32:17","1f75c3e559b7213887762d5229550c2b","102.221.201.12","Mozilla/5.0 (Windows NT 10.0; Win64; x64) AppleWebKit/537.36 (KHTML, like Gecko) Chrome/138.0.0.0 Safari/537.36 Edg/138.0.0.0","WebKit","Edge","138.0.0.0","Windows","10.0","https://app.prolific.com/","en-US,en;q=0.9,en-ZA;q=0.8","606e3cce02e2e8a8c965ca75","683db9eb0562dbf637994deb","6880b9df2ba19161174ebb57","2","1","606e3cce02e2e8a8c965ca75","2","1","2025-07-23T10:46:41.098Z","","","","","","","","","","","ControlQ","","50","","","","","","","","","","","","","","","","","","","","","","","","","","","","",""
"12836","","<div style=""width:500px;"">
  <p>How would you describe your current emotional state?</p>
  </div>","5","html-slider-response","47","875031","0.0-5.0-3.7","209","1","2025-07-23 10:32:17","1f75c3e559b7213887762d5229550c2b","102.221.201.12","Mozilla/5.0 (Windows NT 10.0; Win64; x64) AppleWebKit/537.36 (KHTML, like Gecko) Chrome/138.0.0.0 Safari/537.36 Edg/138.0.0.0","WebKit","Edge","138.0.0.0","Windows","10.0","https://app.prolific.com/","en-US,en;q=0.9,en-ZA;q=0.8","606e3cce02e2e8a8c965ca75","683db9eb0562dbf637994deb","6880b9df2ba19161174ebb57","2","1","606e3cce02e2e8a8c965ca75","2","1","2025-07-23T10:46:53.935Z","","","","","","","","","","","StressQ","","50","","","","","","","","","","","","","","","","","","","","","","","","","","","","",""
"11419","","<div style=""width:500px;"">
  <p>What best describes how you currently feel?</p>
  </div>","98","html-slider-response","48","886451","0.0-5.0-4.7","209","1","2025-07-23 10:32:17","1f75c3e559b7213887762d5229550c2b","102.221.201.12","Mozilla/5.0 (Windows NT 10.0; Win64; x64) AppleWebKit/537.36 (KHTML, like Gecko) Chrome/138.0.0.0 Safari/537.36 Edg/138.0.0.0","WebKit","Edge","138.0.0.0","Windows","10.0","https://app.prolific.com/","en-US,en;q=0.9,en-ZA;q=0.8","606e3cce02e2e8a8c965ca75","683db9eb0562dbf637994deb","6880b9df2ba19161174ebb57","2","1","606e3cce02e2e8a8c965ca75","2","1","2025-07-23T10:47:05.355Z","","","","","","","","","","","MotivationQ","","50","","","","","","","","","","","","","","","","","","","","","","","","","","","","",""
"","","","","ctl-task-cpt","49","926308","0.0-5.0-0.8","209","1","2025-07-23 10:32:17","1f75c3e559b7213887762d5229550c2b","102.221.201.12","Mozilla/5.0 (Windows NT 10.0; Win64; x64) AppleWebKit/537.36 (KHTML, like Gecko) Chrome/138.0.0.0 Safari/537.36 Edg/138.0.0.0","WebKit","Edge","138.0.0.0","Windows","10.0","https://app.prolific.com/","en-US,en;q=0.9,en-ZA;q=0.8","606e3cce02e2e8a8c965ca75","683db9eb0562dbf637994deb","6880b9df2ba19161174ebb57","2","1","606e3cce02e2e8a8c965ca75","2","1","2025-07-23T10:47:45.212Z","","","","","","","","","","","","","","win-only","0","g1:NW,g2:SE","0.2","9","0","887807.7","4733.1","9740.5","36839.8","1","4","8","6","2","-8","-8","0","1","0","5007.4","3000","-1235","[""down"",""right""]","{""num_key_presses"":6,""num_perfect"":0,""num_errors"":0,""num_randdir"":6,""num_randdir_good_moves"":2,""num_whilered"":0,""num_whileblue"":0,""num_blue"":0,""num_good_moves"":2}","[426.5714133126395,415.32142761775424,0.6,426.5714133126395,415.32142761775424,103.3,426.5714133126395,415.32142761775424,204.8,426.5714133126395,415.32142761775424,313.8,426.5714133126395,415.32142761775424,418,426.5714133126395,415.32142761775424,528.7,426.5714133126395,415.32142761775424,632.3,426.5714133126395,415.32142761775424,744.1,426.5714133126395,415.32142761775424,845.9,426.5714133126395,415.32142761775424,953.3,414.0714133126395,400.32142761775424,1070.9,402.8214133126395,397.82142761775424,1177.9,386.5714133126395,396.57142761775424,1280.7,374.0714133126395,395.32142761775424,1382.4,367.8214133126395,394.07142761775424,1494.7,364.0714133126395,394.07142761775424,1602.9,359.0714133126395,392.82142761775424,1703.8,355.3214133126395,391.57142761775424,1813.7,354.0714133126395,391.57142761775424,1923.1,354.0714133126395,391.57142761775424,2028.3,354.0714133126395,391.57142761775424,2134.6,354.0714133126395,391.57142761775424,2242.8,354.0714133126395,391.57142761775424,2345.5,354.0714133126395,391.57142761775424,2460.8,354.0714133126395,391.57142761775424,2561.4,354.0714133126395,391.57142761775424,2673,354.0714133126395,391.57142761775424,2779.3,354.0714133126395,391.57142761775424,2891.4,354.0714133126395,391.57142761775424,2994.4,354.0714133126395,391.57142761775424,3097,354.0714133126395,391.57142761775424,3200.6,354.0714133126395,391.57142761775424,3311,354.0714133126395,391.57142761775424,3416.1,354.0714133126395,391.57142761775424,3517.9,354.0714133126395,391.57142761775424,3623.5,354.0714133126395,391.57142761775424,3732.8,354.0714133126395,391.57142761775424,3840.6,354.0714133126395,391.57142761775424,3955,354.0714133126395,391.57142761775424,4065.5,354.0714133126395,391.57142761775424,4176,354.0714133126395,391.57142761775424,4293.1,354.0714133126395,391.57142761775424,4405.2,354.0714133126395,391.57142761775424,4510.2,354.0714133126395,391.57142761775424,4618.7,354.0714133126395,391.57142761775424,4729.6,354.0714133126395,391.57142761775424,4844.1,354.0714133126395,391.57142761775424,4953.1]","[1765,1765,1000,0,765,""oops"",""down"",""up"",""bad_move"",6279.7,4514.3,2847.9,1765.4,1666.4,""oops"",""down"",""up"",""bad_move"",11105.8,4825.8,2577.8,6280,2248,""oops"",""down"",""down"",""good_move"",14577.4,3470.9,2866.4,11106.5,604.5,""oops"",""down"",""down"",""good_move"",19490.1,4912.2,2909.2,14577.9,2003,""oops"",""down"",""left"",""bad_move"",23614.2,4123.4,2701.5,19490.8,1421.9,""oops"",""down"",""up"",""bad_move""]","",""
"15508","","<div style=""width:500px;"">
  <p>What determined the result of this run?</p>
  </div>","6","html-slider-response","50","941817","0.0-5.0-1.8","209","1","2025-07-23 10:32:17","1f75c3e559b7213887762d5229550c2b","102.221.201.12","Mozilla/5.0 (Windows NT 10.0; Win64; x64) AppleWebKit/537.36 (KHTML, like Gecko) Chrome/138.0.0.0 Safari/537.36 Edg/138.0.0.0","WebKit","Edge","138.0.0.0","Windows","10.0","https://app.prolific.com/","en-US,en;q=0.9,en-ZA;q=0.8","606e3cce02e2e8a8c965ca75","683db9eb0562dbf637994deb","6880b9df2ba19161174ebb57","2","1","606e3cce02e2e8a8c965ca75","2","1","2025-07-23T10:48:00.721Z","","","","","","","","","","","AttribQ","","50","","","","","","","","","","","","","","","","","","","","","","","","","","","","",""
"5695","","<div style=""width:500px;"">
  <p>How much control did you have over the ball?</p>
  </div>","97","html-slider-response","51","947513","0.0-5.0-2.8","209","1","2025-07-23 10:32:17","1f75c3e559b7213887762d5229550c2b","102.221.201.12","Mozilla/5.0 (Windows NT 10.0; Win64; x64) AppleWebKit/537.36 (KHTML, like Gecko) Chrome/138.0.0.0 Safari/537.36 Edg/138.0.0.0","WebKit","Edge","138.0.0.0","Windows","10.0","https://app.prolific.com/","en-US,en;q=0.9,en-ZA;q=0.8","606e3cce02e2e8a8c965ca75","683db9eb0562dbf637994deb","6880b9df2ba19161174ebb57","2","1","606e3cce02e2e8a8c965ca75","2","1","2025-07-23T10:48:06.417Z","","","","","","","","","","","ControlQ","","50","","","","","","","","","","","","","","","","","","","","","","","","","","","","",""
"14531","","<div style=""width:500px;"">
  <p>How would you describe your current emotional state?</p>
  </div>","90","html-slider-response","52","962045","0.0-5.0-3.8","209","1","2025-07-23 10:32:17","1f75c3e559b7213887762d5229550c2b","102.221.201.12","Mozilla/5.0 (Windows NT 10.0; Win64; x64) AppleWebKit/537.36 (KHTML, like Gecko) Chrome/138.0.0.0 Safari/537.36 Edg/138.0.0.0","WebKit","Edge","138.0.0.0","Windows","10.0","https://app.prolific.com/","en-US,en;q=0.9,en-ZA;q=0.8","606e3cce02e2e8a8c965ca75","683db9eb0562dbf637994deb","6880b9df2ba19161174ebb57","2","1","606e3cce02e2e8a8c965ca75","2","1","2025-07-23T10:48:20.949Z","","","","","","","","","","","StressQ","","50","","","","","","","","","","","","","","","","","","","","","","","","","","","","",""
"5480","","<div style=""width:500px;"">
  <p>What best describes how you currently feel?</p>
  </div>","100","html-slider-response","53","967527","0.0-5.0-4.8","209","1","2025-07-23 10:32:17","1f75c3e559b7213887762d5229550c2b","102.221.201.12","Mozilla/5.0 (Windows NT 10.0; Win64; x64) AppleWebKit/537.36 (KHTML, like Gecko) Chrome/138.0.0.0 Safari/537.36 Edg/138.0.0.0","WebKit","Edge","138.0.0.0","Windows","10.0","https://app.prolific.com/","en-US,en;q=0.9,en-ZA;q=0.8","606e3cce02e2e8a8c965ca75","683db9eb0562dbf637994deb","6880b9df2ba19161174ebb57","2","1","606e3cce02e2e8a8c965ca75","2","1","2025-07-23T10:48:26.431Z","","","","","","","","","","","MotivationQ","","50","","","","","","","","","","","","","","","","","","","","","","","","","","","","",""
"","","","","ctl-task-cpt","54","1048085","0.0-5.0-0.9","209","1","2025-07-23 10:32:17","1f75c3e559b7213887762d5229550c2b","102.221.201.12","Mozilla/5.0 (Windows NT 10.0; Win64; x64) AppleWebKit/537.36 (KHTML, like Gecko) Chrome/138.0.0.0 Safari/537.36 Edg/138.0.0.0","WebKit","Edge","138.0.0.0","Windows","10.0","https://app.prolific.com/","en-US,en;q=0.9,en-ZA;q=0.8","606e3cce02e2e8a8c965ca75","683db9eb0562dbf637994deb","6880b9df2ba19161174ebb57","2","1","606e3cce02e2e8a8c965ca75","2","1","2025-07-23T10:49:46.989Z","","","","","","","","","","","","","","win-only","0","g1:NW,g2:SE","0.4","10","0","968883.2","17364.9","22370.7","77528.9","1","4","4","6","1","-1","-2","0","0","0","5005.8","3000","-1110","[""left"",""up""]","{""num_key_presses"":13,""num_perfect"":5,""num_errors"":1,""num_randdir"":7,""num_randdir_good_moves"":3,""num_whilered"":0,""num_whileblue"":1,""num_blue"":4,""num_good_moves"":6}","[406.5714133126395,424.07142761775424,0.5,406.5714133126395,424.07142761775424,108.3,406.5714133126395,424.07142761775424,218.7,406.5714133126395,424.07142761775424,340.2,406.5714133126395,424.07142761775424,449.3,406.5714133126395,424.07142761775424,564.7,406.5714133126395,424.07142761775424,665.8,406.5714133126395,424.07142761775424,775.4,406.5714133126395,424.07142761775424,884.3,407.8214133126395,407.82142761775424,993.6,406.5714133126395,385.32142761775424,1104.8,402.8214133126395,371.57142761775424,1225.3,402.8214133126395,371.57142761775424,1330.8,402.8214133126395,371.57142761775424,1443.6,402.8214133126395,371.57142761775424,1565.1,402.8214133126395,371.57142761775424,1689.4,402.8214133126395,371.57142761775424,1801.7,402.8214133126395,371.57142761775424,1909.8,402.8214133126395,371.57142761775424,2014.9,402.8214133126395,371.57142761775424,2136.9,402.8214133126395,371.57142761775424,2249.1,402.8214133126395,371.57142761775424,2352.7,402.8214133126395,371.57142761775424,2466.1,402.8214133126395,371.57142761775424,2580.2,402.8214133126395,371.57142761775424,2684.1,402.8214133126395,371.57142761775424,2791.7,402.8214133126395,371.57142761775424,2898.2,402.8214133126395,371.57142761775424,3005,402.8214133126395,371.57142761775424,3107.9,402.8214133126395,371.57142761775424,3224.4,402.8214133126395,371.57142761775424,3330.6,402.8214133126395,371.57142761775424,3442.3,402.8214133126395,371.57142761775424,3543.9,402.8214133126395,371.57142761775424,3664.4,402.8214133126395,371.57142761775424,3786.8,402.8214133126395,371.57142761775424,3899.1,402.8214133126395,371.57142761775424,4019.9,402.8214133126395,371.57142761775424,4138.3,402.8214133126395,371.57142761775424,4250.6,402.8214133126395,371.57142761775424,4364.5,402.8214133126395,371.57142761775424,4465.5,402.8214133126395,371.57142761775424,4575.3,402.8214133126395,371.57142761775424,4695,402.8214133126395,371.57142761775424,4813.7,402.8214133126395,371.57142761775424,4915]","[1574.1,1574.1,1000,0,574.1,""oops"",""up"",""down"",""bad_move"",4302.9,2727.3,2072.1,1575.6,655.2,""smooth"",""up"",""up"",""good_move"",8089.2,3785.4,2509.4,4303.8,1276,""smooth"",""up"",""up"",""good_move"",12138.5,4048.5,2539.9,8090,1508.6,""smooth"",""up"",""up"",""good_move"",15407.2,3268.4,2822.7,12138.8,445.7,""while_blue"",""up"",""right"",""bad_move"",18988.1,3580.5,1957.1,15407.6,1623.4,""oops"",""up"",""left"",""good_move"",25401.3,6413,2480.3,22424.1,497,""oops"",""up"",""left"",""good_move"",28362.3,2960.7,2482.4,25401.7,478.2,""oops"",""up"",""right"",""bad_move"",31010.9,2648.4,2034.3,28362.5,614.1,""oops"",""up"",""right"",""bad_move"",37715.1,6704.1,2634.3,34494.6,586.2,""smooth"",""up"",""right"",""bad_move"",41404.5,3688.3,2639.3,37716.2,1049,""oops"",""up"",""left"",""good_move"",44595.7,3190.9,2595,41404.8,595.9,""smooth"",""up"",""right"",""bad_move"",52414.5,7818.5,3343.6,48538.7,532.2,""oops"",""up"",""right"",""bad_move""]","",""
"12184","","<div style=""width:500px;"">
  <p>What determined the result of this run?</p>
  </div>","1","html-slider-response","55","1060271","0.0-5.0-1.9","209","1","2025-07-23 10:32:17","1f75c3e559b7213887762d5229550c2b","102.221.201.12","Mozilla/5.0 (Windows NT 10.0; Win64; x64) AppleWebKit/537.36 (KHTML, like Gecko) Chrome/138.0.0.0 Safari/537.36 Edg/138.0.0.0","WebKit","Edge","138.0.0.0","Windows","10.0","https://app.prolific.com/","en-US,en;q=0.9,en-ZA;q=0.8","606e3cce02e2e8a8c965ca75","683db9eb0562dbf637994deb","6880b9df2ba19161174ebb57","2","1","606e3cce02e2e8a8c965ca75","2","1","2025-07-23T10:49:59.175Z","","","","","","","","","","","AttribQ","","50","","","","","","","","","","","","","","","","","","","","","","","","","","","","",""
"5662","","<div style=""width:500px;"">
  <p>How much control did you have over the ball?</p>
  </div>","15","html-slider-response","56","1065934","0.0-5.0-2.9","209","1","2025-07-23 10:32:17","1f75c3e559b7213887762d5229550c2b","102.221.201.12","Mozilla/5.0 (Windows NT 10.0; Win64; x64) AppleWebKit/537.36 (KHTML, like Gecko) Chrome/138.0.0.0 Safari/537.36 Edg/138.0.0.0","WebKit","Edge","138.0.0.0","Windows","10.0","https://app.prolific.com/","en-US,en;q=0.9,en-ZA;q=0.8","606e3cce02e2e8a8c965ca75","683db9eb0562dbf637994deb","6880b9df2ba19161174ebb57","2","1","606e3cce02e2e8a8c965ca75","2","1","2025-07-23T10:50:04.838Z","","","","","","","","","","","ControlQ","","50","","","","","","","","","","","","","","","","","","","","","","","","","","","","",""
"20164","","<div style=""width:500px;"">
  <p>How would you describe your current emotional state?</p>
  </div>","12","html-slider-response","57","1086099","0.0-5.0-3.9","209","1","2025-07-23 10:32:17","1f75c3e559b7213887762d5229550c2b","102.221.201.12","Mozilla/5.0 (Windows NT 10.0; Win64; x64) AppleWebKit/537.36 (KHTML, like Gecko) Chrome/138.0.0.0 Safari/537.36 Edg/138.0.0.0","WebKit","Edge","138.0.0.0","Windows","10.0","https://app.prolific.com/","en-US,en;q=0.9,en-ZA;q=0.8","606e3cce02e2e8a8c965ca75","683db9eb0562dbf637994deb","6880b9df2ba19161174ebb57","2","1","606e3cce02e2e8a8c965ca75","2","1","2025-07-23T10:50:25.004Z","","","","","","","","","","","StressQ","","50","","","","","","","","","","","","","","","","","","","","","","","","","","","","",""
"8741","","<div style=""width:500px;"">
  <p>What best describes how you currently feel?</p>
  </div>","83","html-slider-response","58","1094841","0.0-5.0-4.9","209","1","2025-07-23 10:32:17","1f75c3e559b7213887762d5229550c2b","102.221.201.12","Mozilla/5.0 (Windows NT 10.0; Win64; x64) AppleWebKit/537.36 (KHTML, like Gecko) Chrome/138.0.0.0 Safari/537.36 Edg/138.0.0.0","WebKit","Edge","138.0.0.0","Windows","10.0","https://app.prolific.com/","en-US,en;q=0.9,en-ZA;q=0.8","606e3cce02e2e8a8c965ca75","683db9eb0562dbf637994deb","6880b9df2ba19161174ebb57","2","1","606e3cce02e2e8a8c965ca75","2","1","2025-07-23T10:50:33.745Z","","","","","","","","","","","MotivationQ","","50","","","","","","","","","","","","","","","","","","","","","","","","","","","","",""
"","","","","ctl-task-cpt","59","1140899","0.0-5.0-0.10","209","1","2025-07-23 10:32:17","1f75c3e559b7213887762d5229550c2b","102.221.201.12","Mozilla/5.0 (Windows NT 10.0; Win64; x64) AppleWebKit/537.36 (KHTML, like Gecko) Chrome/138.0.0.0 Safari/537.36 Edg/138.0.0.0","WebKit","Edge","138.0.0.0","Windows","10.0","https://app.prolific.com/","en-US,en;q=0.9,en-ZA;q=0.8","606e3cce02e2e8a8c965ca75","683db9eb0562dbf637994deb","6880b9df2ba19161174ebb57","2","1","606e3cce02e2e8a8c965ca75","2","1","2025-07-23T10:51:19.803Z","","","","","","","","","","","","","","win-only","3","g1:SW,g2:NE","0.5","11","0","1096197.2","12634.6","17636.5","43038.3","1","4","4","6","1","-1","-1","0","0","0","5001.9","3000","-1145","[""down"",""left""]","{""num_key_presses"":5,""num_perfect"":2,""num_errors"":0,""num_randdir"":3,""num_randdir_good_moves"":1,""num_whilered"":0,""num_whileblue"":0,""num_blue"":1,""num_good_moves"":3}","[416.5714133126395,425.32142761775424,0.3,416.5714133126395,425.32142761775424,108.9,416.5714133126395,425.32142761775424,218,416.5714133126395,425.32142761775424,332.7,416.5714133126395,425.32142761775424,434.7,416.5714133126395,425.32142761775424,541.3,416.5714133126395,425.32142761775424,648.6,416.5714133126395,425.32142761775424,758.5,422.8214133126395,422.82142761775424,868.3,421.5714133126395,426.57142761775424,968.8,412.8214133126395,434.07142761775424,1070,400.3214133126395,442.82142761775424,1179.3,381.5714133126395,452.82142761775424,1291.4,367.8214133126395,460.32142761775424,1407.1,362.8214133126395,465.32142761775424,1517.4,362.8214133126395,465.32142761775424,1633.1,362.8214133126395,465.32142761775424,1740.2,362.8214133126395,465.32142761775424,1851,362.8214133126395,465.32142761775424,1961.2,362.8214133126395,465.32142761775424,2067.6,362.8214133126395,465.32142761775424,2179.3,362.8214133126395,465.32142761775424,2286.7,362.8214133126395,465.32142761775424,2389.2,362.8214133126395,465.32142761775424,2494.7,362.8214133126395,465.32142761775424,2600.1,362.8214133126395,465.32142761775424,2712.7,362.8214133126395,465.32142761775424,2819.6,362.8214133126395,465.32142761775424,2927.7,362.8214133126395,465.32142761775424,3046,362.8214133126395,465.32142761775424,3146.5,362.8214133126395,465.32142761775424,3248.5,362.8214133126395,465.32142761775424,3349.5,362.8214133126395,465.32142761775424,3458.8,362.8214133126395,465.32142761775424,3567.3,362.8214133126395,465.32142761775424,3674.1,362.8214133126395,465.32142761775424,3783.1,362.8214133126395,465.32142761775424,3896.1,362.8214133126395,465.32142761775424,4005.1,362.8214133126395,465.32142761775424,4106.1,362.8214133126395,465.32142761775424,4208.1,362.8214133126395,465.32142761775424,4315.7,362.8214133126395,465.32142761775424,4424.6,362.8214133126395,465.32142761775424,4526.5,362.8214133126395,465.32142761775424,4629,362.8214133126395,465.32142761775424,4731.4,362.8214133126395,465.32142761775424,4846.3,362.8214133126395,465.32142761775424,4953.4]","[5306.9,5306.9,2789.4,2002.6,514.9,""smooth"",""down"",""down"",""good_move"",8663.9,3356.5,2803.2,5307.4,553.3,""smooth"",""down"",""down"",""good_move"",10821.2,2156.3,1644,8664.9,512.3,""oops"",""down"",""up"",""bad_move"",19339.6,8518.1,2545.8,10821.5,5972.3,""oops"",""down"",""left"",""good_move"",22801.8,3461.9,2478.8,19339.9,983.1,""oops"",""down"",""right"",""bad_move""]","",""
"7757","","<div style=""width:500px;"">
  <p>What determined the result of this run?</p>
  </div>","9","html-slider-response","60","1148656","0.0-5.0-1.10","209","1","2025-07-23 10:32:17","1f75c3e559b7213887762d5229550c2b","102.221.201.12","Mozilla/5.0 (Windows NT 10.0; Win64; x64) AppleWebKit/537.36 (KHTML, like Gecko) Chrome/138.0.0.0 Safari/537.36 Edg/138.0.0.0","WebKit","Edge","138.0.0.0","Windows","10.0","https://app.prolific.com/","en-US,en;q=0.9,en-ZA;q=0.8","606e3cce02e2e8a8c965ca75","683db9eb0562dbf637994deb","6880b9df2ba19161174ebb57","2","1","606e3cce02e2e8a8c965ca75","2","1","2025-07-23T10:51:27.560Z","","","","","","","","","","","AttribQ","","50","","","","","","","","","","","","","","","","","","","","","","","","","","","","",""
"7024","","<div style=""width:500px;"">
  <p>How much control did you have over the ball?</p>
  </div>","100","html-slider-response","61","1155681","0.0-5.0-2.10","209","1","2025-07-23 10:32:17","1f75c3e559b7213887762d5229550c2b","102.221.201.12","Mozilla/5.0 (Windows NT 10.0; Win64; x64) AppleWebKit/537.36 (KHTML, like Gecko) Chrome/138.0.0.0 Safari/537.36 Edg/138.0.0.0","WebKit","Edge","138.0.0.0","Windows","10.0","https://app.prolific.com/","en-US,en;q=0.9,en-ZA;q=0.8","606e3cce02e2e8a8c965ca75","683db9eb0562dbf637994deb","6880b9df2ba19161174ebb57","2","1","606e3cce02e2e8a8c965ca75","2","1","2025-07-23T10:51:34.585Z","","","","","","","","","","","ControlQ","","50","","","","","","","","","","","","","","","","","","","","","","","","","","","","",""
"5430","","<div style=""width:500px;"">
  <p>How would you describe your current emotional state?</p>
  </div>","88","html-slider-response","62","1161112","0.0-5.0-3.10","209","1","2025-07-23 10:32:17","1f75c3e559b7213887762d5229550c2b","102.221.201.12","Mozilla/5.0 (Windows NT 10.0; Win64; x64) AppleWebKit/537.36 (KHTML, like Gecko) Chrome/138.0.0.0 Safari/537.36 Edg/138.0.0.0","WebKit","Edge","138.0.0.0","Windows","10.0","https://app.prolific.com/","en-US,en;q=0.9,en-ZA;q=0.8","606e3cce02e2e8a8c965ca75","683db9eb0562dbf637994deb","6880b9df2ba19161174ebb57","2","1","606e3cce02e2e8a8c965ca75","2","1","2025-07-23T10:51:40.016Z","","","","","","","","","","","StressQ","","50","","","","","","","","","","","","","","","","","","","","","","","","","","","","",""
"5177","","<div style=""width:500px;"">
  <p>What best describes how you currently feel?</p>
  </div>","84","html-slider-response","63","1166289","0.0-5.0-4.10","209","1","2025-07-23 10:32:17","1f75c3e559b7213887762d5229550c2b","102.221.201.12","Mozilla/5.0 (Windows NT 10.0; Win64; x64) AppleWebKit/537.36 (KHTML, like Gecko) Chrome/138.0.0.0 Safari/537.36 Edg/138.0.0.0","WebKit","Edge","138.0.0.0","Windows","10.0","https://app.prolific.com/","en-US,en;q=0.9,en-ZA;q=0.8","606e3cce02e2e8a8c965ca75","683db9eb0562dbf637994deb","6880b9df2ba19161174ebb57","2","1","606e3cce02e2e8a8c965ca75","2","1","2025-07-23T10:51:45.193Z","","","","","","","","","","","MotivationQ","","50","","","","","","","","","","","","","","","","","","","","","","","","","","","","",""
"","","","","ctl-task-cpt","64","1209802","0.0-5.0-0.11","209","1","2025-07-23 10:32:17","1f75c3e559b7213887762d5229550c2b","102.221.201.12","Mozilla/5.0 (Windows NT 10.0; Win64; x64) AppleWebKit/537.36 (KHTML, like Gecko) Chrome/138.0.0.0 Safari/537.36 Edg/138.0.0.0","WebKit","Edge","138.0.0.0","Windows","10.0","https://app.prolific.com/","en-US,en;q=0.9,en-ZA;q=0.8","606e3cce02e2e8a8c965ca75","683db9eb0562dbf637994deb","6880b9df2ba19161174ebb57","2","1","606e3cce02e2e8a8c965ca75","2","1","2025-07-23T10:52:28.706Z","","","","","","","","","","","","","","win-only","0","g1:NW,g2:SE","0.6","12","0","1167645","10676.4","15678.5","40484.3","1","4","8","6","2","8","8","8","0","0.06060606060606061","5002.1","3000","1225","[""down"",""right""]","{""num_key_presses"":6,""num_perfect"":5,""num_errors"":0,""num_randdir"":1,""num_randdir_good_moves"":1,""num_whilered"":0,""num_whileblue"":0,""num_blue"":1,""num_good_moves"":6}","[417.8214133126395,416.57142761775424,0.3,417.8214133126395,416.57142761775424,117,417.8214133126395,416.57142761775424,218,417.8214133126395,416.57142761775424,330.3,417.8214133126395,416.57142761775424,435.8,417.8214133126395,416.57142761775424,548.5,417.8214133126395,416.57142761775424,652.9,417.8214133126395,416.57142761775424,758.7,417.8214133126395,416.57142761775424,863.3,417.8214133126395,416.57142761775424,978.2,417.8214133126395,416.57142761775424,1085.9,417.8214133126395,416.57142761775424,1187.4,417.8214133126395,416.57142761775424,1293.1,417.8214133126395,416.57142761775424,1393.3,417.8214133126395,416.57142761775424,1497.7,417.8214133126395,416.57142761775424,1599.9,417.8214133126395,416.57142761775424,1709.4,417.8214133126395,416.57142761775424,1815.9,417.8214133126395,416.57142761775424,1920.2,417.8214133126395,416.57142761775424,2022.3,417.8214133126395,416.57142761775424,2125.2,417.8214133126395,416.57142761775424,2227.7,417.8214133126395,416.57142761775424,2340.9,417.8214133126395,416.57142761775424,2444.8,417.8214133126395,416.57142761775424,2547.6,417.8214133126395,416.57142761775424,2648.4,417.8214133126395,416.57142761775424,2751.5,417.8214133126395,416.57142761775424,2865.1,417.8214133126395,416.57142761775424,2978.5,417.8214133126395,416.57142761775424,3090,417.8214133126395,416.57142761775424,3207.7,417.8214133126395,416.57142761775424,3310,417.8214133126395,416.57142761775424,3411.2,417.8214133126395,416.57142761775424,3512.5,417.8214133126395,416.57142761775424,3625.8,417.8214133126395,416.57142761775424,3736.1,417.8214133126395,416.57142761775424,3849.1,416.5714133126395,411.57142761775424,3965.3,407.8214133126395,397.82142761775424,4080.6,404.0714133126395,396.57142761775424,4185.9,399.0714133126395,396.57142761775424,4293,395.3214133126395,396.57142761775424,4401.7,386.5714133126395,396.57142761775424,4507.4,387.8214133126395,392.82142761775424,4612.8,387.8214133126395,392.82142761775424,4728.7,387.8214133126395,392.82142761775424,4836.9,387.8214133126395,392.82142761775424,4939.4]","[1944.5,1944.5,1000,0,944.5,""smooth"",""down"",""down"",""good_move"",5286.6,3341.4,2627.9,1945.3,713.4,""oops"",""down"",""right"",""good_move"",8666.1,3379,2866.1,5287.2,512.9,""smooth"",""down"",""down"",""good_move"",11794.1,3127.8,2653,8666.3,474.8,""smooth"",""down"",""down"",""good_move"",21000.4,9206.2,2638.3,15191,3171.2,""smooth"",""down"",""right"",""good_move"",24529.7,3528.3,2981.1,21001.4,547.2,""smooth"",""down"",""right"",""good_move""]","",""
"22309","","<div style=""width:500px;"">
  <p>What determined the result of this run?</p>
  </div>","98","html-slider-response","65","1232112","0.0-5.0-1.11","209","1","2025-07-23 10:32:17","1f75c3e559b7213887762d5229550c2b","102.221.201.12","Mozilla/5.0 (Windows NT 10.0; Win64; x64) AppleWebKit/537.36 (KHTML, like Gecko) Chrome/138.0.0.0 Safari/537.36 Edg/138.0.0.0","WebKit","Edge","138.0.0.0","Windows","10.0","https://app.prolific.com/","en-US,en;q=0.9,en-ZA;q=0.8","606e3cce02e2e8a8c965ca75","683db9eb0562dbf637994deb","6880b9df2ba19161174ebb57","2","1","606e3cce02e2e8a8c965ca75","2","1","2025-07-23T10:52:51.016Z","","","","","","","","","","","AttribQ","","50","","","","","","","","","","","","","","","","","","","","","","","","","","","","",""
"11387","","<div style=""width:500px;"">
  <p>How much control did you have over the ball?</p>
  </div>","94","html-slider-response","66","1243499","0.0-5.0-2.11","209","1","2025-07-23 10:32:17","1f75c3e559b7213887762d5229550c2b","102.221.201.12","Mozilla/5.0 (Windows NT 10.0; Win64; x64) AppleWebKit/537.36 (KHTML, like Gecko) Chrome/138.0.0.0 Safari/537.36 Edg/138.0.0.0","WebKit","Edge","138.0.0.0","Windows","10.0","https://app.prolific.com/","en-US,en;q=0.9,en-ZA;q=0.8","606e3cce02e2e8a8c965ca75","683db9eb0562dbf637994deb","6880b9df2ba19161174ebb57","2","1","606e3cce02e2e8a8c965ca75","2","1","2025-07-23T10:53:02.403Z","","","","","","","","","","","ControlQ","","50","","","","","","","","","","","","","","","","","","","","","","","","","","","","",""
"4996","","<div style=""width:500px;"">
  <p>How would you describe your current emotional state?</p>
  </div>","0","html-slider-response","67","1248496","0.0-5.0-3.11","209","1","2025-07-23 10:32:17","1f75c3e559b7213887762d5229550c2b","102.221.201.12","Mozilla/5.0 (Windows NT 10.0; Win64; x64) AppleWebKit/537.36 (KHTML, like Gecko) Chrome/138.0.0.0 Safari/537.36 Edg/138.0.0.0","WebKit","Edge","138.0.0.0","Windows","10.0","https://app.prolific.com/","en-US,en;q=0.9,en-ZA;q=0.8","606e3cce02e2e8a8c965ca75","683db9eb0562dbf637994deb","6880b9df2ba19161174ebb57","2","1","606e3cce02e2e8a8c965ca75","2","1","2025-07-23T10:53:07.401Z","","","","","","","","","","","StressQ","","50","","","","","","","","","","","","","","","","","","","","","","","","","","","","",""
"16417","","<div style=""width:500px;"">
  <p>What best describes how you currently feel?</p>
  </div>","90","html-slider-response","68","1264914","0.0-5.0-4.11","209","1","2025-07-23 10:32:17","1f75c3e559b7213887762d5229550c2b","102.221.201.12","Mozilla/5.0 (Windows NT 10.0; Win64; x64) AppleWebKit/537.36 (KHTML, like Gecko) Chrome/138.0.0.0 Safari/537.36 Edg/138.0.0.0","WebKit","Edge","138.0.0.0","Windows","10.0","https://app.prolific.com/","en-US,en;q=0.9,en-ZA;q=0.8","606e3cce02e2e8a8c965ca75","683db9eb0562dbf637994deb","6880b9df2ba19161174ebb57","2","1","606e3cce02e2e8a8c965ca75","2","1","2025-07-23T10:53:23.818Z","","","","","","","","","","","MotivationQ","","50","","","","","","","","","","","","","","","","","","","","","","","","","","","","",""
"","","","","ctl-task-cpt","69","1317887","0.0-5.0-0.12","209","1","2025-07-23 10:32:17","1f75c3e559b7213887762d5229550c2b","102.221.201.12","Mozilla/5.0 (Windows NT 10.0; Win64; x64) AppleWebKit/537.36 (KHTML, like Gecko) Chrome/138.0.0.0 Safari/537.36 Edg/138.0.0.0","WebKit","Edge","138.0.0.0","Windows","10.0","https://app.prolific.com/","en-US,en;q=0.9,en-ZA;q=0.8","606e3cce02e2e8a8c965ca75","683db9eb0562dbf637994deb","6880b9df2ba19161174ebb57","2","1","606e3cce02e2e8a8c965ca75","2","1","2025-07-23T10:54:16.791Z","","","","","","","","","","","","","","win-only","2","g1:SE,g2:NW","0.7","13","0","1266270.2","19537.4","24554.7","49947.1","1","4","4","6","1","-1","-1","7","8","0.05303030303030303","5017.3","3000","-930","[""down"",""right""]","{""num_key_presses"":4,""num_perfect"":3,""num_errors"":0,""num_randdir"":1,""num_randdir_good_moves"":0,""num_whilered"":0,""num_whileblue"":0,""num_blue"":1,""num_good_moves"":3}","[414.0714133126395,414.07142761775424,0.2,414.0714133126395,414.07142761775424,105.2,414.0714133126395,414.07142761775424,209.1,414.0714133126395,414.07142761775424,309.9,414.0714133126395,414.07142761775424,423.3,414.0714133126395,414.07142761775424,527.5,414.0714133126395,414.07142761775424,631.7,414.0714133126395,414.07142761775424,747.2,414.0714133126395,414.07142761775424,851,414.0714133126395,414.07142761775424,966.7,414.0714133126395,414.07142761775424,1068.4,414.0714133126395,414.07142761775424,1170.4,414.0714133126395,414.07142761775424,1281.2,414.0714133126395,414.07142761775424,1396.8,414.0714133126395,414.07142761775424,1513.1,414.0714133126395,414.07142761775424,1621.8,414.0714133126395,414.07142761775424,1723.1,414.0714133126395,414.07142761775424,1839.4,414.0714133126395,414.07142761775424,1949.3,414.0714133126395,414.07142761775424,2057.3,414.0714133126395,414.07142761775424,2169.3,414.0714133126395,414.07142761775424,2275.2,414.0714133126395,414.07142761775424,2386.5,414.0714133126395,414.07142761775424,2501.2,414.0714133126395,414.07142761775424,2606.2,414.0714133126395,414.07142761775424,2722.4,414.0714133126395,414.07142761775424,2834.4,414.0714133126395,414.07142761775424,2942.5,414.0714133126395,414.07142761775424,3064.3,414.0714133126395,414.07142761775424,3171.7,414.0714133126395,414.07142761775424,3272.9,414.0714133126395,414.07142761775424,3385.1,414.0714133126395,414.07142761775424,3491.9,414.0714133126395,414.07142761775424,3600.7,414.0714133126395,414.07142761775424,3710.7,414.0714133126395,414.07142761775424,3819.7,414.0714133126395,414.07142761775424,3933.5,414.0714133126395,414.07142761775424,4035.9,414.0714133126395,414.07142761775424,4147.4,414.0714133126395,414.07142761775424,4256.2,414.0714133126395,414.07142761775424,4356.7,414.0714133126395,414.07142761775424,4467.5,414.0714133126395,414.07142761775424,4567.7,414.0714133126395,414.07142761775424,4677.7,414.0714133126395,414.07142761775424,4793,414.0714133126395,414.07142761775424,4901.1]","[4367.2,4367.2,1000,0,3367.2,""smooth"",""right"",""right"",""good_move"",8148.9,3781,2473.8,4367.9,1307.2,""smooth"",""down"",""down"",""good_move"",15871.4,7722.4,3027.4,11729.9,1114.2,""oops"",""down"",""left"",""bad_move"",20410.2,4538.4,3242.2,15871.8,1296.2,""smooth"",""down"",""down"",""good_move""]","",""
"10556","","<div style=""width:500px;"">
  <p>What determined the result of this run?</p>
  </div>","0","html-slider-response","70","1328445","0.0-5.0-1.12","209","1","2025-07-23 10:32:17","1f75c3e559b7213887762d5229550c2b","102.221.201.12","Mozilla/5.0 (Windows NT 10.0; Win64; x64) AppleWebKit/537.36 (KHTML, like Gecko) Chrome/138.0.0.0 Safari/537.36 Edg/138.0.0.0","WebKit","Edge","138.0.0.0","Windows","10.0","https://app.prolific.com/","en-US,en;q=0.9,en-ZA;q=0.8","606e3cce02e2e8a8c965ca75","683db9eb0562dbf637994deb","6880b9df2ba19161174ebb57","2","1","606e3cce02e2e8a8c965ca75","2","1","2025-07-23T10:54:27.349Z","","","","","","","","","","","AttribQ","","50","","","","","","","","","","","","","","","","","","","","","","","","","","","","",""
"14162","","<div style=""width:500px;"">
  <p>How much control did you have over the ball?</p>
  </div>","89","html-slider-response","71","1342608","0.0-5.0-2.12","209","1","2025-07-23 10:32:17","1f75c3e559b7213887762d5229550c2b","102.221.201.12","Mozilla/5.0 (Windows NT 10.0; Win64; x64) AppleWebKit/537.36 (KHTML, like Gecko) Chrome/138.0.0.0 Safari/537.36 Edg/138.0.0.0","WebKit","Edge","138.0.0.0","Windows","10.0","https://app.prolific.com/","en-US,en;q=0.9,en-ZA;q=0.8","606e3cce02e2e8a8c965ca75","683db9eb0562dbf637994deb","6880b9df2ba19161174ebb57","2","1","606e3cce02e2e8a8c965ca75","2","1","2025-07-23T10:54:41.512Z","","","","","","","","","","","ControlQ","","50","","","","","","","","","","","","","","","","","","","","","","","","","","","","",""
"5610","","<div style=""width:500px;"">
  <p>How would you describe your current emotional state?</p>
  </div>","2","html-slider-response","72","1348219","0.0-5.0-3.12","209","1","2025-07-23 10:32:17","1f75c3e559b7213887762d5229550c2b","102.221.201.12","Mozilla/5.0 (Windows NT 10.0; Win64; x64) AppleWebKit/537.36 (KHTML, like Gecko) Chrome/138.0.0.0 Safari/537.36 Edg/138.0.0.0","WebKit","Edge","138.0.0.0","Windows","10.0","https://app.prolific.com/","en-US,en;q=0.9,en-ZA;q=0.8","606e3cce02e2e8a8c965ca75","683db9eb0562dbf637994deb","6880b9df2ba19161174ebb57","2","1","606e3cce02e2e8a8c965ca75","2","1","2025-07-23T10:54:47.123Z","","","","","","","","","","","StressQ","","50","","","","","","","","","","","","","","","","","","","","","","","","","","","","",""
"19864","","<div style=""width:500px;"">
  <p>What best describes how you currently feel?</p>
  </div>","87","html-slider-response","73","1368085","0.0-5.0-4.12","209","1","2025-07-23 10:32:17","1f75c3e559b7213887762d5229550c2b","102.221.201.12","Mozilla/5.0 (Windows NT 10.0; Win64; x64) AppleWebKit/537.36 (KHTML, like Gecko) Chrome/138.0.0.0 Safari/537.36 Edg/138.0.0.0","WebKit","Edge","138.0.0.0","Windows","10.0","https://app.prolific.com/","en-US,en;q=0.9,en-ZA;q=0.8","606e3cce02e2e8a8c965ca75","683db9eb0562dbf637994deb","6880b9df2ba19161174ebb57","2","1","606e3cce02e2e8a8c965ca75","2","1","2025-07-23T10:55:06.989Z","","","","","","","","","","","MotivationQ","","50","","","","","","","","","","","","","","","","","","","","","","","","","","","","",""
"","","","","ctl-task-cpt","74","1414572","0.0-5.0-0.13","209","1","2025-07-23 10:32:17","1f75c3e559b7213887762d5229550c2b","102.221.201.12","Mozilla/5.0 (Windows NT 10.0; Win64; x64) AppleWebKit/537.36 (KHTML, like Gecko) Chrome/138.0.0.0 Safari/537.36 Edg/138.0.0.0","WebKit","Edge","138.0.0.0","Windows","10.0","https://app.prolific.com/","en-US,en;q=0.9,en-ZA;q=0.8","606e3cce02e2e8a8c965ca75","683db9eb0562dbf637994deb","6880b9df2ba19161174ebb57","2","1","606e3cce02e2e8a8c965ca75","2","1","2025-07-23T10:55:53.476Z","","","","","","","","","","","","","","win-only","2","g1:SE,g2:NW","0.8","14","0","1369440.8","2494.8","7500.2","43458.9","1","4","8","6","2","-8","-8","0","7","0","5005.4","3000","-875","[""left"",""up""]","{""num_key_presses"":8,""num_perfect"":7,""num_errors"":0,""num_randdir"":1,""num_randdir_good_moves"":0,""num_whilered"":0,""num_whileblue"":0,""num_blue"":0,""num_good_moves"":5}","[421.5714133126395,426.57142761775424,0.2,421.5714133126395,426.57142761775424,104.6,421.5714133126395,426.57142761775424,210.5,421.5714133126395,426.57142761775424,316.1,421.5714133126395,426.57142761775424,420.6,421.5714133126395,426.57142761775424,534.7,421.5714133126395,426.57142761775424,635.9,421.5714133126395,426.57142761775424,753.2,424.0714133126395,425.32142761775424,869.4,437.8214133126395,421.57142761775424,987.3,447.8214133126395,421.57142761775424,1099.9,452.8214133126395,422.82142761775424,1201,456.5714133126395,427.82142761775424,1309.6,459.0714133126395,434.07142761775424,1416.7,464.0714133126395,442.82142761775424,1523.8,470.3214133126395,459.07142761775424,1644.9,475.3214133126395,476.57142761775424,1760.7,476.5714133126395,487.82142761775424,1865.1,476.5714133126395,501.57142761775424,1968,476.5714133126395,521.5714276177542,2068.7,480.3214133126395,547.8214276177542,2176.2,481.5714133126395,554.0714276177542,2281,481.5714133126395,554.0714276177542,2383.9,481.5714133126395,554.0714276177542,2498.3,481.5714133126395,554.0714276177542,2618,481.5714133126395,554.0714276177542,2723.4,481.5714133126395,554.0714276177542,2831,481.5714133126395,554.0714276177542,2941.2,481.5714133126395,554.0714276177542,3043.5,481.5714133126395,554.0714276177542,3143.6,481.5714133126395,554.0714276177542,3249.6,481.5714133126395,554.0714276177542,3365.2,481.5714133126395,554.0714276177542,3480.2,481.5714133126395,554.0714276177542,3583.7,481.5714133126395,554.0714276177542,3699.1,481.5714133126395,554.0714276177542,3814,481.5714133126395,554.0714276177542,3916.9,481.5714133126395,554.0714276177542,4029.7,481.5714133126395,554.0714276177542,4142.4,481.5714133126395,554.0714276177542,4249.5,481.5714133126395,554.0714276177542,4364.9,481.5714133126395,554.0714276177542,4466.7,481.5714133126395,554.0714276177542,4582.1,481.5714133126395,554.0714276177542,4683.7,481.5714133126395,554.0714276177542,4797.7,481.5714133126395,554.0714276177542,4901.1]","[3502.9,3503,1000,0,2503,""smooth"",""up"",""up"",""good_move"",7296.6,3793.3,1961.2,3503.3,1832.1,""smooth"",""up"",""up"",""good_move"",10991.6,3694.8,2658.1,7296.8,1036.7,""smooth"",""up"",""up"",""good_move"",14623.9,3632.1,3074.3,10991.9,557.7,""smooth"",""up"",""right"",""bad_move"",18298.1,3673.9,3122.2,14624.2,551.7,""smooth"",""up"",""right"",""bad_move"",25854.6,7556.2,2337.7,18298.4,5218.5,""smooth"",""up"",""left"",""good_move"",29629.4,3774.1,3087.6,25855.3,686.5,""oops"",""up"",""right"",""bad_move"",32637.8,3008.3,2470.4,29629.7,537.9,""smooth"",""up"",""left"",""good_move""]","",""
"6531","","<div style=""width:500px;"">
  <p>What determined the result of this run?</p>
  </div>","4","html-slider-response","75","1421104","0.0-5.0-1.13","209","1","2025-07-23 10:32:17","1f75c3e559b7213887762d5229550c2b","102.221.201.12","Mozilla/5.0 (Windows NT 10.0; Win64; x64) AppleWebKit/537.36 (KHTML, like Gecko) Chrome/138.0.0.0 Safari/537.36 Edg/138.0.0.0","WebKit","Edge","138.0.0.0","Windows","10.0","https://app.prolific.com/","en-US,en;q=0.9,en-ZA;q=0.8","606e3cce02e2e8a8c965ca75","683db9eb0562dbf637994deb","6880b9df2ba19161174ebb57","2","1","606e3cce02e2e8a8c965ca75","2","1","2025-07-23T10:56:00.008Z","","","","","","","","","","","AttribQ","","50","","","","","","","","","","","","","","","","","","","","","","","","","","","","",""
"20294","","<div style=""width:500px;"">
  <p>How much control did you have over the ball?</p>
  </div>","85","html-slider-response","76","1441398","0.0-5.0-2.13","209","1","2025-07-23 10:32:17","1f75c3e559b7213887762d5229550c2b","102.221.201.12","Mozilla/5.0 (Windows NT 10.0; Win64; x64) AppleWebKit/537.36 (KHTML, like Gecko) Chrome/138.0.0.0 Safari/537.36 Edg/138.0.0.0","WebKit","Edge","138.0.0.0","Windows","10.0","https://app.prolific.com/","en-US,en;q=0.9,en-ZA;q=0.8","606e3cce02e2e8a8c965ca75","683db9eb0562dbf637994deb","6880b9df2ba19161174ebb57","2","1","606e3cce02e2e8a8c965ca75","2","1","2025-07-23T10:56:20.302Z","","","","","","","","","","","ControlQ","","50","","","","","","","","","","","","","","","","","","","","","","","","","","","","",""
"23144","","<div style=""width:500px;"">
