"rt","response_timestamp","stimulus","response","trial_type","trial_index","time_elapsed","internal_node_id","run_id","condition","recorded_at","source_code_version","ip","user_agent","device","browser","browser_version","platform","platform_version","referer","accept_language","PROLIFIC_PID","STUDY_ID","SESSION_ID","WEEK","BATCH","prolific_id","week","batch","realtime","success","responses","item_order","radio_event_ids","radio_event_times","key_event_times","mouse_event_times","straightlining","zigzagging","honeypot","eventType","view_history","slider_start","which_type","canvas_config","goals_layout","control_level","trial_number","tutorial_trial_number","trial_start_time","phase1_start_time","phase2_start_time","phase3_start_time","goal_1_value","goal_1_distance","goal_2_value","goal_2_distance","goal_selected","outcome","outcome_total","participant_final_score","participant_initial_score","participant_final_score_prop","goal_choice_rt","allocated_time","allocated_time_remaining","goal_direction","counts","mouse_movements","key_presses","question_order","question_id"
"1986","1753270392936","<p style='font-size:40px;line-height:1.25'><strong>Welcome to the experiment!</strong></p><p style='font-size:1.1em;line-height:1.25'>Thank you for participanting in our experiment again! You will be asked to play the Dysfunctional Ball Game again. We will briefly recap the rules before we start.</p><p style='font-size:1.1em;line-height:1.25'>Press <strong>Next</strong> to continue.</p>","0","custom-html-button-response","0","1989","0.0-0.0","214","1","2025-07-23 11:33:09","1f75c3e559b7213887762d5229550c2b","84.67.34.58","Mozilla/5.0 (Macintosh; Intel Mac OS X 10_15_7) AppleWebKit/537.36 (KHTML, like Gecko) Chrome/138.0.0.0 Safari/537.36","Macintosh","Chrome","138.0.0.0","OS X","10_15_7","https://app.prolific.com/","en-GB,en-US;q=0.9,en;q=0.8","6658ba167affbe300577b93d","683dba2a8a9dda3513610c04","6880c86dfb55bcee783245d7","3","0","6658ba167affbe300577b93d","3","0","2025-07-23T11:33:12.937Z","","","","","","","","","","","","","","","","","","","","","","","","","","","","","","","","","","","","","","","","","",""
"3934","","","","fullscreen","1","6928","0.0-1.0","214","1","2025-07-23 11:33:09","1f75c3e559b7213887762d5229550c2b","84.67.34.58","Mozilla/5.0 (Macintosh; Intel Mac OS X 10_15_7) AppleWebKit/537.36 (KHTML, like Gecko) Chrome/138.0.0.0 Safari/537.36","Macintosh","Chrome","138.0.0.0","OS X","10_15_7","https://app.prolific.com/","en-GB,en-US;q=0.9,en;q=0.8","6658ba167affbe300577b93d","683dba2a8a9dda3513610c04","6880c86dfb55bcee783245d7","3","0","6658ba167affbe300577b93d","3","0","","true","","","","","","","","","","","","","","","","","","","","","","","","","","","","","","","","","","","","","","","","",""
"1267","1753270399145","<p style='font-size:1.1em;line-height:1.25'>In the following, we will ask you a few questions relating to your feelings in the last 24 hours.<br></p><p style='font-size:1.1em;line-height:1.25'>Press the <strong>Next</strong> button to continue.</p>","0","custom-html-button-response","2","8197","0.0-2.0-0.0","214","1","2025-07-23 11:33:09","1f75c3e559b7213887762d5229550c2b","84.67.34.58","Mozilla/5.0 (Macintosh; Intel Mac OS X 10_15_7) AppleWebKit/537.36 (KHTML, like Gecko) Chrome/138.0.0.0 Safari/537.36","Macintosh","Chrome","138.0.0.0","OS X","10_15_7","https://app.prolific.com/","en-GB,en-US;q=0.9,en;q=0.8","6658ba167affbe300577b93d","683dba2a8a9dda3513610c04","6880c86dfb55bcee783245d7","3","0","6658ba167affbe300577b93d","3","0","2025-07-23T11:33:19.145Z","","","","","","","","","","","","","","","","","","","","","","","","","","","","","","","","","","","","","","","","","",""
"46936.5","","","","survey-template","3","55141","0.0-2.0-1.0","214","1","2025-07-23 11:33:09","1f75c3e559b7213887762d5229550c2b","84.67.34.58","Mozilla/5.0 (Macintosh; Intel Mac OS X 10_15_7) AppleWebKit/537.36 (KHTML, like Gecko) Chrome/138.0.0.0 Safari/537.36","Macintosh","Chrome","138.0.0.0","OS X","10_15_7","https://app.prolific.com/","en-GB,en-US;q=0.9,en;q=0.8","6658ba167affbe300577b93d","683dba2a8a9dda3513610c04","6880c86dfb55bcee783245d7","3","0","6658ba167affbe300577b93d","3","0","2025-07-23T11:34:06.089Z","","{""Q01"":""2"",""Q02"":""1"",""Q03"":""2"",""Q04"":""2"",""Q05"":""1"",""Q06"":""1"",""Q07"":""1"",""Q08"":""0"",""Q09"":""0"",""Q10"":""2"",""Q11"":""2"",""Q12"":""1"",""Q13"":""5"",""Q14"":""0"",""Q15"":""2"",""Q16"":""2"",""Q17"":""2"",""Q18"":""1"",""Q19"":""1"",""Q20"":""0"",""Q21"":""0"",""Q22"":""0""}","[0,1,2,3,4,5,6,7,8,9,10,11,12,13,14,15,16,17,18,19,20,21]","[""Q01"",""Q02"",""Q02"",""Q03"",""Q03"",""Q04"",""Q05"",""Q06"",""Q07"",""Q08"",""Q09"",""Q10"",""Q11"",""Q12"",""Q13"",""Q14"",""Q15"",""Q15"",""Q16"",""Q17"",""Q18"",""Q19"",""Q19"",""Q20"",""Q21"",""Q22""]","[4846.300000000745,7860.699999999255,8365.900000000373,9254.800000000745,10402.699999999255,11155.400000000373,12562.099999999627,14339.5,15374.599999999627,16960.199999999255,18547.300000000745,19717.199999999255,21989.199999999255,25027,26207.800000000745,27648.800000000745,29864.300000000745,31810.300000000745,34713.199999999255,35118,37233.09999999963,38752,40777.300000000745,43318.90000000037,45197.90000000037,45704.40000000037]","[]","[0.09999999962747097,4846.300000000745,7860.699999999255,8365.900000000373,9254.800000000745,10402.699999999255,11155.400000000373,12562.099999999627,14339.5,15374.599999999627,16960.199999999255,18547.300000000745,19717.199999999255,21989.199999999255,25027,26207.800000000745,27648.800000000745,29864.300000000745,31810.300000000745,34713.199999999255,35118,37233.09999999963,38752,40777.300000000745,43318.90000000037,45197.90000000037,45704.40000000037,46930.59999999963]","0.36363636363636365","0.38095238095238093","0","drsp","","","","","","","","","","","","","","","","","","","","","","","","","","","","","","",""
"5908.5","","","","survey-template","4","61052","0.0-2.0-2.0","214","1","2025-07-23 11:33:09","1f75c3e559b7213887762d5229550c2b","84.67.34.58","Mozilla/5.0 (Macintosh; Intel Mac OS X 10_15_7) AppleWebKit/537.36 (KHTML, like Gecko) Chrome/138.0.0.0 Safari/537.36","Macintosh","Chrome","138.0.0.0","OS X","10_15_7","https://app.prolific.com/","en-GB,en-US;q=0.9,en;q=0.8","6658ba167affbe300577b93d","683dba2a8a9dda3513610c04","6880c86dfb55bcee783245d7","3","0","6658ba167affbe300577b93d","3","0","2025-07-23T11:34:12.000Z","","{""Q01"":""2"",""Q02"":""4"",""Q03"":""2""}","[0,1,2]","[""Q01"",""Q02"",""Q03""]","[2431.9000000003725,3893.5999999996275,5367.4000000003725]","[]","[2431.9000000003725,3893.5999999996275,5367.4000000003725,5907.0999999996275]","0.6666666666666666","1","0","stress","","","","","","","","","","","","","","","","","","","","","","","","","","","","","","",""
"2484","","","","instructions","5","63538","0.0-3.0-0.0","214","1","2025-07-23 11:33:09","1f75c3e559b7213887762d5229550c2b","84.67.34.58","Mozilla/5.0 (Macintosh; Intel Mac OS X 10_15_7) AppleWebKit/537.36 (KHTML, like Gecko) Chrome/138.0.0.0 Safari/537.36","Macintosh","Chrome","138.0.0.0","OS X","10_15_7","https://app.prolific.com/","en-GB,en-US;q=0.9,en;q=0.8","6658ba167affbe300577b93d","683dba2a8a9dda3513610c04","6880c86dfb55bcee783245d7","3","0","6658ba167affbe300577b93d","3","0","","","","","","","","","","","","","[{""page_index"":0,""viewing_time"":2484}]","","","","","","","","","","","","","","","","","","","","","","","","","","","","","",""
"2033","","<p>Before you start with this game please answer the following three questions yourself. </p>
  <p>Through this game, we measure several aspects of your cognitive performance, such as reaction times, multi-tasking capabilities </p>
  <p>and the ability to assess the situation you are in.</p>
  <p></p>
  <p><b>How good do you usually are in such tasks?</b></p>","58","html-slider-response","6","65573","0.0-4.0-0.0","214","1","2025-07-23 11:33:09","1f75c3e559b7213887762d5229550c2b","84.67.34.58","Mozilla/5.0 (Macintosh; Intel Mac OS X 10_15_7) AppleWebKit/537.36 (KHTML, like Gecko) Chrome/138.0.0.0 Safari/537.36","Macintosh","Chrome","138.0.0.0","OS X","10_15_7","https://app.prolific.com/","en-GB,en-US;q=0.9,en;q=0.8","6658ba167affbe300577b93d","683dba2a8a9dda3513610c04","6880c86dfb55bcee783245d7","3","0","6658ba167affbe300577b93d","3","0","2025-07-23T11:34:16.522Z","","","","","","","","","","","PreSkillQ","","50","","","","","","","","","","","","","","","","","","","","","","","","","","","","",""
"2319","","<div style=""width:500px;"">
  <p>How well do you think you will perform in this task compared to other participants?</p>
  </div>","59","html-slider-response","7","67894","0.0-4.0-1.0","214","1","2025-07-23 11:33:09","1f75c3e559b7213887762d5229550c2b","84.67.34.58","Mozilla/5.0 (Macintosh; Intel Mac OS X 10_15_7) AppleWebKit/537.36 (KHTML, like Gecko) Chrome/138.0.0.0 Safari/537.36","Macintosh","Chrome","138.0.0.0","OS X","10_15_7","https://app.prolific.com/","en-GB,en-US;q=0.9,en;q=0.8","6658ba167affbe300577b93d","683dba2a8a9dda3513610c04","6880c86dfb55bcee783245d7","3","0","6658ba167affbe300577b93d","3","0","2025-07-23T11:34:18.842Z","","","","","","","","","","","PrePerfQ","","50","","","","","","","","","","","","","","","","","","","","","","","","","","","","",""
"2595","","<div style=""width:500px;"">
  <p>What best describes how you currently feel?</p>
  </div>","40","html-slider-response","8","70490","0.0-4.0-2.0","214","1","2025-07-23 11:33:09","1f75c3e559b7213887762d5229550c2b","84.67.34.58","Mozilla/5.0 (Macintosh; Intel Mac OS X 10_15_7) AppleWebKit/537.36 (KHTML, like Gecko) Chrome/138.0.0.0 Safari/537.36","Macintosh","Chrome","138.0.0.0","OS X","10_15_7","https://app.prolific.com/","en-GB,en-US;q=0.9,en;q=0.8","6658ba167affbe300577b93d","683dba2a8a9dda3513610c04","6880c86dfb55bcee783245d7","3","0","6658ba167affbe300577b93d","3","0","2025-07-23T11:34:21.438Z","","","","","","","","","","","PreMotivationQ","","50","","","","","","","","","","","","","","","","","","","","","","","","","","","","",""
"","","","","ctl-task-cpt","9","106387","0.0-5.0-0.0","214","1","2025-07-23 11:33:09","1f75c3e559b7213887762d5229550c2b","84.67.34.58","Mozilla/5.0 (Macintosh; Intel Mac OS X 10_15_7) AppleWebKit/537.36 (KHTML, like Gecko) Chrome/138.0.0.0 Safari/537.36","Macintosh","Chrome","138.0.0.0","OS X","10_15_7","https://app.prolific.com/","en-GB,en-US;q=0.9,en;q=0.8","6658ba167affbe300577b93d","683dba2a8a9dda3513610c04","6880c86dfb55bcee783245d7","3","0","6658ba167affbe300577b93d","3","0","2025-07-23T11:34:57.335Z","","","","","","","","","","","","","","win-only","2","g1:SE,g2:NW","1","1","0","72180.8","1897.9","6901.3","32880.4","1","4","4","6","2","4","4","4","0","0.030303030303030304","1167.3","3000","555","[""left"",""up""]","{""num_key_presses"":6,""num_perfect"":6,""num_errors"":0,""num_randdir"":0,""num_randdir_good_moves"":0,""num_whilered"":0,""num_whileblue"":0,""num_blue"":3,""num_good_moves"":6}","[690.2857142857143,690.0825892857143,0.3,690.2857142857143,690.0825892857143,103.1,690.2857142857143,690.0825892857143,204,690.2857142857143,690.0825892857143,304,690.2857142857143,690.0825892857143,408.6,820.2857142857143,826.0825892857143,513.4,822.2857142857143,824.0825892857143,614,832.2857142857143,810.0825892857143,716.8,366.2857142857143,462.0825892857143,818.5,278.2857142857143,228.08258928571428,923.4,120.28571428571429,72.08258928571429,1028.5,116.28571428571429,62.08258928571429,1139.5,116.28571428571429,62.08258928571429,1243.1,116.28571428571429,62.08258928571429,1343.4,270.2857142857143,144.08258928571428,1443.9,894.2857142857143,498.0825892857143,1550.9,914.2857142857143,512.0825892857143,1654.4,914.2857142857143,512.0825892857143,1758.6,914.2857142857143,512.0825892857143,1858.9,914.2857142857143,512.0825892857143,1959.1,914.2857142857143,512.0825892857143,2064.3,914.2857142857143,512.0825892857143,2168.2,914.2857142857143,512.0825892857143,2274,914.2857142857143,512.0825892857143,2374.4,914.2857142857143,512.0825892857143,2479.4,914.2857142857143,512.0825892857143,2583.2,914.2857142857143,512.0825892857143,2683.8,914.2857142857143,512.0825892857143,2788.8,914.2857142857143,512.0825892857143,2888.9,914.2857142857143,512.0825892857143,2993,914.2857142857143,512.0825892857143,3094.1,914.2857142857143,512.0825892857143,3198.6,914.2857142857143,512.0825892857143,3304,914.2857142857143,512.0825892857143,3409.1,914.2857142857143,512.0825892857143,3509.4,914.2857142857143,512.0825892857143,3613.1,914.2857142857143,512.0825892857143,3714.7,914.2857142857143,512.0825892857143,3814.9,914.2857142857143,512.0825892857143,3918.3,914.2857142857143,512.0825892857143,4023.7,914.2857142857143,512.0825892857143,4128.3,914.2857142857143,512.0825892857143,4229.1,914.2857142857143,512.0825892857143,4341.3,914.2857142857143,512.0825892857143,4443,914.2857142857143,512.0825892857143,4544.1,914.2857142857143,512.0825892857143,4648.5,914.2857142857143,512.0825892857143,4748.7,914.2857142857143,512.0825892857143,4853.3,914.2857142857143,512.0825892857143,4953.6]","[9101.9,9101.9,2659.3,5937.3,505.3,""smooth"",""left"",""left"",""good_move"",15122.4,6020.2,2446.6,12105.1,570.7,""smooth"",""left"",""left"",""good_move"",17809.8,2687.2,2208.2,15122.6,479,""smooth"",""up"",""up"",""good_move"",20535.6,2725.4,2336.5,17810.2,388.9,""smooth"",""left"",""left"",""good_move"",23068.2,2532.2,2164.7,20536,367.5,""smooth"",""up"",""up"",""good_move"",25880.4,2811.9,2470.3,23068.5,341.6,""smooth"",""up"",""up"",""good_move""]","",""
"2699","","<div style=""width:500px;"">
  <p>What determined the result of this run?</p>
  </div>","100","html-slider-response","10","109089","0.0-5.0-1.0","214","1","2025-07-23 11:33:09","1f75c3e559b7213887762d5229550c2b","84.67.34.58","Mozilla/5.0 (Macintosh; Intel Mac OS X 10_15_7) AppleWebKit/537.36 (KHTML, like Gecko) Chrome/138.0.0.0 Safari/537.36","Macintosh","Chrome","138.0.0.0","OS X","10_15_7","https://app.prolific.com/","en-GB,en-US;q=0.9,en;q=0.8","6658ba167affbe300577b93d","683dba2a8a9dda3513610c04","6880c86dfb55bcee783245d7","3","0","6658ba167affbe300577b93d","3","0","2025-07-23T11:35:00.038Z","","","","","","","","","","","AttribQ","","50","","","","","","","","","","","","","","","","","","","","","","","","","","","","",""
"2001","","<div style=""width:500px;"">
  <p>How much control did you have over the ball?</p>
  </div>","100","html-slider-response","11","111092","0.0-5.0-2.0","214","1","2025-07-23 11:33:09","1f75c3e559b7213887762d5229550c2b","84.67.34.58","Mozilla/5.0 (Macintosh; Intel Mac OS X 10_15_7) AppleWebKit/537.36 (KHTML, like Gecko) Chrome/138.0.0.0 Safari/537.36","Macintosh","Chrome","138.0.0.0","OS X","10_15_7","https://app.prolific.com/","en-GB,en-US;q=0.9,en;q=0.8","6658ba167affbe300577b93d","683dba2a8a9dda3513610c04","6880c86dfb55bcee783245d7","3","0","6658ba167affbe300577b93d","3","0","2025-07-23T11:35:02.040Z","","","","","","","","","","","ControlQ","","50","","","","","","","","","","","","","","","","","","","","","","","","","","","","",""
"3621","","<div style=""width:500px;"">
  <p>How would you describe your current emotional state?</p>
  </div>","50","html-slider-response","12","114714","0.0-5.0-3.0","214","1","2025-07-23 11:33:09","1f75c3e559b7213887762d5229550c2b","84.67.34.58","Mozilla/5.0 (Macintosh; Intel Mac OS X 10_15_7) AppleWebKit/537.36 (KHTML, like Gecko) Chrome/138.0.0.0 Safari/537.36","Macintosh","Chrome","138.0.0.0","OS X","10_15_7","https://app.prolific.com/","en-GB,en-US;q=0.9,en;q=0.8","6658ba167affbe300577b93d","683dba2a8a9dda3513610c04","6880c86dfb55bcee783245d7","3","0","6658ba167affbe300577b93d","3","0","2025-07-23T11:35:05.663Z","","","","","","","","","","","StressQ","","50","","","","","","","","","","","","","","","","","","","","","","","","","","","","",""
"2124","","<div style=""width:500px;"">
  <p>What best describes how you currently feel?</p>
  </div>","65","html-slider-response","13","116840","0.0-5.0-4.0","214","1","2025-07-23 11:33:09","1f75c3e559b7213887762d5229550c2b","84.67.34.58","Mozilla/5.0 (Macintosh; Intel Mac OS X 10_15_7) AppleWebKit/537.36 (KHTML, like Gecko) Chrome/138.0.0.0 Safari/537.36","Macintosh","Chrome","138.0.0.0","OS X","10_15_7","https://app.prolific.com/","en-GB,en-US;q=0.9,en;q=0.8","6658ba167affbe300577b93d","683dba2a8a9dda3513610c04","6880c86dfb55bcee783245d7","3","0","6658ba167affbe300577b93d","3","0","2025-07-23T11:35:07.788Z","","","","","","","","","","","MotivationQ","","50","","","","","","","","","","","","","","","","","","","","","","","","","","","","",""
"","","","","ctl-task-cpt","14","142865","0.0-5.0-0.1","214","1","2025-07-23 11:33:09","1f75c3e559b7213887762d5229550c2b","84.67.34.58","Mozilla/5.0 (Macintosh; Intel Mac OS X 10_15_7) AppleWebKit/537.36 (KHTML, like Gecko) Chrome/138.0.0.0 Safari/537.36","Macintosh","Chrome","138.0.0.0","OS X","10_15_7","https://app.prolific.com/","en-GB,en-US;q=0.9,en;q=0.8","6658ba167affbe300577b93d","683dba2a8a9dda3513610c04","6880c86dfb55bcee783245d7","3","0","6658ba167affbe300577b93d","3","0","2025-07-23T11:35:33.813Z","","","","","","","","","","","","","","win-only","3","g1:SW,g2:NE","0.9","2","0","118526.5","1938","6946.1","23015.6","1","4","8","6","2","8","8","12","4","0.09090909090909091","987","3000","1065","[""up"",""right""]","{""num_key_presses"":6,""num_perfect"":6,""num_errors"":0,""num_randdir"":0,""num_randdir_good_moves"":0,""num_whilered"":0,""num_whileblue"":0,""num_blue"":0,""num_good_moves"":6}","[698.2857142857143,692.0825892857143,0.3,698.2857142857143,692.0825892857143,103.4,698.2857142857143,692.0825892857143,209.7,698.2857142857143,692.0825892857143,309.8,698.2857142857143,692.0825892857143,430.6,1004.2857142857143,434.0825892857143,534.7,1180.2857142857142,214.08258928571428,639.5,1186.2857142857142,206.08258928571428,745.3,1302.2857142857142,108.08258928571429,849.7,1304.2857142857142,108.08258928571429,964.1,1304.2857142857142,108.08258928571429,1069.6,1304.2857142857142,108.08258928571429,1174.7,1304.2857142857142,108.08258928571429,1281.5,1304.2857142857142,108.08258928571429,1384.2,1304.2857142857142,108.08258928571429,1488.9,1304.2857142857142,108.08258928571429,1589.3,1304.2857142857142,108.08258928571429,1694.4,1304.2857142857142,108.08258928571429,1797.4,1304.2857142857142,108.08258928571429,1908.4,1304.2857142857142,108.08258928571429,2009.2,1304.2857142857142,108.08258928571429,2114.8,1304.2857142857142,108.08258928571429,2219.1,1304.2857142857142,108.08258928571429,2323.2,1304.2857142857142,108.08258928571429,2423.4,1304.2857142857142,108.08258928571429,2524.4,1304.2857142857142,108.08258928571429,2629.4,1304.2857142857142,108.08258928571429,2734.2,1304.2857142857142,108.08258928571429,2839.1,1304.2857142857142,108.08258928571429,2944.4,1304.2857142857142,108.08258928571429,3055.3,1304.2857142857142,108.08258928571429,3160.9,1304.2857142857142,108.08258928571429,3263,1304.2857142857142,108.08258928571429,3375.3,1304.2857142857142,108.08258928571429,3479.2,1304.2857142857142,108.08258928571429,3580.9,1304.2857142857142,108.08258928571429,3681.9,1304.2857142857142,108.08258928571429,3782.4,1304.2857142857142,108.08258928571429,3883.8,1304.2857142857142,108.08258928571429,3988.5,1304.2857142857142,108.08258928571429,4089.3,1304.2857142857142,108.08258928571429,4189.9,1304.2857142857142,108.08258928571429,4294,1304.2857142857142,108.08258928571429,4394.7,1304.2857142857142,108.08258928571429,4494.7,1304.2857142857142,108.08258928571429,4597,1304.2857142857142,108.08258928571429,4698,1304.2857142857142,108.08258928571429,4805.5,1304.2857142857142,108.08258928571429,4908.8]","[1393.7,1393.7,1000,0,393.7,""smooth"",""up"",""up"",""good_move"",4687.8,3293.9,2888.5,1393.9,405.4,""smooth"",""up"",""up"",""good_move"",7629.8,2941.8,2612.4,4688,329.4,""smooth"",""up"",""up"",""good_move"",10065.9,2435.9,2111.9,7630,324,""smooth"",""right"",""right"",""good_move"",13432.7,3366.5,2979.9,10066.2,386.6,""smooth"",""right"",""right"",""good_move"",15957.3,2524.2,2124.7,13433.2,399.4,""smooth"",""right"",""right"",""good_move""]","",""
"1750","","<div style=""width:500px;"">
  <p>What determined the result of this run?</p>
  </div>","100","html-slider-response","15","144616","0.0-5.0-1.1","214","1","2025-07-23 11:33:09","1f75c3e559b7213887762d5229550c2b","84.67.34.58","Mozilla/5.0 (Macintosh; Intel Mac OS X 10_15_7) AppleWebKit/537.36 (KHTML, like Gecko) Chrome/138.0.0.0 Safari/537.36","Macintosh","Chrome","138.0.0.0","OS X","10_15_7","https://app.prolific.com/","en-GB,en-US;q=0.9,en;q=0.8","6658ba167affbe300577b93d","683dba2a8a9dda3513610c04","6880c86dfb55bcee783245d7","3","0","6658ba167affbe300577b93d","3","0","2025-07-23T11:35:35.564Z","","","","","","","","","","","AttribQ","","50","","","","","","","","","","","","","","","","","","","","","","","","","","","","",""
"1619","","<div style=""width:500px;"">
  <p>How much control did you have over the ball?</p>
  </div>","100","html-slider-response","16","146237","0.0-5.0-2.1","214","1","2025-07-23 11:33:09","1f75c3e559b7213887762d5229550c2b","84.67.34.58","Mozilla/5.0 (Macintosh; Intel Mac OS X 10_15_7) AppleWebKit/537.36 (KHTML, like Gecko) Chrome/138.0.0.0 Safari/537.36","Macintosh","Chrome","138.0.0.0","OS X","10_15_7","https://app.prolific.com/","en-GB,en-US;q=0.9,en;q=0.8","6658ba167affbe300577b93d","683dba2a8a9dda3513610c04","6880c86dfb55bcee783245d7","3","0","6658ba167affbe300577b93d","3","0","2025-07-23T11:35:37.185Z","","","","","","","","","","","ControlQ","","50","","","","","","","","","","","","","","","","","","","","","","","","","","","","",""
"1764","","<div style=""width:500px;"">
  <p>How would you describe your current emotional state?</p>
  </div>","47","html-slider-response","17","148002","0.0-5.0-3.1","214","1","2025-07-23 11:33:09","1f75c3e559b7213887762d5229550c2b","84.67.34.58","Mozilla/5.0 (Macintosh; Intel Mac OS X 10_15_7) AppleWebKit/537.36 (KHTML, like Gecko) Chrome/138.0.0.0 Safari/537.36","Macintosh","Chrome","138.0.0.0","OS X","10_15_7","https://app.prolific.com/","en-GB,en-US;q=0.9,en;q=0.8","6658ba167affbe300577b93d","683dba2a8a9dda3513610c04","6880c86dfb55bcee783245d7","3","0","6658ba167affbe300577b93d","3","0","2025-07-23T11:35:38.950Z","","","","","","","","","","","StressQ","","50","","","","","","","","","","","","","","","","","","","","","","","","","","","","",""
"1664","","<div style=""width:500px;"">
  <p>What best describes how you currently feel?</p>
  </div>","55","html-slider-response","18","149667","0.0-5.0-4.1","214","1","2025-07-23 11:33:09","1f75c3e559b7213887762d5229550c2b","84.67.34.58","Mozilla/5.0 (Macintosh; Intel Mac OS X 10_15_7) AppleWebKit/537.36 (KHTML, like Gecko) Chrome/138.0.0.0 Safari/537.36","Macintosh","Chrome","138.0.0.0","OS X","10_15_7","https://app.prolific.com/","en-GB,en-US;q=0.9,en;q=0.8","6658ba167affbe300577b93d","683dba2a8a9dda3513610c04","6880c86dfb55bcee783245d7","3","0","6658ba167affbe300577b93d","3","0","2025-07-23T11:35:40.615Z","","","","","","","","","","","MotivationQ","","50","","","","","","","","","","","","","","","","","","","","","","","","","","","","",""
"","","","","ctl-task-cpt","19","180972","0.0-5.0-0.2","214","1","2025-07-23 11:33:09","1f75c3e559b7213887762d5229550c2b","84.67.34.58","Mozilla/5.0 (Macintosh; Intel Mac OS X 10_15_7) AppleWebKit/537.36 (KHTML, like Gecko) Chrome/138.0.0.0 Safari/537.36","Macintosh","Chrome","138.0.0.0","OS X","10_15_7","https://app.prolific.com/","en-GB,en-US;q=0.9,en;q=0.8","6658ba167affbe300577b93d","683dba2a8a9dda3513610c04","6880c86dfb55bcee783245d7","3","0","6658ba167affbe300577b93d","3","0","2025-07-23T11:36:11.920Z","","","","","","","","","","","","","","win-only","2","g1:SE,g2:NW","0.8","3","0","151353.9","687.1","5701","28291","1","4","8","6","2","8","8","20","12","0.15151515151515152","1033","3000","800","[""left"",""up""]","{""num_key_presses"":6,""num_perfect"":5,""num_errors"":0,""num_randdir"":1,""num_randdir_good_moves"":1,""num_whilered"":0,""num_whileblue"":0,""num_blue"":2,""num_good_moves"":6}","[694.2857142857143,686.0825892857143,0.2,694.2857142857143,686.0825892857143,105.7,694.2857142857143,686.0825892857143,213.3,694.2857142857143,686.0825892857143,314.3,694.2857142857143,686.0825892857143,429.9,692.2857142857143,686.0825892857143,543.5,514.2857142857143,392.0825892857143,653.6,348.2857142857143,204.08258928571428,762.3,232.28571428571428,150.08258928571428,864.1,142.28571428571428,92.08258928571429,964.2,136.28571428571428,92.08258928571429,1064.2,136.28571428571428,92.08258928571429,1164.9,136.28571428571428,92.08258928571429,1280.9,136.28571428571428,92.08258928571429,1393,136.28571428571428,92.08258928571429,1495.1,136.28571428571428,92.08258928571429,1605.3,136.28571428571428,92.08258928571429,1709.5,136.28571428571428,92.08258928571429,1814.5,136.28571428571428,92.08258928571429,1929.7,136.28571428571428,92.08258928571429,2038.9,136.28571428571428,92.08258928571429,2141.7,136.28571428571428,92.08258928571429,2243.8,136.28571428571428,92.08258928571429,2348.4,136.28571428571428,92.08258928571429,2448.7,136.28571428571428,92.08258928571429,2552.2,136.28571428571428,92.08258928571429,2655.1,136.28571428571428,92.08258928571429,2758.5,136.28571428571428,92.08258928571429,2862.8,136.28571428571428,92.08258928571429,2964.2,136.28571428571428,92.08258928571429,3080.1,136.28571428571428,92.08258928571429,3188.5,136.28571428571428,92.08258928571429,3297.8,136.28571428571428,92.08258928571429,3404.5,136.28571428571428,92.08258928571429,3508.4,136.28571428571428,92.08258928571429,3615,136.28571428571428,92.08258928571429,3719.8,136.28571428571428,92.08258928571429,3829.3,136.28571428571428,92.08258928571429,3937.4,136.28571428571428,92.08258928571429,4039,136.28571428571428,92.08258928571429,4143.9,136.28571428571428,92.08258928571429,4249.1,136.28571428571428,92.08258928571429,4349.7,136.28571428571428,92.08258928571429,4453.8,136.28571428571428,92.08258928571429,4564,136.28571428571428,92.08258928571429,4673.5,136.28571428571428,92.08258928571429,4774,136.28571428571428,92.08258928571429,4879.4,136.28571428571428,92.08258928571429,4989.2]","[1411,1411.1,1000,0,411.2,""smooth"",""up"",""up"",""good_move"",7689.6,6277.5,1988.3,5221.9,479.4,""smooth"",""left"",""left"",""good_move"",14637.5,6946.5,2566.4,11588.1,483,""oops"",""left"",""up"",""good_move"",17944.6,3306.9,2849.7,14637.7,457.2,""smooth"",""left"",""left"",""good_move"",20384.1,2438.9,1859.7,17945.2,579.2,""smooth"",""left"",""left"",""good_move"",22471.7,2087.4,1677.7,20384.4,409.6,""smooth"",""up"",""up"",""good_move""]","",""
"2433","","<div style=""width:500px;"">
  <p>What determined the result of this run?</p>
  </div>","91","html-slider-response","20","183408","0.0-5.0-1.2","214","1","2025-07-23 11:33:09","1f75c3e559b7213887762d5229550c2b","84.67.34.58","Mozilla/5.0 (Macintosh; Intel Mac OS X 10_15_7) AppleWebKit/537.36 (KHTML, like Gecko) Chrome/138.0.0.0 Safari/537.36","Macintosh","Chrome","138.0.0.0","OS X","10_15_7","https://app.prolific.com/","en-GB,en-US;q=0.9,en;q=0.8","6658ba167affbe300577b93d","683dba2a8a9dda3513610c04","6880c86dfb55bcee783245d7","3","0","6658ba167affbe300577b93d","3","0","2025-07-23T11:36:14.356Z","","","","","","","","","","","AttribQ","","50","","","","","","","","","","","","","","","","","","","","","","","","","","","","",""
"1427","","<div style=""width:500px;"">
  <p>How much control did you have over the ball?</p>
  </div>","93","html-slider-response","21","184836","0.0-5.0-2.2","214","1","2025-07-23 11:33:09","1f75c3e559b7213887762d5229550c2b","84.67.34.58","Mozilla/5.0 (Macintosh; Intel Mac OS X 10_15_7) AppleWebKit/537.36 (KHTML, like Gecko) Chrome/138.0.0.0 Safari/537.36","Macintosh","Chrome","138.0.0.0","OS X","10_15_7","https://app.prolific.com/","en-GB,en-US;q=0.9,en;q=0.8","6658ba167affbe300577b93d","683dba2a8a9dda3513610c04","6880c86dfb55bcee783245d7","3","0","6658ba167affbe300577b93d","3","0","2025-07-23T11:36:15.785Z","","","","","","","","","","","ControlQ","","50","","","","","","","","","","","","","","","","","","","","","","","","","","","","",""
"2429","","<div style=""width:500px;"">
  <p>How would you describe your current emotional state?</p>
  </div>","46","html-slider-response","22","187267","0.0-5.0-3.2","214","1","2025-07-23 11:33:09","1f75c3e559b7213887762d5229550c2b","84.67.34.58","Mozilla/5.0 (Macintosh; Intel Mac OS X 10_15_7) AppleWebKit/537.36 (KHTML, like Gecko) Chrome/138.0.0.0 Safari/537.36","Macintosh","Chrome","138.0.0.0","OS X","10_15_7","https://app.prolific.com/","en-GB,en-US;q=0.9,en;q=0.8","6658ba167affbe300577b93d","683dba2a8a9dda3513610c04","6880c86dfb55bcee783245d7","3","0","6658ba167affbe300577b93d","3","0","2025-07-23T11:36:18.215Z","","","","","","","","","","","StressQ","","50","","","","","","","","","","","","","","","","","","","","","","","","","","","","",""
"1170","","<div style=""width:500px;"">
  <p>What best describes how you currently feel?</p>
  </div>","63","html-slider-response","23","188439","0.0-5.0-4.2","214","1","2025-07-23 11:33:09","1f75c3e559b7213887762d5229550c2b","84.67.34.58","Mozilla/5.0 (Macintosh; Intel Mac OS X 10_15_7) AppleWebKit/537.36 (KHTML, like Gecko) Chrome/138.0.0.0 Safari/537.36","Macintosh","Chrome","138.0.0.0","OS X","10_15_7","https://app.prolific.com/","en-GB,en-US;q=0.9,en;q=0.8","6658ba167affbe300577b93d","683dba2a8a9dda3513610c04","6880c86dfb55bcee783245d7","3","0","6658ba167affbe300577b93d","3","0","2025-07-23T11:36:19.387Z","","","","","","","","","","","MotivationQ","","50","","","","","","","","","","","","","","","","","","","","","","","","","","","","",""
"","","","","ctl-task-cpt","24","238018","0.0-5.0-0.3","214","1","2025-07-23 11:33:09","1f75c3e559b7213887762d5229550c2b","84.67.34.58","Mozilla/5.0 (Macintosh; Intel Mac OS X 10_15_7) AppleWebKit/537.36 (KHTML, like Gecko) Chrome/138.0.0.0 Safari/537.36","Macintosh","Chrome","138.0.0.0","OS X","10_15_7","https://app.prolific.com/","en-GB,en-US;q=0.9,en;q=0.8","6658ba167affbe300577b93d","683dba2a8a9dda3513610c04","6880c86dfb55bcee783245d7","3","0","6658ba167affbe300577b93d","3","0","2025-07-23T11:37:08.966Z","","","","","","","","","","","","","","win-only","3","g1:SW,g2:NE","0.7","4","0","190125.6","893.5","5897.9","46562.8","1","4","4","6","2","-4","-4","16","20","0.12121212121212122","1002.8","3000","-2285","[""up"",""right""]","{""num_key_presses"":9,""num_perfect"":6,""num_errors"":0,""num_randdir"":3,""num_randdir_good_moves"":1,""num_whilered"":0,""num_whileblue"":0,""num_blue"":4,""num_good_moves"":7}","[694.2857142857143,690.0825892857143,0.2,694.2857142857143,690.0825892857143,101.5,694.2857142857143,690.0825892857143,202.1,694.2857142857143,690.0825892857143,302.6,694.2857142857143,690.0825892857143,407.6,672.2857142857143,732.0825892857143,516.6,662.2857142857143,774.0825892857143,618.4,1164.2857142857142,314.0825892857143,729,1254.2857142857142,194.08258928571428,833.5,1272.2857142857142,172.08258928571428,939.1,1290.2857142857142,142.08258928571428,1094.1,1292.2857142857142,140.08258928571428,1200.5,1292.2857142857142,140.08258928571428,1305.3,1292.2857142857142,140.08258928571428,1416.1,1292.2857142857142,140.08258928571428,1518.9,1292.2857142857142,140.08258928571428,1620.1,1292.2857142857142,140.08258928571428,1723.1,1292.2857142857142,140.08258928571428,1832.7,1292.2857142857142,140.08258928571428,1934.2,1292.2857142857142,140.08258928571428,2034.8,1292.2857142857142,140.08258928571428,2135.2,1292.2857142857142,140.08258928571428,2237.5,1292.2857142857142,140.08258928571428,2346.9,1292.2857142857142,140.08258928571428,2448,1292.2857142857142,140.08258928571428,2550.4,1292.2857142857142,140.08258928571428,2660.7,1292.2857142857142,140.08258928571428,2766.4,1292.2857142857142,140.08258928571428,2867.7,1292.2857142857142,140.08258928571428,2968,1292.2857142857142,140.08258928571428,3068,1292.2857142857142,140.08258928571428,3172.5,1292.2857142857142,140.08258928571428,3280.7,1292.2857142857142,140.08258928571428,3382.4,1292.2857142857142,140.08258928571428,3482.7,1292.2857142857142,140.08258928571428,3584.1,1292.2857142857142,140.08258928571428,3697,1292.2857142857142,140.08258928571428,3797.3,1292.2857142857142,140.08258928571428,3898.7,1292.2857142857142,140.08258928571428,4011.9,1292.2857142857142,140.08258928571428,4112.7,1292.2857142857142,140.08258928571428,4216.4,1292.2857142857142,140.08258928571428,4323.1,1292.2857142857142,140.08258928571428,4425.4,1292.2857142857142,140.08258928571428,4529.8,1292.2857142857142,140.08258928571428,4633.6,1292.2857142857142,140.08258928571428,4738,1292.2857142857142,140.08258928571428,4838.1,1292.2857142857142,140.08258928571428,4941.1]","[1542.6,1542.6,1000,0,542.6,""oops"",""up"",""down"",""bad_move"",4387.3,2844.2,2443.9,1543.2,400.3,""smooth"",""right"",""right"",""good_move"",7640.9,3252.8,2843.7,4388.1,409.1,""smooth"",""up"",""up"",""good_move"",14961,7319.8,3420.1,11112.3,428.6,""smooth"",""up"",""up"",""good_move"",16776.6,1815.4,1307,14961.2,508.4,""oops"",""right"",""right"",""good_move"",19995.9,3218.4,2803.3,16777.5,415.1,""smooth"",""right"",""right"",""good_move"",25328.4,5332.1,1929.2,22978.3,420.9,""smooth"",""up"",""up"",""good_move"",31278.3,5949.6,2008.4,28863.5,406.4,""oops"",""up"",""down"",""bad_move"",37179.7,5901,1888.8,34879,411.9,""smooth"",""up"",""up"",""good_move""]","",""
"3355","","<div style=""width:500px;"">
  <p>What determined the result of this run?</p>
  </div>","24","html-slider-response","25","241375","0.0-5.0-1.3","214","1","2025-07-23 11:33:09","1f75c3e559b7213887762d5229550c2b","84.67.34.58","Mozilla/5.0 (Macintosh; Intel Mac OS X 10_15_7) AppleWebKit/537.36 (KHTML, like Gecko) Chrome/138.0.0.0 Safari/537.36","Macintosh","Chrome","138.0.0.0","OS X","10_15_7","https://app.prolific.com/","en-GB,en-US;q=0.9,en;q=0.8","6658ba167affbe300577b93d","683dba2a8a9dda3513610c04","6880c86dfb55bcee783245d7","3","0","6658ba167affbe300577b93d","3","0","2025-07-23T11:37:12.324Z","","","","","","","","","","","AttribQ","","50","","","","","","","","","","","","","","","","","","","","","","","","","","","","",""
"1561","","<div style=""width:500px;"">
  <p>How much control did you have over the ball?</p>
  </div>","30","html-slider-response","26","242938","0.0-5.0-2.3","214","1","2025-07-23 11:33:09","1f75c3e559b7213887762d5229550c2b","84.67.34.58","Mozilla/5.0 (Macintosh; Intel Mac OS X 10_15_7) AppleWebKit/537.36 (KHTML, like Gecko) Chrome/138.0.0.0 Safari/537.36","Macintosh","Chrome","138.0.0.0","OS X","10_15_7","https://app.prolific.com/","en-GB,en-US;q=0.9,en;q=0.8","6658ba167affbe300577b93d","683dba2a8a9dda3513610c04","6880c86dfb55bcee783245d7","3","0","6658ba167affbe300577b93d","3","0","2025-07-23T11:37:13.887Z","","","","","","","","","","","ControlQ","","50","","","","","","","","","","","","","","","","","","","","","","","","","","","","",""
"1856","","<div style=""width:500px;"">
  <p>How would you describe your current emotional state?</p>
  </div>","62","html-slider-response","27","244796","0.0-5.0-3.3","214","1","2025-07-23 11:33:09","1f75c3e559b7213887762d5229550c2b","84.67.34.58","Mozilla/5.0 (Macintosh; Intel Mac OS X 10_15_7) AppleWebKit/537.36 (KHTML, like Gecko) Chrome/138.0.0.0 Safari/537.36","Macintosh","Chrome","138.0.0.0","OS X","10_15_7","https://app.prolific.com/","en-GB,en-US;q=0.9,en;q=0.8","6658ba167affbe300577b93d","683dba2a8a9dda3513610c04","6880c86dfb55bcee783245d7","3","0","6658ba167affbe300577b93d","3","0","2025-07-23T11:37:15.744Z","","","","","","","","","","","StressQ","","50","","","","","","","","","","","","","","","","","","","","","","","","","","","","",""
"1816","","<div style=""width:500px;"">
  <p>What best describes how you currently feel?</p>
  </div>","61","html-slider-response","28","246614","0.0-5.0-4.3","214","1","2025-07-23 11:33:09","1f75c3e559b7213887762d5229550c2b","84.67.34.58","Mozilla/5.0 (Macintosh; Intel Mac OS X 10_15_7) AppleWebKit/537.36 (KHTML, like Gecko) Chrome/138.0.0.0 Safari/537.36","Macintosh","Chrome","138.0.0.0","OS X","10_15_7","https://app.prolific.com/","en-GB,en-US;q=0.9,en;q=0.8","6658ba167affbe300577b93d","683dba2a8a9dda3513610c04","6880c86dfb55bcee783245d7","3","0","6658ba167affbe300577b93d","3","0","2025-07-23T11:37:17.562Z","","","","","","","","","","","MotivationQ","","50","","","","","","","","","","","","","","","","","","","","","","","","","","","","",""
"","","","","ctl-task-cpt","29","285192","0.0-5.0-0.4","214","1","2025-07-23 11:33:09","1f75c3e559b7213887762d5229550c2b","84.67.34.58","Mozilla/5.0 (Macintosh; Intel Mac OS X 10_15_7) AppleWebKit/537.36 (KHTML, like Gecko) Chrome/138.0.0.0 Safari/537.36","Macintosh","Chrome","138.0.0.0","OS X","10_15_7","https://app.prolific.com/","en-GB,en-US;q=0.9,en;q=0.8","6658ba167affbe300577b93d","683dba2a8a9dda3513610c04","6880c86dfb55bcee783245d7","3","0","6658ba167affbe300577b93d","3","0","2025-07-23T11:37:56.140Z","","","","","","","","","","","","","","win-only","1","g1:NE,g2:SW","0.6","5","0","248298.3","783.3","5792.2","35552.2","1","4","4","6","2","4","4","20","16","0.15151515151515152","868.5","3000","1210","[""down"",""left""]","{""num_key_presses"":8,""num_perfect"":5,""num_errors"":0,""num_randdir"":3,""num_randdir_good_moves"":2,""num_whilered"":0,""num_whileblue"":0,""num_blue"":2,""num_good_moves"":7}","[704.2857142857143,688.0825892857143,1.6,704.2857142857143,688.0825892857143,107.5,702.2857142857143,688.0825892857143,214.7,720.2857142857143,676.0825892857143,315,800.2857142857143,650.0825892857143,418,434.2857142857143,1064.0825892857142,529.6,312.2857142857143,1200.0825892857142,630.2,200.28571428571428,1254.0825892857142,736.8,152.28571428571428,1268.0825892857142,843,152.28571428571428,1268.0825892857142,948.9,292.2857142857143,1268.0825892857142,1059.1,478.2857142857143,1254.0825892857142,1166.3,586.2857142857143,1206.0825892857142,1268.8,586.2857142857143,1206.0825892857142,1377.7,586.2857142857143,1206.0825892857142,1478.4,586.2857142857143,1206.0825892857142,1582.7,586.2857142857143,1206.0825892857142,1690.8,586.2857142857143,1206.0825892857142,1798.5,586.2857142857143,1206.0825892857142,1904.2,586.2857142857143,1206.0825892857142,2009.6,586.2857142857143,1206.0825892857142,2127.8,586.2857142857143,1206.0825892857142,2238.1,586.2857142857143,1206.0825892857142,2344.8,586.2857142857143,1206.0825892857142,2452.6,586.2857142857143,1206.0825892857142,2553,586.2857142857143,1206.0825892857142,2653.5,586.2857142857143,1206.0825892857142,2753.8,586.2857142857143,1206.0825892857142,2860.6,586.2857142857143,1206.0825892857142,2970.1,586.2857142857143,1206.0825892857142,3073.3,586.2857142857143,1206.0825892857142,3181.1,586.2857142857143,1206.0825892857142,3284.1,586.2857142857143,1206.0825892857142,3387.8,586.2857142857143,1206.0825892857142,3493,586.2857142857143,1206.0825892857142,3593.1,586.2857142857143,1206.0825892857142,3696.3,586.2857142857143,1206.0825892857142,3799.9,586.2857142857143,1206.0825892857142,3903.1,586.2857142857143,1206.0825892857142,4008.6,586.2857142857143,1206.0825892857142,4113.4,586.2857142857143,1206.0825892857142,4216.8,586.2857142857143,1206.0825892857142,4321.7,586.2857142857143,1206.0825892857142,4424.5,586.2857142857143,1206.0825892857142,4528.1,586.2857142857143,1206.0825892857142,4628.7,586.2857142857143,1206.0825892857142,4729.2,586.2857142857143,1206.0825892857142,4838.2,586.2857142857143,1206.0825892857142,4941]","[5695.3,5695.3,3275,2011.8,408.5,""oops"",""down"",""left"",""good_move"",8572.5,2876.9,2498.3,5695.6,378.6,""oops"",""down"",""up"",""bad_move"",11689.3,3116.3,2738.7,8573,377.6,""oops"",""down"",""down"",""good_move"",14454.3,2760,2396.5,11694.3,363.5,""smooth"",""down"",""down"",""good_move"",20361,5906.6,2551.6,17460.4,349.1,""smooth"",""down"",""down"",""good_move"",23732.8,3370.4,2989.8,20362.4,380.6,""smooth"",""down"",""down"",""good_move"",26435.7,2701.5,2333.2,23734.2,368.3,""smooth"",""left"",""left"",""good_move"",29611.3,3174,2733.9,26437.4,440,""smooth"",""left"",""left"",""good_move""]","",""
"1931","","<div style=""width:500px;"">
  <p>What determined the result of this run?</p>
  </div>","77","html-slider-response","30","287124","0.0-5.0-1.4","214","1","2025-07-23 11:33:09","1f75c3e559b7213887762d5229550c2b","84.67.34.58","Mozilla/5.0 (Macintosh; Intel Mac OS X 10_15_7) AppleWebKit/537.36 (KHTML, like Gecko) Chrome/138.0.0.0 Safari/537.36","Macintosh","Chrome","138.0.0.0","OS X","10_15_7","https://app.prolific.com/","en-GB,en-US;q=0.9,en;q=0.8","6658ba167affbe300577b93d","683dba2a8a9dda3513610c04","6880c86dfb55bcee783245d7","3","0","6658ba167affbe300577b93d","3","0","2025-07-23T11:37:58.072Z","","","","","","","","","","","AttribQ","","50","","","","","","","","","","","","","","","","","","","","","","","","","","","","",""
"2443","","<div style=""width:500px;"">
  <p>How much control did you have over the ball?</p>
  </div>","78","html-slider-response","31","289569","0.0-5.0-2.4","214","1","2025-07-23 11:33:09","1f75c3e559b7213887762d5229550c2b","84.67.34.58","Mozilla/5.0 (Macintosh; Intel Mac OS X 10_15_7) AppleWebKit/537.36 (KHTML, like Gecko) Chrome/138.0.0.0 Safari/537.36","Macintosh","Chrome","138.0.0.0","OS X","10_15_7","https://app.prolific.com/","en-GB,en-US;q=0.9,en;q=0.8","6658ba167affbe300577b93d","683dba2a8a9dda3513610c04","6880c86dfb55bcee783245d7","3","0","6658ba167affbe300577b93d","3","0","2025-07-23T11:38:00.517Z","","","","","","","","","","","ControlQ","","50","","","","","","","","","","","","","","","","","","","","","","","","","","","","",""
"2151","","<div style=""width:500px;"">
  <p>How would you describe your current emotional state?</p>
  </div>","50","html-slider-response","32","291721","0.0-5.0-3.4","214","1","2025-07-23 11:33:09","1f75c3e559b7213887762d5229550c2b","84.67.34.58","Mozilla/5.0 (Macintosh; Intel Mac OS X 10_15_7) AppleWebKit/537.36 (KHTML, like Gecko) Chrome/138.0.0.0 Safari/537.36","Macintosh","Chrome","138.0.0.0","OS X","10_15_7","https://app.prolific.com/","en-GB,en-US;q=0.9,en;q=0.8","6658ba167affbe300577b93d","683dba2a8a9dda3513610c04","6880c86dfb55bcee783245d7","3","0","6658ba167affbe300577b93d","3","0","2025-07-23T11:38:02.669Z","","","","","","","","","","","StressQ","","50","","","","","","","","","","","","","","","","","","","","","","","","","","","","",""
"1904","","<div style=""width:500px;"">
  <p>What best describes how you currently feel?</p>
  </div>","68","html-slider-response","33","293626","0.0-5.0-4.4","214","1","2025-07-23 11:33:09","1f75c3e559b7213887762d5229550c2b","84.67.34.58","Mozilla/5.0 (Macintosh; Intel Mac OS X 10_15_7) AppleWebKit/537.36 (KHTML, like Gecko) Chrome/138.0.0.0 Safari/537.36","Macintosh","Chrome","138.0.0.0","OS X","10_15_7","https://app.prolific.com/","en-GB,en-US;q=0.9,en;q=0.8","6658ba167affbe300577b93d","683dba2a8a9dda3513610c04","6880c86dfb55bcee783245d7","3","0","6658ba167affbe300577b93d","3","0","2025-07-23T11:38:04.574Z","","","","","","","","","","","MotivationQ","","50","","","","","","","","","","","","","","","","","","","","","","","","","","","","",""
"","","","","ctl-task-cpt","34","361112","0.0-5.0-0.5","214","1","2025-07-23 11:33:09","1f75c3e559b7213887762d5229550c2b","84.67.34.58","Mozilla/5.0 (Macintosh; Intel Mac OS X 10_15_7) AppleWebKit/537.36 (KHTML, like Gecko) Chrome/138.0.0.0 Safari/537.36","Macintosh","Chrome","138.0.0.0","OS X","10_15_7","https://app.prolific.com/","en-GB,en-US;q=0.9,en;q=0.8","6658ba167affbe300577b93d","683dba2a8a9dda3513610c04","6880c86dfb55bcee783245d7","3","0","6658ba167affbe300577b93d","3","0","2025-07-23T11:39:12.060Z","","","","","","","","","","","","","","win-only","2","g1:SE,g2:NW","0.5","6","0","295308.8","833.6","5846.8","64462.6","1","4","8","6","2","8","8","28","20","0.21212121212121213","877.1","3000","70","[""left"",""up""]","{""num_key_presses"":16,""num_perfect"":8,""num_errors"":0,""num_randdir"":8,""num_randdir_good_moves"":3,""num_whilered"":0,""num_whileblue"":0,""num_blue"":3,""num_good_moves"":11}","[688.2857142857143,680.0825892857143,0.2,688.2857142857143,680.0825892857143,112.7,688.2857142857143,680.0825892857143,221.4,688.2857142857143,680.0825892857143,330.5,666.2857142857143,666.0825892857143,437.3,302.2857142857143,240.08258928571428,550.4,222.28571428571428,144.08258928571428,654.4,170.28571428571428,126.08258928571429,763.3,120.28571428571429,110.08258928571429,865.9,120.28571428571429,110.08258928571429,972.7,120.28571428571429,110.08258928571429,1072.9,120.28571428571429,110.08258928571429,1173.5,120.28571428571429,110.08258928571429,1282.8,120.28571428571429,110.08258928571429,1398.6,120.28571428571429,110.08258928571429,1500.2,120.28571428571429,110.08258928571429,1606.6,120.28571428571429,110.08258928571429,1706.7,120.28571428571429,110.08258928571429,1816.7,120.28571428571429,110.08258928571429,1923.1,120.28571428571429,110.08258928571429,2030.3,120.28571428571429,110.08258928571429,2134,120.28571428571429,110.08258928571429,2239.4,120.28571428571429,110.08258928571429,2347.8,120.28571428571429,110.08258928571429,2452.1,120.28571428571429,110.08258928571429,2564.3,120.28571428571429,110.08258928571429,2666.3,120.28571428571429,110.08258928571429,2766.6,120.28571428571429,110.08258928571429,2875.1,120.28571428571429,110.08258928571429,2980.4,120.28571428571429,110.08258928571429,3080.7,120.28571428571429,110.08258928571429,3190.3,120.28571428571429,110.08258928571429,3295.2,120.28571428571429,110.08258928571429,3395.9,120.28571428571429,110.08258928571429,3501.2,120.28571428571429,110.08258928571429,3612.5,120.28571428571429,110.08258928571429,3719.5,120.28571428571429,110.08258928571429,3820.1,120.28571428571429,110.08258928571429,3922.4,120.28571428571429,110.08258928571429,4032.1,120.28571428571429,110.08258928571429,4136.9,120.28571428571429,110.08258928571429,4247.2,120.28571428571429,110.08258928571429,4350.3,120.28571428571429,110.08258928571429,4460.9,120.28571428571429,110.08258928571429,4563.6,120.28571428571429,110.08258928571429,4669.6,120.28571428571429,110.08258928571429,4773.4,120.28571428571429,110.08258928571429,4877,120.28571428571429,110.08258928571429,4977.6]","[5003.4,5003.4,2554.5,2009.9,439,""oops"",""up"",""down"",""bad_move"",9420.6,4414.8,3991.5,5006.6,422.5,""oops"",""left"",""down"",""bad_move"",12056.2,2633.5,2162.8,9422.7,470.7,""smooth"",""left"",""left"",""good_move"",17506.1,5446.8,2066.8,15049.5,389.8,""smooth"",""left"",""left"",""good_move"",20787,3279.6,2800.3,17507.4,479.3,""smooth"",""left"",""left"",""good_move"",27740.6,6951.4,2733.1,24561.9,445.6,""oops"",""up"",""right"",""bad_move"",31271.4,3528.9,3121.6,27742.5,407.3,""smooth"",""up"",""up"",""good_move"",33904.4,2631.4,2230.7,31273,400.7,""smooth"",""up"",""up"",""good_move"",36819.5,2912.8,2560,33906.7,352.8,""oops"",""up"",""up"",""good_move"",40002.1,3180.9,2769.2,36821.2,411.7,""oops"",""up"",""right"",""bad_move"",42939.6,2935.8,2518.6,40003.8,417.3,""smooth"",""up"",""up"",""good_move"",45996.5,3052,2672.2,42944.5,379.8,""smooth"",""up"",""up"",""good_move"",49255.5,3257.5,2911.6,45998,345.9,""oops"",""left"",""left"",""good_move"",52268.9,3010.2,2600.5,49258.7,409.7,""oops"",""left"",""right"",""bad_move"",56122.5,3853.3,3461.6,52269.2,391.7,""oops"",""left"",""left"",""good_move"",58439.7,2315.8,1580.4,56123.9,735.4,""smooth"",""left"",""left"",""good_move""]","",""
"2458","","<div style=""width:500px;"">
  <p>What determined the result of this run?</p>
  </div>","70","html-slider-response","35","363571","0.0-5.0-1.5","214","1","2025-07-23 11:33:09","1f75c3e559b7213887762d5229550c2b","84.67.34.58","Mozilla/5.0 (Macintosh; Intel Mac OS X 10_15_7) AppleWebKit/537.36 (KHTML, like Gecko) Chrome/138.0.0.0 Safari/537.36","Macintosh","Chrome","138.0.0.0","OS X","10_15_7","https://app.prolific.com/","en-GB,en-US;q=0.9,en;q=0.8","6658ba167affbe300577b93d","683dba2a8a9dda3513610c04","6880c86dfb55bcee783245d7","3","0","6658ba167affbe300577b93d","3","0","2025-07-23T11:39:14.519Z","","","","","","","","","","","AttribQ","","50","","","","","","","","","","","","","","","","","","","","","","","","","","","","",""
"1155","","<div style=""width:500px;"">
  <p>How much control did you have over the ball?</p>
  </div>","68","html-slider-response","36","364727","0.0-5.0-2.5","214","1","2025-07-23 11:33:09","1f75c3e559b7213887762d5229550c2b","84.67.34.58","Mozilla/5.0 (Macintosh; Intel Mac OS X 10_15_7) AppleWebKit/537.36 (KHTML, like Gecko) Chrome/138.0.0.0 Safari/537.36","Macintosh","Chrome","138.0.0.0","OS X","10_15_7","https://app.prolific.com/","en-GB,en-US;q=0.9,en;q=0.8","6658ba167affbe300577b93d","683dba2a8a9dda3513610c04","6880c86dfb55bcee783245d7","3","0","6658ba167affbe300577b93d","3","0","2025-07-23T11:39:15.675Z","","","","","","","","","","","ControlQ","","50","","","","","","","","","","","","","","","","","","","","","","","","","","","","",""
"2060","","<div style=""width:500px;"">
  <p>How would you describe your current emotional state?</p>
  </div>","55","html-slider-response","37","366789","0.0-5.0-3.5","214","1","2025-07-23 11:33:09","1f75c3e559b7213887762d5229550c2b","84.67.34.58","Mozilla/5.0 (Macintosh; Intel Mac OS X 10_15_7) AppleWebKit/537.36 (KHTML, like Gecko) Chrome/138.0.0.0 Safari/537.36","Macintosh","Chrome","138.0.0.0","OS X","10_15_7","https://app.prolific.com/","en-GB,en-US;q=0.9,en;q=0.8","6658ba167affbe300577b93d","683dba2a8a9dda3513610c04","6880c86dfb55bcee783245d7","3","0","6658ba167affbe300577b93d","3","0","2025-07-23T11:39:17.737Z","","","","","","","","","","","StressQ","","50","","","","","","","","","","","","","","","","","","","","","","","","","","","","",""
"2781","","<div style=""width:500px;"">
  <p>What best describes how you currently feel?</p>
  </div>","69","html-slider-response","38","369571","0.0-5.0-4.5","214","1","2025-07-23 11:33:09","1f75c3e559b7213887762d5229550c2b","84.67.34.58","Mozilla/5.0 (Macintosh; Intel Mac OS X 10_15_7) AppleWebKit/537.36 (KHTML, like Gecko) Chrome/138.0.0.0 Safari/537.36","Macintosh","Chrome","138.0.0.0","OS X","10_15_7","https://app.prolific.com/","en-GB,en-US;q=0.9,en;q=0.8","6658ba167affbe300577b93d","683dba2a8a9dda3513610c04","6880c86dfb55bcee783245d7","3","0","6658ba167affbe300577b93d","3","0","2025-07-23T11:39:20.519Z","","","","","","","","","","","MotivationQ","","50","","","","","","","","","","","","","","","","","","","","","","","","","","","","",""
"","","","","ctl-task-cpt","39","406371","0.0-5.0-0.6","214","1","2025-07-23 11:33:09","1f75c3e559b7213887762d5229550c2b","84.67.34.58","Mozilla/5.0 (Macintosh; Intel Mac OS X 10_15_7) AppleWebKit/537.36 (KHTML, like Gecko) Chrome/138.0.0.0 Safari/537.36","Macintosh","Chrome","138.0.0.0","OS X","10_15_7","https://app.prolific.com/","en-GB,en-US;q=0.9,en;q=0.8","6658ba167affbe300577b93d","683dba2a8a9dda3513610c04","6880c86dfb55bcee783245d7","3","0","6658ba167affbe300577b93d","3","0","2025-07-23T11:39:57.320Z","","","","","","","","","","","","","","win-only","2","g1:SE,g2:NW","0.4","7","0","371252.4","647.7","5655.8","33777.8","1","4","8","6","2","8","8","36","28","0.2727272727272727","875.2","3000","1715","[""left"",""up""]","{""num_key_presses"":8,""num_perfect"":3,""num_errors"":0,""num_randdir"":5,""num_randdir_good_moves"":4,""num_whilered"":0,""num_whileblue"":0,""num_blue"":2,""num_good_moves"":7}","[698.2857142857143,698.0825892857143,4.1,698.2857142857143,698.0825892857143,100.4,698.2857142857143,698.0825892857143,212.5,698.2857142857143,698.0825892857143,320.2,684.2857142857143,680.0825892857143,449.9,372.2857142857143,244.08258928571428,564.4,328.2857142857143,192.08258928571428,664.5,208.28571428571428,150.08258928571428,767.2,140.28571428571428,134.08258928571428,891.7,140.28571428571428,134.08258928571428,999.7,140.28571428571428,134.08258928571428,1108.7,140.28571428571428,134.08258928571428,1211.5,140.28571428571428,134.08258928571428,1317.1,140.28571428571428,134.08258928571428,1426.6,140.28571428571428,134.08258928571428,1526.9,140.28571428571428,134.08258928571428,1628.5,140.28571428571428,134.08258928571428,1738.8,140.28571428571428,134.08258928571428,1842.1,140.28571428571428,134.08258928571428,1947.6,140.28571428571428,134.08258928571428,2069,140.28571428571428,134.08258928571428,2172.9,140.28571428571428,134.08258928571428,2288.9,140.28571428571428,134.08258928571428,2394,140.28571428571428,134.08258928571428,2531.7,140.28571428571428,134.08258928571428,2633.3,140.28571428571428,134.08258928571428,2734.7,140.28571428571428,134.08258928571428,2841.2,140.28571428571428,134.08258928571428,2941.4,140.28571428571428,134.08258928571428,3042.8,140.28571428571428,134.08258928571428,3150.6,140.28571428571428,134.08258928571428,3253.3,140.28571428571428,134.08258928571428,3356,140.28571428571428,134.08258928571428,3461,140.28571428571428,134.08258928571428,3563.9,140.28571428571428,134.08258928571428,3671.7,140.28571428571428,134.08258928571428,3773.6,140.28571428571428,134.08258928571428,3877.9,140.28571428571428,134.08258928571428,3985.3,140.28571428571428,134.08258928571428,4092.3,140.28571428571428,134.08258928571428,4209.1,140.28571428571428,134.08258928571428,4312.8,140.28571428571428,134.08258928571428,4420.1,140.28571428571428,134.08258928571428,4552,140.28571428571428,134.08258928571428,4694.7,140.28571428571428,134.08258928571428,4825.6,140.28571428571428,134.08258928571428,4927.6]","[4655.1,4655.1,2167.9,2010.4,476.8,""oops"",""up"",""left"",""good_move"",10547.9,5892.4,2483.3,7674.8,389.8,""smooth"",""up"",""up"",""good_move"",13680.5,3130.7,2336.8,10549.8,793.9,""oops"",""up"",""left"",""good_move"",16067.6,2385.5,1764.3,13682.1,621.2,""smooth"",""up"",""up"",""good_move"",19076.4,3006.6,2656.9,16069.8,349.7,""oops"",""up"",""right"",""bad_move"",21617,2536.4,2191,19080.6,345.4,""smooth"",""up"",""up"",""good_move"",24478,2857.7,2448.6,21620.3,409.1,""oops"",""left"",""left"",""good_move"",27853.5,3373.7,2936.8,24479.8,436.9,""oops"",""left"",""left"",""good_move""]","",""
"2378","","<div style=""width:500px;"">
  <p>What determined the result of this run?</p>
  </div>","69","html-slider-response","40","408752","0.0-5.0-1.6","214","1","2025-07-23 11:33:09","1f75c3e559b7213887762d5229550c2b","84.67.34.58","Mozilla/5.0 (Macintosh; Intel Mac OS X 10_15_7) AppleWebKit/537.36 (KHTML, like Gecko) Chrome/138.0.0.0 Safari/537.36","Macintosh","Chrome","138.0.0.0","OS X","10_15_7","https://app.prolific.com/","en-GB,en-US;q=0.9,en;q=0.8","6658ba167affbe300577b93d","683dba2a8a9dda3513610c04","6880c86dfb55bcee783245d7","3","0","6658ba167affbe300577b93d","3","0","2025-07-23T11:39:59.700Z","","","","","","","","","","","AttribQ","","50","","","","","","","","","","","","","","","","","","","","","","","","","","","","",""
"1482","","<div style=""width:500px;"">
  <p>How much control did you have over the ball?</p>
  </div>","68","html-slider-response","41","410238","0.0-5.0-2.6","214","1","2025-07-23 11:33:09","1f75c3e559b7213887762d5229550c2b","84.67.34.58","Mozilla/5.0 (Macintosh; Intel Mac OS X 10_15_7) AppleWebKit/537.36 (KHTML, like Gecko) Chrome/138.0.0.0 Safari/537.36","Macintosh","Chrome","138.0.0.0","OS X","10_15_7","https://app.prolific.com/","en-GB,en-US;q=0.9,en;q=0.8","6658ba167affbe300577b93d","683dba2a8a9dda3513610c04","6880c86dfb55bcee783245d7","3","0","6658ba167affbe300577b93d","3","0","2025-07-23T11:40:01.186Z","","","","","","","","","","","ControlQ","","50","","","","","","","","","","","","","","","","","","","","","","","","","","","","",""
"1887","","<div style=""width:500px;"">
  <p>How would you describe your current emotional state?</p>
  </div>","57","html-slider-response","42","412127","0.0-5.0-3.6","214","1","2025-07-23 11:33:09","1f75c3e559b7213887762d5229550c2b","84.67.34.58","Mozilla/5.0 (Macintosh; Intel Mac OS X 10_15_7) AppleWebKit/537.36 (KHTML, like Gecko) Chrome/138.0.0.0 Safari/537.36","Macintosh","Chrome","138.0.0.0","OS X","10_15_7","https://app.prolific.com/","en-GB,en-US;q=0.9,en;q=0.8","6658ba167affbe300577b93d","683dba2a8a9dda3513610c04","6880c86dfb55bcee783245d7","3","0","6658ba167affbe300577b93d","3","0","2025-07-23T11:40:03.075Z","","","","","","","","","","","StressQ","","50","","","","","","","","","","","","","","","","","","","","","","","","","","","","",""
"1136","","<div style=""width:500px;"">
  <p>What best describes how you currently feel?</p>
  </div>","64","html-slider-response","43","413265","0.0-5.0-4.6","214","1","2025-07-23 11:33:09","1f75c3e559b7213887762d5229550c2b","84.67.34.58","Mozilla/5.0 (Macintosh; Intel Mac OS X 10_15_7) AppleWebKit/537.36 (KHTML, like Gecko) Chrome/138.0.0.0 Safari/537.36","Macintosh","Chrome","138.0.0.0","OS X","10_15_7","https://app.prolific.com/","en-GB,en-US;q=0.9,en;q=0.8","6658ba167affbe300577b93d","683dba2a8a9dda3513610c04","6880c86dfb55bcee783245d7","3","0","6658ba167affbe300577b93d","3","0","2025-07-23T11:40:04.213Z","","","","","","","","","","","MotivationQ","","50","","","","","","","","","","","","","","","","","","","","","","","","","","","","",""
"","","","","ctl-task-cpt","44","472058","0.0-5.0-0.7","214","1","2025-07-23 11:33:09","1f75c3e559b7213887762d5229550c2b","84.67.34.58","Mozilla/5.0 (Macintosh; Intel Mac OS X 10_15_7) AppleWebKit/537.36 (KHTML, like Gecko) Chrome/138.0.0.0 Safari/537.36","Macintosh","Chrome","138.0.0.0","OS X","10_15_7","https://app.prolific.com/","en-GB,en-US;q=0.9,en;q=0.8","6658ba167affbe300577b93d","683dba2a8a9dda3513610c04","6880c86dfb55bcee783245d7","3","0","6658ba167affbe300577b93d","3","0","2025-07-23T11:41:03.006Z","","","","","","","","","","","","","","win-only","0","g1:NW,g2:SE","0.3","8","0","414949.1","1276.3","6279.4","55766.3","1","4","4","6","2","4","4","40","36","0.30303030303030304","1169.2","3000","970","[""down"",""right""]","{""num_key_presses"":14,""num_perfect"":4,""num_errors"":0,""num_randdir"":10,""num_randdir_good_moves"":6,""num_whilered"":0,""num_whileblue"":0,""num_blue"":2,""num_good_moves"":10}","[696.2857142857143,692.0825892857143,5.5,696.2857142857143,692.0825892857143,113.3,696.2857142857143,692.0825892857143,216.3,696.2857142857143,692.0825892857143,348.1,696.2857142857143,692.0825892857143,456.2,864.2857142857143,792.0825892857143,571.8,1082.2857142857142,1060.0825892857142,678.5,1120.2857142857142,1102.0825892857142,784.4,1232.2857142857142,1208.0825892857142,892.2,1262.2857142857142,1268.0825892857142,996.2,1262.2857142857142,1276.0825892857142,1108.8,1262.2857142857142,1276.0825892857142,1221.4,1262.2857142857142,1276.0825892857142,1326.6,1262.2857142857142,1276.0825892857142,1432.4,1262.2857142857142,1276.0825892857142,1536.2,1264.2857142857142,1274.0825892857142,1640.6,1264.2857142857142,1274.0825892857142,1747.6,1264.2857142857142,1274.0825892857142,1853.3,1264.2857142857142,1274.0825892857142,1960.1,1264.2857142857142,1274.0825892857142,2065.8,1264.2857142857142,1274.0825892857142,2166.4,1264.2857142857142,1274.0825892857142,2280.4,1264.2857142857142,1274.0825892857142,2384.7,1264.2857142857142,1274.0825892857142,2485.9,1264.2857142857142,1274.0825892857142,2588,1264.2857142857142,1274.0825892857142,2693,1264.2857142857142,1274.0825892857142,2798.1,1264.2857142857142,1274.0825892857142,2903.9,1264.2857142857142,1274.0825892857142,3007.4,1264.2857142857142,1274.0825892857142,3112.6,1264.2857142857142,1274.0825892857142,3218,1264.2857142857142,1274.0825892857142,3318.8,1264.2857142857142,1274.0825892857142,3419.8,1264.2857142857142,1274.0825892857142,3531.9,1264.2857142857142,1274.0825892857142,3633.3,1264.2857142857142,1274.0825892857142,3734.7,1264.2857142857142,1274.0825892857142,3836.8,1264.2857142857142,1274.0825892857142,3950.3,1264.2857142857142,1274.0825892857142,4059.5,1264.2857142857142,1274.0825892857142,4170,1264.2857142857142,1274.0825892857142,4280.6,1264.2857142857142,1274.0825892857142,4385.3,1264.2857142857142,1274.0825892857142,4486.6,1264.2857142857142,1274.0825892857142,4601.5,1264.2857142857142,1274.0825892857142,4703.7,1264.2857142857142,1274.0825892857142,4812.8,1264.2857142857142,1274.0825892857142,4913]","[5553.5,5553.5,2970.1,2013.2,570.2,""oops"",""right"",""left"",""bad_move"",8912.6,3346.7,2844.2,5565.9,502.5,""smooth"",""down"",""down"",""good_move"",12220.7,3306.9,2862.4,8913.8,444.5,""oops"",""down"",""up"",""bad_move"",15262.2,3041.2,2621.6,12221,419.6,""oops"",""right"",""down"",""good_move"",19268.7,4004,3582.6,15264.7,421.4,""oops"",""right"",""right"",""good_move"",25277.8,6007.7,2088.5,22759.2,430.1,""smooth"",""right"",""right"",""good_move"",28401.4,3120.9,2620.3,25280.5,500.6,""oops"",""right"",""right"",""good_move"",30776,2372.1,1799.8,28403.9,572.3,""oops"",""right"",""left"",""bad_move"",33892.1,3112,2652,30780.1,460,""smooth"",""right"",""right"",""good_move"",37070.8,3176.4,2828.5,33894.4,347.9,""oops"",""right"",""right"",""good_move"",39883.4,2809.5,2414.6,37073.9,394.9,""oops"",""down"",""up"",""bad_move"",42901.8,3015.7,2609.8,39886.1,405.9,""oops"",""down"",""down"",""good_move"",46232.3,3330,2995,42902.3,335,""oops"",""down"",""down"",""good_move"",49203.8,2970.4,2615.1,46233.5,355.3,""smooth"",""down"",""down"",""good_move""]","",""
"3361","","<div style=""width:500px;"">
  <p>What determined the result of this run?</p>
  </div>","76","html-slider-response","45","475422","0.0-5.0-1.7","214","1","2025-07-23 11:33:09","1f75c3e559b7213887762d5229550c2b","84.67.34.58","Mozilla/5.0 (Macintosh; Intel Mac OS X 10_15_7) AppleWebKit/537.36 (KHTML, like Gecko) Chrome/138.0.0.0 Safari/537.36","Macintosh","Chrome","138.0.0.0","OS X","10_15_7","https://app.prolific.com/","en-GB,en-US;q=0.9,en;q=0.8","6658ba167affbe300577b93d","683dba2a8a9dda3513610c04","6880c86dfb55bcee783245d7","3","0","6658ba167affbe300577b93d","3","0","2025-07-23T11:41:06.371Z","","","","","","","","","","","AttribQ","","50","","","","","","","","","","","","","","","","","","","","","","","","","","","","",""
"1193","","<div style=""width:500px;"">
  <p>How much control did you have over the ball?</p>
  </div>","73","html-slider-response","46","476616","0.0-5.0-2.7","214","1","2025-07-23 11:33:09","1f75c3e559b7213887762d5229550c2b","84.67.34.58","Mozilla/5.0 (Macintosh; Intel Mac OS X 10_15_7) AppleWebKit/537.36 (KHTML, like Gecko) Chrome/138.0.0.0 Safari/537.36","Macintosh","Chrome","138.0.0.0","OS X","10_15_7","https://app.prolific.com/","en-GB,en-US;q=0.9,en;q=0.8","6658ba167affbe300577b93d","683dba2a8a9dda3513610c04","6880c86dfb55bcee783245d7","3","0","6658ba167affbe300577b93d","3","0","2025-07-23T11:41:07.564Z","","","","","","","","","","","ControlQ","","50","","","","","","","","","","","","","","","","","","","","","","","","","","","","",""
"1497","","<div style=""width:500px;"">
  <p>How would you describe your current emotional state?</p>
  </div>","59","html-slider-response","47","478114","0.0-5.0-3.7","214","1","2025-07-23 11:33:09","1f75c3e559b7213887762d5229550c2b","84.67.34.58","Mozilla/5.0 (Macintosh; Intel Mac OS X 10_15_7) AppleWebKit/537.36 (KHTML, like Gecko) Chrome/138.0.0.0 Safari/537.36","Macintosh","Chrome","138.0.0.0","OS X","10_15_7","https://app.prolific.com/","en-GB,en-US;q=0.9,en;q=0.8","6658ba167affbe300577b93d","683dba2a8a9dda3513610c04","6880c86dfb55bcee783245d7","3","0","6658ba167affbe300577b93d","3","0","2025-07-23T11:41:09.062Z","","","","","","","","","","","StressQ","","50","","","","","","","","","","","","","","","","","","","","","","","","","","","","",""
"1345","","<div style=""width:500px;"">
  <p>What best describes how you currently feel?</p>
  </div>","71","html-slider-response","48","479461","0.0-5.0-4.7","214","1","2025-07-23 11:33:09","1f75c3e559b7213887762d5229550c2b","84.67.34.58","Mozilla/5.0 (Macintosh; Intel Mac OS X 10_15_7) AppleWebKit/537.36 (KHTML, like Gecko) Chrome/138.0.0.0 Safari/537.36","Macintosh","Chrome","138.0.0.0","OS X","10_15_7","https://app.prolific.com/","en-GB,en-US;q=0.9,en;q=0.8","6658ba167affbe300577b93d","683dba2a8a9dda3513610c04","6880c86dfb55bcee783245d7","3","0","6658ba167affbe300577b93d","3","0","2025-07-23T11:41:10.409Z","","","","","","","","","","","MotivationQ","","50","","","","","","","","","","","","","","","","","","","","","","","","","","","","",""
"","","","","ctl-task-cpt","49","590273","0.0-5.0-0.8","214","1","2025-07-23 11:33:09","1f75c3e559b7213887762d5229550c2b","84.67.34.58","Mozilla/5.0 (Macintosh; Intel Mac OS X 10_15_7) AppleWebKit/537.36 (KHTML, like Gecko) Chrome/138.0.0.0 Safari/537.36","Macintosh","Chrome","138.0.0.0","OS X","10_15_7","https://app.prolific.com/","en-GB,en-US;q=0.9,en;q=0.8","6658ba167affbe300577b93d","683dba2a8a9dda3513610c04","6880c86dfb55bcee783245d7","3","0","6658ba167affbe300577b93d","3","0","2025-07-23T11:43:01.221Z","","","","","","","","","","","","","","win-only","2","g1:SE,g2:NW","0.2","9","0","481139.4","1301","6314.2","107777.7","1","4","4","6","2","-4","-5","35","40","0.26515151515151514","948","3000","-990","[""left"",""up""]","{""num_key_presses"":27,""num_perfect"":6,""num_errors"":1,""num_randdir"":20,""num_randdir_good_moves"":6,""num_whilered"":0,""num_whileblue"":1,""num_blue"":4,""num_good_moves"":13}","[698.2857142857143,684.0825892857143,0.4,698.2857142857143,684.0825892857143,103.1,698.2857142857143,684.0825892857143,209.3,698.2857142857143,684.0825892857143,314.8,700.2857142857143,682.0825892857143,425.5,454.2857142857143,264.0825892857143,529.6,388.2857142857143,188.08258928571428,630.5,276.2857142857143,176.08258928571428,749.2,204.28571428571428,156.08258928571428,854.3,198.28571428571428,154.08258928571428,967.3,198.28571428571428,154.08258928571428,1069.5,198.28571428571428,154.08258928571428,1183.4,198.28571428571428,154.08258928571428,1292.5,198.28571428571428,154.08258928571428,1404.9,198.28571428571428,154.08258928571428,1516.4,198.28571428571428,154.08258928571428,1618.6,198.28571428571428,154.08258928571428,1725.4,198.28571428571428,154.08258928571428,1827.4,198.28571428571428,154.08258928571428,1940.3,198.28571428571428,154.08258928571428,2058.3,198.28571428571428,154.08258928571428,2169.1,198.28571428571428,154.08258928571428,2287,198.28571428571428,154.08258928571428,2388,198.28571428571428,154.08258928571428,2495.8,198.28571428571428,154.08258928571428,2598.7,198.28571428571428,154.08258928571428,2699.3,198.28571428571428,154.08258928571428,2805.6,198.28571428571428,154.08258928571428,2909.7,198.28571428571428,154.08258928571428,3022,198.28571428571428,154.08258928571428,3131.8,198.28571428571428,154.08258928571428,3234.6,198.28571428571428,154.08258928571428,3343.6,198.28571428571428,154.08258928571428,3450.3,198.28571428571428,154.08258928571428,3555.7,198.28571428571428,154.08258928571428,3659.3,198.28571428571428,154.08258928571428,3767.2,198.28571428571428,154.08258928571428,3872.8,198.28571428571428,154.08258928571428,3983.2,198.28571428571428,154.08258928571428,4096.6,198.28571428571428,154.08258928571428,4200.8,198.28571428571428,154.08258928571428,4313.1,198.28571428571428,154.08258928571428,4428.3,198.28571428571428,154.08258928571428,4539.9,198.28571428571428,154.08258928571428,4640.9,198.28571428571428,154.08258928571428,4750.3,198.28571428571428,154.08258928571428,4863.2,198.28571428571428,154.08258928571428,4965.5]","[1503.2,1503.2,1000,0,503.2,""oops"",""left"",""down"",""bad_move"",4525.7,3022.1,2601.7,1503.6,420.4,""smooth"",""left"",""left"",""good_move"",7426.6,2896.7,2200.3,4529.9,696.4,""smooth"",""left"",""left"",""good_move"",10981,3552.5,3146,7428.5,406.5,""oops"",""left"",""up"",""good_move"",17887.2,6905.5,2883.8,14550.2,453.2,""oops"",""up"",""right"",""bad_move"",21053.5,3164.9,2726.9,17888.6,438,""oops"",""up"",""right"",""bad_move"",24571.6,3514.7,3096.5,21056.9,418.2,""oops"",""up"",""up"",""good_move"",27557.7,2984.2,2604.2,24573.5,380,""oops"",""up"",""down"",""bad_move"",30546.2,2987.2,2625.4,27559,361.8,""oops"",""left"",""down"",""bad_move"",33618.4,3070.9,2703,30547.5,367.9,""oops"",""left"",""down"",""bad_move"",36254,2633.9,2162.3,33620.1,471.6,""oops"",""left"",""right"",""bad_move"",39055.5,2801.4,2469.5,36254.2,331.8,""oops"",""left"",""right"",""bad_move"",41742.4,2685.1,2307.8,39057.3,377.3,""smooth"",""up"",""up"",""good_move"",44645.9,2900.4,2478.6,41745.5,421.8,""oops"",""left"",""up"",""good_move"",47563.8,2917.6,2546.8,44646.2,370.8,""oops"",""left"",""up"",""good_move"",50630.2,3064.4,2505.6,47565.8,558.8,""oops"",""left"",""down"",""bad_move"",58002.5,7370.1,3431.4,54032,539.1,""oops"",""left"",""down"",""bad_move"",61125.5,3121.8,2517.4,58003.7,604.4,""smooth"",""left"",""left"",""good_move"",64979.5,3853.5,3165.8,61126,687.7,""oops"",""up"",""right"",""bad_move"",67862.2,2881.4,2493.8,64980.8,387.6,""oops"",""up"",""down"",""bad_move"",71261,3397.5,3028,67863.5,369.5,""oops"",""up"",""up"",""good_move"",74890,3627.4,2266.7,71262.6,1360.7,""oops"",""up"",""up"",""good_move"",78934.8,4044.6,2961.3,74890.2,1083.3,""smooth"",""up"",""up"",""good_move"",83313.1,4378,2265.6,78935.1,2112.4,""smooth"",""left"",""left"",""good_move"",87958.7,4645.3,2497.3,83313.4,2148,""oops"",""up"",""right"",""bad_move"",91487.2,3526.8,3157.3,87960.4,369.5,""oops"",""up"",""down"",""bad_move"",94759.2,3270,2830.2,91489.2,439.8,""while_blue"",""up"",""up"",""good_move""]","",""
"2541","","<div style=""width:500px;"">
  <p>What determined the result of this run?</p>
  </div>","0","html-slider-response","50","592816","0.0-5.0-1.8","214","1","2025-07-23 11:33:09","1f75c3e559b7213887762d5229550c2b","84.67.34.58","Mozilla/5.0 (Macintosh; Intel Mac OS X 10_15_7) AppleWebKit/537.36 (KHTML, like Gecko) Chrome/138.0.0.0 Safari/537.36","Macintosh","Chrome","138.0.0.0","OS X","10_15_7","https://app.prolific.com/","en-GB,en-US;q=0.9,en;q=0.8","6658ba167affbe300577b93d","683dba2a8a9dda3513610c04","6880c86dfb55bcee783245d7","3","0","6658ba167affbe300577b93d","3","0","2025-07-23T11:43:03.764Z","","","","","","","","","","","AttribQ","","50","","","","","","","","","","","","","","","","","","","","","","","","","","","","",""
"1687","","<div style=""width:500px;"">
  <p>How much control did you have over the ball?</p>
  </div>","1","html-slider-response","51","594505","0.0-5.0-2.8","214","1","2025-07-23 11:33:09","1f75c3e559b7213887762d5229550c2b","84.67.34.58","Mozilla/5.0 (Macintosh; Intel Mac OS X 10_15_7) AppleWebKit/537.36 (KHTML, like Gecko) Chrome/138.0.0.0 Safari/537.36","Macintosh","Chrome","138.0.0.0","OS X","10_15_7","https://app.prolific.com/","en-GB,en-US;q=0.9,en;q=0.8","6658ba167affbe300577b93d","683dba2a8a9dda3513610c04","6880c86dfb55bcee783245d7","3","0","6658ba167affbe300577b93d","3","0","2025-07-23T11:43:05.453Z","","","","","","","","","","","ControlQ","","50","","","","","","","","","","","","","","","","","","","","","","","","","","","","",""
"1922","","<div style=""width:500px;"">
  <p>How would you describe your current emotional state?</p>
  </div>","82","html-slider-response","52","596429","0.0-5.0-3.8","214","1","2025-07-23 11:33:09","1f75c3e559b7213887762d5229550c2b","84.67.34.58","Mozilla/5.0 (Macintosh; Intel Mac OS X 10_15_7) AppleWebKit/537.36 (KHTML, like Gecko) Chrome/138.0.0.0 Safari/537.36","Macintosh","Chrome","138.0.0.0","OS X","10_15_7","https://app.prolific.com/","en-GB,en-US;q=0.9,en;q=0.8","6658ba167affbe300577b93d","683dba2a8a9dda3513610c04","6880c86dfb55bcee783245d7","3","0","6658ba167affbe300577b93d","3","0","2025-07-23T11:43:07.378Z","","","","","","","","","","","StressQ","","50","","","","","","","","","","","","","","","","","","","","","","","","","","","","",""
"1152","","<div style=""width:500px;"">
  <p>What best describes how you currently feel?</p>
  </div>","66","html-slider-response","53","597585","0.0-5.0-4.8","214","1","2025-07-23 11:33:09","1f75c3e559b7213887762d5229550c2b","84.67.34.58","Mozilla/5.0 (Macintosh; Intel Mac OS X 10_15_7) AppleWebKit/537.36 (KHTML, like Gecko) Chrome/138.0.0.0 Safari/537.36","Macintosh","Chrome","138.0.0.0","OS X","10_15_7","https://app.prolific.com/","en-GB,en-US;q=0.9,en;q=0.8","6658ba167affbe300577b93d","683dba2a8a9dda3513610c04","6880c86dfb55bcee783245d7","3","0","6658ba167affbe300577b93d","3","0","2025-07-23T11:43:08.533Z","","","","","","","","","","","MotivationQ","","50","","","","","","","","","","","","","","","","","","","","","","","","","","","","",""
"","","","","ctl-task-cpt","54","635776","0.0-5.0-0.9","214","1","2025-07-23 11:33:09","1f75c3e559b7213887762d5229550c2b","84.67.34.58","Mozilla/5.0 (Macintosh; Intel Mac OS X 10_15_7) AppleWebKit/537.36 (KHTML, like Gecko) Chrome/138.0.0.0 Safari/537.36","Macintosh","Chrome","138.0.0.0","OS X","10_15_7","https://app.prolific.com/","en-GB,en-US;q=0.9,en;q=0.8","6658ba167affbe300577b93d","683dba2a8a9dda3513610c04","6880c86dfb55bcee783245d7","3","0","6658ba167affbe300577b93d","3","0","2025-07-23T11:43:46.725Z","","","","","","","","","","","","","","win-only","0","g1:NW,g2:SE","0.4","10","0","599259.2","1028.2","6033.4","35165.3","1","4","8","6","2","8","8","43","35","0.32575757575757575","984.6","3000","1830","[""down"",""right""]","{""num_key_presses"":10,""num_perfect"":4,""num_errors"":0,""num_randdir"":6,""num_randdir_good_moves"":4,""num_whilered"":0,""num_whileblue"":0,""num_blue"":0,""num_good_moves"":8}","[706.2857142857143,700.0825892857143,2.2,706.2857142857143,700.0825892857143,104.4,706.2857142857143,700.0825892857143,219.9,706.2857142857143,700.0825892857143,323.6,690.2857142857143,706.0825892857143,435.5,728.2857142857143,762.0825892857143,542.2,1244.2857142857142,1214.0825892857142,642.3,1316.2857142857142,1278.0825892857142,764,1340.2857142857142,1296.0825892857142,879.2,1340.2857142857142,1296.0825892857142,980.3,1340.2857142857142,1296.0825892857142,1100.1,1340.2857142857142,1296.0825892857142,1203.3,1340.2857142857142,1296.0825892857142,1320.7,1340.2857142857142,1296.0825892857142,1436.5,1340.2857142857142,1296.0825892857142,1546.5,1340.2857142857142,1296.0825892857142,1654.7,1340.2857142857142,1296.0825892857142,1775.4,1340.2857142857142,1296.0825892857142,1877.2,1340.2857142857142,1296.0825892857142,1981.4,1340.2857142857142,1296.0825892857142,2082.5,1340.2857142857142,1296.0825892857142,2203.2,1340.2857142857142,1296.0825892857142,2307.7,1340.2857142857142,1296.0825892857142,2414.6,1340.2857142857142,1296.0825892857142,2525.5,1340.2857142857142,1296.0825892857142,2651.8,1340.2857142857142,1296.0825892857142,2753.6,1340.2857142857142,1296.0825892857142,2859.9,1340.2857142857142,1296.0825892857142,2974.3,1340.2857142857142,1296.0825892857142,3080.8,1340.2857142857142,1296.0825892857142,3182.2,1340.2857142857142,1296.0825892857142,3282.5,1340.2857142857142,1296.0825892857142,3393.1,1340.2857142857142,1296.0825892857142,3495.8,1340.2857142857142,1296.0825892857142,3599.2,1340.2857142857142,1296.0825892857142,3703,1340.2857142857142,1296.0825892857142,3815.5,1340.2857142857142,1296.0825892857142,3916.5,1340.2857142857142,1296.0825892857142,4026.5,1340.2857142857142,1296.0825892857142,4133.4,1340.2857142857142,1296.0825892857142,4237.2,1340.2857142857142,1296.0825892857142,4339.1,1340.2857142857142,1296.0825892857142,4443.6,1340.2857142857142,1296.0825892857142,4562.3,1340.2857142857142,1296.0825892857142,4662.3,1340.2857142857142,1296.0825892857142,4767.9,1340.2857142857142,1296.0825892857142,4875,1340.2857142857142,1296.0825892857142,4975]","[1387.3,1387.3,1000,0,387.3,""oops"",""down"",""left"",""bad_move"",4627.9,3239.7,1983.8,1388.2,1255.9,""oops"",""down"",""right"",""good_move"",7537.9,2909.7,2389.7,4628.2,520,""oops"",""right"",""up"",""bad_move"",10716.9,3178.7,2259,7538.2,919.8,""smooth"",""right"",""right"",""good_move"",13683.1,2965,2541.3,10718.1,423.7,""oops"",""down"",""right"",""good_move"",17597.5,3914.1,3545.6,13683.4,368.5,""smooth"",""down"",""down"",""good_move"",20581.8,2982.8,2527.9,17599,454.9,""oops"",""down"",""down"",""good_move"",23487.7,2904,2528.6,20583.7,375.4,""smooth"",""right"",""right"",""good_move"",26099.4,2610.5,2190.8,23488.9,419.7,""smooth"",""down"",""down"",""good_move"",28738.8,2639.2,2221.6,26099.6,417.6,""oops"",""down"",""down"",""good_move""]","",""
"1669","","<div style=""width:500px;"">
  <p>What determined the result of this run?</p>
  </div>","74","html-slider-response","55","637451","0.0-5.0-1.9","214","1","2025-07-23 11:33:09","1f75c3e559b7213887762d5229550c2b","84.67.34.58","Mozilla/5.0 (Macintosh; Intel Mac OS X 10_15_7) AppleWebKit/537.36 (KHTML, like Gecko) Chrome/138.0.0.0 Safari/537.36","Macintosh","Chrome","138.0.0.0","OS X","10_15_7","https://app.prolific.com/","en-GB,en-US;q=0.9,en;q=0.8","6658ba167affbe300577b93d","683dba2a8a9dda3513610c04","6880c86dfb55bcee783245d7","3","0","6658ba167affbe300577b93d","3","0","2025-07-23T11:43:48.399Z","","","","","","","","","","","AttribQ","","50","","","","","","","","","","","","","","","","","","","","","","","","","","","","",""
"1191","","<div style=""width:500px;"">
  <p>How much control did you have over the ball?</p>
  </div>","76","html-slider-response","56","638644","0.0-5.0-2.9","214","1","2025-07-23 11:33:09","1f75c3e559b7213887762d5229550c2b","84.67.34.58","Mozilla/5.0 (Macintosh; Intel Mac OS X 10_15_7) AppleWebKit/537.36 (KHTML, like Gecko) Chrome/138.0.0.0 Safari/537.36","Macintosh","Chrome","138.0.0.0","OS X","10_15_7","https://app.prolific.com/","en-GB,en-US;q=0.9,en;q=0.8","6658ba167affbe300577b93d","683dba2a8a9dda3513610c04","6880c86dfb55bcee783245d7","3","0","6658ba167affbe300577b93d","3","0","2025-07-23T11:43:49.592Z","","","","","","","","","","","ControlQ","","50","","","","","","","","","","","","","","","","","","","","","","","","","","","","",""
"1995","","<div style=""width:500px;"">
  <p>How would you describe your current emotional state?</p>
  </div>","61","html-slider-response","57","640640","0.0-5.0-3.9","214","1","2025-07-23 11:33:09","1f75c3e559b7213887762d5229550c2b","84.67.34.58","Mozilla/5.0 (Macintosh; Intel Mac OS X 10_15_7) AppleWebKit/537.36 (KHTML, like Gecko) Chrome/138.0.0.0 Safari/537.36","Macintosh","Chrome","138.0.0.0","OS X","10_15_7","https://app.prolific.com/","en-GB,en-US;q=0.9,en;q=0.8","6658ba167affbe300577b93d","683dba2a8a9dda3513610c04","6880c86dfb55bcee783245d7","3","0","6658ba167affbe300577b93d","3","0","2025-07-23T11:43:51.588Z","","","","","","","","","","","StressQ","","50","","","","","","","","","","","","","","","","","","","","","","","","","","","","",""
"1640","","<div style=""width:500px;"">
  <p>What best describes how you currently feel?</p>
  </div>","81","html-slider-response","58","642282","0.0-5.0-4.9","214","1","2025-07-23 11:33:09","1f75c3e559b7213887762d5229550c2b","84.67.34.58","Mozilla/5.0 (Macintosh; Intel Mac OS X 10_15_7) AppleWebKit/537.36 (KHTML, like Gecko) Chrome/138.0.0.0 Safari/537.36","Macintosh","Chrome","138.0.0.0","OS X","10_15_7","https://app.prolific.com/","en-GB,en-US;q=0.9,en;q=0.8","6658ba167affbe300577b93d","683dba2a8a9dda3513610c04","6880c86dfb55bcee783245d7","3","0","6658ba167affbe300577b93d","3","0","2025-07-23T11:43:53.230Z","","","","","","","","","","","MotivationQ","","50","","","","","","","","","","","","","","","","","","","","","","","","","","","","",""
"","","","","ctl-task-cpt","59","742171","0.0-5.0-0.10","214","1","2025-07-23 11:33:09","1f75c3e559b7213887762d5229550c2b","84.67.34.58","Mozilla/5.0 (Macintosh; Intel Mac OS X 10_15_7) AppleWebKit/537.36 (KHTML, like Gecko) Chrome/138.0.0.0 Safari/537.36","Macintosh","Chrome","138.0.0.0","OS X","10_15_7","https://app.prolific.com/","en-GB,en-US;q=0.9,en;q=0.8","6658ba167affbe300577b93d","683dba2a8a9dda3513610c04","6880c86dfb55bcee783245d7","3","0","6658ba167affbe300577b93d","3","0","2025-07-23T11:45:33.120Z","","","","","","","","","","","","","","win-only","0","g1:NW,g2:SE","0.5","11","0","643955.4","990.1","6001.8","96848.1","1","4","8","6","2","8","8","51","43","0.38636363636363635","888.5","3000","750","[""down"",""right""]","{""num_key_presses"":18,""num_perfect"":10,""num_errors"":0,""num_randdir"":8,""num_randdir_good_moves"":2,""num_whilered"":0,""num_whileblue"":0,""num_blue"":10,""num_good_moves"":12}","[710.2857142857143,690.0825892857143,1.3,710.2857142857143,690.0825892857143,115.2,710.2857142857143,690.0825892857143,230.5,710.2857142857143,690.0825892857143,332.1,710.2857142857143,690.0825892857143,447.8,770.2857142857143,768.0825892857143,548,1090.2857142857142,1214.0825892857142,656.1,1164.2857142857142,1252.0825892857142,758,1242.2857142857142,1246.0825892857142,872.8,1256.2857142857142,1250.0825892857142,973.8,1256.2857142857142,1248.0825892857142,1087.7,1256.2857142857142,1248.0825892857142,1219.2,1256.2857142857142,1248.0825892857142,1326.8,1256.2857142857142,1248.0825892857142,1428.9,1256.2857142857142,1248.0825892857142,1544.3,1256.2857142857142,1248.0825892857142,1658.5,1256.2857142857142,1248.0825892857142,1780.8,1256.2857142857142,1248.0825892857142,1887.8,1256.2857142857142,1248.0825892857142,1988.9,1256.2857142857142,1248.0825892857142,2091,1256.2857142857142,1248.0825892857142,2198.1,1256.2857142857142,1248.0825892857142,2306.6,1256.2857142857142,1248.0825892857142,2420.6,1256.2857142857142,1248.0825892857142,2528.3,1256.2857142857142,1248.0825892857142,2643.7,1256.2857142857142,1248.0825892857142,2745.7,1256.2857142857142,1248.0825892857142,2856.3,1256.2857142857142,1248.0825892857142,2958.9,1256.2857142857142,1248.0825892857142,3072.4,1256.2857142857142,1248.0825892857142,3186.2,1256.2857142857142,1248.0825892857142,3299.7,1256.2857142857142,1248.0825892857142,3406.1,1256.2857142857142,1248.0825892857142,3517,1256.2857142857142,1248.0825892857142,3623.8,1256.2857142857142,1248.0825892857142,3724.8,1256.2857142857142,1248.0825892857142,3842.6,1256.2857142857142,1248.0825892857142,3957.9,1256.2857142857142,1248.0825892857142,4069.7,1256.2857142857142,1248.0825892857142,4183.1,1256.2857142857142,1248.0825892857142,4295.2,1256.2857142857142,1248.0825892857142,4397.9,1256.2857142857142,1248.0825892857142,4501.3,1256.2857142857142,1248.0825892857142,4623.8,1256.2857142857142,1248.0825892857142,4740.7,1256.2857142857142,1248.0825892857142,4852,1256.2857142857142,1248.0825892857142,4958.6]","[1688.3,1688.3,1000,0,688.3,""oops"",""right"",""right"",""good_move"",8284.2,6592.3,2459.9,5364.3,460,""oops"",""right"",""left"",""bad_move"",15011.8,6724.2,2274.5,12331.2,406.1,""smooth"",""down"",""down"",""good_move"",24266.9,9254.7,2196.1,21514.3,556.5,""oops"",""down"",""up"",""bad_move"",28314.2,4044.5,2747.2,24269.7,1297.3,""smooth"",""down"",""down"",""good_move"",31491.2,3172.2,2702.7,28319,469.5,""smooth"",""down"",""down"",""good_move"",38327.4,6834.5,2488.9,35457.2,381.3,""smooth"",""down"",""down"",""good_move"",41269.7,2941.3,2438.8,38328.4,502.5,""oops"",""right"",""left"",""bad_move"",49050.1,7777.8,3094,45499,457.1,""oops"",""right"",""up"",""bad_move"",52571.6,3521.1,2612.4,49050.5,908.7,""smooth"",""right"",""right"",""good_move"",55566,2991,2550.6,52575.1,440.3,""smooth"",""right"",""right"",""good_move"",58262.5,2695.5,2261.2,55567.1,434.3,""smooth"",""right"",""right"",""good_move"",65390.1,7125,3058,61911.6,420.5,""oops"",""right"",""left"",""bad_move"",68731.2,3339.5,2505,65391.7,834.6,""smooth"",""down"",""down"",""good_move"",77707.4,8975.7,2381.2,74811.1,515.1,""oops"",""right"",""left"",""bad_move"",80984.5,3275,2743.5,77709.5,531.5,""smooth"",""right"",""right"",""good_move"",83999.3,3013.6,2542.3,80985.7,471.3,""oops"",""right"",""right"",""good_move"",90498.3,6497.8,2890.5,87218,389.8,""smooth"",""right"",""right"",""good_move""]","",""
"3812","","<div style=""width:500px;"">
  <p>What determined the result of this run?</p>
  </div>","35","html-slider-response","60","745987","0.0-5.0-1.10","214","1","2025-07-23 11:33:09","1f75c3e559b7213887762d5229550c2b","84.67.34.58","Mozilla/5.0 (Macintosh; Intel Mac OS X 10_15_7) AppleWebKit/537.36 (KHTML, like Gecko) Chrome/138.0.0.0 Safari/537.36","Macintosh","Chrome","138.0.0.0","OS X","10_15_7","https://app.prolific.com/","en-GB,en-US;q=0.9,en;q=0.8","6658ba167affbe300577b93d","683dba2a8a9dda3513610c04","6880c86dfb55bcee783245d7","3","0","6658ba167affbe300577b93d","3","0","2025-07-23T11:45:36.935Z","","","","","","","","","","","AttribQ","","50","","","","","","","","","","","","","","","","","","","","","","","","","","","","",""
"2210","","<div style=""width:500px;"">
  <p>How much control did you have over the ball?</p>
  </div>","60","html-slider-response","61","748199","0.0-5.0-2.10","214","1","2025-07-23 11:33:09","1f75c3e559b7213887762d5229550c2b","84.67.34.58","Mozilla/5.0 (Macintosh; Intel Mac OS X 10_15_7) AppleWebKit/537.36 (KHTML, like Gecko) Chrome/138.0.0.0 Safari/537.36","Macintosh","Chrome","138.0.0.0","OS X","10_15_7","https://app.prolific.com/","en-GB,en-US;q=0.9,en;q=0.8","6658ba167affbe300577b93d","683dba2a8a9dda3513610c04","6880c86dfb55bcee783245d7","3","0","6658ba167affbe300577b93d","3","0","2025-07-23T11:45:39.147Z","","","","","","","","","","","ControlQ","","50","","","","","","","","","","","","","","","","","","","","","","","","","","","","",""
"1547","","<div style=""width:500px;"">
  <p>How would you describe your current emotional state?</p>
  </div>","62","html-slider-response","62","749748","0.0-5.0-3.10","214","1","2025-07-23 11:33:09","1f75c3e559b7213887762d5229550c2b","84.67.34.58","Mozilla/5.0 (Macintosh; Intel Mac OS X 10_15_7) AppleWebKit/537.36 (KHTML, like Gecko) Chrome/138.0.0.0 Safari/537.36","Macintosh","Chrome","138.0.0.0","OS X","10_15_7","https://app.prolific.com/","en-GB,en-US;q=0.9,en;q=0.8","6658ba167affbe300577b93d","683dba2a8a9dda3513610c04","6880c86dfb55bcee783245d7","3","0","6658ba167affbe300577b93d","3","0","2025-07-23T11:45:40.696Z","","","","","","","","","","","StressQ","","50","","","","","","","","","","","","","","","","","","","","","","","","","","","","",""
"1639","","<div style=""width:500px;"">
  <p>What best describes how you currently feel?</p>
  </div>","75","html-slider-response","63","751388","0.0-5.0-4.10","214","1","2025-07-23 11:33:09","1f75c3e559b7213887762d5229550c2b","84.67.34.58","Mozilla/5.0 (Macintosh; Intel Mac OS X 10_15_7) AppleWebKit/537.36 (KHTML, like Gecko) Chrome/138.0.0.0 Safari/537.36","Macintosh","Chrome","138.0.0.0","OS X","10_15_7","https://app.prolific.com/","en-GB,en-US;q=0.9,en;q=0.8","6658ba167affbe300577b93d","683dba2a8a9dda3513610c04","6880c86dfb55bcee783245d7","3","0","6658ba167affbe300577b93d","3","0","2025-07-23T11:45:42.337Z","","","","","","","","","","","MotivationQ","","50","","","","","","","","","","","","","","","","","","","","","","","","","","","","",""
"","","","","ctl-task-cpt","64","813127","0.0-5.0-0.11","214","1","2025-07-23 11:33:09","1f75c3e559b7213887762d5229550c2b","84.67.34.58","Mozilla/5.0 (Macintosh; Intel Mac OS X 10_15_7) AppleWebKit/537.36 (KHTML, like Gecko) Chrome/138.0.0.0 Safari/537.36","Macintosh","Chrome","138.0.0.0","OS X","10_15_7","https://app.prolific.com/","en-GB,en-US;q=0.9,en;q=0.8","6658ba167affbe300577b93d","683dba2a8a9dda3513610c04","6880c86dfb55bcee783245d7","3","0","6658ba167affbe300577b93d","3","0","2025-07-23T11:46:44.076Z","","","","","","","","","","","","","","win-only","1","g1:NE,g2:SW","0.6","12","0","753063.1","1469","6481.4","58694.9","1","4","4","6","2","4","4","55","51","0.4166666666666667","1197.1","3000","1630","[""down"",""left""]","{""num_key_presses"":12,""num_perfect"":7,""num_errors"":0,""num_randdir"":5,""num_randdir_good_moves"":2,""num_whilered"":0,""num_whileblue"":0,""num_blue"":3,""num_good_moves"":9}","[700.2857142857143,686.0825892857143,2.3,700.2857142857143,686.0825892857143,116,700.2857142857143,686.0825892857143,218.1,700.2857142857143,686.0825892857143,337.6,700.2857142857143,686.0825892857143,437.8,778.2857142857143,682.0825892857143,554.8,506.2857142857143,924.0825892857143,670.9,426.2857142857143,988.0825892857143,783.3,144.28571428571428,1256.0825892857142,891.7,98.28571428571429,1310.0825892857142,1004.6,96.28571428571429,1310.0825892857142,1109.3,106.28571428571429,1304.0825892857142,1214.9,106.28571428571429,1304.0825892857142,1328.8,104.28571428571429,1300.0825892857142,1458.1,104.28571428571429,1300.0825892857142,1564,104.28571428571429,1300.0825892857142,1672,104.28571428571429,1300.0825892857142,1802.9,104.28571428571429,1300.0825892857142,1912.2,104.28571428571429,1300.0825892857142,2031.1,104.28571428571429,1300.0825892857142,2145.5,104.28571428571429,1300.0825892857142,2258.6,104.28571428571429,1300.0825892857142,2360.9,104.28571428571429,1300.0825892857142,2462.7,104.28571428571429,1300.0825892857142,2574.2,104.28571428571429,1300.0825892857142,2674.9,104.28571428571429,1300.0825892857142,2789.1,104.28571428571429,1300.0825892857142,2896.8,104.28571428571429,1300.0825892857142,3016.4,104.28571428571429,1300.0825892857142,3126.7,104.28571428571429,1300.0825892857142,3233.7,104.28571428571429,1300.0825892857142,3343.1,104.28571428571429,1300.0825892857142,3448,104.28571428571429,1300.0825892857142,3557.2,104.28571428571429,1300.0825892857142,3658,104.28571428571429,1300.0825892857142,3792,104.28571428571429,1300.0825892857142,3902,104.28571428571429,1300.0825892857142,4014,104.28571428571429,1300.0825892857142,4115.4,104.28571428571429,1300.0825892857142,4237.1,104.28571428571429,1300.0825892857142,4350.6,104.28571428571429,1300.0825892857142,4456.9,104.28571428571429,1300.0825892857142,4559.7,104.28571428571429,1300.0825892857142,4666.4,104.28571428571429,1300.0825892857142,4773,104.28571428571429,1300.0825892857142,4888.2,104.28571428571429,1300.0825892857142,4997.6]","[5358.9,5358.9,2848.5,2016.9,493.5,""smooth"",""down"",""down"",""good_move"",8318.8,2959.4,2533,5359.5,426.3,""oops"",""down"",""down"",""good_move"",15010.8,6691.8,2734.4,11817.8,458.6,""smooth"",""down"",""down"",""good_move"",18612.6,3601.1,3117.7,15011.6,483.3,""oops"",""left"",""right"",""bad_move"",21833.5,3218.8,2797.4,18614.7,421.4,""oops"",""left"",""right"",""bad_move"",24116.8,2282.2,1351.1,21834.8,931,""oops"",""left"",""up"",""bad_move"",32227.7,8110.4,3524.5,28224.6,478.6,""smooth"",""left"",""left"",""good_move"",36186,3956.9,2144.6,32229.2,1812.3,""smooth"",""left"",""left"",""good_move"",40466,4277.9,2616.1,36188.1,1661.8,""smooth"",""left"",""left"",""good_move"",45149.1,4682.9,2951.3,40466.2,1731.6,""smooth"",""left"",""left"",""good_move"",48866.6,3716.1,3262.2,45150.5,453.9,""oops"",""left"",""down"",""good_move"",51820.3,2953.4,2434.1,48866.9,519.3,""smooth"",""left"",""left"",""good_move""]","",""
"1598","","<div style=""width:500px;"">
  <p>What determined the result of this run?</p>
  </div>","44","html-slider-response","65","814727","0.0-5.0-1.11","214","1","2025-07-23 11:33:09","1f75c3e559b7213887762d5229550c2b","84.67.34.58","Mozilla/5.0 (Macintosh; Intel Mac OS X 10_15_7) AppleWebKit/537.36 (KHTML, like Gecko) Chrome/138.0.0.0 Safari/537.36","Macintosh","Chrome","138.0.0.0","OS X","10_15_7","https://app.prolific.com/","en-GB,en-US;q=0.9,en;q=0.8","6658ba167affbe300577b93d","683dba2a8a9dda3513610c04","6880c86dfb55bcee783245d7","3","0","6658ba167affbe300577b93d","3","0","2025-07-23T11:46:45.676Z","","","","","","","","","","","AttribQ","","50","","","","","","","","","","","","","","","","","","","","","","","","","","","","",""
"1415","","<div style=""width:500px;"">
  <p>How much control did you have over the ball?</p>
  </div>","54","html-slider-response","66","816144","0.0-5.0-2.11","214","1","2025-07-23 11:33:09","1f75c3e559b7213887762d5229550c2b","84.67.34.58","Mozilla/5.0 (Macintosh; Intel Mac OS X 10_15_7) AppleWebKit/537.36 (KHTML, like Gecko) Chrome/138.0.0.0 Safari/537.36","Macintosh","Chrome","138.0.0.0","OS X","10_15_7","https://app.prolific.com/","en-GB,en-US;q=0.9,en;q=0.8","6658ba167affbe300577b93d","683dba2a8a9dda3513610c04","6880c86dfb55bcee783245d7","3","0","6658ba167affbe300577b93d","3","0","2025-07-23T11:46:47.092Z","","","","","","","","","","","ControlQ","","50","","","","","","","","","","","","","","","","","","","","","","","","","","","","",""
"1509","","<div style=""width:500px;"">
  <p>How would you describe your current emotional state?</p>
  </div>","63","html-slider-response","67","817654","0.0-5.0-3.11","214","1","2025-07-23 11:33:09","1f75c3e559b7213887762d5229550c2b","84.67.34.58","Mozilla/5.0 (Macintosh; Intel Mac OS X 10_15_7) AppleWebKit/537.36 (KHTML, like Gecko) Chrome/138.0.0.0 Safari/537.36","Macintosh","Chrome","138.0.0.0","OS X","10_15_7","https://app.prolific.com/","en-GB,en-US;q=0.9,en;q=0.8","6658ba167affbe300577b93d","683dba2a8a9dda3513610c04","6880c86dfb55bcee783245d7","3","0","6658ba167affbe300577b93d","3","0","2025-07-23T11:46:48.602Z","","","","","","","","","","","StressQ","","50","","","","","","","","","","","","","","","","","","","","","","","","","","","","",""
"1595","","<div style=""width:500px;"">
  <p>What best describes how you currently feel?</p>
  </div>","76","html-slider-response","68","819251","0.0-5.0-4.11","214","1","2025-07-23 11:33:09","1f75c3e559b7213887762d5229550c2b","84.67.34.58","Mozilla/5.0 (Macintosh; Intel Mac OS X 10_15_7) AppleWebKit/537.36 (KHTML, like Gecko) Chrome/138.0.0.0 Safari/537.36","Macintosh","Chrome","138.0.0.0","OS X","10_15_7","https://app.prolific.com/","en-GB,en-US;q=0.9,en;q=0.8","6658ba167affbe300577b93d","683dba2a8a9dda3513610c04","6880c86dfb55bcee783245d7","3","0","6658ba167affbe300577b93d","3","0","2025-07-23T11:46:50.200Z","","","","","","","","","","","MotivationQ","","50","","","","","","","","","","","","","","","","","","","","","","","","","","","","",""
"","","","","ctl-task-cpt","69","863793","0.0-5.0-0.12","214","1","2025-07-23 11:33:09","1f75c3e559b7213887762d5229550c2b","84.67.34.58","Mozilla/5.0 (Macintosh; Intel Mac OS X 10_15_7) AppleWebKit/537.36 (KHTML, like Gecko) Chrome/138.0.0.0 Safari/537.36","Macintosh","Chrome","138.0.0.0","OS X","10_15_7","https://app.prolific.com/","en-GB,en-US;q=0.9,en;q=0.8","6658ba167affbe300577b93d","683dba2a8a9dda3513610c04","6880c86dfb55bcee783245d7","3","0","6658ba167affbe300577b93d","3","0","2025-07-23T11:47:34.741Z","","","","","","","","","","","","","","win-only","1","g1:NE,g2:SW","0.7","13","0","820922.9","1195.2","6208.2","41504.6","1","4","4","6","2","4","4","59","55","0.44696969696969696","981.4","3000","1900","[""down"",""left""]","{""num_key_presses"":10,""num_perfect"":7,""num_errors"":0,""num_randdir"":3,""num_randdir_good_moves"":1,""num_whilered"":0,""num_whileblue"":0,""num_blue"":1,""num_good_moves"":8}","[704.2857142857143,694.0825892857143,0.2,704.2857142857143,694.0825892857143,101.8,704.2857142857143,694.0825892857143,217.1,704.2857142857143,694.0825892857143,325.4,694.2857142857143,712.0825892857143,436.1,312.2857142857143,1122.0825892857142,574.7,236.28571428571428,1198.0825892857142,678.9,172.28571428571428,1246.0825892857142,798.9,168.28571428571428,1246.0825892857142,915,166.28571428571428,1246.0825892857142,1026.8,166.28571428571428,1246.0825892857142,1127.4,166.28571428571428,1246.0825892857142,1235.3,166.28571428571428,1246.0825892857142,1337.8,166.28571428571428,1246.0825892857142,1442.2,166.28571428571428,1246.0825892857142,1553.5,166.28571428571428,1246.0825892857142,1666.1,166.28571428571428,1246.0825892857142,1785.3,166.28571428571428,1246.0825892857142,1904.7,166.28571428571428,1246.0825892857142,2024.4,166.28571428571428,1246.0825892857142,2157.3,166.28571428571428,1246.0825892857142,2271,166.28571428571428,1246.0825892857142,2393.7,166.28571428571428,1246.0825892857142,2505.6,166.28571428571428,1246.0825892857142,2609.4,166.28571428571428,1246.0825892857142,2720.6,166.28571428571428,1246.0825892857142,2841.4,166.28571428571428,1246.0825892857142,2952.2,166.28571428571428,1246.0825892857142,3067.8,166.28571428571428,1246.0825892857142,3178.6,166.28571428571428,1246.0825892857142,3288.3,166.28571428571428,1246.0825892857142,3407.5,166.28571428571428,1246.0825892857142,3511.2,166.28571428571428,1246.0825892857142,3615.7,166.28571428571428,1246.0825892857142,3719.1,166.28571428571428,1246.0825892857142,3834.1,166.28571428571428,1246.0825892857142,3938.7,166.28571428571428,1246.0825892857142,4053.9,166.28571428571428,1246.0825892857142,4178,166.28571428571428,1246.0825892857142,4298.9,166.28571428571428,1246.0825892857142,4407.9,166.28571428571428,1246.0825892857142,4516.9,166.28571428571428,1246.0825892857142,4630.4,166.28571428571428,1246.0825892857142,4736.7,166.28571428571428,1246.0825892857142,4848,166.28571428571428,1246.0825892857142,4970]","[1500.3,1500.3,1000,0,500.3,""smooth"",""down"",""down"",""good_move"",4243.6,2741.5,2303.4,1502.1,438.1,""oops"",""down"",""down"",""good_move"",6682,2437,1980,4245,457,""smooth"",""down"",""down"",""good_move"",10074.4,3392.2,2937.7,6682.2,454.5,""smooth"",""left"",""left"",""good_move"",13986.1,3909.3,2571.4,10076.8,1337.9,""oops"",""left"",""right"",""bad_move"",17331.6,3344.2,2837.3,13987.4,506.9,""smooth"",""left"",""left"",""good_move"",21491.5,4159.6,3159.2,17331.9,1000.4,""oops"",""left"",""right"",""bad_move"",24273,2781.2,2270.9,21491.8,510.3,""smooth"",""left"",""left"",""good_move"",31084.2,6807.6,1765.5,28826.6,492.1,""smooth"",""left"",""left"",""good_move"",34997.6,3912.1,2321.8,31085.5,1590.3,""smooth"",""left"",""left"",""good_move""]","",""
"3301","","<div style=""width:500px;"">
  <p>What determined the result of this run?</p>
  </div>","74","html-slider-response","70","867096","0.0-5.0-1.12","214","1","2025-07-23 11:33:09","1f75c3e559b7213887762d5229550c2b","84.67.34.58","Mozilla/5.0 (Macintosh; Intel Mac OS X 10_15_7) AppleWebKit/537.36 (KHTML, like Gecko) Chrome/138.0.0.0 Safari/537.36","Macintosh","Chrome","138.0.0.0","OS X","10_15_7","https://app.prolific.com/","en-GB,en-US;q=0.9,en;q=0.8","6658ba167affbe300577b93d","683dba2a8a9dda3513610c04","6880c86dfb55bcee783245d7","3","0","6658ba167affbe300577b93d","3","0","2025-07-23T11:47:38.044Z","","","","","","","","","","","AttribQ","","50","","","","","","","","","","","","","","","","","","","","","","","","","","","","",""
"1205","","<div style=""width:500px;"">
  <p>How much control did you have over the ball?</p>
  </div>","68","html-slider-response","71","868303","0.0-5.0-2.12","214","1","2025-07-23 11:33:09","1f75c3e559b7213887762d5229550c2b","84.67.34.58","Mozilla/5.0 (Macintosh; Intel Mac OS X 10_15_7) AppleWebKit/537.36 (KHTML, like Gecko) Chrome/138.0.0.0 Safari/537.36","Macintosh","Chrome","138.0.0.0","OS X","10_15_7","https://app.prolific.com/","en-GB,en-US;q=0.9,en;q=0.8","6658ba167affbe300577b93d","683dba2a8a9dda3513610c04","6880c86dfb55bcee783245d7","3","0","6658ba167affbe300577b93d","3","0","2025-07-23T11:47:39.251Z","","","","","","","","","","","ControlQ","","50","","","","","","","","","","","","","","","","","","","","","","","","","","","","",""
"1932","","<div style=""width:500px;"">
  <p>How would you describe your current emotional state?</p>
  </div>","58","html-slider-response","72","870236","0.0-5.0-3.12","214","1","2025-07-23 11:33:09","1f75c3e559b7213887762d5229550c2b","84.67.34.58","Mozilla/5.0 (Macintosh; Intel Mac OS X 10_15_7) AppleWebKit/537.36 (KHTML, like Gecko) Chrome/138.0.0.0 Safari/537.36","Macintosh","Chrome","138.0.0.0","OS X","10_15_7","https://app.prolific.com/","en-GB,en-US;q=0.9,en;q=0.8","6658ba167affbe300577b93d","683dba2a8a9dda3513610c04","6880c86dfb55bcee783245d7","3","0","6658ba167affbe300577b93d","3","0","2025-07-23T11:47:41.184Z","","","","","","","","","","","StressQ","","50","","","","","","","","","","","","","","","","","","","","","","","","","","","","",""
"5824","","<div style=""width:500px;"">
  <p>What best describes how you currently feel?</p>
  </div>","73","html-slider-response","73","876062","0.0-5.0-4.12","214","1","2025-07-23 11:33:09","1f75c3e559b7213887762d5229550c2b","84.67.34.58","Mozilla/5.0 (Macintosh; Intel Mac OS X 10_15_7) AppleWebKit/537.36 (KHTML, like Gecko) Chrome/138.0.0.0 Safari/537.36","Macintosh","Chrome","138.0.0.0","OS X","10_15_7","https://app.prolific.com/","en-GB,en-US;q=0.9,en;q=0.8","6658ba167affbe300577b93d","683dba2a8a9dda3513610c04","6880c86dfb55bcee783245d7","3","0","6658ba167affbe300577b93d","3","0","2025-07-23T11:47:47.010Z","","","","","","","","","","","MotivationQ","","50","","","","","","","","","","","","","","","","","","","","","","","","","","","","",""
