"rt","response_timestamp","stimulus","response","trial_type","trial_index","time_elapsed","internal_node_id","run_id","condition","recorded_at","source_code_version","ip","user_agent","device","browser","browser_version","platform","platform_version","referer","accept_language","PROLIFIC_PID","STUDY_ID","SESSION_ID","WEEK","BATCH","prolific_id","week","batch","realtime","success","responses","item_order","radio_event_ids","radio_event_times","key_event_times","mouse_event_times","straightlining","zigzagging","honeypot","eventType","view_history","slider_start","which_type","canvas_config","goals_layout","control_level","trial_number","tutorial_trial_number","trial_start_time","phase1_start_time","phase2_start_time","phase3_start_time","goal_1_value","goal_1_distance","goal_2_value","goal_2_distance","goal_selected","outcome","outcome_total","participant_final_score","participant_initial_score","participant_final_score_prop","goal_choice_rt","allocated_time","allocated_time_remaining","goal_direction","counts","mouse_movements","key_presses","question_order","question_id"
"1202596","1753896361374","<p style='font-size:40px;line-height:1.25'><strong>Welcome to the experiment!</strong></p><p style='font-size:1.1em;line-height:1.25'>Thank you for participanting in our experiment again! You will be asked to play the Dysfunctional Ball Game again. We will briefly recap the rules before we start.</p><p style='font-size:1.1em;line-height:1.25'>Press <strong>Next</strong> to continue.</p>","0","custom-html-button-response","0","1202600","0.0-0.0","297","1","2025-07-30 17:05:57","1f75c3e559b7213887762d5229550c2b","102.221.201.9","Mozilla/5.0 (Windows NT 10.0; Win64; x64) AppleWebKit/537.36 (KHTML, like Gecko) Chrome/138.0.0.0 Safari/537.36 Edg/138.0.0.0","WebKit","Edge","138.0.0.0","Windows","10.0","https://app.prolific.com/","en-US,en;q=0.9,en-ZA;q=0.8","606e3cce02e2e8a8c965ca75","6877631c9844ddd5501205fc","688a50e8fa25552146262067","3","1","606e3cce02e2e8a8c965ca75","3","1","2025-07-30T17:26:01.377Z","","","","","","","","","","","","","","","","","","","","","","","","","","","","","","","","","","","","","","","","","",""
"6903","","","","fullscreen","1","1210523","0.0-1.0","297","1","2025-07-30 17:05:57","1f75c3e559b7213887762d5229550c2b","102.221.201.9","Mozilla/5.0 (Windows NT 10.0; Win64; x64) AppleWebKit/537.36 (KHTML, like Gecko) Chrome/138.0.0.0 Safari/537.36 Edg/138.0.0.0","WebKit","Edge","138.0.0.0","Windows","10.0","https://app.prolific.com/","en-US,en;q=0.9,en-ZA;q=0.8","606e3cce02e2e8a8c965ca75","6877631c9844ddd5501205fc","688a50e8fa25552146262067","3","1","606e3cce02e2e8a8c965ca75","3","1","","true","","","","","","","","","","","","","","","","","","","","","","","","","","","","","","","","","","","","","","","","",""
"1658","1753896370960","<p style='font-size:1.1em;line-height:1.25'>In the following, we will ask you a few questions relating to your feelings in the last 24 hours.<br></p><p style='font-size:1.1em;line-height:1.25'>Press the <strong>Next</strong> button to continue.</p>","0","custom-html-button-response","2","1212185","0.0-2.0-0.0","297","1","2025-07-30 17:05:57","1f75c3e559b7213887762d5229550c2b","102.221.201.9","Mozilla/5.0 (Windows NT 10.0; Win64; x64) AppleWebKit/537.36 (KHTML, like Gecko) Chrome/138.0.0.0 Safari/537.36 Edg/138.0.0.0","WebKit","Edge","138.0.0.0","Windows","10.0","https://app.prolific.com/","en-US,en;q=0.9,en-ZA;q=0.8","606e3cce02e2e8a8c965ca75","6877631c9844ddd5501205fc","688a50e8fa25552146262067","3","1","606e3cce02e2e8a8c965ca75","3","1","2025-07-30T17:26:10.961Z","","","","","","","","","","","","","","","","","","","","","","","","","","","","","","","","","","","","","","","","","",""
"135311.59999999404","","","","survey-template","3","1347519","0.0-2.0-1.0","297","1","2025-07-30 17:05:57","1f75c3e559b7213887762d5229550c2b","102.221.201.9","Mozilla/5.0 (Windows NT 10.0; Win64; x64) AppleWebKit/537.36 (KHTML, like Gecko) Chrome/138.0.0.0 Safari/537.36 Edg/138.0.0.0","WebKit","Edge","138.0.0.0","Windows","10.0","https://app.prolific.com/","en-US,en;q=0.9,en-ZA;q=0.8","606e3cce02e2e8a8c965ca75","6877631c9844ddd5501205fc","688a50e8fa25552146262067","3","1","606e3cce02e2e8a8c965ca75","3","1","2025-07-30T17:28:26.295Z","","{""Q01"":""0"",""Q02"":""0"",""Q03"":""0"",""Q04"":""0"",""Q05"":""1"",""Q06"":""0"",""Q07"":""0"",""Q08"":""0"",""Q09"":""0"",""Q10"":""0"",""Q11"":""0"",""Q12"":""4"",""Q13"":""5"",""Q14"":""4"",""Q15"":""1"",""Q16"":""1"",""Q17"":""0"",""Q18"":""0"",""Q19"":""4"",""Q20"":""0"",""Q21"":""0"",""Q22"":""0""}","[0,1,2,3,4,5,6,7,8,9,10,11,12,13,14,15,16,17,18,19,20,21]","[""Q02"",""Q01"",""Q03"",""Q04"",""Q05"",""Q06"",""Q07"",""Q08"",""Q09"",""Q10"",""Q11"",""Q12"",""Q12"",""Q13"",""Q14"",""Q15"",""Q16"",""Q17"",""Q18"",""Q19"",""Q21"",""Q22"",""Q20""]","[27290,28531.20000000298,30099.59999999404,32829.5,34489.5,37901.29999999702,40170.70000000298,41719.09999999404,43157.79999999702,45861.39999999106,48465.39999999106,49769.39999999106,52747.29999999702,56241,67748.29999999702,79155.79999999702,82268.70000000298,87361.39999999106,88711.29999999702,93071,99360.5,101184.29999999702,132961.89999999106]","[]","[0.09999999403953552,26074,27290,28531.20000000298,30099.59999999404,31845.20000000298,32829.5,34489.5,36744.79999999702,37901.29999999702,40170.70000000298,41719.09999999404,43157.79999999702,45861.39999999106,47500,48465.39999999106,49769.39999999106,52747.29999999702,56241,67748.29999999702,79155.79999999702,82268.70000000298,86006.89999999106,87361.39999999106,88711.29999999702,93071,94887.59999999404,99360.5,101184.29999999702,109668.70000000298,130090.79999999702,131713.29999999702,132961.89999999106,135286.39999999106]","0.6818181818181818","0.23809523809523808","0","drsp","","","","","","","","","","","","","","","","","","","","","","","","","","","","","","",""
"20415.40000000596","","","","survey-template","4","1367938","0.0-2.0-2.0","297","1","2025-07-30 17:05:57","1f75c3e559b7213887762d5229550c2b","102.221.201.9","Mozilla/5.0 (Windows NT 10.0; Win64; x64) AppleWebKit/537.36 (KHTML, like Gecko) Chrome/138.0.0.0 Safari/537.36 Edg/138.0.0.0","WebKit","Edge","138.0.0.0","Windows","10.0","https://app.prolific.com/","en-US,en;q=0.9,en-ZA;q=0.8","606e3cce02e2e8a8c965ca75","6877631c9844ddd5501205fc","688a50e8fa25552146262067","3","1","606e3cce02e2e8a8c965ca75","3","1","2025-07-30T17:28:46.715Z","","{""Q01"":""0"",""Q02"":""3"",""Q03"":""1""}","[0,1,2]","[""Q01"",""Q02"",""Q02"",""Q03""]","[3969.0999999940395,7217.4000000059605,11511.79999999702,17297.59999999404]","[]","[3969.0999999940395,5476.5,7217.4000000059605,11511.79999999702,16380.79999999702,17297.59999999404,20414.40000000596]","0.3333333333333333","0.5","0","stress","","","","","","","","","","","","","","","","","","","","","","","","","","","","","","",""
"4456","","","","instructions","5","1372396","0.0-3.0-0.0","297","1","2025-07-30 17:05:57","1f75c3e559b7213887762d5229550c2b","102.221.201.9","Mozilla/5.0 (Windows NT 10.0; Win64; x64) AppleWebKit/537.36 (KHTML, like Gecko) Chrome/138.0.0.0 Safari/537.36 Edg/138.0.0.0","WebKit","Edge","138.0.0.0","Windows","10.0","https://app.prolific.com/","en-US,en;q=0.9,en-ZA;q=0.8","606e3cce02e2e8a8c965ca75","6877631c9844ddd5501205fc","688a50e8fa25552146262067","3","1","606e3cce02e2e8a8c965ca75","3","1","","","","","","","","","","","","","[{""page_index"":0,""viewing_time"":4456}]","","","","","","","","","","","","","","","","","","","","","","","","","","","","","",""
"63160","","<p>Before you start with this game please answer the following three questions yourself. </p>
  <p>Through this game, we measure several aspects of your cognitive performance, such as reaction times, multi-tasking capabilities </p>
  <p>and the ability to assess the situation you are in.</p>
  <p></p>
  <p><b>How good do you usually are in such tasks?</b></p>","93","html-slider-response","6","1435584","0.0-4.0-0.0","297","1","2025-07-30 17:05:57","1f75c3e559b7213887762d5229550c2b","102.221.201.9","Mozilla/5.0 (Windows NT 10.0; Win64; x64) AppleWebKit/537.36 (KHTML, like Gecko) Chrome/138.0.0.0 Safari/537.36 Edg/138.0.0.0","WebKit","Edge","138.0.0.0","Windows","10.0","https://app.prolific.com/","en-US,en;q=0.9,en-ZA;q=0.8","606e3cce02e2e8a8c965ca75","6877631c9844ddd5501205fc","688a50e8fa25552146262067","3","1","606e3cce02e2e8a8c965ca75","3","1","2025-07-30T17:29:54.360Z","","","","","","","","","","","PreSkillQ","","50","","","","","","","","","","","","","","","","","","","","","","","","","","","","",""
"6901","","<div style=""width:500px;"">
  <p>How well do you think you will perform in this task compared to other participants?</p>
  </div>","91","html-slider-response","7","1442487","0.0-4.0-1.0","297","1","2025-07-30 17:05:57","1f75c3e559b7213887762d5229550c2b","102.221.201.9","Mozilla/5.0 (Windows NT 10.0; Win64; x64) AppleWebKit/537.36 (KHTML, like Gecko) Chrome/138.0.0.0 Safari/537.36 Edg/138.0.0.0","WebKit","Edge","138.0.0.0","Windows","10.0","https://app.prolific.com/","en-US,en;q=0.9,en-ZA;q=0.8","606e3cce02e2e8a8c965ca75","6877631c9844ddd5501205fc","688a50e8fa25552146262067","3","1","606e3cce02e2e8a8c965ca75","3","1","2025-07-30T17:30:01.263Z","","","","","","","","","","","PrePerfQ","","50","","","","","","","","","","","","","","","","","","","","","","","","","","","","",""
"4778","","<div style=""width:500px;"">
  <p>What best describes how you currently feel?</p>
  </div>","100","html-slider-response","8","1447267","0.0-4.0-2.0","297","1","2025-07-30 17:05:57","1f75c3e559b7213887762d5229550c2b","102.221.201.9","Mozilla/5.0 (Windows NT 10.0; Win64; x64) AppleWebKit/537.36 (KHTML, like Gecko) Chrome/138.0.0.0 Safari/537.36 Edg/138.0.0.0","WebKit","Edge","138.0.0.0","Windows","10.0","https://app.prolific.com/","en-US,en;q=0.9,en-ZA;q=0.8","606e3cce02e2e8a8c965ca75","6877631c9844ddd5501205fc","688a50e8fa25552146262067","3","1","606e3cce02e2e8a8c965ca75","3","1","2025-07-30T17:30:06.043Z","","","","","","","","","","","PreMotivationQ","","50","","","","","","","","","","","","","","","","","","","","","","","","","","","","",""
"","","","","ctl-task-cpt","9","1479379","0.0-5.0-0.0","297","1","2025-07-30 17:05:57","1f75c3e559b7213887762d5229550c2b","102.221.201.9","Mozilla/5.0 (Windows NT 10.0; Win64; x64) AppleWebKit/537.36 (KHTML, like Gecko) Chrome/138.0.0.0 Safari/537.36 Edg/138.0.0.0","WebKit","Edge","138.0.0.0","Windows","10.0","https://app.prolific.com/","en-US,en;q=0.9,en-ZA;q=0.8","606e3cce02e2e8a8c965ca75","6877631c9844ddd5501205fc","688a50e8fa25552146262067","3","1","606e3cce02e2e8a8c965ca75","3","1","2025-07-30T17:30:38.155Z","","","","","","","","","","","","","","win-only","0","g1:NW,g2:SE","1","1","0","1450065.8","2907.7","7932.5","29072.3","1","4","4","6","2","-4","-4","0","0","0","5024.7","3000","-2020","[""down"",""right""]","{""num_key_presses"":5,""num_perfect"":5,""num_errors"":0,""num_randdir"":0,""num_randdir_good_moves"":0,""num_whilered"":0,""num_whileblue"":0,""num_blue"":1,""num_good_moves"":5}","[416.5714133126395,426.57142761775424,0.3,416.5714133126395,426.57142761775424,105,416.5714133126395,426.57142761775424,210.1,416.5714133126395,426.57142761775424,311.6,416.5714133126395,426.57142761775424,413.1,416.5714133126395,426.57142761775424,513.3,416.5714133126395,426.57142761775424,613.3,416.5714133126395,426.57142761775424,713.6,416.5714133126395,426.57142761775424,813.7,416.5714133126395,417.82142761775424,921.9,414.0714133126395,402.82142761775424,1028,410.3214133126395,399.07142761775424,1130.5,406.5714133126395,399.07142761775424,1230.7,406.5714133126395,399.07142761775424,1339.5,401.5714133126395,400.32142761775424,1447.3,386.5714133126395,399.07142761775424,1548.5,371.5714133126395,391.57142761775424,1650.6,366.5714133126395,389.07142761775424,1753.2,366.5714133126395,387.82142761775424,1857.6,366.5714133126395,387.82142761775424,1960.7,366.5714133126395,387.82142761775424,2068.1,366.5714133126395,387.82142761775424,2174.8,366.5714133126395,387.82142761775424,2284.4,366.5714133126395,386.57142761775424,2389.9,366.5714133126395,384.07142761775424,2490.1,365.3214133126395,384.07142761775424,2594.5,365.3214133126395,384.07142761775424,2706.1,365.3214133126395,384.07142761775424,2807.4,365.3214133126395,384.07142761775424,2908.2,365.3214133126395,384.07142761775424,3008.6,365.3214133126395,384.07142761775424,3111.8,365.3214133126395,384.07142761775424,3216.3,365.3214133126395,384.07142761775424,3319,365.3214133126395,384.07142761775424,3422.2,365.3214133126395,384.07142761775424,3522.6,365.3214133126395,384.07142761775424,3623.1,364.0714133126395,384.07142761775424,3723.1,364.0714133126395,384.07142761775424,3828.7,364.0714133126395,384.07142761775424,3928.7,364.0714133126395,384.07142761775424,4032.3,364.0714133126395,384.07142761775424,4139.5,364.0714133126395,384.07142761775424,4245.8,364.0714133126395,384.07142761775424,4353.4,364.0714133126395,384.07142761775424,4456,364.0714133126395,384.07142761775424,4561.3,364.0714133126395,384.07142761775424,4669.6,364.0714133126395,384.07142761775424,4771.6,364.0714133126395,384.07142761775424,4873.2,365.3214133126395,384.07142761775424,4973.3]","[5454.3,5454.4,2809,2007.3,638.1,""smooth"",""down"",""down"",""good_move"",7909,2454,1888,5455,566,""smooth"",""down"",""down"",""good_move"",11227.6,3318,2757.9,7909.7,560,""smooth"",""down"",""down"",""good_move"",14770.3,3542.3,2256.3,11228,1286,""smooth"",""right"",""right"",""good_move"",18186.5,3415.5,2708.4,14771,707.1,""smooth"",""right"",""right"",""good_move""]","",""
"4735","","<div style=""width:500px;"">
  <p>What determined the result of this run?</p>
  </div>","93","html-slider-response","10","1484117","0.0-5.0-1.0","297","1","2025-07-30 17:05:57","1f75c3e559b7213887762d5229550c2b","102.221.201.9","Mozilla/5.0 (Windows NT 10.0; Win64; x64) AppleWebKit/537.36 (KHTML, like Gecko) Chrome/138.0.0.0 Safari/537.36 Edg/138.0.0.0","WebKit","Edge","138.0.0.0","Windows","10.0","https://app.prolific.com/","en-US,en;q=0.9,en-ZA;q=0.8","606e3cce02e2e8a8c965ca75","6877631c9844ddd5501205fc","688a50e8fa25552146262067","3","1","606e3cce02e2e8a8c965ca75","3","1","2025-07-30T17:30:42.893Z","","","","","","","","","","","AttribQ","","50","","","","","","","","","","","","","","","","","","","","","","","","","","","","",""
"4093","","<div style=""width:500px;"">
  <p>How much control did you have over the ball?</p>
  </div>","85","html-slider-response","11","1488212","0.0-5.0-2.0","297","1","2025-07-30 17:05:57","1f75c3e559b7213887762d5229550c2b","102.221.201.9","Mozilla/5.0 (Windows NT 10.0; Win64; x64) AppleWebKit/537.36 (KHTML, like Gecko) Chrome/138.0.0.0 Safari/537.36 Edg/138.0.0.0","WebKit","Edge","138.0.0.0","Windows","10.0","https://app.prolific.com/","en-US,en;q=0.9,en-ZA;q=0.8","606e3cce02e2e8a8c965ca75","6877631c9844ddd5501205fc","688a50e8fa25552146262067","3","1","606e3cce02e2e8a8c965ca75","3","1","2025-07-30T17:30:46.988Z","","","","","","","","","","","ControlQ","","50","","","","","","","","","","","","","","","","","","","","","","","","","","","","",""
"3645","","<div style=""width:500px;"">
  <p>How would you describe your current emotional state?</p>
  </div>","0","html-slider-response","12","1491859","0.0-5.0-3.0","297","1","2025-07-30 17:05:57","1f75c3e559b7213887762d5229550c2b","102.221.201.9","Mozilla/5.0 (Windows NT 10.0; Win64; x64) AppleWebKit/537.36 (KHTML, like Gecko) Chrome/138.0.0.0 Safari/537.36 Edg/138.0.0.0","WebKit","Edge","138.0.0.0","Windows","10.0","https://app.prolific.com/","en-US,en;q=0.9,en-ZA;q=0.8","606e3cce02e2e8a8c965ca75","6877631c9844ddd5501205fc","688a50e8fa25552146262067","3","1","606e3cce02e2e8a8c965ca75","3","1","2025-07-30T17:30:50.635Z","","","","","","","","","","","StressQ","","50","","","","","","","","","","","","","","","","","","","","","","","","","","","","",""
"22454","","<div style=""width:500px;"">
  <p>What best describes how you currently feel?</p>
  </div>","97","html-slider-response","13","1514315","0.0-5.0-4.0","297","1","2025-07-30 17:05:57","1f75c3e559b7213887762d5229550c2b","102.221.201.9","Mozilla/5.0 (Windows NT 10.0; Win64; x64) AppleWebKit/537.36 (KHTML, like Gecko) Chrome/138.0.0.0 Safari/537.36 Edg/138.0.0.0","WebKit","Edge","138.0.0.0","Windows","10.0","https://app.prolific.com/","en-US,en;q=0.9,en-ZA;q=0.8","606e3cce02e2e8a8c965ca75","6877631c9844ddd5501205fc","688a50e8fa25552146262067","3","1","606e3cce02e2e8a8c965ca75","3","1","2025-07-30T17:31:13.091Z","","","","","","","","","","","MotivationQ","","50","","","","","","","","","","","","","","","","","","","","","","","","","","","","",""
"","","","","ctl-task-cpt","14","1543853","0.0-5.0-0.1","297","1","2025-07-30 17:05:57","1f75c3e559b7213887762d5229550c2b","102.221.201.9","Mozilla/5.0 (Windows NT 10.0; Win64; x64) AppleWebKit/537.36 (KHTML, like Gecko) Chrome/138.0.0.0 Safari/537.36 Edg/138.0.0.0","WebKit","Edge","138.0.0.0","Windows","10.0","https://app.prolific.com/","en-US,en;q=0.9,en-ZA;q=0.8","606e3cce02e2e8a8c965ca75","6877631c9844ddd5501205fc","688a50e8fa25552146262067","3","1","606e3cce02e2e8a8c965ca75","3","1","2025-07-30T17:31:42.629Z","","","","","","","","","","","","","","win-only","1","g1:NE,g2:SW","0.9","2","0","1517080.3","2928.1","7936.9","26518.7","1","4","8","6","2","8","8","8","0","0.06060606060606061","5008.8","3000","695","[""down"",""left""]","{""num_key_presses"":6,""num_perfect"":6,""num_errors"":0,""num_randdir"":0,""num_randdir_good_moves"":0,""num_whilered"":0,""num_whileblue"":0,""num_blue"":1,""num_good_moves"":6}","[406.5714133126395,417.82142761775424,0.5,406.5714133126395,417.82142761775424,104.1,406.5714133126395,417.82142761775424,209.5,406.5714133126395,417.82142761775424,310.4,406.5714133126395,417.82142761775424,412,406.5714133126395,417.82142761775424,513.7,406.5714133126395,417.82142761775424,621.8,406.5714133126395,417.82142761775424,724.6,414.0714133126395,407.82142761775424,825.8,417.8214133126395,406.57142761775424,927.3,420.3214133126395,409.07142761775424,1027.8,419.0714133126395,409.07142761775424,1132,416.5714133126395,407.82142761775424,1234.1,415.3214133126395,405.32142761775424,1336.9,415.3214133126395,401.57142761775424,1444.3,416.5714133126395,399.07142761775424,1549.8,421.5714133126395,401.57142761775424,1658,437.8214133126395,404.07142761775424,1780.1,447.8214133126395,394.07142761775424,1880.8,456.5714133126395,380.32142761775424,1986.3,461.5714133126395,376.57142761775424,2089.9,462.8214133126395,376.57142761775424,2193.9,462.8214133126395,376.57142761775424,2298,462.8214133126395,376.57142761775424,2399.8,462.8214133126395,376.57142761775424,2507.4,462.8214133126395,376.57142761775424,2614.3,462.8214133126395,376.57142761775424,2721.1,462.8214133126395,376.57142761775424,2825.1,462.8214133126395,376.57142761775424,2925.5,462.8214133126395,369.07142761775424,3030.6,462.8214133126395,355.32142761775424,3138.2,464.0714133126395,346.57142761775424,3242.1,464.0714133126395,346.57142761775424,3342.2,464.0714133126395,346.57142761775424,3442.7,464.0714133126395,346.57142761775424,3545,466.5714133126395,346.57142761775424,3648.5,469.0714133126395,346.57142761775424,3757.2,469.0714133126395,346.57142761775424,3857.8,469.0714133126395,346.57142761775424,3963.4,469.0714133126395,346.57142761775424,4068.3,469.0714133126395,346.57142761775424,4169.1,469.0714133126395,346.57142761775424,4278.2,469.0714133126395,346.57142761775424,4382,469.0714133126395,346.57142761775424,4488.5,469.0714133126395,346.57142761775424,4590.3,469.0714133126395,346.57142761775424,4690.6,469.0714133126395,346.57142761775424,4797.8,469.0714133126395,346.57142761775424,4899.5]","[5155.4,5155.4,2520.4,2013.2,621.8,""smooth"",""down"",""down"",""good_move"",8335,3179.2,2590.5,5155.8,588.7,""smooth"",""down"",""down"",""good_move"",11111.8,2776.5,2243.1,8335.4,533.4,""smooth"",""down"",""down"",""good_move"",13422.1,2309.7,1812.8,11112.4,496.9,""smooth"",""left"",""left"",""good_move"",15738.1,2315.6,1869.9,13422.5,445.7,""smooth"",""left"",""left"",""good_move"",18451,2712.3,2303.2,15738.7,409.2,""smooth"",""left"",""left"",""good_move""]","",""
"5419","","<div style=""width:500px;"">
  <p>What determined the result of this run?</p>
  </div>","100","html-slider-response","15","1549274","0.0-5.0-1.1","297","1","2025-07-30 17:05:57","1f75c3e559b7213887762d5229550c2b","102.221.201.9","Mozilla/5.0 (Windows NT 10.0; Win64; x64) AppleWebKit/537.36 (KHTML, like Gecko) Chrome/138.0.0.0 Safari/537.36 Edg/138.0.0.0","WebKit","Edge","138.0.0.0","Windows","10.0","https://app.prolific.com/","en-US,en;q=0.9,en-ZA;q=0.8","606e3cce02e2e8a8c965ca75","6877631c9844ddd5501205fc","688a50e8fa25552146262067","3","1","606e3cce02e2e8a8c965ca75","3","1","2025-07-30T17:31:48.050Z","","","","","","","","","","","AttribQ","","50","","","","","","","","","","","","","","","","","","","","","","","","","","","","",""
"3725","","<div style=""width:500px;"">
  <p>How much control did you have over the ball?</p>
  </div>","100","html-slider-response","16","1553000","0.0-5.0-2.1","297","1","2025-07-30 17:05:57","1f75c3e559b7213887762d5229550c2b","102.221.201.9","Mozilla/5.0 (Windows NT 10.0; Win64; x64) AppleWebKit/537.36 (KHTML, like Gecko) Chrome/138.0.0.0 Safari/537.36 Edg/138.0.0.0","WebKit","Edge","138.0.0.0","Windows","10.0","https://app.prolific.com/","en-US,en;q=0.9,en-ZA;q=0.8","606e3cce02e2e8a8c965ca75","6877631c9844ddd5501205fc","688a50e8fa25552146262067","3","1","606e3cce02e2e8a8c965ca75","3","1","2025-07-30T17:31:51.776Z","","","","","","","","","","","ControlQ","","50","","","","","","","","","","","","","","","","","","","","","","","","","","","","",""
"3478","","<div style=""width:500px;"">
  <p>How would you describe your current emotional state?</p>
  </div>","0","html-slider-response","17","1556479","0.0-5.0-3.1","297","1","2025-07-30 17:05:57","1f75c3e559b7213887762d5229550c2b","102.221.201.9","Mozilla/5.0 (Windows NT 10.0; Win64; x64) AppleWebKit/537.36 (KHTML, like Gecko) Chrome/138.0.0.0 Safari/537.36 Edg/138.0.0.0","WebKit","Edge","138.0.0.0","Windows","10.0","https://app.prolific.com/","en-US,en;q=0.9,en-ZA;q=0.8","606e3cce02e2e8a8c965ca75","6877631c9844ddd5501205fc","688a50e8fa25552146262067","3","1","606e3cce02e2e8a8c965ca75","3","1","2025-07-30T17:31:55.256Z","","","","","","","","","","","StressQ","","50","","","","","","","","","","","","","","","","","","","","","","","","","","","","",""
"3706","","<div style=""width:500px;"">
  <p>What best describes how you currently feel?</p>
  </div>","96","html-slider-response","18","1560188","0.0-5.0-4.1","297","1","2025-07-30 17:05:57","1f75c3e559b7213887762d5229550c2b","102.221.201.9","Mozilla/5.0 (Windows NT 10.0; Win64; x64) AppleWebKit/537.36 (KHTML, like Gecko) Chrome/138.0.0.0 Safari/537.36 Edg/138.0.0.0","WebKit","Edge","138.0.0.0","Windows","10.0","https://app.prolific.com/","en-US,en;q=0.9,en-ZA;q=0.8","606e3cce02e2e8a8c965ca75","6877631c9844ddd5501205fc","688a50e8fa25552146262067","3","1","606e3cce02e2e8a8c965ca75","3","1","2025-07-30T17:31:58.964Z","","","","","","","","","","","MotivationQ","","50","","","","","","","","","","","","","","","","","","","","","","","","","","","","",""
"","","","","ctl-task-cpt","19","1606859","0.0-5.0-0.2","297","1","2025-07-30 17:05:57","1f75c3e559b7213887762d5229550c2b","102.221.201.9","Mozilla/5.0 (Windows NT 10.0; Win64; x64) AppleWebKit/537.36 (KHTML, like Gecko) Chrome/138.0.0.0 Safari/537.36 Edg/138.0.0.0","WebKit","Edge","138.0.0.0","Windows","10.0","https://app.prolific.com/","en-US,en;q=0.9,en-ZA;q=0.8","606e3cce02e2e8a8c965ca75","6877631c9844ddd5501205fc","688a50e8fa25552146262067","3","1","606e3cce02e2e8a8c965ca75","3","1","2025-07-30T17:32:45.635Z","","","","","","","","","","","","","","win-only","0","g1:NW,g2:SE","0.8","3","0","1562954.7","2819.2","7820.9","43656.8","1","4","8","6","1","-1","-1","7","8","0.05303030303030303","5001.5","3000","-2320","[""left"",""up""]","{""num_key_presses"":5,""num_perfect"":4,""num_errors"":0,""num_randdir"":1,""num_randdir_good_moves"":1,""num_whilered"":0,""num_whileblue"":0,""num_blue"":5,""num_good_moves"":4}","[411.5714133126395,416.57142761775424,0.3,411.5714133126395,416.57142761775424,101.7,411.5714133126395,416.57142761775424,202.2,411.5714133126395,416.57142761775424,302.6,411.5714133126395,416.57142761775424,404.3,411.5714133126395,416.57142761775424,511.4,411.5714133126395,416.57142761775424,612,411.5714133126395,416.57142761775424,724.8,411.5714133126395,416.57142761775424,825.7,411.5714133126395,416.57142761775424,927.8,411.5714133126395,416.57142761775424,1035.1,411.5714133126395,416.57142761775424,1141.9,411.5714133126395,416.57142761775424,1243.6,411.5714133126395,416.57142761775424,1344.5,411.5714133126395,416.57142761775424,1452.5,411.5714133126395,416.57142761775424,1558.2,411.5714133126395,416.57142761775424,1663.1,411.5714133126395,416.57142761775424,1766,411.5714133126395,416.57142761775424,1868.9,411.5714133126395,416.57142761775424,1971.4,411.5714133126395,416.57142761775424,2074.1,411.5714133126395,416.57142761775424,2177,411.5714133126395,416.57142761775424,2284.7,411.5714133126395,416.57142761775424,2386.2,411.5714133126395,416.57142761775424,2490.7,411.5714133126395,416.57142761775424,2590.7,411.5714133126395,416.57142761775424,2692.6,411.5714133126395,416.57142761775424,2793.4,411.5714133126395,416.57142761775424,2898.4,411.5714133126395,416.57142761775424,3000.7,411.5714133126395,416.57142761775424,3108.2,411.5714133126395,416.57142761775424,3214.8,411.5714133126395,416.57142761775424,3323.1,411.5714133126395,416.57142761775424,3423.8,411.5714133126395,416.57142761775424,3526.5,411.5714133126395,416.57142761775424,3627.3,411.5714133126395,416.57142761775424,3732.6,411.5714133126395,416.57142761775424,3839.5,411.5714133126395,416.57142761775424,3948.6,411.5714133126395,416.57142761775424,4055.9,411.5714133126395,416.57142761775424,4158.2,411.5714133126395,416.57142761775424,4265.7,411.5714133126395,416.57142761775424,4370.1,411.5714133126395,416.57142761775424,4472.3,411.5714133126395,416.57142761775424,4574.7,411.5714133126395,416.57142761775424,4682.3,411.5714133126395,416.57142761775424,4782.3,411.5714133126395,416.57142761775424,4888.6,411.5714133126395,416.57142761775424,4992.4]","[5890,5890,3304,2019.2,566.8,""smooth"",""down"",""down"",""bad_move"",10100.6,4208.7,2882.3,5892,1326.4,""smooth"",""up"",""up"",""good_move"",17053.9,6952.6,2578.3,13878.8,596.8,""smooth"",""up"",""up"",""good_move"",26727.3,9673.1,2630.1,23620,477.2,""smooth"",""left"",""left"",""good_move"",33288.9,6561.2,2539,30110.6,639.4,""oops"",""left"",""up"",""good_move""]","",""
"4170","","<div style=""width:500px;"">
  <p>What determined the result of this run?</p>
  </div>","0","html-slider-response","20","1611032","0.0-5.0-1.2","297","1","2025-07-30 17:05:57","1f75c3e559b7213887762d5229550c2b","102.221.201.9","Mozilla/5.0 (Windows NT 10.0; Win64; x64) AppleWebKit/537.36 (KHTML, like Gecko) Chrome/138.0.0.0 Safari/537.36 Edg/138.0.0.0","WebKit","Edge","138.0.0.0","Windows","10.0","https://app.prolific.com/","en-US,en;q=0.9,en-ZA;q=0.8","606e3cce02e2e8a8c965ca75","6877631c9844ddd5501205fc","688a50e8fa25552146262067","3","1","606e3cce02e2e8a8c965ca75","3","1","2025-07-30T17:32:49.808Z","","","","","","","","","","","AttribQ","","50","","","","","","","","","","","","","","","","","","","","","","","","","","","","",""
"3286","","<div style=""width:500px;"">
  <p>How much control did you have over the ball?</p>
  </div>","100","html-slider-response","21","1614319","0.0-5.0-2.2","297","1","2025-07-30 17:05:57","1f75c3e559b7213887762d5229550c2b","102.221.201.9","Mozilla/5.0 (Windows NT 10.0; Win64; x64) AppleWebKit/537.36 (KHTML, like Gecko) Chrome/138.0.0.0 Safari/537.36 Edg/138.0.0.0","WebKit","Edge","138.0.0.0","Windows","10.0","https://app.prolific.com/","en-US,en;q=0.9,en-ZA;q=0.8","606e3cce02e2e8a8c965ca75","6877631c9844ddd5501205fc","688a50e8fa25552146262067","3","1","606e3cce02e2e8a8c965ca75","3","1","2025-07-30T17:32:53.095Z","","","","","","","","","","","ControlQ","","50","","","","","","","","","","","","","","","","","","","","","","","","","","","","",""
"3920","","<div style=""width:500px;"">
  <p>How would you describe your current emotional state?</p>
  </div>","79","html-slider-response","22","1618242","0.0-5.0-3.2","297","1","2025-07-30 17:05:57","1f75c3e559b7213887762d5229550c2b","102.221.201.9","Mozilla/5.0 (Windows NT 10.0; Win64; x64) AppleWebKit/537.36 (KHTML, like Gecko) Chrome/138.0.0.0 Safari/537.36 Edg/138.0.0.0","WebKit","Edge","138.0.0.0","Windows","10.0","https://app.prolific.com/","en-US,en;q=0.9,en-ZA;q=0.8","606e3cce02e2e8a8c965ca75","6877631c9844ddd5501205fc","688a50e8fa25552146262067","3","1","606e3cce02e2e8a8c965ca75","3","1","2025-07-30T17:32:57.019Z","","","","","","","","","","","StressQ","","50","","","","","","","","","","","","","","","","","","","","","","","","","","","","",""
"5277","","<div style=""width:500px;"">
  <p>What best describes how you currently feel?</p>
  </div>","87","html-slider-response","23","1623522","0.0-5.0-4.2","297","1","2025-07-30 17:05:57","1f75c3e559b7213887762d5229550c2b","102.221.201.9","Mozilla/5.0 (Windows NT 10.0; Win64; x64) AppleWebKit/537.36 (KHTML, like Gecko) Chrome/138.0.0.0 Safari/537.36 Edg/138.0.0.0","WebKit","Edge","138.0.0.0","Windows","10.0","https://app.prolific.com/","en-US,en;q=0.9,en-ZA;q=0.8","606e3cce02e2e8a8c965ca75","6877631c9844ddd5501205fc","688a50e8fa25552146262067","3","1","606e3cce02e2e8a8c965ca75","3","1","2025-07-30T17:33:02.298Z","","","","","","","","","","","MotivationQ","","50","","","","","","","","","","","","","","","","","","","","","","","","","","","","",""
"","","","","ctl-task-cpt","24","1650244","0.0-5.0-0.3","297","1","2025-07-30 17:05:57","1f75c3e559b7213887762d5229550c2b","102.221.201.9","Mozilla/5.0 (Windows NT 10.0; Win64; x64) AppleWebKit/537.36 (KHTML, like Gecko) Chrome/138.0.0.0 Safari/537.36 Edg/138.0.0.0","WebKit","Edge","138.0.0.0","Windows","10.0","https://app.prolific.com/","en-US,en;q=0.9,en-ZA;q=0.8","606e3cce02e2e8a8c965ca75","6877631c9844ddd5501205fc","688a50e8fa25552146262067","3","1","606e3cce02e2e8a8c965ca75","3","1","2025-07-30T17:33:29.020Z","","","","","","","","","","","","","","win-only","3","g1:SW,g2:NE","0.7","4","0","1626289.8","2292.7","7293.3","23713.5","1","4","4","6","2","4","4","11","7","0.08333333333333333","5000.6","3000","1090","[""up"",""right""]","{""num_key_presses"":6,""num_perfect"":4,""num_errors"":0,""num_randdir"":2,""num_randdir_good_moves"":2,""num_whilered"":0,""num_whileblue"":0,""num_blue"":0,""num_good_moves"":6}","[411.5714133126395,417.82142761775424,0.4,411.5714133126395,417.82142761775424,114.3,411.5714133126395,417.82142761775424,232.8,411.5714133126395,417.82142761775424,333.5,411.5714133126395,417.82142761775424,436.7,411.5714133126395,417.82142761775424,538.9,411.5714133126395,417.82142761775424,644.5,411.5714133126395,417.82142761775424,745.3,411.5714133126395,417.82142761775424,846,411.5714133126395,417.82142761775424,949.4,411.5714133126395,417.82142761775424,1049.4,411.5714133126395,417.82142761775424,1150.2,411.5714133126395,417.82142761775424,1253.7,411.5714133126395,417.82142761775424,1354.3,411.5714133126395,417.82142761775424,1462.6,411.5714133126395,417.82142761775424,1562.8,411.5714133126395,417.82142761775424,1665.5,411.5714133126395,417.82142761775424,1771.8,411.5714133126395,417.82142761775424,1871.9,411.5714133126395,417.82142761775424,1972.3,411.5714133126395,417.82142761775424,2076,411.5714133126395,417.82142761775424,2185.1,411.5714133126395,417.82142761775424,2294.6,411.5714133126395,417.82142761775424,2403.5,411.5714133126395,417.82142761775424,2506.1,411.5714133126395,417.82142761775424,2608.7,411.5714133126395,417.82142761775424,2710.1,411.5714133126395,417.82142761775424,2810.8,411.5714133126395,417.82142761775424,2911.6,411.5714133126395,417.82142761775424,3016.8,411.5714133126395,417.82142761775424,3121.2,411.5714133126395,417.82142761775424,3227,411.5714133126395,417.82142761775424,3333.5,411.5714133126395,417.82142761775424,3434.1,411.5714133126395,417.82142761775424,3545.8,411.5714133126395,417.82142761775424,3649.5,411.5714133126395,417.82142761775424,3750.8,411.5714133126395,417.82142761775424,3850.8,411.5714133126395,417.82142761775424,3959.7,411.5714133126395,417.82142761775424,4061.3,411.5714133126395,417.82142761775424,4164.1,411.5714133126395,417.82142761775424,4266,411.5714133126395,417.82142761775424,4374.4,411.5714133126395,417.82142761775424,4481.9,411.5714133126395,417.82142761775424,4583.8,411.5714133126395,417.82142761775424,4692.1,411.5714133126395,417.82142761775424,4795,411.5714133126395,417.82142761775424,4908.9]","[1435.3,1435.3,1000,0,435.3,""oops"",""up"",""up"",""good_move"",4638.3,3200.8,2494.6,1437.5,706.2,""smooth"",""up"",""up"",""good_move"",8088.2,3449.6,3061.7,4638.6,387.9,""smooth"",""up"",""up"",""good_move"",10617.6,2528.7,2096.7,8089,432,""oops"",""right"",""right"",""good_move"",13257.7,2639.6,2221.5,10618.1,418.1,""smooth"",""right"",""right"",""good_move"",16292.5,3034.6,2610.2,13258,424.5,""smooth"",""right"",""right"",""good_move""]","",""
"3957","","<div style=""width:500px;"">
  <p>What determined the result of this run?</p>
  </div>","100","html-slider-response","25","1654205","0.0-5.0-1.3","297","1","2025-07-30 17:05:57","1f75c3e559b7213887762d5229550c2b","102.221.201.9","Mozilla/5.0 (Windows NT 10.0; Win64; x64) AppleWebKit/537.36 (KHTML, like Gecko) Chrome/138.0.0.0 Safari/537.36 Edg/138.0.0.0","WebKit","Edge","138.0.0.0","Windows","10.0","https://app.prolific.com/","en-US,en;q=0.9,en-ZA;q=0.8","606e3cce02e2e8a8c965ca75","6877631c9844ddd5501205fc","688a50e8fa25552146262067","3","1","606e3cce02e2e8a8c965ca75","3","1","2025-07-30T17:33:32.981Z","","","","","","","","","","","AttribQ","","50","","","","","","","","","","","","","","","","","","","","","","","","","","","","",""
"3532","","<div style=""width:500px;"">
  <p>How much control did you have over the ball?</p>
  </div>","94","html-slider-response","26","1657745","0.0-5.0-2.3","297","1","2025-07-30 17:05:57","1f75c3e559b7213887762d5229550c2b","102.221.201.9","Mozilla/5.0 (Windows NT 10.0; Win64; x64) AppleWebKit/537.36 (KHTML, like Gecko) Chrome/138.0.0.0 Safari/537.36 Edg/138.0.0.0","WebKit","Edge","138.0.0.0","Windows","10.0","https://app.prolific.com/","en-US,en;q=0.9,en-ZA;q=0.8","606e3cce02e2e8a8c965ca75","6877631c9844ddd5501205fc","688a50e8fa25552146262067","3","1","606e3cce02e2e8a8c965ca75","3","1","2025-07-30T17:33:36.524Z","","","","","","","","","","","ControlQ","","50","","","","","","","","","","","","","","","","","","","","","","","","","","","","",""
"5642","","<div style=""width:500px;"">
  <p>How would you describe your current emotional state?</p>
  </div>","5","html-slider-response","27","1663395","0.0-5.0-3.3","297","1","2025-07-30 17:05:57","1f75c3e559b7213887762d5229550c2b","102.221.201.9","Mozilla/5.0 (Windows NT 10.0; Win64; x64) AppleWebKit/537.36 (KHTML, like Gecko) Chrome/138.0.0.0 Safari/537.36 Edg/138.0.0.0","WebKit","Edge","138.0.0.0","Windows","10.0","https://app.prolific.com/","en-US,en;q=0.9,en-ZA;q=0.8","606e3cce02e2e8a8c965ca75","6877631c9844ddd5501205fc","688a50e8fa25552146262067","3","1","606e3cce02e2e8a8c965ca75","3","1","2025-07-30T17:33:42.171Z","","","","","","","","","","","StressQ","","50","","","","","","","","","","","","","","","","","","","","","","","","","","","","",""
"6297","","<div style=""width:500px;"">
  <p>What best describes how you currently feel?</p>
  </div>","100","html-slider-response","28","1669694","0.0-5.0-4.3","297","1","2025-07-30 17:05:57","1f75c3e559b7213887762d5229550c2b","102.221.201.9","Mozilla/5.0 (Windows NT 10.0; Win64; x64) AppleWebKit/537.36 (KHTML, like Gecko) Chrome/138.0.0.0 Safari/537.36 Edg/138.0.0.0","WebKit","Edge","138.0.0.0","Windows","10.0","https://app.prolific.com/","en-US,en;q=0.9,en-ZA;q=0.8","606e3cce02e2e8a8c965ca75","6877631c9844ddd5501205fc","688a50e8fa25552146262067","3","1","606e3cce02e2e8a8c965ca75","3","1","2025-07-30T17:33:48.470Z","","","","","","","","","","","MotivationQ","","50","","","","","","","","","","","","","","","","","","","","","","","","","","","","",""
"","","","","ctl-task-cpt","29","1751731","0.0-5.0-0.4","297","1","2025-07-30 17:05:57","1f75c3e559b7213887762d5229550c2b","102.221.201.9","Mozilla/5.0 (Windows NT 10.0; Win64; x64) AppleWebKit/537.36 (KHTML, like Gecko) Chrome/138.0.0.0 Safari/537.36 Edg/138.0.0.0","WebKit","Edge","138.0.0.0","Windows","10.0","https://app.prolific.com/","en-US,en;q=0.9,en-ZA;q=0.8","606e3cce02e2e8a8c965ca75","6877631c9844ddd5501205fc","688a50e8fa25552146262067","3","1","606e3cce02e2e8a8c965ca75","3","1","2025-07-30T17:35:10.507Z","","","","","","","","","","","","","","win-only","2","g1:SE,g2:NW","0.6","5","0","1672460.9","61668.7","66686.2","79018.7","1","4","4","6","1","-1","-1","10","11","0.07575757575757576","5017.5","3000","-1875","[""down"",""right""]","{""num_key_presses"":3,""num_perfect"":1,""num_errors"":0,""num_randdir"":2,""num_randdir_good_moves"":2,""num_whilered"":0,""num_whileblue"":0,""num_blue"":0,""num_good_moves"":2}","[412.8214133126395,421.57142761775424,0.4,412.8214133126395,421.57142761775424,101.7,412.8214133126395,421.57142761775424,205.3,412.8214133126395,421.57142761775424,308.1,412.8214133126395,421.57142761775424,415.8,412.8214133126395,421.57142761775424,523.8,412.8214133126395,421.57142761775424,628.1,412.8214133126395,421.57142761775424,729.2,412.8214133126395,421.57142761775424,833.8,412.8214133126395,421.57142761775424,936.3,412.8214133126395,421.57142761775424,1037.3,412.8214133126395,421.57142761775424,1153.1,412.8214133126395,421.57142761775424,1264.1,412.8214133126395,421.57142761775424,1371.9,412.8214133126395,421.57142761775424,1473.7,412.8214133126395,421.57142761775424,1580.3,412.8214133126395,421.57142761775424,1681.8,412.8214133126395,421.57142761775424,1785.1,412.8214133126395,421.57142761775424,1898.1,412.8214133126395,421.57142761775424,1999.8,412.8214133126395,421.57142761775424,2102.9,412.8214133126395,421.57142761775424,2204.1,412.8214133126395,421.57142761775424,2305.6,412.8214133126395,421.57142761775424,2407.2,412.8214133126395,421.57142761775424,2511.3,412.8214133126395,421.57142761775424,2613.4,412.8214133126395,421.57142761775424,2715.2,412.8214133126395,421.57142761775424,2825.5,412.8214133126395,421.57142761775424,2925.7,431.5714133126395,406.57142761775424,3032.8,470.3214133126395,406.57142761775424,3139.9,490.3214133126395,406.57142761775424,3242.7,495.3214133126395,419.07142761775424,3351.3,491.5714133126395,444.07142761775424,3458.6,487.8214133126395,461.57142761775424,3561.7,482.8214133126395,475.32142761775424,3670.3,477.8214133126395,474.07142761775424,3777.7,476.5714133126395,472.82142761775424,3884.3,476.5714133126395,472.82142761775424,3990.9,476.5714133126395,472.82142761775424,4093.6,476.5714133126395,472.82142761775424,4202.3,476.5714133126395,472.82142761775424,4317.8,476.5714133126395,472.82142761775424,4418.3,476.5714133126395,472.82142761775424,4531.1,476.5714133126395,472.82142761775424,4632.1,476.5714133126395,472.82142761775424,4736,476.5714133126395,472.82142761775424,4846.2,476.5714133126395,472.82142761775424,4946.9]","[2591.3,2591.3,1000,0,1591.3,""smooth"",""up"",""up"",""bad_move"",6522.7,3931,2411.8,2591.8,1519.2,""oops"",""down"",""down"",""good_move"",10060,3536.6,1989.9,6523.4,1546.7,""oops"",""down"",""down"",""good_move""]","",""
"8087","","<div style=""width:500px;"">
  <p>What determined the result of this run?</p>
  </div>","0","html-slider-response","30","1759819","0.0-5.0-1.4","297","1","2025-07-30 17:05:57","1f75c3e559b7213887762d5229550c2b","102.221.201.9","Mozilla/5.0 (Windows NT 10.0; Win64; x64) AppleWebKit/537.36 (KHTML, like Gecko) Chrome/138.0.0.0 Safari/537.36 Edg/138.0.0.0","WebKit","Edge","138.0.0.0","Windows","10.0","https://app.prolific.com/","en-US,en;q=0.9,en-ZA;q=0.8","606e3cce02e2e8a8c965ca75","6877631c9844ddd5501205fc","688a50e8fa25552146262067","3","1","606e3cce02e2e8a8c965ca75","3","1","2025-07-30T17:35:18.595Z","","","","","","","","","","","AttribQ","","50","","","","","","","","","","","","","","","","","","","","","","","","","","","","",""
"11826","","<div style=""width:500px;"">
  <p>How much control did you have over the ball?</p>
  </div>","91","html-slider-response","31","1771648","0.0-5.0-2.4","297","1","2025-07-30 17:05:57","1f75c3e559b7213887762d5229550c2b","102.221.201.9","Mozilla/5.0 (Windows NT 10.0; Win64; x64) AppleWebKit/537.36 (KHTML, like Gecko) Chrome/138.0.0.0 Safari/537.36 Edg/138.0.0.0","WebKit","Edge","138.0.0.0","Windows","10.0","https://app.prolific.com/","en-US,en;q=0.9,en-ZA;q=0.8","606e3cce02e2e8a8c965ca75","6877631c9844ddd5501205fc","688a50e8fa25552146262067","3","1","606e3cce02e2e8a8c965ca75","3","1","2025-07-30T17:35:30.426Z","","","","","","","","","","","ControlQ","","50","","","","","","","","","","","","","","","","","","","","","","","","","","","","",""
"12782","","<div style=""width:500px;"">
  <p>How would you describe your current emotional state?</p>
  </div>","11","html-slider-response","32","1784440","0.0-5.0-3.4","297","1","2025-07-30 17:05:57","1f75c3e559b7213887762d5229550c2b","102.221.201.9","Mozilla/5.0 (Windows NT 10.0; Win64; x64) AppleWebKit/537.36 (KHTML, like Gecko) Chrome/138.0.0.0 Safari/537.36 Edg/138.0.0.0","WebKit","Edge","138.0.0.0","Windows","10.0","https://app.prolific.com/","en-US,en;q=0.9,en-ZA;q=0.8","606e3cce02e2e8a8c965ca75","6877631c9844ddd5501205fc","688a50e8fa25552146262067","3","1","606e3cce02e2e8a8c965ca75","3","1","2025-07-30T17:35:43.216Z","","","","","","","","","","","StressQ","","50","","","","","","","","","","","","","","","","","","","","","","","","","","","","",""
"54640","","<div style=""width:500px;"">
  <p>What best describes how you currently feel?</p>
  </div>","87","html-slider-response","33","1839084","0.0-5.0-4.4","297","1","2025-07-30 17:05:57","1f75c3e559b7213887762d5229550c2b","102.221.201.9","Mozilla/5.0 (Windows NT 10.0; Win64; x64) AppleWebKit/537.36 (KHTML, like Gecko) Chrome/138.0.0.0 Safari/537.36 Edg/138.0.0.0","WebKit","Edge","138.0.0.0","Windows","10.0","https://app.prolific.com/","en-US,en;q=0.9,en-ZA;q=0.8","606e3cce02e2e8a8c965ca75","6877631c9844ddd5501205fc","688a50e8fa25552146262067","3","1","606e3cce02e2e8a8c965ca75","3","1","2025-07-30T17:36:37.861Z","","","","","","","","","","","MotivationQ","","50","","","","","","","","","","","","","","","","","","","","","","","","","","","","",""
"","","","","ctl-task-cpt","34","1877916","0.0-5.0-0.5","297","1","2025-07-30 17:05:57","1f75c3e559b7213887762d5229550c2b","102.221.201.9","Mozilla/5.0 (Windows NT 10.0; Win64; x64) AppleWebKit/537.36 (KHTML, like Gecko) Chrome/138.0.0.0 Safari/537.36 Edg/138.0.0.0","WebKit","Edge","138.0.0.0","Windows","10.0","https://app.prolific.com/","en-US,en;q=0.9,en-ZA;q=0.8","606e3cce02e2e8a8c965ca75","6877631c9844ddd5501205fc","688a50e8fa25552146262067","3","1","606e3cce02e2e8a8c965ca75","3","1","2025-07-30T17:37:16.692Z","","","","","","","","","","","","","","win-only","0","g1:NW,g2:SE","0.5","6","0","1841863.5","4248.8","9253.9","35784.5","1","4","8","6","2","8","6","16","10","0.12121212121212122","5005.1","3000","1035","[""down"",""right""]","{""num_key_presses"":7,""num_perfect"":3,""num_errors"":2,""num_randdir"":2,""num_randdir_good_moves"":2,""num_whilered"":0,""num_whileblue"":1,""num_blue"":3,""num_good_moves"":6}","[419.0714133126395,416.57142761775424,0.6,419.0714133126395,416.57142761775424,102.9,419.0714133126395,416.57142761775424,205.4,419.0714133126395,416.57142761775424,312.3,419.0714133126395,416.57142761775424,414,419.0714133126395,416.57142761775424,518,419.0714133126395,416.57142761775424,631.5,419.0714133126395,416.57142761775424,734,419.0714133126395,416.57142761775424,850.3,419.0714133126395,416.57142761775424,950.9,419.0714133126395,416.57142761775424,1069.4,419.0714133126395,416.57142761775424,1180.2,419.0714133126395,416.57142761775424,1295.6,419.0714133126395,416.57142761775424,1395.6,419.0714133126395,416.57142761775424,1500.1,419.0714133126395,416.57142761775424,1602.5,419.0714133126395,416.57142761775424,1706,419.0714133126395,416.57142761775424,1811.9,419.0714133126395,416.57142761775424,1914.7,419.0714133126395,416.57142761775424,2020.7,419.0714133126395,416.57142761775424,2123.1,419.0714133126395,416.57142761775424,2230.1,419.0714133126395,416.57142761775424,2333.3,419.0714133126395,416.57142761775424,2433.8,419.0714133126395,416.57142761775424,2542.4,419.0714133126395,416.57142761775424,2648.9,419.0714133126395,416.57142761775424,2754.8,419.0714133126395,416.57142761775424,2859.8,419.0714133126395,416.57142761775424,2965,419.0714133126395,416.57142761775424,3066.8,419.0714133126395,416.57142761775424,3178.9,419.0714133126395,416.57142761775424,3282,419.0714133126395,416.57142761775424,3382.3,419.0714133126395,416.57142761775424,3489.3,419.0714133126395,416.57142761775424,3596,419.0714133126395,416.57142761775424,3701,419.0714133126395,416.57142761775424,3803.1,419.0714133126395,416.57142761775424,3914,419.0714133126395,416.57142761775424,4032.2,419.0714133126395,416.57142761775424,4141.8,419.0714133126395,416.57142761775424,4246,419.0714133126395,416.57142761775424,4347,419.0714133126395,416.57142761775424,4447.7,419.0714133126395,416.57142761775424,4557.8,419.0714133126395,416.57142761775424,4662.2,419.0714133126395,416.57142761775424,4768.2,419.0714133126395,416.57142761775424,4869.3,419.0714133126395,416.57142761775424,4975.3]","[2019.8,2019.8,1000,0.1,1019.8,""smooth"",""down"",""down"",""good_move"",5577.7,3557.3,3096.7,2020.4,460.6,""smooth"",""down"",""down"",""good_move"",8324.7,2746.7,2300.4,5578,446.3,""smooth"",""down"",""down"",""good_move"",11600.7,3275.8,2872,8325,403.7,""while_blue"",""right"",""right"",""good_move"",11875.9,274.1,2235.2,11601.8,-1961.1,""error"",""-"",""-"",""no_move"",15887.4,4011.4,2574.3,12876.3,436.8,""oops"",""right"",""right"",""good_move"",26380.5,10492.2,2418.3,23436.2,526,""oops"",""right"",""right"",""good_move""]","",""
"6287","","<div style=""width:500px;"">
  <p>What determined the result of this run?</p>
  </div>","99","html-slider-response","35","1884204","0.0-5.0-1.5","297","1","2025-07-30 17:05:57","1f75c3e559b7213887762d5229550c2b","102.221.201.9","Mozilla/5.0 (Windows NT 10.0; Win64; x64) AppleWebKit/537.36 (KHTML, like Gecko) Chrome/138.0.0.0 Safari/537.36 Edg/138.0.0.0","WebKit","Edge","138.0.0.0","Windows","10.0","https://app.prolific.com/","en-US,en;q=0.9,en-ZA;q=0.8","606e3cce02e2e8a8c965ca75","6877631c9844ddd5501205fc","688a50e8fa25552146262067","3","1","606e3cce02e2e8a8c965ca75","3","1","2025-07-30T17:37:22.980Z","","","","","","","","","","","AttribQ","","50","","","","","","","","","","","","","","","","","","","","","","","","","","","","",""
"3734","","<div style=""width:500px;"">
  <p>How much control did you have over the ball?</p>
  </div>","96","html-slider-response","36","1887940","0.0-5.0-2.5","297","1","2025-07-30 17:05:57","1f75c3e559b7213887762d5229550c2b","102.221.201.9","Mozilla/5.0 (Windows NT 10.0; Win64; x64) AppleWebKit/537.36 (KHTML, like Gecko) Chrome/138.0.0.0 Safari/537.36 Edg/138.0.0.0","WebKit","Edge","138.0.0.0","Windows","10.0","https://app.prolific.com/","en-US,en;q=0.9,en-ZA;q=0.8","606e3cce02e2e8a8c965ca75","6877631c9844ddd5501205fc","688a50e8fa25552146262067","3","1","606e3cce02e2e8a8c965ca75","3","1","2025-07-30T17:37:26.716Z","","","","","","","","","","","ControlQ","","50","","","","","","","","","","","","","","","","","","","","","","","","","","","","",""
"3946","","<div style=""width:500px;"">
  <p>How would you describe your current emotional state?</p>
  </div>","4","html-slider-response","37","1891887","0.0-5.0-3.5","297","1","2025-07-30 17:05:57","1f75c3e559b7213887762d5229550c2b","102.221.201.9","Mozilla/5.0 (Windows NT 10.0; Win64; x64) AppleWebKit/537.36 (KHTML, like Gecko) Chrome/138.0.0.0 Safari/537.36 Edg/138.0.0.0","WebKit","Edge","138.0.0.0","Windows","10.0","https://app.prolific.com/","en-US,en;q=0.9,en-ZA;q=0.8","606e3cce02e2e8a8c965ca75","6877631c9844ddd5501205fc","688a50e8fa25552146262067","3","1","606e3cce02e2e8a8c965ca75","3","1","2025-07-30T17:37:30.664Z","","","","","","","","","","","StressQ","","50","","","","","","","","","","","","","","","","","","","","","","","","","","","","",""
"5354","","<div style=""width:500px;"">
  <p>What best describes how you currently feel?</p>
  </div>","98","html-slider-response","38","1897245","0.0-5.0-4.5","297","1","2025-07-30 17:05:57","1f75c3e559b7213887762d5229550c2b","102.221.201.9","Mozilla/5.0 (Windows NT 10.0; Win64; x64) AppleWebKit/537.36 (KHTML, like Gecko) Chrome/138.0.0.0 Safari/537.36 Edg/138.0.0.0","WebKit","Edge","138.0.0.0","Windows","10.0","https://app.prolific.com/","en-US,en;q=0.9,en-ZA;q=0.8","606e3cce02e2e8a8c965ca75","6877631c9844ddd5501205fc","688a50e8fa25552146262067","3","1","606e3cce02e2e8a8c965ca75","3","1","2025-07-30T17:37:36.022Z","","","","","","","","","","","MotivationQ","","50","","","","","","","","","","","","","","","","","","","","","","","","","","","","",""
"","","","","ctl-task-cpt","39","1949897","0.0-5.0-0.6","297","1","2025-07-30 17:05:57","1f75c3e559b7213887762d5229550c2b","102.221.201.9","Mozilla/5.0 (Windows NT 10.0; Win64; x64) AppleWebKit/537.36 (KHTML, like Gecko) Chrome/138.0.0.0 Safari/537.36 Edg/138.0.0.0","WebKit","Edge","138.0.0.0","Windows","10.0","https://app.prolific.com/","en-US,en;q=0.9,en-ZA;q=0.8","606e3cce02e2e8a8c965ca75","6877631c9844ddd5501205fc","688a50e8fa25552146262067","3","1","606e3cce02e2e8a8c965ca75","3","1","2025-07-30T17:38:28.673Z","","","","","","","","","","","","","","win-only","1","g1:NE,g2:SW","0.4","7","0","1900017.6","5533.2","10537","49637.5","1","4","8","6","2","-8","-8","8","16","0.06060606060606061","5003.8","3000","-1755","[""down"",""left""]","{""num_key_presses"":9,""num_perfect"":4,""num_errors"":0,""num_randdir"":5,""num_randdir_good_moves"":1,""num_whilered"":0,""num_whileblue"":0,""num_blue"":3,""num_good_moves"":5}","[427.8214133126395,416.57142761775424,0.4,427.8214133126395,416.57142761775424,102.6,427.8214133126395,416.57142761775424,206.7,427.8214133126395,416.57142761775424,313.8,427.8214133126395,416.57142761775424,414.4,427.8214133126395,416.57142761775424,520.6,427.8214133126395,416.57142761775424,629.9,427.8214133126395,416.57142761775424,730.1,427.8214133126395,416.57142761775424,837,427.8214133126395,416.57142761775424,942.3,427.8214133126395,416.57142761775424,1046.2,427.8214133126395,416.57142761775424,1146.5,427.8214133126395,416.57142761775424,1248.8,427.8214133126395,416.57142761775424,1357.5,427.8214133126395,416.57142761775424,1459.8,427.8214133126395,416.57142761775424,1560.7,427.8214133126395,416.57142761775424,1670.4,427.8214133126395,416.57142761775424,1772.6,427.8214133126395,416.57142761775424,1875.1,427.8214133126395,416.57142761775424,1981.2,427.8214133126395,416.57142761775424,2082.8,437.8214133126395,424.07142761775424,2187.2,451.5714133126395,426.57142761775424,2295.7,452.8214133126395,421.57142761775424,2398.3,451.5714133126395,416.57142761775424,2501,451.5714133126395,406.57142761775424,2617.7,454.0714133126395,397.82142761775424,2728.2,457.8214133126395,386.57142761775424,2828.7,457.8214133126395,380.32142761775424,2933.5,457.8214133126395,379.07142761775424,3038.3,457.8214133126395,379.07142761775424,3151.1,457.8214133126395,379.07142761775424,3252.4,457.8214133126395,379.07142761775424,3353.6,457.8214133126395,379.07142761775424,3462.9,457.8214133126395,379.07142761775424,3567.8,457.8214133126395,379.07142761775424,3668.6,457.8214133126395,379.07142761775424,3768.9,457.8214133126395,379.07142761775424,3881.6,457.8214133126395,379.07142761775424,3985.6,457.8214133126395,379.07142761775424,4092.4,457.8214133126395,379.07142761775424,4195.3,457.8214133126395,379.07142761775424,4300.3,457.8214133126395,379.07142761775424,4408.6,457.8214133126395,379.07142761775424,4514.9,457.8214133126395,379.07142761775424,4615.3,457.8214133126395,379.07142761775424,4718.4,457.8214133126395,379.07142761775424,4821.6,457.8214133126395,379.07142761775424,4924.9]","[8455.6,8455.7,2261.7,5577.2,616.8,""smooth"",""down"",""down"",""good_move"",11268.6,2812.1,2175.1,8456.5,637,""smooth"",""down"",""down"",""good_move"",14208.6,2939.6,2442.6,11269,497,""oops"",""down"",""right"",""bad_move"",17710.7,3500.9,3024.3,14209.9,476.6,""smooth"",""left"",""left"",""good_move"",20491.6,2780.4,2244.9,17711.3,535.5,""smooth"",""left"",""left"",""good_move"",23357,2865,2419.3,20492.1,445.7,""oops"",""left"",""down"",""good_move"",26166.1,2808.8,2398.9,23357.3,409.9,""oops"",""left"",""right"",""bad_move"",29502.1,3335.8,2842.7,26166.4,493.2,""oops"",""left"",""right"",""bad_move"",36095.4,6591.8,2525.4,33036.3,533.7,""oops"",""down"",""right"",""bad_move""]","",""
"40881","","<div style=""width:500px;"">
  <p>What determined the result of this run?</p>
  </div>","3","html-slider-response","40","1990782","0.0-5.0-1.6","297","1","2025-07-30 17:05:57","1f75c3e559b7213887762d5229550c2b","102.221.201.9","Mozilla/5.0 (Windows NT 10.0; Win64; x64) AppleWebKit/537.36 (KHTML, like Gecko) Chrome/138.0.0.0 Safari/537.36 Edg/138.0.0.0","WebKit","Edge","138.0.0.0","Windows","10.0","https://app.prolific.com/","en-US,en;q=0.9,en-ZA;q=0.8","606e3cce02e2e8a8c965ca75","6877631c9844ddd5501205fc","688a50e8fa25552146262067","3","1","606e3cce02e2e8a8c965ca75","3","1","2025-07-30T17:39:09.558Z","","","","","","","","","","","AttribQ","","50","","","","","","","","","","","","","","","","","","","","","","","","","","","","",""
"8166","","<div style=""width:500px;"">
  <p>How much control did you have over the ball?</p>
  </div>","97","html-slider-response","41","1998949","0.0-5.0-2.6","297","1","2025-07-30 17:05:57","1f75c3e559b7213887762d5229550c2b","102.221.201.9","Mozilla/5.0 (Windows NT 10.0; Win64; x64) AppleWebKit/537.36 (KHTML, like Gecko) Chrome/138.0.0.0 Safari/537.36 Edg/138.0.0.0","WebKit","Edge","138.0.0.0","Windows","10.0","https://app.prolific.com/","en-US,en;q=0.9,en-ZA;q=0.8","606e3cce02e2e8a8c965ca75","6877631c9844ddd5501205fc","688a50e8fa25552146262067","3","1","606e3cce02e2e8a8c965ca75","3","1","2025-07-30T17:39:17.725Z","","","","","","","","","","","ControlQ","","50","","","","","","","","","","","","","","","","","","","","","","","","","","","","",""
"3463","","<div style=""width:500px;"">
  <p>How would you describe your current emotional state?</p>
  </div>","3","html-slider-response","42","2002413","0.0-5.0-3.6","297","1","2025-07-30 17:05:57","1f75c3e559b7213887762d5229550c2b","102.221.201.9","Mozilla/5.0 (Windows NT 10.0; Win64; x64) AppleWebKit/537.36 (KHTML, like Gecko) Chrome/138.0.0.0 Safari/537.36 Edg/138.0.0.0","WebKit","Edge","138.0.0.0","Windows","10.0","https://app.prolific.com/","en-US,en;q=0.9,en-ZA;q=0.8","606e3cce02e2e8a8c965ca75","6877631c9844ddd5501205fc","688a50e8fa25552146262067","3","1","606e3cce02e2e8a8c965ca75","3","1","2025-07-30T17:39:21.190Z","","","","","","","","","","","StressQ","","50","","","","","","","","","","","","","","","","","","","","","","","","","","","","",""
"4435","","<div style=""width:500px;"">
  <p>What best describes how you currently feel?</p>
  </div>","96","html-slider-response","43","2006850","0.0-5.0-4.6","297","1","2025-07-30 17:05:57","1f75c3e559b7213887762d5229550c2b","102.221.201.9","Mozilla/5.0 (Windows NT 10.0; Win64; x64) AppleWebKit/537.36 (KHTML, like Gecko) Chrome/138.0.0.0 Safari/537.36 Edg/138.0.0.0","WebKit","Edge","138.0.0.0","Windows","10.0","https://app.prolific.com/","en-US,en;q=0.9,en-ZA;q=0.8","606e3cce02e2e8a8c965ca75","6877631c9844ddd5501205fc","688a50e8fa25552146262067","3","1","606e3cce02e2e8a8c965ca75","3","1","2025-07-30T17:39:25.626Z","","","","","","","","","","","MotivationQ","","50","","","","","","","","","","","","","","","","","","","","","","","","","","","","",""
"","","","","ctl-task-cpt","44","2069417","0.0-5.0-0.7","297","1","2025-07-30 17:05:57","1f75c3e559b7213887762d5229550c2b","102.221.201.9","Mozilla/5.0 (Windows NT 10.0; Win64; x64) AppleWebKit/537.36 (KHTML, like Gecko) Chrome/138.0.0.0 Safari/537.36 Edg/138.0.0.0","WebKit","Edge","138.0.0.0","Windows","10.0","https://app.prolific.com/","en-US,en;q=0.9,en-ZA;q=0.8","606e3cce02e2e8a8c965ca75","6877631c9844ddd5501205fc","688a50e8fa25552146262067","3","1","606e3cce02e2e8a8c965ca75","3","1","2025-07-30T17:40:28.193Z","","","","","","","","","","","","","","win-only","3","g1:SW,g2:NE","0.3","8","0","2009614.6","4000.7","9006.7","59551.3","1","4","4","6","2","-4","-4","4","8","0.030303030303030304","5006","3000","-1385","[""up"",""right""]","{""num_key_presses"":13,""num_perfect"":4,""num_errors"":0,""num_randdir"":9,""num_randdir_good_moves"":4,""num_whilered"":0,""num_whileblue"":0,""num_blue"":2,""num_good_moves"":8}","[419.0714133126395,425.32142761775424,1.2,419.0714133126395,425.32142761775424,103.9,419.0714133126395,425.32142761775424,208.7,419.0714133126395,425.32142761775424,310.2,419.0714133126395,425.32142761775424,414,419.0714133126395,425.32142761775424,517.1,421.5714133126395,425.32142761775424,624.1,417.8214133126395,450.32142761775424,738.7,386.5714133126395,471.57142761775424,846.3,354.0714133126395,491.57142761775424,955.3,347.8214133126395,502.82142761775424,1056,347.8214133126395,502.82142761775424,1159.9,347.8214133126395,502.82142761775424,1265,347.8214133126395,502.82142761775424,1365.3,347.8214133126395,502.82142761775424,1466.2,347.8214133126395,502.82142761775424,1566.4,347.8214133126395,502.82142761775424,1668.5,347.8214133126395,502.82142761775424,1771.3,347.8214133126395,502.82142761775424,1872.1,347.8214133126395,502.82142761775424,1972.4,347.8214133126395,502.82142761775424,2081.8,347.8214133126395,502.82142761775424,2184.3,347.8214133126395,502.82142761775424,2288.1,347.8214133126395,502.82142761775424,2391.4,347.8214133126395,502.82142761775424,2493.3,347.8214133126395,502.82142761775424,2601.8,347.8214133126395,502.82142761775424,2709.5,347.8214133126395,502.82142761775424,2822.4,347.8214133126395,502.82142761775424,2929.2,347.8214133126395,502.82142761775424,3033.9,347.8214133126395,502.82142761775424,3142.9,347.8214133126395,502.82142761775424,3257.3,347.8214133126395,502.82142761775424,3367,347.8214133126395,502.82142761775424,3481.3,347.8214133126395,502.82142761775424,3589.5,347.8214133126395,502.82142761775424,3699.5,347.8214133126395,502.82142761775424,3804.2,347.8214133126395,502.82142761775424,3916.8,347.8214133126395,502.82142761775424,4027.5,347.8214133126395,502.82142761775424,4130.7,347.8214133126395,502.82142761775424,4231.4,347.8214133126395,502.82142761775424,4337.8,347.8214133126395,502.82142761775424,4447.3,347.8214133126395,502.82142761775424,4552.1,347.8214133126395,502.82142761775424,4665.6,347.8214133126395,502.82142761775424,4774.6,347.8214133126395,502.82142761775424,4874.6,347.8214133126395,502.82142761775424,4979.6]","[1638.8,1638.8,1000,0,638.8,""oops"",""up"",""down"",""bad_move"",4500.1,2860.8,2406.7,1639.3,454.1,""smooth"",""up"",""up"",""good_move"",8433.8,3932.5,3121.9,4501.3,810.6,""smooth"",""up"",""up"",""good_move"",11597.7,3163.6,2651.8,8434.1,511.8,""oops"",""up"",""down"",""bad_move"",14509.7,2911.7,2413.2,11598,498.5,""oops"",""up"",""down"",""bad_move"",17672.1,3161.1,2762.9,14511,398.2,""oops"",""up"",""right"",""good_move"",24953.6,7281.2,2554.2,21926.3,473.1,""oops"",""up"",""up"",""good_move"",27992.9,3039.2,2351.9,24953.7,687.3,""oops"",""up"",""up"",""good_move"",31451.9,3458.5,3023.9,27993.4,434.6,""oops"",""up"",""left"",""bad_move"",35093.9,3641.6,3054.7,31452.4,586.9,""smooth"",""up"",""up"",""good_move"",38109.6,3015.3,2609.2,35094.3,406.1,""oops"",""up"",""down"",""bad_move"",43689.5,5579.5,2323.2,41100.9,265.4,""smooth"",""up"",""up"",""good_move"",47080.1,3390.2,2457.1,43689.9,933.1,""oops"",""up"",""up"",""good_move""]","",""
"6324","","<div style=""width:500px;"">
  <p>What determined the result of this run?</p>
  </div>","1","html-slider-response","45","2075742","0.0-5.0-1.7","297","1","2025-07-30 17:05:57","1f75c3e559b7213887762d5229550c2b","102.221.201.9","Mozilla/5.0 (Windows NT 10.0; Win64; x64) AppleWebKit/537.36 (KHTML, like Gecko) Chrome/138.0.0.0 Safari/537.36 Edg/138.0.0.0","WebKit","Edge","138.0.0.0","Windows","10.0","https://app.prolific.com/","en-US,en;q=0.9,en-ZA;q=0.8","606e3cce02e2e8a8c965ca75","6877631c9844ddd5501205fc","688a50e8fa25552146262067","3","1","606e3cce02e2e8a8c965ca75","3","1","2025-07-30T17:40:34.518Z","","","","","","","","","","","AttribQ","","50","","","","","","","","","","","","","","","","","","","","","","","","","","","","",""
"4828","","<div style=""width:500px;"">
  <p>How much control did you have over the ball?</p>
  </div>","100","html-slider-response","46","2080571","0.0-5.0-2.7","297","1","2025-07-30 17:05:57","1f75c3e559b7213887762d5229550c2b","102.221.201.9","Mozilla/5.0 (Windows NT 10.0; Win64; x64) AppleWebKit/537.36 (KHTML, like Gecko) Chrome/138.0.0.0 Safari/537.36 Edg/138.0.0.0","WebKit","Edge","138.0.0.0","Windows","10.0","https://app.prolific.com/","en-US,en;q=0.9,en-ZA;q=0.8","606e3cce02e2e8a8c965ca75","6877631c9844ddd5501205fc","688a50e8fa25552146262067","3","1","606e3cce02e2e8a8c965ca75","3","1","2025-07-30T17:40:39.348Z","","","","","","","","","","","ControlQ","","50","","","","","","","","","","","","","","","","","","","","","","","","","","","","",""
"3495","","<div style=""width:500px;"">
  <p>How would you describe your current emotional state?</p>
  </div>","85","html-slider-response","47","2084068","0.0-5.0-3.7","297","1","2025-07-30 17:05:57","1f75c3e559b7213887762d5229550c2b","102.221.201.9","Mozilla/5.0 (Windows NT 10.0; Win64; x64) AppleWebKit/537.36 (KHTML, like Gecko) Chrome/138.0.0.0 Safari/537.36 Edg/138.0.0.0","WebKit","Edge","138.0.0.0","Windows","10.0","https://app.prolific.com/","en-US,en;q=0.9,en-ZA;q=0.8","606e3cce02e2e8a8c965ca75","6877631c9844ddd5501205fc","688a50e8fa25552146262067","3","1","606e3cce02e2e8a8c965ca75","3","1","2025-07-30T17:40:42.844Z","","","","","","","","","","","StressQ","","50","","","","","","","","","","","","","","","","","","","","","","","","","","","","",""
"3418","","<div style=""width:500px;"">
  <p>What best describes how you currently feel?</p>
  </div>","100","html-slider-response","48","2087488","0.0-5.0-4.7","297","1","2025-07-30 17:05:57","1f75c3e559b7213887762d5229550c2b","102.221.201.9","Mozilla/5.0 (Windows NT 10.0; Win64; x64) AppleWebKit/537.36 (KHTML, like Gecko) Chrome/138.0.0.0 Safari/537.36 Edg/138.0.0.0","WebKit","Edge","138.0.0.0","Windows","10.0","https://app.prolific.com/","en-US,en;q=0.9,en-ZA;q=0.8","606e3cce02e2e8a8c965ca75","6877631c9844ddd5501205fc","688a50e8fa25552146262067","3","1","606e3cce02e2e8a8c965ca75","3","1","2025-07-30T17:40:46.264Z","","","","","","","","","","","MotivationQ","","50","","","","","","","","","","","","","","","","","","","","","","","","","","","","",""
"","","","","ctl-task-cpt","49","2147524","0.0-5.0-0.8","297","1","2025-07-30 17:05:57","1f75c3e559b7213887762d5229550c2b","102.221.201.9","Mozilla/5.0 (Windows NT 10.0; Win64; x64) AppleWebKit/537.36 (KHTML, like Gecko) Chrome/138.0.0.0 Safari/537.36 Edg/138.0.0.0","WebKit","Edge","138.0.0.0","Windows","10.0","https://app.prolific.com/","en-US,en;q=0.9,en-ZA;q=0.8","606e3cce02e2e8a8c965ca75","6877631c9844ddd5501205fc","688a50e8fa25552146262067","3","1","606e3cce02e2e8a8c965ca75","3","1","2025-07-30T17:41:46.300Z","","","","","","","","","","","","","","win-only","3","g1:SW,g2:NE","0.2","9","0","2090252.8","3279.2","8290.2","57016.6","1","4","8","6","2","8","8","12","4","0.09090909090909091","5011","3000","870","[""up"",""right""]","{""num_key_presses"":12,""num_perfect"":4,""num_errors"":0,""num_randdir"":8,""num_randdir_good_moves"":5,""num_whilered"":0,""num_whileblue"":0,""num_blue"":3,""num_good_moves"":9}","[424.0714133126395,421.57142761775424,0.3,424.0714133126395,421.57142761775424,107.7,424.0714133126395,421.57142761775424,212.8,424.0714133126395,421.57142761775424,324.9,424.0714133126395,421.57142761775424,434.3,424.0714133126395,421.57142761775424,547.8,424.0714133126395,421.57142761775424,661.9,424.0714133126395,421.57142761775424,772.7,424.0714133126395,421.57142761775424,877.2,424.0714133126395,421.57142761775424,979.8,424.0714133126395,421.57142761775424,1087.8,424.0714133126395,421.57142761775424,1193.5,424.0714133126395,421.57142761775424,1299,424.0714133126395,421.57142761775424,1412,424.0714133126395,421.57142761775424,1521.3,424.0714133126395,421.57142761775424,1629.9,424.0714133126395,421.57142761775424,1733.8,424.0714133126395,421.57142761775424,1844.3,424.0714133126395,421.57142761775424,1947,424.0714133126395,421.57142761775424,2047.7,424.0714133126395,421.57142761775424,2152.5,424.0714133126395,421.57142761775424,2264.6,424.0714133126395,421.57142761775424,2365.5,424.0714133126395,421.57142761775424,2466.4,424.0714133126395,421.57142761775424,2579.8,424.0714133126395,421.57142761775424,2680,424.0714133126395,421.57142761775424,2780.2,424.0714133126395,421.57142761775424,2880.2,424.0714133126395,421.57142761775424,2986.3,424.0714133126395,421.57142761775424,3095.5,424.0714133126395,421.57142761775424,3197,424.0714133126395,421.57142761775424,3310.6,424.0714133126395,421.57142761775424,3413.9,424.0714133126395,421.57142761775424,3515.2,424.0714133126395,421.57142761775424,3627.8,424.0714133126395,421.57142761775424,3732,424.0714133126395,421.57142761775424,3844.1,424.0714133126395,421.57142761775424,3947.9,424.0714133126395,421.57142761775424,4063.2,424.0714133126395,421.57142761775424,4172.5,424.0714133126395,421.57142761775424,4279.5,424.0714133126395,421.57142761775424,4379.8,424.0714133126395,421.57142761775424,4493.5,424.0714133126395,421.57142761775424,4605.8,424.0714133126395,421.57142761775424,4714.8,424.0714133126395,421.57142761775424,4817.6,424.0714133126395,421.57142761775424,4924.2]","[2393.7,2393.7,1000,0,1393.7,""smooth"",""up"",""up"",""good_move"",5247,2852.8,2264.6,2394.2,588.2,""smooth"",""up"",""up"",""good_move"",8452.6,3205.4,2739.5,5247.2,465.9,""oops"",""up"",""up"",""good_move"",11249.3,2796.3,2408,8453,388.3,""oops"",""right"",""left"",""bad_move"",18958.1,7708.4,3334,14997,627.1,""oops"",""right"",""left"",""bad_move"",25349.2,6390.9,2557.7,22377.1,414.5,""oops"",""right"",""right"",""good_move"",28770.4,3420.5,2903.1,25349.9,517.4,""oops"",""right"",""down"",""bad_move"",31492.7,2722,2237.7,28770.7,484.3,""oops"",""right"",""right"",""good_move"",35081.3,3588.1,3190.5,31493.2,397.6,""oops"",""right"",""up"",""good_move"",38255.9,3174.3,2477.9,35081.7,696.4,""oops"",""right"",""right"",""good_move"",41410.1,3153.8,2713.7,38256.3,440.1,""smooth"",""right"",""right"",""good_move"",48455.9,7045.1,2291.4,45662.4,502.2,""smooth"",""right"",""right"",""good_move""]","",""
"8979","","<div style=""width:500px;"">
  <p>What determined the result of this run?</p>
  </div>","100","html-slider-response","50","2156504","0.0-5.0-1.8","297","1","2025-07-30 17:05:57","1f75c3e559b7213887762d5229550c2b","102.221.201.9","Mozilla/5.0 (Windows NT 10.0; Win64; x64) AppleWebKit/537.36 (KHTML, like Gecko) Chrome/138.0.0.0 Safari/537.36 Edg/138.0.0.0","WebKit","Edge","138.0.0.0","Windows","10.0","https://app.prolific.com/","en-US,en;q=0.9,en-ZA;q=0.8","606e3cce02e2e8a8c965ca75","6877631c9844ddd5501205fc","688a50e8fa25552146262067","3","1","606e3cce02e2e8a8c965ca75","3","1","2025-07-30T17:41:55.281Z","","","","","","","","","","","AttribQ","","50","","","","","","","","","","","","","","","","","","","","","","","","","","","","",""
"7223","","<div style=""width:500px;"">
  <p>How much control did you have over the ball?</p>
  </div>","95","html-slider-response","51","2163728","0.0-5.0-2.8","297","1","2025-07-30 17:05:57","1f75c3e559b7213887762d5229550c2b","102.221.201.9","Mozilla/5.0 (Windows NT 10.0; Win64; x64) AppleWebKit/537.36 (KHTML, like Gecko) Chrome/138.0.0.0 Safari/537.36 Edg/138.0.0.0","WebKit","Edge","138.0.0.0","Windows","10.0","https://app.prolific.com/","en-US,en;q=0.9,en-ZA;q=0.8","606e3cce02e2e8a8c965ca75","6877631c9844ddd5501205fc","688a50e8fa25552146262067","3","1","606e3cce02e2e8a8c965ca75","3","1","2025-07-30T17:42:02.504Z","","","","","","","","","","","ControlQ","","50","","","","","","","","","","","","","","","","","","","","","","","","","","","","",""
"5015","","<div style=""width:500px;"">
  <p>How would you describe your current emotional state?</p>
  </div>","0","html-slider-response","52","2168744","0.0-5.0-3.8","297","1","2025-07-30 17:05:57","1f75c3e559b7213887762d5229550c2b","102.221.201.9","Mozilla/5.0 (Windows NT 10.0; Win64; x64) AppleWebKit/537.36 (KHTML, like Gecko) Chrome/138.0.0.0 Safari/537.36 Edg/138.0.0.0","WebKit","Edge","138.0.0.0","Windows","10.0","https://app.prolific.com/","en-US,en;q=0.9,en-ZA;q=0.8","606e3cce02e2e8a8c965ca75","6877631c9844ddd5501205fc","688a50e8fa25552146262067","3","1","606e3cce02e2e8a8c965ca75","3","1","2025-07-30T17:42:07.521Z","","","","","","","","","","","StressQ","","50","","","","","","","","","","","","","","","","","","","","","","","","","","","","",""
"3109","","<div style=""width:500px;"">
  <p>What best describes how you currently feel?</p>
  </div>","88","html-slider-response","53","2171854","0.0-5.0-4.8","297","1","2025-07-30 17:05:57","1f75c3e559b7213887762d5229550c2b","102.221.201.9","Mozilla/5.0 (Windows NT 10.0; Win64; x64) AppleWebKit/537.36 (KHTML, like Gecko) Chrome/138.0.0.0 Safari/537.36 Edg/138.0.0.0","WebKit","Edge","138.0.0.0","Windows","10.0","https://app.prolific.com/","en-US,en;q=0.9,en-ZA;q=0.8","606e3cce02e2e8a8c965ca75","6877631c9844ddd5501205fc","688a50e8fa25552146262067","3","1","606e3cce02e2e8a8c965ca75","3","1","2025-07-30T17:42:10.630Z","","","","","","","","","","","MotivationQ","","50","","","","","","","","","","","","","","","","","","","","","","","","","","","","",""
"","","","","ctl-task-cpt","54","2330855","0.0-5.0-0.9","297","1","2025-07-30 17:05:57","1f75c3e559b7213887762d5229550c2b","102.221.201.9","Mozilla/5.0 (Windows NT 10.0; Win64; x64) AppleWebKit/537.36 (KHTML, like Gecko) Chrome/138.0.0.0 Safari/537.36 Edg/138.0.0.0","WebKit","Edge","138.0.0.0","Windows","10.0","https://app.prolific.com/","en-US,en;q=0.9,en-ZA;q=0.8","606e3cce02e2e8a8c965ca75","6877631c9844ddd5501205fc","688a50e8fa25552146262067","3","1","606e3cce02e2e8a8c965ca75","3","1","2025-07-30T17:44:49.631Z","","","","","","","","","","","","","","win-only","1","g1:NE,g2:SW","0.4","10","0","2174619.2","85856.5","90862.6","155967.9","1","4","4","6","2","4","4","16","12","0.12121212121212122","5006.1","3000","270","[""down"",""left""]","{""num_key_presses"":16,""num_perfect"":7,""num_errors"":0,""num_randdir"":9,""num_randdir_good_moves"":4,""num_whilered"":0,""num_whileblue"":0,""num_blue"":4,""num_good_moves"":11}","[416.5714133126395,424.07142761775424,0.5,416.5714133126395,424.07142761775424,120.3,416.5714133126395,424.07142761775424,224.5,416.5714133126395,424.07142761775424,326.7,416.5714133126395,424.07142761775424,434,416.5714133126395,424.07142761775424,547.1,416.5714133126395,424.07142761775424,665,416.5714133126395,424.07142761775424,780.2,416.5714133126395,424.07142761775424,893.6,416.5714133126395,424.07142761775424,996.7,426.5714133126395,404.07142761775424,1103,441.5714133126395,387.82142761775424,1205,447.8214133126395,384.07142761775424,1311.2,447.8214133126395,384.07142761775424,1412.8,447.8214133126395,384.07142761775424,1519,447.8214133126395,384.07142761775424,1624.6,447.8214133126395,384.07142761775424,1736.3,447.8214133126395,384.07142761775424,1852.6,447.8214133126395,384.07142761775424,1960,447.8214133126395,384.07142761775424,2073.1,447.8214133126395,384.07142761775424,2180,447.8214133126395,384.07142761775424,2293.1,447.8214133126395,384.07142761775424,2403.7,447.8214133126395,384.07142761775424,2513,447.8214133126395,384.07142761775424,2628.3,447.8214133126395,384.07142761775424,2735.9,447.8214133126395,384.07142761775424,2849.7,447.8214133126395,384.07142761775424,2956,447.8214133126395,384.07142761775424,3076.8,447.8214133126395,384.07142761775424,3194.3,447.8214133126395,384.07142761775424,3294.7,447.8214133126395,384.07142761775424,3403.4,447.8214133126395,384.07142761775424,3511.9,447.8214133126395,384.07142761775424,3625.8,447.8214133126395,384.07142761775424,3729.8,451.5714133126395,384.07142761775424,3838.4,451.5714133126395,382.82142761775424,3955.3,451.5714133126395,382.82142761775424,4074.6,451.5714133126395,382.82142761775424,4185.2,451.5714133126395,382.82142761775424,4301.1,451.5714133126395,382.82142761775424,4402.8,451.5714133126395,382.82142761775424,4513.9,451.5714133126395,382.82142761775424,4621.8,451.5714133126395,382.82142761775424,4727.8,451.5714133126395,382.82142761775424,4829.9,451.5714133126395,382.82142761775424,4931.1]","[1636.8,1636.8,1000,0,636.8,""oops"",""down"",""left"",""good_move"",5224,3586.7,1713.9,1637.4,1872.7,""smooth"",""down"",""down"",""good_move"",8609.1,3384.7,2858.8,5224.4,525.9,""oops"",""down"",""down"",""good_move"",12283.2,3673.5,3237.3,8609.7,436.2,""smooth"",""down"",""down"",""good_move"",19203.9,6920.5,2217.7,15999.8,986.5,""oops"",""left"",""left"",""good_move"",22598.1,3393.2,1825.4,19204.9,1567.8,""oops"",""left"",""right"",""bad_move"",26553.6,3955.2,3482.3,22598.4,472.9,""smooth"",""left"",""left"",""good_move"",33643.1,7089.1,2959.7,30238.4,445,""oops"",""left"",""up"",""bad_move"",36957.9,3314.4,2210.1,33643.5,1104.3,""smooth"",""left"",""left"",""good_move"",42796.8,5838.6,1803.3,40528.7,464.8,""oops"",""down"",""up"",""bad_move"",46544.4,3747.3,3062.1,42797.1,685.2,""oops"",""up"",""right"",""bad_move"",49573.7,3028.9,2510.6,46544.8,518.3,""oops"",""down"",""left"",""good_move"",52522.1,2947.8,1735.6,49574.3,1212.2,""oops"",""down"",""right"",""bad_move"",59154.2,6631.8,2569.8,55972.8,611.6,""smooth"",""down"",""down"",""good_move"",62040.7,2886.2,2400.8,59154.7,485.3,""smooth"",""down"",""down"",""good_move"",64794.1,2753.2,2298.2,62040.9,455,""smooth"",""left"",""left"",""good_move""]","",""
"3796","","<div style=""width:500px;"">
  <p>What determined the result of this run?</p>
  </div>","92","html-slider-response","55","2334652","0.0-5.0-1.9","297","1","2025-07-30 17:05:57","1f75c3e559b7213887762d5229550c2b","102.221.201.9","Mozilla/5.0 (Windows NT 10.0; Win64; x64) AppleWebKit/537.36 (KHTML, like Gecko) Chrome/138.0.0.0 Safari/537.36 Edg/138.0.0.0","WebKit","Edge","138.0.0.0","Windows","10.0","https://app.prolific.com/","en-US,en;q=0.9,en-ZA;q=0.8","606e3cce02e2e8a8c965ca75","6877631c9844ddd5501205fc","688a50e8fa25552146262067","3","1","606e3cce02e2e8a8c965ca75","3","1","2025-07-30T17:44:53.428Z","","","","","","","","","","","AttribQ","","50","","","","","","","","","","","","","","","","","","","","","","","","","","","","",""
"4075","","<div style=""width:500px;"">
  <p>How much control did you have over the ball?</p>
  </div>","100","html-slider-response","56","2338729","0.0-5.0-2.9","297","1","2025-07-30 17:05:57","1f75c3e559b7213887762d5229550c2b","102.221.201.9","Mozilla/5.0 (Windows NT 10.0; Win64; x64) AppleWebKit/537.36 (KHTML, like Gecko) Chrome/138.0.0.0 Safari/537.36 Edg/138.0.0.0","WebKit","Edge","138.0.0.0","Windows","10.0","https://app.prolific.com/","en-US,en;q=0.9,en-ZA;q=0.8","606e3cce02e2e8a8c965ca75","6877631c9844ddd5501205fc","688a50e8fa25552146262067","3","1","606e3cce02e2e8a8c965ca75","3","1","2025-07-30T17:44:57.505Z","","","","","","","","","","","ControlQ","","50","","","","","","","","","","","","","","","","","","","","","","","","","","","","",""
"2998","","<div style=""width:500px;"">
  <p>How would you describe your current emotional state?</p>
  </div>","0","html-slider-response","57","2341727","0.0-5.0-3.9","297","1","2025-07-30 17:05:57","1f75c3e559b7213887762d5229550c2b","102.221.201.9","Mozilla/5.0 (Windows NT 10.0; Win64; x64) AppleWebKit/537.36 (KHTML, like Gecko) Chrome/138.0.0.0 Safari/537.36 Edg/138.0.0.0","WebKit","Edge","138.0.0.0","Windows","10.0","https://app.prolific.com/","en-US,en;q=0.9,en-ZA;q=0.8","606e3cce02e2e8a8c965ca75","6877631c9844ddd5501205fc","688a50e8fa25552146262067","3","1","606e3cce02e2e8a8c965ca75","3","1","2025-07-30T17:45:00.503Z","","","","","","","","","","","StressQ","","50","","","","","","","","","","","","","","","","","","","","","","","","","","","","",""
"3396","","<div style=""width:500px;"">
  <p>What best describes how you currently feel?</p>
  </div>","100","html-slider-response","58","2345124","0.0-5.0-4.9","297","1","2025-07-30 17:05:57","1f75c3e559b7213887762d5229550c2b","102.221.201.9","Mozilla/5.0 (Windows NT 10.0; Win64; x64) AppleWebKit/537.36 (KHTML, like Gecko) Chrome/138.0.0.0 Safari/537.36 Edg/138.0.0.0","WebKit","Edge","138.0.0.0","Windows","10.0","https://app.prolific.com/","en-US,en;q=0.9,en-ZA;q=0.8","606e3cce02e2e8a8c965ca75","6877631c9844ddd5501205fc","688a50e8fa25552146262067","3","1","606e3cce02e2e8a8c965ca75","3","1","2025-07-30T17:45:03.900Z","","","","","","","","","","","MotivationQ","","50","","","","","","","","","","","","","","","","","","","","","","","","","","","","",""
"","","","","ctl-task-cpt","59","2383166","0.0-5.0-0.10","297","1","2025-07-30 17:05:57","1f75c3e559b7213887762d5229550c2b","102.221.201.9","Mozilla/5.0 (Windows NT 10.0; Win64; x64) AppleWebKit/537.36 (KHTML, like Gecko) Chrome/138.0.0.0 Safari/537.36 Edg/138.0.0.0","WebKit","Edge","138.0.0.0","Windows","10.0","https://app.prolific.com/","en-US,en;q=0.9,en-ZA;q=0.8","606e3cce02e2e8a8c965ca75","6877631c9844ddd5501205fc","688a50e8fa25552146262067","3","1","606e3cce02e2e8a8c965ca75","3","1","2025-07-30T17:45:41.942Z","","","","","","","","","","","","","","win-only","0","g1:NW,g2:SE","0.5","11","0","2347890.1","1900","6905","35017.1","1","4","4","6","2","4","4","20","16","0.15151515151515152","5004.9","3000","1785","[""down"",""right""]","{""num_key_presses"":8,""num_perfect"":5,""num_errors"":0,""num_randdir"":3,""num_randdir_good_moves"":2,""num_whilered"":0,""num_whileblue"":0,""num_blue"":1,""num_good_moves"":7}","[417.8214133126395,421.57142761775424,0.7,417.8214133126395,421.57142761775424,112.6,417.8214133126395,421.57142761775424,232.8,417.8214133126395,421.57142761775424,353.4,417.8214133126395,421.57142761775424,460,417.8214133126395,421.57142761775424,571.5,417.8214133126395,421.57142761775424,678.7,417.8214133126395,421.57142761775424,790.6,421.5714133126395,417.82142761775424,893.6,422.8214133126395,405.32142761775424,1009.5,417.8214133126395,391.57142761775424,1113.7,414.0714133126395,385.32142761775424,1215.6,412.8214133126395,381.57142761775424,1327.5,411.5714133126395,381.57142761775424,1447.5,409.0714133126395,377.82142761775424,1560.9,409.0714133126395,377.82142761775424,1667.6,409.0714133126395,377.82142761775424,1777.1,409.0714133126395,377.82142761775424,1884.5,407.8214133126395,376.57142761775424,1987.1,396.5714133126395,371.57142761775424,2101.4,386.5714133126395,366.57142761775424,2207.7,377.8214133126395,364.07142761775424,2313.8,371.5714133126395,362.82142761775424,2428.6,366.5714133126395,362.82142761775424,2537.3,364.0714133126395,362.82142761775424,2638.8,361.5714133126395,361.57142761775424,2743.4,357.8214133126395,361.57142761775424,2849.8,355.3214133126395,361.57142761775424,2950.9,354.0714133126395,361.57142761775424,3053.3,354.0714133126395,361.57142761775424,3165.4,354.0714133126395,361.57142761775424,3282.9,354.0714133126395,361.57142761775424,3397.9,354.0714133126395,361.57142761775424,3499.9,354.0714133126395,361.57142761775424,3617.5,354.0714133126395,361.57142761775424,3730.9,354.0714133126395,361.57142761775424,3831.4,354.0714133126395,361.57142761775424,3932.6,354.0714133126395,361.57142761775424,4040.4,354.0714133126395,361.57142761775424,4145.3,354.0714133126395,361.57142761775424,4245.7,354.0714133126395,361.57142761775424,4352.7,354.0714133126395,361.57142761775424,4466.2,354.0714133126395,361.57142761775424,4567.1,354.0714133126395,361.57142761775424,4673.4,354.0714133126395,361.57142761775424,4785.7,354.0714133126395,361.57142761775424,4899.5]","[1854.7,1854.7,1000,0,854.7,""smooth"",""down"",""down"",""good_move"",4711.8,2856.4,2310.2,1855.4,546.2,""smooth"",""down"",""down"",""good_move"",8342.1,3630,3136.5,4712.1,493.5,""smooth"",""down"",""down"",""good_move"",11756.1,3413.6,2899.6,8342.5,514,""oops"",""right"",""up"",""bad_move"",18485.9,6728.8,1932.7,16079.1,474.1,""oops"",""right"",""right"",""good_move"",21321.4,2835,2355.4,18486.4,479.6,""smooth"",""right"",""right"",""good_move"",24831.1,3509.5,3091.5,21321.7,418,""oops"",""right"",""down"",""good_move"",27803.7,2972.4,2484,24831.3,488.4,""smooth"",""right"",""right"",""good_move""]","",""
"4866","","<div style=""width:500px;"">
  <p>What determined the result of this run?</p>
  </div>","100","html-slider-response","60","2388033","0.0-5.0-1.10","297","1","2025-07-30 17:05:57","1f75c3e559b7213887762d5229550c2b","102.221.201.9","Mozilla/5.0 (Windows NT 10.0; Win64; x64) AppleWebKit/537.36 (KHTML, like Gecko) Chrome/138.0.0.0 Safari/537.36 Edg/138.0.0.0","WebKit","Edge","138.0.0.0","Windows","10.0","https://app.prolific.com/","en-US,en;q=0.9,en-ZA;q=0.8","606e3cce02e2e8a8c965ca75","6877631c9844ddd5501205fc","688a50e8fa25552146262067","3","1","606e3cce02e2e8a8c965ca75","3","1","2025-07-30T17:45:46.809Z","","","","","","","","","","","AttribQ","","50","","","","","","","","","","","","","","","","","","","","","","","","","","","","",""
"4548","","<div style=""width:500px;"">
  <p>How much control did you have over the ball?</p>
  </div>","99","html-slider-response","61","2392582","0.0-5.0-2.10","297","1","2025-07-30 17:05:57","1f75c3e559b7213887762d5229550c2b","102.221.201.9","Mozilla/5.0 (Windows NT 10.0; Win64; x64) AppleWebKit/537.36 (KHTML, like Gecko) Chrome/138.0.0.0 Safari/537.36 Edg/138.0.0.0","WebKit","Edge","138.0.0.0","Windows","10.0","https://app.prolific.com/","en-US,en;q=0.9,en-ZA;q=0.8","606e3cce02e2e8a8c965ca75","6877631c9844ddd5501205fc","688a50e8fa25552146262067","3","1","606e3cce02e2e8a8c965ca75","3","1","2025-07-30T17:45:51.375Z","","","","","","","","","","","ControlQ","","50","","","","","","","","","","","","","","","","","","","","","","","","","","","","",""
"3644","","<div style=""width:500px;"">
  <p>How would you describe your current emotional state?</p>
  </div>","4","html-slider-response","62","2396244","0.0-5.0-3.10","297","1","2025-07-30 17:05:57","1f75c3e559b7213887762d5229550c2b","102.221.201.9","Mozilla/5.0 (Windows NT 10.0; Win64; x64) AppleWebKit/537.36 (KHTML, like Gecko) Chrome/138.0.0.0 Safari/537.36 Edg/138.0.0.0","WebKit","Edge","138.0.0.0","Windows","10.0","https://app.prolific.com/","en-US,en;q=0.9,en-ZA;q=0.8","606e3cce02e2e8a8c965ca75","6877631c9844ddd5501205fc","688a50e8fa25552146262067","3","1","606e3cce02e2e8a8c965ca75","3","1","2025-07-30T17:45:55.020Z","","","","","","","","","","","StressQ","","50","","","","","","","","","","","","","","","","","","","","","","","","","","","","",""
"3762","","<div style=""width:500px;"">
  <p>What best describes how you currently feel?</p>
  </div>","94","html-slider-response","63","2400007","0.0-5.0-4.10","297","1","2025-07-30 17:05:57","1f75c3e559b7213887762d5229550c2b","102.221.201.9","Mozilla/5.0 (Windows NT 10.0; Win64; x64) AppleWebKit/537.36 (KHTML, like Gecko) Chrome/138.0.0.0 Safari/537.36 Edg/138.0.0.0","WebKit","Edge","138.0.0.0","Windows","10.0","https://app.prolific.com/","en-US,en;q=0.9,en-ZA;q=0.8","606e3cce02e2e8a8c965ca75","6877631c9844ddd5501205fc","688a50e8fa25552146262067","3","1","606e3cce02e2e8a8c965ca75","3","1","2025-07-30T17:45:58.783Z","","","","","","","","","","","MotivationQ","","50","","","","","","","","","","","","","","","","","","","","","","","","","","","","",""
"","","","","ctl-task-cpt","64","2444505","0.0-5.0-0.11","297","1","2025-07-30 17:05:57","1f75c3e559b7213887762d5229550c2b","102.221.201.9","Mozilla/5.0 (Windows NT 10.0; Win64; x64) AppleWebKit/537.36 (KHTML, like Gecko) Chrome/138.0.0.0 Safari/537.36 Edg/138.0.0.0","WebKit","Edge","138.0.0.0","Windows","10.0","https://app.prolific.com/","en-US,en;q=0.9,en-ZA;q=0.8","606e3cce02e2e8a8c965ca75","6877631c9844ddd5501205fc","688a50e8fa25552146262067","3","1","606e3cce02e2e8a8c965ca75","3","1","2025-07-30T17:46:43.281Z","","","","","","","","","","","","","","win-only","1","g1:NE,g2:SW","0.6","12","0","2402772.3","1321.7","6332.2","41467","1","4","8","6","1","1","1","21","20","0.1590909090909091","5010.5","3000","1255","[""up"",""right""]","{""num_key_presses"":8,""num_perfect"":5,""num_errors"":0,""num_randdir"":3,""num_randdir_good_moves"":2,""num_whilered"":0,""num_whileblue"":0,""num_blue"":2,""num_good_moves"":6}","[421.5714133126395,415.32142761775424,0.3,421.5714133126395,415.32142761775424,108.5,421.5714133126395,415.32142761775424,213.7,421.5714133126395,415.32142761775424,313.9,421.5714133126395,415.32142761775424,428.7,421.5714133126395,415.32142761775424,534,421.5714133126395,415.32142761775424,647.6,421.5714133126395,415.32142761775424,762.6,421.5714133126395,415.32142761775424,870.8,434.0714133126395,387.82142761775424,982.1,439.0714133126395,382.82142761775424,1085.1,441.5714133126395,381.57142761775424,1195,441.5714133126395,381.57142761775424,1312.2,441.5714133126395,386.57142761775424,1420.8,437.8214133126395,386.57142761775424,1530.9,431.5714133126395,386.57142761775424,1641.9,431.5714133126395,386.57142761775424,1742,431.5714133126395,386.57142761775424,1852.9,431.5714133126395,386.57142761775424,1963.5,431.5714133126395,386.57142761775424,2079.7,431.5714133126395,386.57142761775424,2195.7,431.5714133126395,386.57142761775424,2306.3,431.5714133126395,386.57142761775424,2422.2,431.5714133126395,386.57142761775424,2529.9,431.5714133126395,386.57142761775424,2636.3,435.3214133126395,381.57142761775424,2740.8,439.0714133126395,376.57142761775424,2842.2,446.5714133126395,371.57142761775424,2965.9,456.5714133126395,367.82142761775424,3070.9,459.0714133126395,367.82142761775424,3172.4,459.0714133126395,367.82142761775424,3287.2,459.0714133126395,367.82142761775424,3416.7,459.0714133126395,367.82142761775424,3524.5,459.0714133126395,367.82142761775424,3637.8,459.0714133126395,367.82142761775424,3746.4,459.0714133126395,367.82142761775424,3861.8,459.0714133126395,367.82142761775424,3975.4,459.0714133126395,367.82142761775424,4084.7,459.0714133126395,367.82142761775424,4194.6,459.0714133126395,367.82142761775424,4303.8,459.0714133126395,367.82142761775424,4409.7,459.0714133126395,367.82142761775424,4519.5,459.0714133126395,367.82142761775424,4630,459.0714133126395,367.82142761775424,4747,459.0714133126395,367.82142761775424,4858.4,459.0714133126395,367.82142761775424,4959.2]","[4717.8,4717.9,2187.4,2026.4,504.1,""smooth"",""down"",""down"",""bad_move"",11965.2,7247,2924.8,8596.7,443.7,""smooth"",""up"",""up"",""good_move"",15481.3,3515.7,2772.7,11965.6,743,""smooth"",""up"",""up"",""good_move"",18754.3,3272.6,2340.1,15481.8,932.5,""smooth"",""up"",""up"",""good_move"",22195.4,3440.5,2309.9,18754.9,1130.6,""oops"",""right"",""right"",""good_move"",26218.5,4022.9,3428,22195.6,594.9,""oops"",""right"",""left"",""bad_move"",31448.7,5229.9,2114.4,26218.8,3115.5,""smooth"",""right"",""right"",""good_move"",34849.8,3400.9,2914,31448.9,486.9,""oops"",""right"",""right"",""good_move""]","",""
"4869","","<div style=""width:500px;"">
  <p>What determined the result of this run?</p>
  </div>","97","html-slider-response","65","2449376","0.0-5.0-1.11","297","1","2025-07-30 17:05:57","1f75c3e559b7213887762d5229550c2b","102.221.201.9","Mozilla/5.0 (Windows NT 10.0; Win64; x64) AppleWebKit/537.36 (KHTML, like Gecko) Chrome/138.0.0.0 Safari/537.36 Edg/138.0.0.0","WebKit","Edge","138.0.0.0","Windows","10.0","https://app.prolific.com/","en-US,en;q=0.9,en-ZA;q=0.8","606e3cce02e2e8a8c965ca75","6877631c9844ddd5501205fc","688a50e8fa25552146262067","3","1","606e3cce02e2e8a8c965ca75","3","1","2025-07-30T17:46:48.152Z","","","","","","","","","","","AttribQ","","50","","","","","","","","","","","","","","","","","","","","","","","","","","","","",""
"4479","","<div style=""width:500px;"">
  <p>How much control did you have over the ball?</p>
  </div>","97","html-slider-response","66","2453856","0.0-5.0-2.11","297","1","2025-07-30 17:05:57","1f75c3e559b7213887762d5229550c2b","102.221.201.9","Mozilla/5.0 (Windows NT 10.0; Win64; x64) AppleWebKit/537.36 (KHTML, like Gecko) Chrome/138.0.0.0 Safari/537.36 Edg/138.0.0.0","WebKit","Edge","138.0.0.0","Windows","10.0","https://app.prolific.com/","en-US,en;q=0.9,en-ZA;q=0.8","606e3cce02e2e8a8c965ca75","6877631c9844ddd5501205fc","688a50e8fa25552146262067","3","1","606e3cce02e2e8a8c965ca75","3","1","2025-07-30T17:46:52.632Z","","","","","","","","","","","ControlQ","","50","","","","","","","","","","","","","","","","","","","","","","","","","","","","",""
"4377","","<div style=""width:500px;"">
  <p>How would you describe your current emotional state?</p>
  </div>","7","html-slider-response","67","2458234","0.0-5.0-3.11","297","1","2025-07-30 17:05:57","1f75c3e559b7213887762d5229550c2b","102.221.201.9","Mozilla/5.0 (Windows NT 10.0; Win64; x64) AppleWebKit/537.36 (KHTML, like Gecko) Chrome/138.0.0.0 Safari/537.36 Edg/138.0.0.0","WebKit","Edge","138.0.0.0","Windows","10.0","https://app.prolific.com/","en-US,en;q=0.9,en-ZA;q=0.8","606e3cce02e2e8a8c965ca75","6877631c9844ddd5501205fc","688a50e8fa25552146262067","3","1","606e3cce02e2e8a8c965ca75","3","1","2025-07-30T17:46:57.010Z","","","","","","","","","","","StressQ","","50","","","","","","","","","","","","","","","","","","","","","","","","","","","","",""
"3962","","<div style=""width:500px;"">
  <p>What best describes how you currently feel?</p>
  </div>","98","html-slider-response","68","2462198","0.0-5.0-4.11","297","1","2025-07-30 17:05:57","1f75c3e559b7213887762d5229550c2b","102.221.201.9","Mozilla/5.0 (Windows NT 10.0; Win64; x64) AppleWebKit/537.36 (KHTML, like Gecko) Chrome/138.0.0.0 Safari/537.36 Edg/138.0.0.0","WebKit","Edge","138.0.0.0","Windows","10.0","https://app.prolific.com/","en-US,en;q=0.9,en-ZA;q=0.8","606e3cce02e2e8a8c965ca75","6877631c9844ddd5501205fc","688a50e8fa25552146262067","3","1","606e3cce02e2e8a8c965ca75","3","1","2025-07-30T17:47:00.974Z","","","","","","","","","","","MotivationQ","","50","","","","","","","","","","","","","","","","","","","","","","","","","","","","",""
"","","","","ctl-task-cpt","69","2518968","0.0-5.0-0.12","297","1","2025-07-30 17:05:57","1f75c3e559b7213887762d5229550c2b","102.221.201.9","Mozilla/5.0 (Windows NT 10.0; Win64; x64) AppleWebKit/537.36 (KHTML, like Gecko) Chrome/138.0.0.0 Safari/537.36 Edg/138.0.0.0","WebKit","Edge","138.0.0.0","Windows","10.0","https://app.prolific.com/","en-US,en;q=0.9,en-ZA;q=0.8","606e3cce02e2e8a8c965ca75","6877631c9844ddd5501205fc","688a50e8fa25552146262067","3","1","606e3cce02e2e8a8c965ca75","3","1","2025-07-30T17:47:57.744Z","","","","","","","","","","","","","","win-only","2","g1:SE,g2:NW","0.7","13","0","2464962.6","8027.3","13035.1","53748.6","1","4","4","6","2","4","4","25","21","0.1893939393939394","5007.8","3000","640","[""left"",""up""]","{""num_key_presses"":10,""num_perfect"":7,""num_errors"":0,""num_randdir"":3,""num_randdir_good_moves"":1,""num_whilered"":0,""num_whileblue"":0,""num_blue"":1,""num_good_moves"":8}","[416.5714133126395,424.07142761775424,0.4,416.5714133126395,424.07142761775424,102.7,416.5714133126395,424.07142761775424,220.3,416.5714133126395,424.07142761775424,328.8,416.5714133126395,424.07142761775424,445.8,416.5714133126395,424.07142761775424,551.9,417.8214133126395,424.07142761775424,667,454.0714133126395,411.57142761775424,768,479.0714133126395,410.32142761775424,887.7,492.8214133126395,416.57142761775424,993.7,495.3214133126395,426.57142761775424,1099.3,471.5714133126395,425.32142761775424,1213.8,459.0714133126395,422.82142761775424,1324.7,440.3214133126395,430.32142761775424,1449.9,435.3214133126395,432.82142761775424,1554.3,435.3214133126395,432.82142761775424,1664.4,435.3214133126395,432.82142761775424,1767,435.3214133126395,432.82142761775424,1880.4,435.3214133126395,432.82142761775424,1988.5,435.3214133126395,432.82142761775424,2098.2,435.3214133126395,432.82142761775424,2217.2,435.3214133126395,432.82142761775424,2329.7,435.3214133126395,432.82142761775424,2445.7,435.3214133126395,432.82142761775424,2548.7,435.3214133126395,432.82142761775424,2672,435.3214133126395,432.82142761775424,2795.9,435.3214133126395,432.82142761775424,2906.8,435.3214133126395,432.82142761775424,3028.8,435.3214133126395,432.82142761775424,3140.6,435.3214133126395,432.82142761775424,3247.8,435.3214133126395,432.82142761775424,3368.5,435.3214133126395,432.82142761775424,3482.5,435.3214133126395,432.82142761775424,3589,435.3214133126395,432.82142761775424,3698.9,435.3214133126395,432.82142761775424,3808.6,435.3214133126395,432.82142761775424,3912,435.3214133126395,432.82142761775424,4026.2,435.3214133126395,432.82142761775424,4129.3,435.3214133126395,432.82142761775424,4248.7,435.3214133126395,432.82142761775424,4355.3,435.3214133126395,432.82142761775424,4469.6,435.3214133126395,432.82142761775424,4590.6,435.3214133126395,432.82142761775424,4705.6,435.3214133126395,432.82142761775424,4815.5,435.3214133126395,432.82142761775424,4933.3]","[1557.9,1557.9,1000,0,558,""smooth"",""up"",""up"",""good_move"",6116,4557.5,2810.2,1558.6,1747.2,""smooth"",""up"",""up"",""good_move"",9865.1,3748.8,2396.6,6116.3,1352.2,""oops"",""up"",""left"",""good_move"",13527.3,3661.8,2264.8,9865.6,1396.9,""smooth"",""up"",""up"",""good_move"",17206.6,3679,2496.1,13527.7,1182.8,""oops"",""left"",""right"",""bad_move"",21686.7,4479.4,3256.2,17207.4,1223.2,""oops"",""left"",""down"",""bad_move"",29542.4,7855.4,2109.4,25323.9,2109.1,""smooth"",""left"",""left"",""good_move"",33404.6,3862,2656.9,29542.6,1205.1,""smooth"",""left"",""left"",""good_move"",36794.1,3389.2,2531.5,33404.9,857.7,""smooth"",""left"",""left"",""good_move"",40354.6,3560.3,2231.9,36794.3,1328.4,""smooth"",""up"",""up"",""good_move""]","",""
"3704","","<div style=""width:500px;"">
  <p>What determined the result of this run?</p>
  </div>","99","html-slider-response","70","2522674","0.0-5.0-1.12","297","1","2025-07-30 17:05:57","1f75c3e559b7213887762d5229550c2b","102.221.201.9","Mozilla/5.0 (Windows NT 10.0; Win64; x64) AppleWebKit/537.36 (KHTML, like Gecko) Chrome/138.0.0.0 Safari/537.36 Edg/138.0.0.0","WebKit","Edge","138.0.0.0","Windows","10.0","https://app.prolific.com/","en-US,en;q=0.9,en-ZA;q=0.8","606e3cce02e2e8a8c965ca75","6877631c9844ddd5501205fc","688a50e8fa25552146262067","3","1","606e3cce02e2e8a8c965ca75","3","1","2025-07-30T17:48:01.450Z","","","","","","","","","","","AttribQ","","50","","","","","","","","","","","","","","","","","","","","","","","","","","","","",""
"3861","","<div style=""width:500px;"">
  <p>How much control did you have over the ball?</p>
  </div>","98","html-slider-response","71","2526536","0.0-5.0-2.12","297","1","2025-07-30 17:05:57","1f75c3e559b7213887762d5229550c2b","102.221.201.9","Mozilla/5.0 (Windows NT 10.0; Win64; x64) AppleWebKit/537.36 (KHTML, like Gecko) Chrome/138.0.0.0 Safari/537.36 Edg/138.0.0.0","WebKit","Edge","138.0.0.0","Windows","10.0","https://app.prolific.com/","en-US,en;q=0.9,en-ZA;q=0.8","606e3cce02e2e8a8c965ca75","6877631c9844ddd5501205fc","688a50e8fa25552146262067","3","1","606e3cce02e2e8a8c965ca75","3","1","2025-07-30T17:48:05.312Z","","","","","","","","","","","ControlQ","","50","","","","","","","","","","","","","","","","","","","","","","","","","","","","",""
"3263","","<div style=""width:500px;"">
  <p>How would you describe your current emotional state?</p>
  </div>","6","html-slider-response","72","2529801","0.0-5.0-3.12","297","1","2025-07-30 17:05:57","1f75c3e559b7213887762d5229550c2b","102.221.201.9","Mozilla/5.0 (Windows NT 10.0; Win64; x64) AppleWebKit/537.36 (KHTML, like Gecko) Chrome/138.0.0.0 Safari/537.36 Edg/138.0.0.0","WebKit","Edge","138.0.0.0","Windows","10.0","https://app.prolific.com/","en-US,en;q=0.9,en-ZA;q=0.8","606e3cce02e2e8a8c965ca75","6877631c9844ddd5501205fc","688a50e8fa25552146262067","3","1","606e3cce02e2e8a8c965ca75","3","1","2025-07-30T17:48:08.577Z","","","","","","","","","","","StressQ","","50","","","","","","","","","","","","","","","","","","","","","","","","","","","","",""
"4001","","<div style=""width:500px;"">
  <p>What best describes how you currently feel?</p>
  </div>","98","html-slider-response","73","2533803","0.0-5.0-4.12","297","1","2025-07-30 17:05:57","1f75c3e559b7213887762d5229550c2b","102.221.201.9","Mozilla/5.0 (Windows NT 10.0; Win64; x64) AppleWebKit/537.36 (KHTML, like Gecko) Chrome/138.0.0.0 Safari/537.36 Edg/138.0.0.0","WebKit","Edge","138.0.0.0","Windows","10.0","https://app.prolific.com/","en-US,en;q=0.9,en-ZA;q=0.8","606e3cce02e2e8a8c965ca75","6877631c9844ddd5501205fc","688a50e8fa25552146262067","3","1","606e3cce02e2e8a8c965ca75","3","1","2025-07-30T17:48:12.579Z","","","","","","","","","","","MotivationQ","","50","","","","","","","","","","","","","","","","","","","","","","","","","","","","",""
