"rt","response_timestamp","stimulus","response","trial_type","trial_index","time_elapsed","internal_node_id","run_id","condition","recorded_at","source_code_version","ip","user_agent","device","browser","browser_version","platform","platform_version","referer","accept_language","PROLIFIC_PID","STUDY_ID","SESSION_ID","WEEK","BATCH","prolific_id","week","batch","realtime","success","responses","item_order","radio_event_ids","radio_event_times","key_event_times","mouse_event_times","straightlining","zigzagging","honeypot","eventType","view_history","slider_start","which_type","canvas_config","goals_layout","control_level","trial_number","tutorial_trial_number","trial_start_time","phase1_start_time","phase2_start_time","phase3_start_time","goal_1_value","goal_1_distance","goal_2_value","goal_2_distance","goal_selected","outcome","outcome_total","participant_final_score","participant_initial_score","participant_final_score_prop","goal_choice_rt","allocated_time","allocated_time_remaining","goal_direction","counts","mouse_movements","key_presses","question_order","question_id"
"3985","1753256180501","<p style='font-size:40px;line-height:1.25'><strong>Welcome to the experiment!</strong></p><p style='font-size:1.1em;line-height:1.25'>Thank you for participanting in our experiment again! You will be asked to play the Dysfunctional Ball Game again. We will briefly recap the rules before we start.</p><p style='font-size:1.1em;line-height:1.25'>Press <strong>Next</strong> to continue.</p>","0","custom-html-button-response","0","3987","0.0-0.0","181","1","2025-07-23 07:36:15","1f75c3e559b7213887762d5229550c2b","41.145.211.168","Mozilla/5.0 (Windows NT 10.0; Win64; x64) AppleWebKit/537.36 (KHTML, like Gecko) Chrome/138.0.0.0 Safari/537.36","WebKit","Chrome","138.0.0.0","Windows","10.0","https://app.prolific.com/","en-US,en;q=0.9","60a50457d02bfc23c02d4717","683dba2a8a9dda3513610c04","688090dead790a237d562ae4","3","0","60a50457d02bfc23c02d4717","3","0","2025-07-23T07:36:20.502Z","","","","","","","","","","","","","","","","","","","","","","","","","","","","","","","","","","","","","","","","","",""
"1038","","","","fullscreen","1","6031","0.0-1.0","181","1","2025-07-23 07:36:15","1f75c3e559b7213887762d5229550c2b","41.145.211.168","Mozilla/5.0 (Windows NT 10.0; Win64; x64) AppleWebKit/537.36 (KHTML, like Gecko) Chrome/138.0.0.0 Safari/537.36","WebKit","Chrome","138.0.0.0","Windows","10.0","https://app.prolific.com/","en-US,en;q=0.9","60a50457d02bfc23c02d4717","683dba2a8a9dda3513610c04","688090dead790a237d562ae4","3","0","60a50457d02bfc23c02d4717","3","0","","true","","","","","","","","","","","","","","","","","","","","","","","","","","","","","","","","","","","","","","","","",""
"1018","1753256183564","<p style='font-size:1.1em;line-height:1.25'>In the following, we will ask you a few questions relating to your feelings in the last 24 hours.<br></p><p style='font-size:1.1em;line-height:1.25'>Press the <strong>Next</strong> button to continue.</p>","0","custom-html-button-response","2","7050","0.0-2.0-0.0","181","1","2025-07-23 07:36:15","1f75c3e559b7213887762d5229550c2b","41.145.211.168","Mozilla/5.0 (Windows NT 10.0; Win64; x64) AppleWebKit/537.36 (KHTML, like Gecko) Chrome/138.0.0.0 Safari/537.36","WebKit","Chrome","138.0.0.0","Windows","10.0","https://app.prolific.com/","en-US,en;q=0.9","60a50457d02bfc23c02d4717","683dba2a8a9dda3513610c04","688090dead790a237d562ae4","3","0","60a50457d02bfc23c02d4717","3","0","2025-07-23T07:36:23.565Z","","","","","","","","","","","","","","","","","","","","","","","","","","","","","","","","","","","","","","","","","",""
"93226.10000002384","","","","survey-template","3","100283","0.0-2.0-1.0","181","1","2025-07-23 07:36:15","1f75c3e559b7213887762d5229550c2b","41.145.211.168","Mozilla/5.0 (Windows NT 10.0; Win64; x64) AppleWebKit/537.36 (KHTML, like Gecko) Chrome/138.0.0.0 Safari/537.36","WebKit","Chrome","138.0.0.0","Windows","10.0","https://app.prolific.com/","en-US,en;q=0.9","60a50457d02bfc23c02d4717","683dba2a8a9dda3513610c04","688090dead790a237d562ae4","3","0","60a50457d02bfc23c02d4717","3","0","2025-07-23T07:37:56.798Z","","{""Q01"":""2"",""Q02"":""2"",""Q03"":""2"",""Q04"":""3"",""Q05"":""0"",""Q06"":""0"",""Q07"":""0"",""Q08"":""1"",""Q09"":""0"",""Q10"":""1"",""Q11"":""3"",""Q12"":""3"",""Q13"":""5"",""Q14"":""3"",""Q15"":""2"",""Q16"":""2"",""Q17"":""3"",""Q18"":""2"",""Q19"":""3"",""Q20"":""1"",""Q21"":""1"",""Q22"":""1""}","[0,1,2,3,4,5,6,7,8,9,10,11,12,13,14,15,16,17,18,19,20,21]","[""Q01"",""Q02"",""Q01"",""Q03"",""Q04"",""Q05"",""Q06"",""Q07"",""Q08"",""Q09"",""Q10"",""Q11"",""Q12"",""Q13"",""Q14"",""Q15"",""Q16"",""Q17"",""Q18"",""Q19"",""Q20"",""Q21"",""Q22""]","[2859.600000023842,15315.600000023842,16939.5,20563.5,25027.400000035763,29315.5,30707.100000023842,32805,36667.200000047684,38539.90000003576,43067.10000002384,48419,51043.40000003576,53939.200000047684,59683.40000003576,61563.200000047684,66491,69306.90000003576,71835.30000001192,76867.20000004768,81267,83379,85173.5]","[]","[0.30000001192092896,2859.600000023842,14251.400000035763,14803.200000047684,15315.600000023842,16124.800000011921,16939.5,19875.5,20563.5,22555.80000001192,25027.400000035763,29315.5,30707.100000023842,32805,36667.200000047684,38539.90000003576,42251.200000047684,43067.10000002384,46939.40000003576,47667,48419,51043.40000003576,53939.200000047684,58690.90000003576,59683.40000003576,61563.200000047684,65883.40000003576,66491,69306.90000003576,71835.30000001192,76867.20000004768,81267,83379,85173.5,93219.30000001192]","0.2727272727272727","0.38095238095238093","0","drsp","","","","","","","","","","","","","","","","","","","","","","","","","","","","","","",""
"11332.199999988079","","","","survey-template","4","111618","0.0-2.0-2.0","181","1","2025-07-23 07:36:15","1f75c3e559b7213887762d5229550c2b","41.145.211.168","Mozilla/5.0 (Windows NT 10.0; Win64; x64) AppleWebKit/537.36 (KHTML, like Gecko) Chrome/138.0.0.0 Safari/537.36","WebKit","Chrome","138.0.0.0","Windows","10.0","https://app.prolific.com/","en-US,en;q=0.9","60a50457d02bfc23c02d4717","683dba2a8a9dda3513610c04","688090dead790a237d562ae4","3","0","60a50457d02bfc23c02d4717","3","0","2025-07-23T07:38:08.133Z","","{""Q01"":""3"",""Q02"":""4"",""Q03"":""3""}","[0,1,2]","[""Q01"",""Q02"",""Q03""]","[4027.600000023842,6299.699999988079,9019.800000011921]","[]","[4027.600000023842,6299.699999988079,9019.800000011921,11331.699999988079]","0.6666666666666666","0","0","stress","","","","","","","","","","","","","","","","","","","","","","","","","","","","","","",""
"7630","","","","instructions","5","119249","0.0-3.0-0.0","181","1","2025-07-23 07:36:15","1f75c3e559b7213887762d5229550c2b","41.145.211.168","Mozilla/5.0 (Windows NT 10.0; Win64; x64) AppleWebKit/537.36 (KHTML, like Gecko) Chrome/138.0.0.0 Safari/537.36","WebKit","Chrome","138.0.0.0","Windows","10.0","https://app.prolific.com/","en-US,en;q=0.9","60a50457d02bfc23c02d4717","683dba2a8a9dda3513610c04","688090dead790a237d562ae4","3","0","60a50457d02bfc23c02d4717","3","0","","","","","","","","","","","","","[{""page_index"":0,""viewing_time"":7630}]","","","","","","","","","","","","","","","","","","","","","","","","","","","","","",""
"9520","","<p>Before you start with this game please answer the following three questions yourself. </p>
  <p>Through this game, we measure several aspects of your cognitive performance, such as reaction times, multi-tasking capabilities </p>
  <p>and the ability to assess the situation you are in.</p>
  <p></p>
  <p><b>How good do you usually are in such tasks?</b></p>","38","html-slider-response","6","128809","0.0-4.0-0.0","181","1","2025-07-23 07:36:15","1f75c3e559b7213887762d5229550c2b","41.145.211.168","Mozilla/5.0 (Windows NT 10.0; Win64; x64) AppleWebKit/537.36 (KHTML, like Gecko) Chrome/138.0.0.0 Safari/537.36","WebKit","Chrome","138.0.0.0","Windows","10.0","https://app.prolific.com/","en-US,en;q=0.9","60a50457d02bfc23c02d4717","683dba2a8a9dda3513610c04","688090dead790a237d562ae4","3","0","60a50457d02bfc23c02d4717","3","0","2025-07-23T07:38:25.324Z","","","","","","","","","","","PreSkillQ","","50","","","","","","","","","","","","","","","","","","","","","","","","","","","","",""
"6959","","<div style=""width:500px;"">
  <p>How well do you think you will perform in this task compared to other participants?</p>
  </div>","40","html-slider-response","7","135769","0.0-4.0-1.0","181","1","2025-07-23 07:36:15","1f75c3e559b7213887762d5229550c2b","41.145.211.168","Mozilla/5.0 (Windows NT 10.0; Win64; x64) AppleWebKit/537.36 (KHTML, like Gecko) Chrome/138.0.0.0 Safari/537.36","WebKit","Chrome","138.0.0.0","Windows","10.0","https://app.prolific.com/","en-US,en;q=0.9","60a50457d02bfc23c02d4717","683dba2a8a9dda3513610c04","688090dead790a237d562ae4","3","0","60a50457d02bfc23c02d4717","3","0","2025-07-23T07:38:32.284Z","","","","","","","","","","","PrePerfQ","","50","","","","","","","","","","","","","","","","","","","","","","","","","","","","",""
"3727","","<div style=""width:500px;"">
  <p>What best describes how you currently feel?</p>
  </div>","73","html-slider-response","8","139497","0.0-4.0-2.0","181","1","2025-07-23 07:36:15","1f75c3e559b7213887762d5229550c2b","41.145.211.168","Mozilla/5.0 (Windows NT 10.0; Win64; x64) AppleWebKit/537.36 (KHTML, like Gecko) Chrome/138.0.0.0 Safari/537.36","WebKit","Chrome","138.0.0.0","Windows","10.0","https://app.prolific.com/","en-US,en;q=0.9","60a50457d02bfc23c02d4717","683dba2a8a9dda3513610c04","688090dead790a237d562ae4","3","0","60a50457d02bfc23c02d4717","3","0","2025-07-23T07:38:36.012Z","","","","","","","","","","","PreMotivationQ","","50","","","","","","","","","","","","","","","","","","","","","","","","","","","","",""
"","","","","ctl-task-cpt","9","304435","0.0-5.0-0.0","181","1","2025-07-23 07:36:15","1f75c3e559b7213887762d5229550c2b","41.145.211.168","Mozilla/5.0 (Windows NT 10.0; Win64; x64) AppleWebKit/537.36 (KHTML, like Gecko) Chrome/138.0.0.0 Safari/537.36","WebKit","Chrome","138.0.0.0","Windows","10.0","https://app.prolific.com/","en-US,en;q=0.9","60a50457d02bfc23c02d4717","683dba2a8a9dda3513610c04","688090dead790a237d562ae4","3","0","60a50457d02bfc23c02d4717","3","0","2025-07-23T07:41:20.950Z","","","","","","","","","","","","","","win-only","2","g1:SE,g2:NW","1","1","0","144344.9","139578","144581.4","161922.4","1","4","8","6","1","1","1","1","0","0.007575757575757576","1806.2","3000","835","[""down"",""right""]","{""num_key_presses"":4,""num_perfect"":4,""num_errors"":0,""num_randdir"":0,""num_randdir_good_moves"":0,""num_whilered"":0,""num_whileblue"":0,""num_blue"":2,""num_good_moves"":4}","[425.57142857142856,411.47767857142856,1,425.57142857142856,411.47767857142856,100.7,425.57142857142856,411.47767857142856,202.4,425.57142857142856,411.47767857142856,302.9,425.57142857142856,411.47767857142856,403.4,425.57142857142856,411.47767857142856,507.7,425.57142857142856,411.47767857142856,608.8,425.57142857142856,411.47767857142856,717.2,425.57142857142856,411.47767857142856,817.3,425.57142857142856,411.47767857142856,923.1,425.57142857142856,411.47767857142856,1023.8,486.57142857142856,450.47767857142856,1133.8,604.5714285714286,530.4776785714286,1237.4,656.5714285714286,570.4776785714286,1337.4,677.5714285714286,606.4776785714286,1437.4,722.5714285714286,715.4776785714286,1538.7,765.5714285714286,767.4776785714286,1642.5,766.5714285714286,768.4776785714286,1742.7,766.5714285714286,768.4776785714286,1843.2,766.5714285714286,768.4776785714286,1951.1,766.5714285714286,768.4776785714286,2053.7,766.5714285714286,768.4776785714286,2157.6,766.5714285714286,768.4776785714286,2257.7,768.5714285714286,767.4776785714286,2359.2,906.5714285714286,600.4776785714286,2466.6,996.5714285714286,513.4776785714286,2567.3,1005.5714285714286,500.47767857142856,2667.6,1008.5714285714286,498.47767857142856,2770.5,1008.5714285714286,498.47767857142856,2873.6,1008.5714285714286,498.47767857142856,2983.5,1008.5714285714286,498.47767857142856,3084.1,1008.5714285714286,498.47767857142856,3187.4,1008.5714285714286,498.47767857142856,3287.4,1006.5714285714286,498.47767857142856,3387.7,1006.5714285714286,498.47767857142856,3487.8,1006.5714285714286,498.47767857142856,3592.8,1006.5714285714286,498.47767857142856,3694.1,1006.5714285714286,498.47767857142856,3800.7,1006.5714285714286,498.47767857142856,3902.4,1006.5714285714286,498.47767857142856,4003.2,1006.5714285714286,498.47767857142856,4103.4,1006.5714285714286,498.47767857142856,4203.7,1006.5714285714286,498.47767857142856,4308.3,1006.5714285714286,498.47767857142856,4409.3,1006.5714285714286,498.47767857142856,4516.1,1006.5714285714286,498.47767857142856,4618.2,1006.5714285714286,498.47767857142856,4722.3,1006.5714285714286,498.47767857142856,4822.3,1006.5714285714286,498.47767857142856,4923.1]","[4444.9,4445,1923.3,2012.2,509.5,""smooth"",""right"",""right"",""good_move"",10646.9,6201.4,2646.2,7563.9,436.8,""smooth"",""down"",""down"",""good_move"",13930.8,3283.6,2455.5,10647.2,828.1,""smooth"",""right"",""right"",""good_move"",17246.6,3315.6,2672.5,13931,643.1,""smooth"",""down"",""down"",""good_move""]","",""
"2765","","<div style=""width:500px;"">
  <p>What determined the result of this run?</p>
  </div>","100","html-slider-response","10","307201","0.0-5.0-1.0","181","1","2025-07-23 07:36:15","1f75c3e559b7213887762d5229550c2b","41.145.211.168","Mozilla/5.0 (Windows NT 10.0; Win64; x64) AppleWebKit/537.36 (KHTML, like Gecko) Chrome/138.0.0.0 Safari/537.36","WebKit","Chrome","138.0.0.0","Windows","10.0","https://app.prolific.com/","en-US,en;q=0.9","60a50457d02bfc23c02d4717","683dba2a8a9dda3513610c04","688090dead790a237d562ae4","3","0","60a50457d02bfc23c02d4717","3","0","2025-07-23T07:41:23.716Z","","","","","","","","","","","AttribQ","","50","","","","","","","","","","","","","","","","","","","","","","","","","","","","",""
"3495","","<div style=""width:500px;"">
  <p>How much control did you have over the ball?</p>
  </div>","100","html-slider-response","11","310697","0.0-5.0-2.0","181","1","2025-07-23 07:36:15","1f75c3e559b7213887762d5229550c2b","41.145.211.168","Mozilla/5.0 (Windows NT 10.0; Win64; x64) AppleWebKit/537.36 (KHTML, like Gecko) Chrome/138.0.0.0 Safari/537.36","WebKit","Chrome","138.0.0.0","Windows","10.0","https://app.prolific.com/","en-US,en;q=0.9","60a50457d02bfc23c02d4717","683dba2a8a9dda3513610c04","688090dead790a237d562ae4","3","0","60a50457d02bfc23c02d4717","3","0","2025-07-23T07:41:27.212Z","","","","","","","","","","","ControlQ","","50","","","","","","","","","","","","","","","","","","","","","","","","","","","","",""
"5183","","<div style=""width:500px;"">
  <p>How would you describe your current emotional state?</p>
  </div>","0","html-slider-response","12","315881","0.0-5.0-3.0","181","1","2025-07-23 07:36:15","1f75c3e559b7213887762d5229550c2b","41.145.211.168","Mozilla/5.0 (Windows NT 10.0; Win64; x64) AppleWebKit/537.36 (KHTML, like Gecko) Chrome/138.0.0.0 Safari/537.36","WebKit","Chrome","138.0.0.0","Windows","10.0","https://app.prolific.com/","en-US,en;q=0.9","60a50457d02bfc23c02d4717","683dba2a8a9dda3513610c04","688090dead790a237d562ae4","3","0","60a50457d02bfc23c02d4717","3","0","2025-07-23T07:41:32.396Z","","","","","","","","","","","StressQ","","50","","","","","","","","","","","","","","","","","","","","","","","","","","","","",""
"3535","","<div style=""width:500px;"">
  <p>What best describes how you currently feel?</p>
  </div>","69","html-slider-response","13","319417","0.0-5.0-4.0","181","1","2025-07-23 07:36:15","1f75c3e559b7213887762d5229550c2b","41.145.211.168","Mozilla/5.0 (Windows NT 10.0; Win64; x64) AppleWebKit/537.36 (KHTML, like Gecko) Chrome/138.0.0.0 Safari/537.36","WebKit","Chrome","138.0.0.0","Windows","10.0","https://app.prolific.com/","en-US,en;q=0.9","60a50457d02bfc23c02d4717","683dba2a8a9dda3513610c04","688090dead790a237d562ae4","3","0","60a50457d02bfc23c02d4717","3","0","2025-07-23T07:41:35.932Z","","","","","","","","","","","MotivationQ","","50","","","","","","","","","","","","","","","","","","","","","","","","","","","","",""
"","","","","ctl-task-cpt","14","352382","0.0-5.0-0.1","181","1","2025-07-23 07:36:15","1f75c3e559b7213887762d5229550c2b","41.145.211.168","Mozilla/5.0 (Windows NT 10.0; Win64; x64) AppleWebKit/537.36 (KHTML, like Gecko) Chrome/138.0.0.0 Safari/537.36","WebKit","Chrome","138.0.0.0","Windows","10.0","https://app.prolific.com/","en-US,en;q=0.9","60a50457d02bfc23c02d4717","683dba2a8a9dda3513610c04","688090dead790a237d562ae4","3","0","60a50457d02bfc23c02d4717","3","0","2025-07-23T07:42:08.897Z","","","","","","","","","","","","","","win-only","1","g1:NE,g2:SW","0.9","2","0","324257.2","1950.6","6956","29946.8","1","4","4","6","2","4","4","5","1","0.03787878787878788","1696.7","3000","485","[""down"",""left""]","{""num_key_presses"":6,""num_perfect"":5,""num_errors"":0,""num_randdir"":1,""num_randdir_good_moves"":1,""num_whilered"":0,""num_whileblue"":0,""num_blue"":2,""num_good_moves"":6}","[418.57142857142856,416.47767857142856,0.2,418.57142857142856,416.47767857142856,105.3,418.57142857142856,416.47767857142856,209.9,418.57142857142856,416.47767857142856,310.3,418.57142857142856,416.47767857142856,410.4,418.57142857142856,416.47767857142856,515.1,418.57142857142856,416.47767857142856,615.8,418.57142857142856,416.47767857142856,720,418.57142857142856,416.47767857142856,821,353.57142857142856,477.47767857142856,924.8,235.57142857142856,578.4776785714286,1025,170.57142857142856,652.4776785714286,1130.7,148.57142857142856,675.4776785714286,1230.8,124.57142857142857,708.4776785714286,1331.2,112.57142857142857,737.4776785714286,1435.1,104.57142857142857,757.4776785714286,1536,100.57142857142857,763.4776785714286,1641.3,100.57142857142857,763.4776785714286,1747.5,100.57142857142857,763.4776785714286,1849.8,100.57142857142857,763.4776785714286,1951.2,100.57142857142857,763.4776785714286,2055.2,119.57142857142857,757.4776785714286,2161.7,284.57142857142856,726.4776785714286,2265.7,563.5714285714286,676.4776785714286,2369.9,982.5714285714286,593.4776785714286,2470.6,1171.5714285714287,534.4776785714286,2570.7,1240.5714285714287,506.47767857142856,2671.3,1242.5714285714287,505.47767857142856,2775,1242.5714285714287,505.47767857142856,2875.1,1242.5714285714287,505.47767857142856,2980.7,1242.5714285714287,505.47767857142856,3080.9,1242.5714285714287,505.47767857142856,3182.4,1242.5714285714287,505.47767857142856,3285.2,1242.5714285714287,505.47767857142856,3385.3,1242.5714285714287,505.47767857142856,3490.3,1242.5714285714287,505.47767857142856,3590.4,1242.5714285714287,505.47767857142856,3691.2,1242.5714285714287,505.47767857142856,3791.6,1242.5714285714287,505.47767857142856,3894.9,1242.5714285714287,505.47767857142856,3994.9,1242.5714285714287,505.47767857142856,4096.1,1242.5714285714287,505.47767857142856,4197.1,1242.5714285714287,505.47767857142856,4300.1,1242.5714285714287,505.47767857142856,4400.5,1242.5714285714287,505.47767857142856,4501,1242.5714285714287,505.47767857142856,4604.8,1242.5714285714287,505.47767857142856,4710,1242.5714285714287,505.47767857142856,4810.4,1242.5714285714287,505.47767857142856,4914.8]","[5604,5604,3131.2,2009.6,463.2,""smooth"",""left"",""left"",""good_move"",11891.5,6287.2,3214.6,8275.2,401.7,""smooth"",""down"",""down"",""good_move"",15383.9,3492,2962,11891.9,530,""smooth"",""down"",""down"",""good_move"",18135.5,2751.4,2295.5,15384.1,455.9,""smooth"",""left"",""left"",""good_move"",20643.3,2507.6,2154.9,18135.7,352.7,""smooth"",""left"",""left"",""good_move"",22892.1,2248.5,1898.5,20643.6,350,""oops"",""down"",""down"",""good_move""]","",""
"3138","","<div style=""width:500px;"">
  <p>What determined the result of this run?</p>
  </div>","100","html-slider-response","15","355521","0.0-5.0-1.1","181","1","2025-07-23 07:36:15","1f75c3e559b7213887762d5229550c2b","41.145.211.168","Mozilla/5.0 (Windows NT 10.0; Win64; x64) AppleWebKit/537.36 (KHTML, like Gecko) Chrome/138.0.0.0 Safari/537.36","WebKit","Chrome","138.0.0.0","Windows","10.0","https://app.prolific.com/","en-US,en;q=0.9","60a50457d02bfc23c02d4717","683dba2a8a9dda3513610c04","688090dead790a237d562ae4","3","0","60a50457d02bfc23c02d4717","3","0","2025-07-23T07:42:12.037Z","","","","","","","","","","","AttribQ","","50","","","","","","","","","","","","","","","","","","","","","","","","","","","","",""
"2014","","<div style=""width:500px;"">
  <p>How much control did you have over the ball?</p>
  </div>","100","html-slider-response","16","357536","0.0-5.0-2.1","181","1","2025-07-23 07:36:15","1f75c3e559b7213887762d5229550c2b","41.145.211.168","Mozilla/5.0 (Windows NT 10.0; Win64; x64) AppleWebKit/537.36 (KHTML, like Gecko) Chrome/138.0.0.0 Safari/537.36","WebKit","Chrome","138.0.0.0","Windows","10.0","https://app.prolific.com/","en-US,en;q=0.9","60a50457d02bfc23c02d4717","683dba2a8a9dda3513610c04","688090dead790a237d562ae4","3","0","60a50457d02bfc23c02d4717","3","0","2025-07-23T07:42:14.052Z","","","","","","","","","","","ControlQ","","50","","","","","","","","","","","","","","","","","","","","","","","","","","","","",""
"7255","","<div style=""width:500px;"">
  <p>How would you describe your current emotional state?</p>
  </div>","14","html-slider-response","17","364792","0.0-5.0-3.1","181","1","2025-07-23 07:36:15","1f75c3e559b7213887762d5229550c2b","41.145.211.168","Mozilla/5.0 (Windows NT 10.0; Win64; x64) AppleWebKit/537.36 (KHTML, like Gecko) Chrome/138.0.0.0 Safari/537.36","WebKit","Chrome","138.0.0.0","Windows","10.0","https://app.prolific.com/","en-US,en;q=0.9","60a50457d02bfc23c02d4717","683dba2a8a9dda3513610c04","688090dead790a237d562ae4","3","0","60a50457d02bfc23c02d4717","3","0","2025-07-23T07:42:21.308Z","","","","","","","","","","","StressQ","","50","","","","","","","","","","","","","","","","","","","","","","","","","","","","",""
"3103","","<div style=""width:500px;"">
  <p>What best describes how you currently feel?</p>
  </div>","80","html-slider-response","18","367897","0.0-5.0-4.1","181","1","2025-07-23 07:36:15","1f75c3e559b7213887762d5229550c2b","41.145.211.168","Mozilla/5.0 (Windows NT 10.0; Win64; x64) AppleWebKit/537.36 (KHTML, like Gecko) Chrome/138.0.0.0 Safari/537.36","WebKit","Chrome","138.0.0.0","Windows","10.0","https://app.prolific.com/","en-US,en;q=0.9","60a50457d02bfc23c02d4717","683dba2a8a9dda3513610c04","688090dead790a237d562ae4","3","0","60a50457d02bfc23c02d4717","3","0","2025-07-23T07:42:24.412Z","","","","","","","","","","","MotivationQ","","50","","","","","","","","","","","","","","","","","","","","","","","","","","","","",""
"","","","","ctl-task-cpt","19","396432","0.0-5.0-0.2","181","1","2025-07-23 07:36:15","1f75c3e559b7213887762d5229550c2b","41.145.211.168","Mozilla/5.0 (Windows NT 10.0; Win64; x64) AppleWebKit/537.36 (KHTML, like Gecko) Chrome/138.0.0.0 Safari/537.36","WebKit","Chrome","138.0.0.0","Windows","10.0","https://app.prolific.com/","en-US,en;q=0.9","60a50457d02bfc23c02d4717","683dba2a8a9dda3513610c04","688090dead790a237d562ae4","3","0","60a50457d02bfc23c02d4717","3","0","2025-07-23T07:42:52.947Z","","","","","","","","","","","","","","win-only","1","g1:NE,g2:SW","0.8","3","0","372737.3","1286.4","6290.5","25518.7","1","4","8","6","2","8","8","13","5","0.09848484848484848","1211.4","3000","685","[""down"",""left""]","{""num_key_presses"":6,""num_perfect"":5,""num_errors"":0,""num_randdir"":1,""num_randdir_good_moves"":1,""num_whilered"":0,""num_whileblue"":0,""num_blue"":1,""num_good_moves"":6}","[416.57142857142856,416.47767857142856,0.1,416.57142857142856,416.47767857142856,104.1,416.57142857142856,416.47767857142856,204.4,416.57142857142856,416.47767857142856,309.9,676.5714285714286,466.47767857142856,412.6,824.5714285714286,481.47767857142856,514.7,603.5714285714286,526.4776785714286,616.1,349.57142857142856,694.4776785714286,719.9,253.57142857142856,759.4776785714286,825.3,157.57142857142856,769.4776785714286,932.7,113.57142857142857,768.4776785714286,1034.5,83.57142857142857,762.4776785714286,1139.1,83.57142857142857,762.4776785714286,1240.6,83.57142857142857,762.4776785714286,1347.3,83.57142857142857,762.4776785714286,1450.2,137.57142857142856,748.4776785714286,1554.1,543.5714285714286,759.4776785714286,1654.7,1191.5714285714287,777.4776785714286,1755.1,1375.5714285714287,760.4776785714286,1860.2,1375.5714285714287,749.4776785714286,1961.2,1375.5714285714287,749.4776785714286,2062,1375.5714285714287,749.4776785714286,2165.2,1375.5714285714287,749.4776785714286,2269.7,1375.5714285714287,749.4776785714286,2370,1375.5714285714287,749.4776785714286,2474.7,1375.5714285714287,749.4776785714286,2581.9,1375.5714285714287,749.4776785714286,2684.5,1375.5714285714287,749.4776785714286,2789.5,1375.5714285714287,749.4776785714286,2890.1,1375.5714285714287,749.4776785714286,2990.4,1375.5714285714287,749.4776785714286,3095.9,1375.5714285714287,749.4776785714286,3196.9,1375.5714285714287,749.4776785714286,3297.3,1375.5714285714287,749.4776785714286,3397.6,1375.5714285714287,749.4776785714286,3497.6,1375.5714285714287,749.4776785714286,3599.6,1375.5714285714287,749.4776785714286,3701.4,1375.5714285714287,749.4776785714286,3804.2,1375.5714285714287,749.4776785714286,3909.8,1375.5714285714287,749.4776785714286,4014,1375.5714285714287,749.4776785714286,4117.4,1375.5714285714287,749.4776785714286,4220.2,1375.5714285714287,749.4776785714286,4320.7,1375.5714285714287,749.4776785714286,4424.3,1375.5714285714287,749.4776785714286,4531.2,1375.5714285714287,749.4776785714286,4634.8,1375.5714285714287,749.4776785714286,4734.8,1375.5714285714287,749.4776785714286,4839.1,1375.5714285714287,749.4776785714286,4939.2]","[1450.2,1450.2,1000,0,450.2,""smooth"",""left"",""left"",""good_move"",4055.4,2604.9,2232.4,1450.5,372.5,""smooth"",""down"",""down"",""good_move"",6635.5,2579.6,2191.2,4055.9,388.4,""smooth"",""down"",""down"",""good_move"",13453.2,6817.5,2600.8,10480.8,371.6,""oops"",""left"",""left"",""good_move"",16826.7,3373.3,2958.4,13453.4,414.9,""smooth"",""down"",""down"",""good_move"",19130.7,2303.7,1928.3,16827,375.4,""smooth"",""left"",""left"",""good_move""]","",""
"3991","","<div style=""width:500px;"">
  <p>What determined the result of this run?</p>
  </div>","100","html-slider-response","20","400424","0.0-5.0-1.2","181","1","2025-07-23 07:36:15","1f75c3e559b7213887762d5229550c2b","41.145.211.168","Mozilla/5.0 (Windows NT 10.0; Win64; x64) AppleWebKit/537.36 (KHTML, like Gecko) Chrome/138.0.0.0 Safari/537.36","WebKit","Chrome","138.0.0.0","Windows","10.0","https://app.prolific.com/","en-US,en;q=0.9","60a50457d02bfc23c02d4717","683dba2a8a9dda3513610c04","688090dead790a237d562ae4","3","0","60a50457d02bfc23c02d4717","3","0","2025-07-23T07:42:56.939Z","","","","","","","","","","","AttribQ","","50","","","","","","","","","","","","","","","","","","","","","","","","","","","","",""
"2607","","<div style=""width:500px;"">
  <p>How much control did you have over the ball?</p>
  </div>","100","html-slider-response","21","403032","0.0-5.0-2.2","181","1","2025-07-23 07:36:15","1f75c3e559b7213887762d5229550c2b","41.145.211.168","Mozilla/5.0 (Windows NT 10.0; Win64; x64) AppleWebKit/537.36 (KHTML, like Gecko) Chrome/138.0.0.0 Safari/537.36","WebKit","Chrome","138.0.0.0","Windows","10.0","https://app.prolific.com/","en-US,en;q=0.9","60a50457d02bfc23c02d4717","683dba2a8a9dda3513610c04","688090dead790a237d562ae4","3","0","60a50457d02bfc23c02d4717","3","0","2025-07-23T07:42:59.547Z","","","","","","","","","","","ControlQ","","50","","","","","","","","","","","","","","","","","","","","","","","","","","","","",""
"3775","","<div style=""width:500px;"">
  <p>How would you describe your current emotional state?</p>
  </div>","88","html-slider-response","22","406809","0.0-5.0-3.2","181","1","2025-07-23 07:36:15","1f75c3e559b7213887762d5229550c2b","41.145.211.168","Mozilla/5.0 (Windows NT 10.0; Win64; x64) AppleWebKit/537.36 (KHTML, like Gecko) Chrome/138.0.0.0 Safari/537.36","WebKit","Chrome","138.0.0.0","Windows","10.0","https://app.prolific.com/","en-US,en;q=0.9","60a50457d02bfc23c02d4717","683dba2a8a9dda3513610c04","688090dead790a237d562ae4","3","0","60a50457d02bfc23c02d4717","3","0","2025-07-23T07:43:03.324Z","","","","","","","","","","","StressQ","","50","","","","","","","","","","","","","","","","","","","","","","","","","","","","",""
"2615","","<div style=""width:500px;"">
  <p>What best describes how you currently feel?</p>
  </div>","81","html-slider-response","23","409425","0.0-5.0-4.2","181","1","2025-07-23 07:36:15","1f75c3e559b7213887762d5229550c2b","41.145.211.168","Mozilla/5.0 (Windows NT 10.0; Win64; x64) AppleWebKit/537.36 (KHTML, like Gecko) Chrome/138.0.0.0 Safari/537.36","WebKit","Chrome","138.0.0.0","Windows","10.0","https://app.prolific.com/","en-US,en;q=0.9","60a50457d02bfc23c02d4717","683dba2a8a9dda3513610c04","688090dead790a237d562ae4","3","0","60a50457d02bfc23c02d4717","3","0","2025-07-23T07:43:05.940Z","","","","","","","","","","","MotivationQ","","50","","","","","","","","","","","","","","","","","","","","","","","","","","","","",""
"","","","","ctl-task-cpt","24","447131","0.0-5.0-0.3","181","1","2025-07-23 07:36:15","1f75c3e559b7213887762d5229550c2b","41.145.211.168","Mozilla/5.0 (Windows NT 10.0; Win64; x64) AppleWebKit/537.36 (KHTML, like Gecko) Chrome/138.0.0.0 Safari/537.36","WebKit","Chrome","138.0.0.0","Windows","10.0","https://app.prolific.com/","en-US,en;q=0.9","60a50457d02bfc23c02d4717","683dba2a8a9dda3513610c04","688090dead790a237d562ae4","3","0","60a50457d02bfc23c02d4717","3","0","2025-07-23T07:43:43.646Z","","","","","","","","","","","","","","win-only","1","g1:NE,g2:SW","0.7","4","0","414266.2","1239","6241","34690.6","1","4","4","6","1","-1","-1","12","13","0.09090909090909091","1790.6","3000","-2755","[""up"",""right""]","{""num_key_presses"":7,""num_perfect"":5,""num_errors"":0,""num_randdir"":2,""num_randdir_good_moves"":0,""num_whilered"":0,""num_whileblue"":0,""num_blue"":2,""num_good_moves"":5}","[414.57142857142856,420.47767857142856,0.1,414.57142857142856,420.47767857142856,101.5,414.57142857142856,420.47767857142856,202.1,414.57142857142856,420.47767857142856,302.6,414.57142857142856,420.47767857142856,406.3,414.57142857142856,420.47767857142856,507.7,414.57142857142856,420.47767857142856,616.3,414.57142857142856,419.47767857142856,722.1,443.57142857142856,392.47767857142856,827.2,562.5714285714286,254.47767857142856,930.3,650.5714285714286,194.47767857142856,1034.2,689.5714285714286,172.47767857142856,1136.4,718.5714285714286,153.47767857142856,1236.5,750.5714285714286,126.47767857142857,1337.7,750.5714285714286,126.47767857142857,1441.6,750.5714285714286,126.47767857142857,1542.6,750.5714285714286,126.47767857142857,1652.8,750.5714285714286,126.47767857142857,1756.6,750.5714285714286,126.47767857142857,1856.8,750.5714285714286,126.47767857142857,1961.1,750.5714285714286,126.47767857142857,2065.7,748.5714285714286,131.47767857142856,2171,747.5714285714286,183.47767857142856,2271.7,779.5714285714286,330.47767857142856,2377.2,845.5714285714286,478.47767857142856,2481.1,914.5714285714286,542.4776785714286,2583,945.5714285714286,548.4776785714286,2687.2,948.5714285714286,548.4776785714286,2791.6,945.5714285714286,541.4776785714286,2899.8,945.5714285714286,541.4776785714286,3002.2,945.5714285714286,541.4776785714286,3107.3,945.5714285714286,541.4776785714286,3211.8,945.5714285714286,541.4776785714286,3315.3,945.5714285714286,541.4776785714286,3420.4,945.5714285714286,541.4776785714286,3522,945.5714285714286,541.4776785714286,3627.5,945.5714285714286,541.4776785714286,3728.2,945.5714285714286,541.4776785714286,3831.3,945.5714285714286,541.4776785714286,3933.3,945.5714285714286,541.4776785714286,4037.5,945.5714285714286,541.4776785714286,4142.8,945.5714285714286,541.4776785714286,4253.5,945.5714285714286,541.4776785714286,4356.2,945.5714285714286,541.4776785714286,4456.7,945.5714285714286,541.4776785714286,4561.6,945.5714285714286,541.4776785714286,4665.4,945.5714285714286,541.4776785714286,4765.4,945.5714285714286,541.4776785714286,4866.7,945.5714285714286,541.4776785714286,4971.7]","[1471.9,1471.8,1000,0.1,471.8,""smooth"",""right"",""right"",""good_move"",4484,3011.7,2325.6,1472.3,686.1,""oops"",""up"",""left"",""bad_move"",7217.2,2732.8,2336.7,4484.4,396.1,""oops"",""right"",""down"",""bad_move"",17213.5,9996,1655.6,15119.8,438.1,""smooth"",""up"",""up"",""good_move"",20201.2,2987.3,2541.7,17213.9,445.6,""smooth"",""up"",""up"",""good_move"",23229,3027.6,2668,20201.4,359.7,""smooth"",""right"",""right"",""good_move"",26000.4,2770.7,2433.5,23229.7,337.2,""smooth"",""right"",""right"",""good_move""]","",""
"3445","","<div style=""width:500px;"">
  <p>What determined the result of this run?</p>
  </div>","13","html-slider-response","25","450577","0.0-5.0-1.3","181","1","2025-07-23 07:36:15","1f75c3e559b7213887762d5229550c2b","41.145.211.168","Mozilla/5.0 (Windows NT 10.0; Win64; x64) AppleWebKit/537.36 (KHTML, like Gecko) Chrome/138.0.0.0 Safari/537.36","WebKit","Chrome","138.0.0.0","Windows","10.0","https://app.prolific.com/","en-US,en;q=0.9","60a50457d02bfc23c02d4717","683dba2a8a9dda3513610c04","688090dead790a237d562ae4","3","0","60a50457d02bfc23c02d4717","3","0","2025-07-23T07:43:47.092Z","","","","","","","","","","","AttribQ","","50","","","","","","","","","","","","","","","","","","","","","","","","","","","","",""
"8070","","<div style=""width:500px;"">
  <p>How much control did you have over the ball?</p>
  </div>","43","html-slider-response","26","458649","0.0-5.0-2.3","181","1","2025-07-23 07:36:15","1f75c3e559b7213887762d5229550c2b","41.145.211.168","Mozilla/5.0 (Windows NT 10.0; Win64; x64) AppleWebKit/537.36 (KHTML, like Gecko) Chrome/138.0.0.0 Safari/537.36","WebKit","Chrome","138.0.0.0","Windows","10.0","https://app.prolific.com/","en-US,en;q=0.9","60a50457d02bfc23c02d4717","683dba2a8a9dda3513610c04","688090dead790a237d562ae4","3","0","60a50457d02bfc23c02d4717","3","0","2025-07-23T07:43:55.164Z","","","","","","","","","","","ControlQ","","50","","","","","","","","","","","","","","","","","","","","","","","","","","","","",""
"4790","","<div style=""width:500px;"">
  <p>How would you describe your current emotional state?</p>
  </div>","100","html-slider-response","27","463441","0.0-5.0-3.3","181","1","2025-07-23 07:36:15","1f75c3e559b7213887762d5229550c2b","41.145.211.168","Mozilla/5.0 (Windows NT 10.0; Win64; x64) AppleWebKit/537.36 (KHTML, like Gecko) Chrome/138.0.0.0 Safari/537.36","WebKit","Chrome","138.0.0.0","Windows","10.0","https://app.prolific.com/","en-US,en;q=0.9","60a50457d02bfc23c02d4717","683dba2a8a9dda3513610c04","688090dead790a237d562ae4","3","0","60a50457d02bfc23c02d4717","3","0","2025-07-23T07:43:59.956Z","","","","","","","","","","","StressQ","","50","","","","","","","","","","","","","","","","","","","","","","","","","","","","",""
"3112","","<div style=""width:500px;"">
  <p>What best describes how you currently feel?</p>
  </div>","77","html-slider-response","28","466554","0.0-5.0-4.3","181","1","2025-07-23 07:36:15","1f75c3e559b7213887762d5229550c2b","41.145.211.168","Mozilla/5.0 (Windows NT 10.0; Win64; x64) AppleWebKit/537.36 (KHTML, like Gecko) Chrome/138.0.0.0 Safari/537.36","WebKit","Chrome","138.0.0.0","Windows","10.0","https://app.prolific.com/","en-US,en;q=0.9","60a50457d02bfc23c02d4717","683dba2a8a9dda3513610c04","688090dead790a237d562ae4","3","0","60a50457d02bfc23c02d4717","3","0","2025-07-23T07:44:03.069Z","","","","","","","","","","","MotivationQ","","50","","","","","","","","","","","","","","","","","","","","","","","","","","","","",""
"","","","","ctl-task-cpt","29","490573","0.0-5.0-0.4","181","1","2025-07-23 07:36:15","1f75c3e559b7213887762d5229550c2b","41.145.211.168","Mozilla/5.0 (Windows NT 10.0; Win64; x64) AppleWebKit/537.36 (KHTML, like Gecko) Chrome/138.0.0.0 Safari/537.36","WebKit","Chrome","138.0.0.0","Windows","10.0","https://app.prolific.com/","en-US,en;q=0.9","60a50457d02bfc23c02d4717","683dba2a8a9dda3513610c04","688090dead790a237d562ae4","3","0","60a50457d02bfc23c02d4717","3","0","2025-07-23T07:44:27.088Z","","","","","","","","","","","","","","win-only","1","g1:NE,g2:SW","0.6","5","0","471394.5","1357.4","6362.6","21001.4","1","4","4","6","1","1","1","13","12","0.09848484848484848","1200.1","3000","1670","[""up"",""right""]","{""num_key_presses"":4,""num_perfect"":4,""num_errors"":0,""num_randdir"":0,""num_randdir_good_moves"":0,""num_whilered"":0,""num_whileblue"":0,""num_blue"":1,""num_good_moves"":4}","[409.57142857142856,421.47767857142856,0.2,409.57142857142856,421.47767857142856,104,409.57142857142856,421.47767857142856,208.5,409.57142857142856,421.47767857142856,308.6,409.57142857142856,421.47767857142856,413.9,419.57142857142856,420.47767857142856,521.4,448.57142857142856,412.47767857142856,621.7,516.5714285714286,354.47767857142856,721.7,627.5714285714286,234.47767857142856,822.6,735.5714285714286,154.47767857142856,923,754.5714285714286,136.47767857142856,1028.1,764.5714285714286,116.47767857142857,1128.9,764.5714285714286,115.47767857142857,1239.3,764.5714285714286,115.47767857142857,1343.8,764.5714285714286,115.47767857142857,1448.5,764.5714285714286,115.47767857142857,1548.8,764.5714285714286,115.47767857142857,1653.9,814.5714285714286,169.47767857142856,1758.5,894.5714285714286,245.47767857142856,1871.9,951.5714285714286,286.47767857142856,1972,957.5714285714286,289.47767857142856,2072.8,957.5714285714286,289.47767857142856,2173.2,957.5714285714286,289.47767857142856,2274.1,957.5714285714286,289.47767857142856,2379,957.5714285714286,289.47767857142856,2488.1,957.5714285714286,289.47767857142856,2593,957.5714285714286,289.47767857142856,2694.1,957.5714285714286,289.47767857142856,2798.3,957.5714285714286,289.47767857142856,2898.4,957.5714285714286,289.47767857142856,3004.8,957.5714285714286,289.47767857142856,3109.5,957.5714285714286,289.47767857142856,3221.5,957.5714285714286,289.47767857142856,3321.5,957.5714285714286,289.47767857142856,3422.3,957.5714285714286,289.47767857142856,3523.9,957.5714285714286,289.47767857142856,3625.1,957.5714285714286,289.47767857142856,3728.4,957.5714285714286,289.47767857142856,3839.3,957.5714285714286,289.47767857142856,3945,957.5714285714286,289.47767857142856,4057.2,957.5714285714286,289.47767857142856,4159,957.5714285714286,289.47767857142856,4264,957.5714285714286,289.47767857142856,4372.4,957.5714285714286,289.47767857142856,4473.9,957.5714285714286,289.47767857142856,4578.8,957.5714285714286,289.47767857142856,4678.8,957.5714285714286,289.47767857142856,4778.8,957.5714285714286,289.47767857142856,4888.3,957.5714285714286,289.47767857142856,4988.5]","[1448.7,1448.7,1000,0,448.7,""smooth"",""up"",""up"",""good_move"",4515.9,3067,2618,1448.9,449,""smooth"",""up"",""up"",""good_move"",7634.7,3118.7,2723.2,4516,395.5,""smooth"",""right"",""right"",""good_move"",14532,6897,2661.7,11467.2,403.1,""smooth"",""right"",""right"",""good_move""]","",""
"3794","","<div style=""width:500px;"">
  <p>What determined the result of this run?</p>
  </div>","100","html-slider-response","30","494369","0.0-5.0-1.4","181","1","2025-07-23 07:36:15","1f75c3e559b7213887762d5229550c2b","41.145.211.168","Mozilla/5.0 (Windows NT 10.0; Win64; x64) AppleWebKit/537.36 (KHTML, like Gecko) Chrome/138.0.0.0 Safari/537.36","WebKit","Chrome","138.0.0.0","Windows","10.0","https://app.prolific.com/","en-US,en;q=0.9","60a50457d02bfc23c02d4717","683dba2a8a9dda3513610c04","688090dead790a237d562ae4","3","0","60a50457d02bfc23c02d4717","3","0","2025-07-23T07:44:30.884Z","","","","","","","","","","","AttribQ","","50","","","","","","","","","","","","","","","","","","","","","","","","","","","","",""
"2150","","<div style=""width:500px;"">
  <p>How much control did you have over the ball?</p>
  </div>","100","html-slider-response","31","496521","0.0-5.0-2.4","181","1","2025-07-23 07:36:15","1f75c3e559b7213887762d5229550c2b","41.145.211.168","Mozilla/5.0 (Windows NT 10.0; Win64; x64) AppleWebKit/537.36 (KHTML, like Gecko) Chrome/138.0.0.0 Safari/537.36","WebKit","Chrome","138.0.0.0","Windows","10.0","https://app.prolific.com/","en-US,en;q=0.9","60a50457d02bfc23c02d4717","683dba2a8a9dda3513610c04","688090dead790a237d562ae4","3","0","60a50457d02bfc23c02d4717","3","0","2025-07-23T07:44:33.036Z","","","","","","","","","","","ControlQ","","50","","","","","","","","","","","","","","","","","","","","","","","","","","","","",""
"2951","","<div style=""width:500px;"">
  <p>How would you describe your current emotional state?</p>
  </div>","100","html-slider-response","32","499472","0.0-5.0-3.4","181","1","2025-07-23 07:36:15","1f75c3e559b7213887762d5229550c2b","41.145.211.168","Mozilla/5.0 (Windows NT 10.0; Win64; x64) AppleWebKit/537.36 (KHTML, like Gecko) Chrome/138.0.0.0 Safari/537.36","WebKit","Chrome","138.0.0.0","Windows","10.0","https://app.prolific.com/","en-US,en;q=0.9","60a50457d02bfc23c02d4717","683dba2a8a9dda3513610c04","688090dead790a237d562ae4","3","0","60a50457d02bfc23c02d4717","3","0","2025-07-23T07:44:35.988Z","","","","","","","","","","","StressQ","","50","","","","","","","","","","","","","","","","","","","","","","","","","","","","",""
"2463","","<div style=""width:500px;"">
  <p>What best describes how you currently feel?</p>
  </div>","81","html-slider-response","33","501936","0.0-5.0-4.4","181","1","2025-07-23 07:36:15","1f75c3e559b7213887762d5229550c2b","41.145.211.168","Mozilla/5.0 (Windows NT 10.0; Win64; x64) AppleWebKit/537.36 (KHTML, like Gecko) Chrome/138.0.0.0 Safari/537.36","WebKit","Chrome","138.0.0.0","Windows","10.0","https://app.prolific.com/","en-US,en;q=0.9","60a50457d02bfc23c02d4717","683dba2a8a9dda3513610c04","688090dead790a237d562ae4","3","0","60a50457d02bfc23c02d4717","3","0","2025-07-23T07:44:38.451Z","","","","","","","","","","","MotivationQ","","50","","","","","","","","","","","","","","","","","","","","","","","","","","","","",""
"","","","","ctl-task-cpt","34","544645","0.0-5.0-0.5","181","1","2025-07-23 07:36:15","1f75c3e559b7213887762d5229550c2b","41.145.211.168","Mozilla/5.0 (Windows NT 10.0; Win64; x64) AppleWebKit/537.36 (KHTML, like Gecko) Chrome/138.0.0.0 Safari/537.36","WebKit","Chrome","138.0.0.0","Windows","10.0","https://app.prolific.com/","en-US,en;q=0.9","60a50457d02bfc23c02d4717","683dba2a8a9dda3513610c04","688090dead790a237d562ae4","3","0","60a50457d02bfc23c02d4717","3","0","2025-07-23T07:45:21.161Z","","","","","","","","","","","","","","win-only","0","g1:NW,g2:SE","0.5","6","0","506776.5","1207.1","6210.9","39705.4","1","4","8","6","1","1","1","14","13","0.10606060606060606","1255.3","3000","370","[""left"",""up""]","{""num_key_presses"":8,""num_perfect"":5,""num_errors"":0,""num_randdir"":3,""num_randdir_good_moves"":1,""num_whilered"":0,""num_whileblue"":0,""num_blue"":3,""num_good_moves"":6}","[407.57142857142856,419.47767857142856,0.2,407.57142857142856,419.47767857142856,108.5,407.57142857142856,419.47767857142856,209.4,407.57142857142856,419.47767857142856,313.6,407.57142857142856,419.47767857142856,417.7,407.57142857142856,414.47767857142856,519.7,412.57142857142856,403.47767857142856,622.2,408.57142857142856,350.47767857142856,725.3,245.57142857142856,162.47767857142856,829.4,217.57142857142856,137.47767857142856,933.8,166.57142857142856,110.47767857142857,1035.1,108.57142857142857,71.47767857142857,1139.8,99.57142857142857,67.47767857142857,1244.1,99.57142857142857,67.47767857142857,1344.3,99.57142857142857,67.47767857142857,1448.9,99.57142857142857,67.47767857142857,1552.9,139.57142857142856,78.47767857142857,1654.2,376.57142857142856,160.47767857142856,1755.7,620.5714285714286,223.47767857142856,1858.8,754.5714285714286,236.47767857142856,1959.5,886.5714285714286,241.47767857142856,2064.9,1071.5714285714287,243.47767857142856,2168.6,1074.5714285714287,243.47767857142856,2269,1074.5714285714287,243.47767857142856,2372.3,1074.5714285714287,243.47767857142856,2475,1074.5714285714287,243.47767857142856,2578.9,1074.5714285714287,243.47767857142856,2679.5,1074.5714285714287,243.47767857142856,2789.9,1074.5714285714287,243.47767857142856,2894,1074.5714285714287,243.47767857142856,2994.3,1074.5714285714287,243.47767857142856,3101,1074.5714285714287,243.47767857142856,3204.4,1074.5714285714287,243.47767857142856,3309.6,1074.5714285714287,243.47767857142856,3413.4,1074.5714285714287,243.47767857142856,3513.6,1074.5714285714287,243.47767857142856,3615.3,1074.5714285714287,243.47767857142856,3723.4,1074.5714285714287,243.47767857142856,3823.5,1074.5714285714287,243.47767857142856,3924.1,1074.5714285714287,243.47767857142856,4024.3,1074.5714285714287,243.47767857142856,4124.3,1074.5714285714287,243.47767857142856,4224.5,1074.5714285714287,243.47767857142856,4329.3,1074.5714285714287,243.47767857142856,4429.4,1074.5714285714287,243.47767857142856,4540.3,1074.5714285714287,243.47767857142856,4644.3,1074.5714285714287,243.47767857142856,4754.2,1074.5714285714287,243.47767857142856,4855,1074.5714285714287,243.47767857142856,4959.8]","[4955,4955,2584.2,2005,365.8,""smooth"",""up"",""up"",""good_move"",8200.5,3245.1,2777.5,4955.4,467.6,""oops"",""up"",""right"",""bad_move"",15483.3,7282.3,2661.4,12421.7,400.2,""oops"",""left"",""down"",""bad_move"",18207.7,2724.1,2286.5,15483.6,437.6,""smooth"",""left"",""left"",""good_move"",20434.2,2225.5,1875.1,18208.7,350.4,""oops"",""left"",""up"",""good_move"",27085.5,6650.9,3016.4,23745.2,323.9,""smooth"",""left"",""left"",""good_move"",30117.3,3031.7,2698.1,27085.6,333.6,""smooth"",""left"",""left"",""good_move"",33394.3,3276.8,2987.8,30117.5,289,""smooth"",""up"",""up"",""good_move""]","",""
"6617","","<div style=""width:500px;"">
  <p>What determined the result of this run?</p>
  </div>","50","html-slider-response","35","551264","0.0-5.0-1.5","181","1","2025-07-23 07:36:15","1f75c3e559b7213887762d5229550c2b","41.145.211.168","Mozilla/5.0 (Windows NT 10.0; Win64; x64) AppleWebKit/537.36 (KHTML, like Gecko) Chrome/138.0.0.0 Safari/537.36","WebKit","Chrome","138.0.0.0","Windows","10.0","https://app.prolific.com/","en-US,en;q=0.9","60a50457d02bfc23c02d4717","683dba2a8a9dda3513610c04","688090dead790a237d562ae4","3","0","60a50457d02bfc23c02d4717","3","0","2025-07-23T07:45:27.779Z","","","","","","","","","","","AttribQ","","50","","","","","","","","","","","","","","","","","","","","","","","","","","","","",""
"5791","","<div style=""width:500px;"">
  <p>How much control did you have over the ball?</p>
  </div>","66","html-slider-response","36","557056","0.0-5.0-2.5","181","1","2025-07-23 07:36:15","1f75c3e559b7213887762d5229550c2b","41.145.211.168","Mozilla/5.0 (Windows NT 10.0; Win64; x64) AppleWebKit/537.36 (KHTML, like Gecko) Chrome/138.0.0.0 Safari/537.36","WebKit","Chrome","138.0.0.0","Windows","10.0","https://app.prolific.com/","en-US,en;q=0.9","60a50457d02bfc23c02d4717","683dba2a8a9dda3513610c04","688090dead790a237d562ae4","3","0","60a50457d02bfc23c02d4717","3","0","2025-07-23T07:45:33.571Z","","","","","","","","","","","ControlQ","","50","","","","","","","","","","","","","","","","","","","","","","","","","","","","",""
"3399","","<div style=""width:500px;"">
  <p>How would you describe your current emotional state?</p>
  </div>","100","html-slider-response","37","560456","0.0-5.0-3.5","181","1","2025-07-23 07:36:15","1f75c3e559b7213887762d5229550c2b","41.145.211.168","Mozilla/5.0 (Windows NT 10.0; Win64; x64) AppleWebKit/537.36 (KHTML, like Gecko) Chrome/138.0.0.0 Safari/537.36","WebKit","Chrome","138.0.0.0","Windows","10.0","https://app.prolific.com/","en-US,en;q=0.9","60a50457d02bfc23c02d4717","683dba2a8a9dda3513610c04","688090dead790a237d562ae4","3","0","60a50457d02bfc23c02d4717","3","0","2025-07-23T07:45:36.971Z","","","","","","","","","","","StressQ","","50","","","","","","","","","","","","","","","","","","","","","","","","","","","","",""
"2695","","<div style=""width:500px;"">
  <p>What best describes how you currently feel?</p>
  </div>","87","html-slider-response","38","563152","0.0-5.0-4.5","181","1","2025-07-23 07:36:15","1f75c3e559b7213887762d5229550c2b","41.145.211.168","Mozilla/5.0 (Windows NT 10.0; Win64; x64) AppleWebKit/537.36 (KHTML, like Gecko) Chrome/138.0.0.0 Safari/537.36","WebKit","Chrome","138.0.0.0","Windows","10.0","https://app.prolific.com/","en-US,en;q=0.9","60a50457d02bfc23c02d4717","683dba2a8a9dda3513610c04","688090dead790a237d562ae4","3","0","60a50457d02bfc23c02d4717","3","0","2025-07-23T07:45:39.667Z","","","","","","","","","","","MotivationQ","","50","","","","","","","","","","","","","","","","","","","","","","","","","","","","",""
"","","","","ctl-task-cpt","39","617330","0.0-5.0-0.6","181","1","2025-07-23 07:36:15","1f75c3e559b7213887762d5229550c2b","41.145.211.168","Mozilla/5.0 (Windows NT 10.0; Win64; x64) AppleWebKit/537.36 (KHTML, like Gecko) Chrome/138.0.0.0 Safari/537.36","WebKit","Chrome","138.0.0.0","Windows","10.0","https://app.prolific.com/","en-US,en;q=0.9","60a50457d02bfc23c02d4717","683dba2a8a9dda3513610c04","688090dead790a237d562ae4","3","0","60a50457d02bfc23c02d4717","3","0","2025-07-23T07:46:33.845Z","","","","","","","","","","","","","","win-only","1","g1:NE,g2:SW","0.4","7","0","567992.8","1014.6","6015.5","51158.2","1","4","8","6","1","-1","-2","12","14","0.09090909090909091","1231.7","3000","-2820","[""up"",""right""]","{""num_key_presses"":10,""num_perfect"":3,""num_errors"":1,""num_randdir"":6,""num_randdir_good_moves"":2,""num_whilered"":0,""num_whileblue"":1,""num_blue"":5,""num_good_moves"":5}","[422.57142857142856,410.47767857142856,0.2,422.57142857142856,410.47767857142856,101.7,422.57142857142856,410.47767857142856,217.2,422.57142857142856,410.47767857142856,317.7,422.57142857142856,410.47767857142856,421.3,422.57142857142856,410.47767857142856,525.8,422.57142857142856,410.47767857142856,625.8,610.5714285714286,203.47767857142856,726,650.5714285714286,124.47767857142857,826.5,676.5714285714286,86.47767857142857,927.2,712.5714285714286,72.47767857142857,1027.9,757.5714285714286,69.47767857142857,1131.2,769.5714285714286,69.47767857142857,1240.9,770.5714285714286,69.47767857142857,1341.6,770.5714285714286,69.47767857142857,1441.7,770.5714285714286,69.47767857142857,1546.8,770.5714285714286,69.47767857142857,1651.9,999.5714285714286,211.47767857142856,1767.9,1026.5714285714287,276.47767857142856,1869.2,1038.5714285714287,308.47767857142856,1971.4,1040.5714285714287,310.47767857142856,2072.1,1040.5714285714287,310.47767857142856,2177,1040.5714285714287,310.47767857142856,2280.7,1040.5714285714287,310.47767857142856,2381.4,1040.5714285714287,310.47767857142856,2485.7,1040.5714285714287,310.47767857142856,2586.4,1040.5714285714287,310.47767857142856,2702.1,1040.5714285714287,310.47767857142856,2802.3,1040.5714285714287,310.47767857142856,2907.5,1040.5714285714287,310.47767857142856,3012.7,1040.5714285714287,310.47767857142856,3115.7,1040.5714285714287,310.47767857142856,3216.5,1040.5714285714287,310.47767857142856,3322,1040.5714285714287,310.47767857142856,3436,1040.5714285714287,310.47767857142856,3536.6,1040.5714285714287,310.47767857142856,3641,1040.5714285714287,310.47767857142856,3741.9,1040.5714285714287,310.47767857142856,3846,1040.5714285714287,310.47767857142856,3951,1040.5714285714287,310.47767857142856,4051.3,1040.5714285714287,310.47767857142856,4152.2,1040.5714285714287,310.47767857142856,4267.2,1040.5714285714287,310.47767857142856,4372.1,1040.5714285714287,310.47767857142856,4476.6,1040.5714285714287,310.47767857142856,4581,1040.5714285714287,310.47767857142856,4681,1040.5714285714287,310.47767857142856,4781.6,1040.5714285714287,310.47767857142856,4881.7,1040.5714285714287,310.47767857142856,4981.9]","[9156.6,9156.6,2932.2,5831.2,393.2,""smooth"",""up"",""up"",""good_move"",16065.4,6908.5,3313.3,12381.2,370.9,""smooth"",""right"",""right"",""good_move"",18904.1,2838.5,2375.2,16065.6,463.3,""oops"",""up"",""right"",""good_move"",25546.4,6641.9,2075.1,22988.6,482.7,""oops"",""right"",""down"",""bad_move"",28469.1,2922.5,2455.8,25546.6,466.7,""oops"",""up"",""down"",""bad_move"",30897,2427.6,2024.3,28469.4,403.3,""smooth"",""up"",""up"",""good_move"",33889,2991.7,2710.4,30897.4,281.3,""oops"",""up"",""up"",""good_move"",36626.2,2737,2449.4,33889.2,287.6,""oops"",""up"",""down"",""bad_move"",39923.6,3297.2,3010.5,36626.4,286.7,""oops"",""up"",""down"",""bad_move"",42405.5,2481.7,2139.4,39923.8,342.3,""while_blue"",""up"",""down"",""bad_move""]","",""
"2510","","<div style=""width:500px;"">
  <p>What determined the result of this run?</p>
  </div>","0","html-slider-response","40","619842","0.0-5.0-1.6","181","1","2025-07-23 07:36:15","1f75c3e559b7213887762d5229550c2b","41.145.211.168","Mozilla/5.0 (Windows NT 10.0; Win64; x64) AppleWebKit/537.36 (KHTML, like Gecko) Chrome/138.0.0.0 Safari/537.36","WebKit","Chrome","138.0.0.0","Windows","10.0","https://app.prolific.com/","en-US,en;q=0.9","60a50457d02bfc23c02d4717","683dba2a8a9dda3513610c04","688090dead790a237d562ae4","3","0","60a50457d02bfc23c02d4717","3","0","2025-07-23T07:46:36.357Z","","","","","","","","","","","AttribQ","","50","","","","","","","","","","","","","","","","","","","","","","","","","","","","",""
"3236","","<div style=""width:500px;"">
  <p>How much control did you have over the ball?</p>
  </div>","7","html-slider-response","41","623080","0.0-5.0-2.6","181","1","2025-07-23 07:36:15","1f75c3e559b7213887762d5229550c2b","41.145.211.168","Mozilla/5.0 (Windows NT 10.0; Win64; x64) AppleWebKit/537.36 (KHTML, like Gecko) Chrome/138.0.0.0 Safari/537.36","WebKit","Chrome","138.0.0.0","Windows","10.0","https://app.prolific.com/","en-US,en;q=0.9","60a50457d02bfc23c02d4717","683dba2a8a9dda3513610c04","688090dead790a237d562ae4","3","0","60a50457d02bfc23c02d4717","3","0","2025-07-23T07:46:39.595Z","","","","","","","","","","","ControlQ","","50","","","","","","","","","","","","","","","","","","","","","","","","","","","","",""
"2767","","<div style=""width:500px;"">
  <p>How would you describe your current emotional state?</p>
  </div>","100","html-slider-response","42","625848","0.0-5.0-3.6","181","1","2025-07-23 07:36:15","1f75c3e559b7213887762d5229550c2b","41.145.211.168","Mozilla/5.0 (Windows NT 10.0; Win64; x64) AppleWebKit/537.36 (KHTML, like Gecko) Chrome/138.0.0.0 Safari/537.36","WebKit","Chrome","138.0.0.0","Windows","10.0","https://app.prolific.com/","en-US,en;q=0.9","60a50457d02bfc23c02d4717","683dba2a8a9dda3513610c04","688090dead790a237d562ae4","3","0","60a50457d02bfc23c02d4717","3","0","2025-07-23T07:46:42.363Z","","","","","","","","","","","StressQ","","50","","","","","","","","","","","","","","","","","","","","","","","","","","","","",""
"3111","","<div style=""width:500px;"">
  <p>What best describes how you currently feel?</p>
  </div>","88","html-slider-response","43","628960","0.0-5.0-4.6","181","1","2025-07-23 07:36:15","1f75c3e559b7213887762d5229550c2b","41.145.211.168","Mozilla/5.0 (Windows NT 10.0; Win64; x64) AppleWebKit/537.36 (KHTML, like Gecko) Chrome/138.0.0.0 Safari/537.36","WebKit","Chrome","138.0.0.0","Windows","10.0","https://app.prolific.com/","en-US,en;q=0.9","60a50457d02bfc23c02d4717","683dba2a8a9dda3513610c04","688090dead790a237d562ae4","3","0","60a50457d02bfc23c02d4717","3","0","2025-07-23T07:46:45.475Z","","","","","","","","","","","MotivationQ","","50","","","","","","","","","","","","","","","","","","","","","","","","","","","","",""
"","","","","ctl-task-cpt","44","679003","0.0-5.0-0.7","181","1","2025-07-23 07:36:15","1f75c3e559b7213887762d5229550c2b","41.145.211.168","Mozilla/5.0 (Windows NT 10.0; Win64; x64) AppleWebKit/537.36 (KHTML, like Gecko) Chrome/138.0.0.0 Safari/537.36","WebKit","Chrome","138.0.0.0","Windows","10.0","https://app.prolific.com/","en-US,en;q=0.9","60a50457d02bfc23c02d4717","683dba2a8a9dda3513610c04","688090dead790a237d562ae4","3","0","60a50457d02bfc23c02d4717","3","0","2025-07-23T07:47:35.518Z","","","","","","","","","","","","","","win-only","3","g1:SW,g2:NE","0.3","8","0","633800.4","1270.5","6275.8","47020.5","1","4","4","6","1","-1","-1","11","12","0.08333333333333333","1847.9","3000","-2110","[""down"",""left""]","{""num_key_presses"":11,""num_perfect"":4,""num_errors"":0,""num_randdir"":7,""num_randdir_good_moves"":3,""num_whilered"":0,""num_whileblue"":0,""num_blue"":2,""num_good_moves"":7}","[418.57142857142856,421.47767857142856,0.2,418.57142857142856,421.47767857142856,110.9,418.57142857142856,421.47767857142856,212.3,418.57142857142856,421.47767857142856,315.4,444.57142857142856,407.47767857142856,420.2,499.57142857142856,309.47767857142856,521,577.5714285714286,210.47767857142856,628.8,762.5714285714286,128.47767857142856,730.8,835.5714285714286,112.47767857142857,835.2,837.5714285714286,112.47767857142857,936.8,837.5714285714286,112.47767857142857,1046.2,642.5714285714286,272.47767857142856,1151.3,296.57142857142856,555.4776785714286,1251.4,218.57142857142856,671.4776785714286,1355.9,159.57142857142856,747.4776785714286,1462.4,154.57142857142856,757.4776785714286,1565,135.57142857142856,764.4776785714286,1667,102.57142857142857,763.4776785714286,1770.4,100.57142857142857,762.4776785714286,1870.5,100.57142857142857,762.4776785714286,1972.7,101.57142857142857,762.4776785714286,2075.4,101.57142857142857,762.4776785714286,2187.5,102.57142857142857,761.4776785714286,2296.8,229.57142857142856,748.4776785714286,2400,513.5714285714286,670.4776785714286,2500.8,712.5714285714286,618.4776785714286,2605.6,892.5714285714286,599.4776785714286,2706.3,957.5714285714286,589.4776785714286,2809.5,957.5714285714286,589.4776785714286,2916.2,957.5714285714286,589.4776785714286,3020.8,957.5714285714286,589.4776785714286,3133.1,957.5714285714286,589.4776785714286,3234.9,957.5714285714286,589.4776785714286,3335.5,957.5714285714286,589.4776785714286,3440.5,957.5714285714286,589.4776785714286,3553.9,957.5714285714286,589.4776785714286,3656.4,957.5714285714286,589.4776785714286,3760.2,957.5714285714286,589.4776785714286,3861.5,957.5714285714286,589.4776785714286,3968.5,957.5714285714286,589.4776785714286,4070.3,957.5714285714286,589.4776785714286,4170.5,957.5714285714286,589.4776785714286,4275.4,957.5714285714286,589.4776785714286,4380.6,957.5714285714286,589.4776785714286,4480.7,957.5714285714286,589.4776785714286,4581.7,957.5714285714286,589.4776785714286,4685.3,957.5714285714286,589.4776785714286,4786.2,957.5714285714286,589.4776785714286,4890.3,957.5714285714286,589.4776785714286,4990.7]","[1438.2,1438.2,1000,0,438.2,""smooth"",""down"",""down"",""good_move"",4695.1,3256.6,2879.5,1438.6,377.1,""smooth"",""left"",""left"",""good_move"",7098.2,2402.8,1996.7,4695.4,406.1,""oops"",""left"",""down"",""good_move"",10198.4,3100.1,2739.4,7098.3,360.7,""oops"",""left"",""right"",""bad_move"",13210.5,3011.8,2646.3,10198.7,365.5,""smooth"",""left"",""left"",""good_move"",15818.9,2608.3,2258.1,13210.6,350.2,""oops"",""left"",""right"",""bad_move"",18465,2645.8,2294.2,15819.2,351.6,""oops"",""left"",""left"",""good_move"",24495.8,6030.5,1921.8,22196.6,377.4,""oops"",""left"",""up"",""bad_move"",31783.9,7287.9,3027.6,28300.4,455.9,""oops"",""left"",""down"",""good_move"",34654.4,2870.3,2378.6,31784.1,491.7,""oops"",""left"",""right"",""bad_move"",37864.2,3209.4,2847.4,34654.8,362,""smooth"",""left"",""left"",""good_move""]","",""
"2157","","<div style=""width:500px;"">
  <p>What determined the result of this run?</p>
  </div>","0","html-slider-response","45","681161","0.0-5.0-1.7","181","1","2025-07-23 07:36:15","1f75c3e559b7213887762d5229550c2b","41.145.211.168","Mozilla/5.0 (Windows NT 10.0; Win64; x64) AppleWebKit/537.36 (KHTML, like Gecko) Chrome/138.0.0.0 Safari/537.36","WebKit","Chrome","138.0.0.0","Windows","10.0","https://app.prolific.com/","en-US,en;q=0.9","60a50457d02bfc23c02d4717","683dba2a8a9dda3513610c04","688090dead790a237d562ae4","3","0","60a50457d02bfc23c02d4717","3","0","2025-07-23T07:47:37.676Z","","","","","","","","","","","AttribQ","","50","","","","","","","","","","","","","","","","","","","","","","","","","","","","",""
"1933","","<div style=""width:500px;"">
  <p>How much control did you have over the ball?</p>
  </div>","5","html-slider-response","46","683096","0.0-5.0-2.7","181","1","2025-07-23 07:36:15","1f75c3e559b7213887762d5229550c2b","41.145.211.168","Mozilla/5.0 (Windows NT 10.0; Win64; x64) AppleWebKit/537.36 (KHTML, like Gecko) Chrome/138.0.0.0 Safari/537.36","WebKit","Chrome","138.0.0.0","Windows","10.0","https://app.prolific.com/","en-US,en;q=0.9","60a50457d02bfc23c02d4717","683dba2a8a9dda3513610c04","688090dead790a237d562ae4","3","0","60a50457d02bfc23c02d4717","3","0","2025-07-23T07:47:39.611Z","","","","","","","","","","","ControlQ","","50","","","","","","","","","","","","","","","","","","","","","","","","","","","","",""
"3079","","<div style=""width:500px;"">
  <p>How would you describe your current emotional state?</p>
  </div>","100","html-slider-response","47","686176","0.0-5.0-3.7","181","1","2025-07-23 07:36:15","1f75c3e559b7213887762d5229550c2b","41.145.211.168","Mozilla/5.0 (Windows NT 10.0; Win64; x64) AppleWebKit/537.36 (KHTML, like Gecko) Chrome/138.0.0.0 Safari/537.36","WebKit","Chrome","138.0.0.0","Windows","10.0","https://app.prolific.com/","en-US,en;q=0.9","60a50457d02bfc23c02d4717","683dba2a8a9dda3513610c04","688090dead790a237d562ae4","3","0","60a50457d02bfc23c02d4717","3","0","2025-07-23T07:47:42.691Z","","","","","","","","","","","StressQ","","50","","","","","","","","","","","","","","","","","","","","","","","","","","","","",""
"2039","","<div style=""width:500px;"">
  <p>What best describes how you currently feel?</p>
  </div>","81","html-slider-response","48","688216","0.0-5.0-4.7","181","1","2025-07-23 07:36:15","1f75c3e559b7213887762d5229550c2b","41.145.211.168","Mozilla/5.0 (Windows NT 10.0; Win64; x64) AppleWebKit/537.36 (KHTML, like Gecko) Chrome/138.0.0.0 Safari/537.36","WebKit","Chrome","138.0.0.0","Windows","10.0","https://app.prolific.com/","en-US,en;q=0.9","60a50457d02bfc23c02d4717","683dba2a8a9dda3513610c04","688090dead790a237d562ae4","3","0","60a50457d02bfc23c02d4717","3","0","2025-07-23T07:47:44.731Z","","","","","","","","","","","MotivationQ","","50","","","","","","","","","","","","","","","","","","","","","","","","","","","","",""
"","","","","ctl-task-cpt","49","737071","0.0-5.0-0.8","181","1","2025-07-23 07:36:15","1f75c3e559b7213887762d5229550c2b","41.145.211.168","Mozilla/5.0 (Windows NT 10.0; Win64; x64) AppleWebKit/537.36 (KHTML, like Gecko) Chrome/138.0.0.0 Safari/537.36","WebKit","Chrome","138.0.0.0","Windows","10.0","https://app.prolific.com/","en-US,en;q=0.9","60a50457d02bfc23c02d4717","683dba2a8a9dda3513610c04","688090dead790a237d562ae4","3","0","60a50457d02bfc23c02d4717","3","0","2025-07-23T07:48:33.586Z","","","","","","","","","","","","","","win-only","0","g1:NW,g2:SE","0.2","9","0","693057","942.7","5949.4","45845.1","1","4","4","6","1","-1","-1","10","11","0.07575757575757576","1352.1","3000","-2415","[""left"",""up""]","{""num_key_presses"":8,""num_perfect"":2,""num_errors"":0,""num_randdir"":6,""num_randdir_good_moves"":1,""num_whilered"":0,""num_whileblue"":0,""num_blue"":4,""num_good_moves"":3}","[417.57142857142856,416.47767857142856,0.2,417.57142857142856,416.47767857142856,113.9,417.57142857142856,416.47767857142856,216.3,417.57142857142856,416.47767857142856,318.4,417.57142857142856,416.47767857142856,421,417.57142857142856,416.47767857142856,522.4,419.57142857142856,417.47767857142856,622.6,437.57142857142856,425.47767857142856,723.5,402.57142857142856,316.47767857142856,826.1,208.57142857142856,113.47767857142857,929.7,188.57142857142856,101.47767857142857,1034.7,158.57142857142856,95.47767857142857,1136.7,129.57142857142856,88.47767857142857,1238.2,119.57142857142857,85.47767857142857,1339.7,119.57142857142857,85.47767857142857,1442.7,119.57142857142857,85.47767857142857,1543.5,119.57142857142857,85.47767857142857,1657.7,191.57142857142856,88.47767857142857,1757.9,458.57142857142856,89.47767857142857,1869.3,588.5714285714286,93.47767857142857,1973.9,732.5714285714286,97.47767857142857,2086.9,858.5714285714286,99.47767857142857,2187.5,922.5714285714286,101.47767857142857,2288.5,929.5714285714286,101.47767857142857,2388.5,929.5714285714286,101.47767857142857,2488.5,929.5714285714286,101.47767857142857,2592.6,929.5714285714286,101.47767857142857,2692.9,934.5714285714286,98.47767857142857,2793.3,938.5714285714286,95.47767857142857,2893.4,938.5714285714286,95.47767857142857,2993.4,938.5714285714286,95.47767857142857,3098.5,938.5714285714286,95.47767857142857,3203.7,938.5714285714286,95.47767857142857,3307.5,938.5714285714286,95.47767857142857,3409.1,938.5714285714286,95.47767857142857,3513.6,938.5714285714286,95.47767857142857,3623.5,938.5714285714286,95.47767857142857,3723.6,938.5714285714286,95.47767857142857,3828.1,938.5714285714286,95.47767857142857,3932.6,938.5714285714286,95.47767857142857,4034.1,938.5714285714286,95.47767857142857,4134.2,938.5714285714286,95.47767857142857,4237.9,938.5714285714286,95.47767857142857,4342.6,938.5714285714286,95.47767857142857,4443.6,938.5714285714286,95.47767857142857,4555.1,938.5714285714286,95.47767857142857,4658.3,938.5714285714286,95.47767857142857,4758.4,938.5714285714286,95.47767857142857,4859.4,938.5714285714286,95.47767857142857,4974.4]","[2225.9,2225.9,1000,0,1225.9,""oops"",""up"",""right"",""bad_move"",17142.9,14916.7,2922.8,13851.5,368.6,""oops"",""left"",""down"",""bad_move"",20538.5,3395.3,3001.6,17143.2,393.7,""oops"",""up"",""right"",""bad_move"",23073.8,2534.8,2205.2,20539.1,329.6,""oops"",""left"",""right"",""bad_move"",26003.1,2928.9,2575.9,23074.2,353,""oops"",""left"",""down"",""bad_move"",28947.3,2943.9,2631.6,26003.4,312.3,""oops"",""left"",""up"",""good_move"",31299.2,2351.7,2000.9,28947.5,350.8,""smooth"",""left"",""left"",""good_move"",37708,6408.5,3018,34346.8,343.2,""smooth"",""left"",""left"",""good_move""]","",""
"2375","","<div style=""width:500px;"">
  <p>What determined the result of this run?</p>
  </div>","0","html-slider-response","50","739448","0.0-5.0-1.8","181","1","2025-07-23 07:36:15","1f75c3e559b7213887762d5229550c2b","41.145.211.168","Mozilla/5.0 (Windows NT 10.0; Win64; x64) AppleWebKit/537.36 (KHTML, like Gecko) Chrome/138.0.0.0 Safari/537.36","WebKit","Chrome","138.0.0.0","Windows","10.0","https://app.prolific.com/","en-US,en;q=0.9","60a50457d02bfc23c02d4717","683dba2a8a9dda3513610c04","688090dead790a237d562ae4","3","0","60a50457d02bfc23c02d4717","3","0","2025-07-23T07:48:35.963Z","","","","","","","","","","","AttribQ","","50","","","","","","","","","","","","","","","","","","","","","","","","","","","","",""
"2591","","<div style=""width:500px;"">
  <p>How much control did you have over the ball?</p>
  </div>","3","html-slider-response","51","742041","0.0-5.0-2.8","181","1","2025-07-23 07:36:15","1f75c3e559b7213887762d5229550c2b","41.145.211.168","Mozilla/5.0 (Windows NT 10.0; Win64; x64) AppleWebKit/537.36 (KHTML, like Gecko) Chrome/138.0.0.0 Safari/537.36","WebKit","Chrome","138.0.0.0","Windows","10.0","https://app.prolific.com/","en-US,en;q=0.9","60a50457d02bfc23c02d4717","683dba2a8a9dda3513610c04","688090dead790a237d562ae4","3","0","60a50457d02bfc23c02d4717","3","0","2025-07-23T07:48:38.556Z","","","","","","","","","","","ControlQ","","50","","","","","","","","","","","","","","","","","","","","","","","","","","","","",""
"7869","","<div style=""width:500px;"">
  <p>How would you describe your current emotional state?</p>
  </div>","100","html-slider-response","52","749912","0.0-5.0-3.8","181","1","2025-07-23 07:36:15","1f75c3e559b7213887762d5229550c2b","41.145.211.168","Mozilla/5.0 (Windows NT 10.0; Win64; x64) AppleWebKit/537.36 (KHTML, like Gecko) Chrome/138.0.0.0 Safari/537.36","WebKit","Chrome","138.0.0.0","Windows","10.0","https://app.prolific.com/","en-US,en;q=0.9","60a50457d02bfc23c02d4717","683dba2a8a9dda3513610c04","688090dead790a237d562ae4","3","0","60a50457d02bfc23c02d4717","3","0","2025-07-23T07:48:46.427Z","","","","","","","","","","","StressQ","","50","","","","","","","","","","","","","","","","","","","","","","","","","","","","",""
"2663","","<div style=""width:500px;"">
  <p>What best describes how you currently feel?</p>
  </div>","88","html-slider-response","53","752577","0.0-5.0-4.8","181","1","2025-07-23 07:36:15","1f75c3e559b7213887762d5229550c2b","41.145.211.168","Mozilla/5.0 (Windows NT 10.0; Win64; x64) AppleWebKit/537.36 (KHTML, like Gecko) Chrome/138.0.0.0 Safari/537.36","WebKit","Chrome","138.0.0.0","Windows","10.0","https://app.prolific.com/","en-US,en;q=0.9","60a50457d02bfc23c02d4717","683dba2a8a9dda3513610c04","688090dead790a237d562ae4","3","0","60a50457d02bfc23c02d4717","3","0","2025-07-23T07:48:49.092Z","","","","","","","","","","","MotivationQ","","50","","","","","","","","","","","","","","","","","","","","","","","","","","","","",""
"","","","","ctl-task-cpt","54","788752","0.0-5.0-0.9","181","1","2025-07-23 07:36:15","1f75c3e559b7213887762d5229550c2b","41.145.211.168","Mozilla/5.0 (Windows NT 10.0; Win64; x64) AppleWebKit/537.36 (KHTML, like Gecko) Chrome/138.0.0.0 Safari/537.36","WebKit","Chrome","138.0.0.0","Windows","10.0","https://app.prolific.com/","en-US,en;q=0.9","60a50457d02bfc23c02d4717","683dba2a8a9dda3513610c04","688090dead790a237d562ae4","3","0","60a50457d02bfc23c02d4717","3","0","2025-07-23T07:49:25.267Z","","","","","","","","","","","","","","win-only","1","g1:NE,g2:SW","0.4","10","0","757418.9","1148.9","6153.2","33155","1","4","8","6","1","1","1","11","10","0.08333333333333333","1200.1","3000","265","[""up"",""right""]","{""num_key_presses"":10,""num_perfect"":4,""num_errors"":0,""num_randdir"":6,""num_randdir_good_moves"":4,""num_whilered"":0,""num_whileblue"":0,""num_blue"":0,""num_good_moves"":7}","[416.57142857142856,419.47767857142856,0.3,416.57142857142856,419.47767857142856,103.1,416.57142857142856,419.47767857142856,207.2,416.57142857142856,419.47767857142856,314.1,503.57142857142856,400.47767857142856,414.9,729.5714285714286,218.47767857142856,515.4,742.5714285714286,148.47767857142856,620.6,657.5714285714286,162.47767857142856,721.6,704.5714285714286,147.47767857142856,823.2,814.5714285714286,94.47767857142857,928.6,823.5714285714286,85.47767857142857,1033,823.5714285714286,85.47767857142857,1136.6,823.5714285714286,85.47767857142857,1241.2,823.5714285714286,85.47767857142857,1341.7,823.5714285714286,85.47767857142857,1443.5,906.5714285714286,88.47767857142857,1545.9,993.5714285714286,94.47767857142857,1649,1083.5714285714287,103.47767857142857,1751.8,1135.5714285714287,108.47767857142857,1857.7,1136.5714285714287,108.47767857142857,1961.2,1130.5714285714287,105.47767857142857,2063.2,1130.5714285714287,105.47767857142857,2164,1130.5714285714287,105.47767857142857,2267.7,1130.5714285714287,105.47767857142857,2371.6,1130.5714285714287,105.47767857142857,2487.2,1130.5714285714287,105.47767857142857,2587.3,1130.5714285714287,105.47767857142857,2702.5,1130.5714285714287,105.47767857142857,2802.5,1130.5714285714287,105.47767857142857,2904.2,1130.5714285714287,105.47767857142857,3006.3,1130.5714285714287,105.47767857142857,3107,1130.5714285714287,105.47767857142857,3207,1130.5714285714287,105.47767857142857,3307.1,1130.5714285714287,105.47767857142857,3411.9,1130.5714285714287,105.47767857142857,3513.4,1130.5714285714287,105.47767857142857,3615.2,1130.5714285714287,105.47767857142857,3716.7,1130.5714285714287,105.47767857142857,3817.2,1130.5714285714287,105.47767857142857,3922.5,1130.5714285714287,105.47767857142857,4023.5,1130.5714285714287,105.47767857142857,4140.7,1130.5714285714287,105.47767857142857,4241.4,1130.5714285714287,105.47767857142857,4341.5,1130.5714285714287,105.47767857142857,4441.6,1130.5714285714287,105.47767857142857,4542.5,1130.5714285714287,105.47767857142857,4642.7,1130.5714285714287,105.47767857142857,4746.5,1130.5714285714287,105.47767857142857,4846.9,1130.5714285714287,105.47767857142857,4947.7]","[1406.3,1406.3,1000,0,406.3,""oops"",""up"",""down"",""bad_move"",3791.8,2385.1,2057.9,1406.7,327.2,""smooth"",""down"",""down"",""bad_move"",6362,2570,2250.7,3792,319.3,""oops"",""right"",""up"",""good_move"",8848.7,2486.4,2121,6362.3,365.4,""smooth"",""right"",""right"",""good_move"",11992,3142.9,2803.1,8849.2,339.7,""smooth"",""up"",""up"",""good_move"",15184.4,3192.1,2729,11992.3,463.1,""oops"",""up"",""down"",""bad_move"",17962.5,2777.4,2383.6,15185.1,393.8,""oops"",""up"",""up"",""good_move"",21547.9,3585.2,3289.2,17962.7,296,""smooth"",""up"",""up"",""good_move"",23859.7,2311.6,2009.9,21548.1,301.7,""oops"",""up"",""up"",""good_move"",26893,3033,2735.3,23860,297.7,""oops"",""right"",""right"",""good_move""]","",""
"3959","","<div style=""width:500px;"">
  <p>What determined the result of this run?</p>
  </div>","43","html-slider-response","55","792712","0.0-5.0-1.9","181","1","2025-07-23 07:36:15","1f75c3e559b7213887762d5229550c2b","41.145.211.168","Mozilla/5.0 (Windows NT 10.0; Win64; x64) AppleWebKit/537.36 (KHTML, like Gecko) Chrome/138.0.0.0 Safari/537.36","WebKit","Chrome","138.0.0.0","Windows","10.0","https://app.prolific.com/","en-US,en;q=0.9","60a50457d02bfc23c02d4717","683dba2a8a9dda3513610c04","688090dead790a237d562ae4","3","0","60a50457d02bfc23c02d4717","3","0","2025-07-23T07:49:29.227Z","","","","","","","","","","","AttribQ","","50","","","","","","","","","","","","","","","","","","","","","","","","","","","","",""
"2232","","<div style=""width:500px;"">
  <p>How much control did you have over the ball?</p>
  </div>","42","html-slider-response","56","794945","0.0-5.0-2.9","181","1","2025-07-23 07:36:15","1f75c3e559b7213887762d5229550c2b","41.145.211.168","Mozilla/5.0 (Windows NT 10.0; Win64; x64) AppleWebKit/537.36 (KHTML, like Gecko) Chrome/138.0.0.0 Safari/537.36","WebKit","Chrome","138.0.0.0","Windows","10.0","https://app.prolific.com/","en-US,en;q=0.9","60a50457d02bfc23c02d4717","683dba2a8a9dda3513610c04","688090dead790a237d562ae4","3","0","60a50457d02bfc23c02d4717","3","0","2025-07-23T07:49:31.460Z","","","","","","","","","","","ControlQ","","50","","","","","","","","","","","","","","","","","","","","","","","","","","","","",""
"3005","","<div style=""width:500px;"">
  <p>How would you describe your current emotional state?</p>
  </div>","100","html-slider-response","57","797952","0.0-5.0-3.9","181","1","2025-07-23 07:36:15","1f75c3e559b7213887762d5229550c2b","41.145.211.168","Mozilla/5.0 (Windows NT 10.0; Win64; x64) AppleWebKit/537.36 (KHTML, like Gecko) Chrome/138.0.0.0 Safari/537.36","WebKit","Chrome","138.0.0.0","Windows","10.0","https://app.prolific.com/","en-US,en;q=0.9","60a50457d02bfc23c02d4717","683dba2a8a9dda3513610c04","688090dead790a237d562ae4","3","0","60a50457d02bfc23c02d4717","3","0","2025-07-23T07:49:34.467Z","","","","","","","","","","","StressQ","","50","","","","","","","","","","","","","","","","","","","","","","","","","","","","",""
"2094","","<div style=""width:500px;"">
  <p>What best describes how you currently feel?</p>
  </div>","82","html-slider-response","58","800047","0.0-5.0-4.9","181","1","2025-07-23 07:36:15","1f75c3e559b7213887762d5229550c2b","41.145.211.168","Mozilla/5.0 (Windows NT 10.0; Win64; x64) AppleWebKit/537.36 (KHTML, like Gecko) Chrome/138.0.0.0 Safari/537.36","WebKit","Chrome","138.0.0.0","Windows","10.0","https://app.prolific.com/","en-US,en;q=0.9","60a50457d02bfc23c02d4717","683dba2a8a9dda3513610c04","688090dead790a237d562ae4","3","0","60a50457d02bfc23c02d4717","3","0","2025-07-23T07:49:36.562Z","","","","","","","","","","","MotivationQ","","50","","","","","","","","","","","","","","","","","","","","","","","","","","","","",""
"","","","","ctl-task-cpt","59","826015","0.0-5.0-0.10","181","1","2025-07-23 07:36:15","1f75c3e559b7213887762d5229550c2b","41.145.211.168","Mozilla/5.0 (Windows NT 10.0; Win64; x64) AppleWebKit/537.36 (KHTML, like Gecko) Chrome/138.0.0.0 Safari/537.36","WebKit","Chrome","138.0.0.0","Windows","10.0","https://app.prolific.com/","en-US,en;q=0.9","60a50457d02bfc23c02d4717","683dba2a8a9dda3513610c04","688090dead790a237d562ae4","3","0","60a50457d02bfc23c02d4717","3","0","2025-07-23T07:50:02.530Z","","","","","","","","","","","","","","win-only","0","g1:NW,g2:SE","0.5","11","0","804888","1057.1","6064.1","22946.3","1","4","4","6","1","1","1","12","11","0.09090909090909091","1222.2","3000","1665","[""left"",""up""]","{""num_key_presses"":4,""num_perfect"":2,""num_errors"":0,""num_randdir"":2,""num_randdir_good_moves"":2,""num_whilered"":0,""num_whileblue"":0,""num_blue"":2,""num_good_moves"":4}","[421.57142857142856,423.47767857142856,0.3,421.57142857142856,423.47767857142856,100.1,421.57142857142856,423.47767857142856,200.5,421.57142857142856,423.47767857142856,300.5,421.57142857142856,423.47767857142856,400.7,421.57142857142856,423.47767857142856,503.2,421.57142857142856,423.47767857142856,608,372.57142857142856,409.47767857142856,711.2,192.57142857142856,239.47767857142856,813.4,167.57142857142856,201.47767857142856,914.4,74.57142857142857,144.47767857142856,1021.4,34.57142857142857,113.47767857142857,1126.8,34.57142857142857,111.47767857142857,1230.4,34.57142857142857,111.47767857142857,1336.2,34.57142857142857,111.47767857142857,1436.8,96.57142857142857,121.47767857142857,1536.9,392.57142857142856,146.47767857142856,1640.8,590.5714285714286,165.47767857142856,1742,772.5714285714286,182.47767857142856,1846.7,942.5714285714286,200.47767857142856,1948.1,995.5714285714286,213.47767857142856,2053.1,988.5714285714286,219.47767857142856,2153.7,972.5714285714286,221.47767857142856,2258.9,970.5714285714286,221.47767857142856,2359.3,970.5714285714286,221.47767857142856,2461.3,970.5714285714286,221.47767857142856,2564.7,970.5714285714286,221.47767857142856,2664.8,970.5714285714286,221.47767857142856,2770.5,970.5714285714286,221.47767857142856,2870.6,970.5714285714286,221.47767857142856,2976.9,970.5714285714286,221.47767857142856,3080.4,970.5714285714286,221.47767857142856,3183.4,970.5714285714286,221.47767857142856,3292.3,970.5714285714286,221.47767857142856,3396.4,970.5714285714286,221.47767857142856,3509.6,970.5714285714286,221.47767857142856,3614.6,970.5714285714286,221.47767857142856,3724,970.5714285714286,221.47767857142856,3828.7,970.5714285714286,221.47767857142856,3934.8,970.5714285714286,221.47767857142856,4043.3,970.5714285714286,221.47767857142856,4149.6,970.5714285714286,221.47767857142856,4258.8,970.5714285714286,221.47767857142856,4366.1,970.5714285714286,221.47767857142856,4469.9,970.5714285714286,221.47767857142856,4577.8,970.5714285714286,221.47767857142856,4678.2,970.5714285714286,221.47767857142856,4779.2,970.5714285714286,221.47767857142856,4887.3,970.5714285714286,221.47767857142856,4991.9]","[1508.6,1508.6,1000,0,508.6,""smooth"",""up"",""up"",""good_move"",8522.4,7013.3,2919.1,5036.5,566.8,""oops"",""up"",""left"",""good_move"",10897.9,2375.1,1956.2,8522.8,418.9,""oops"",""up"",""up"",""good_move"",16764.1,5865.7,2031.6,14371.7,360.8,""smooth"",""left"",""left"",""good_move""]","",""
"3456","","<div style=""width:500px;"">
  <p>What determined the result of this run?</p>
  </div>","72","html-slider-response","60","829473","0.0-5.0-1.10","181","1","2025-07-23 07:36:15","1f75c3e559b7213887762d5229550c2b","41.145.211.168","Mozilla/5.0 (Windows NT 10.0; Win64; x64) AppleWebKit/537.36 (KHTML, like Gecko) Chrome/138.0.0.0 Safari/537.36","WebKit","Chrome","138.0.0.0","Windows","10.0","https://app.prolific.com/","en-US,en;q=0.9","60a50457d02bfc23c02d4717","683dba2a8a9dda3513610c04","688090dead790a237d562ae4","3","0","60a50457d02bfc23c02d4717","3","0","2025-07-23T07:50:05.988Z","","","","","","","","","","","AttribQ","","50","","","","","","","","","","","","","","","","","","","","","","","","","","","","",""
"3677","","<div style=""width:500px;"">
  <p>How much control did you have over the ball?</p>
  </div>","65","html-slider-response","61","833152","0.0-5.0-2.10","181","1","2025-07-23 07:36:15","1f75c3e559b7213887762d5229550c2b","41.145.211.168","Mozilla/5.0 (Windows NT 10.0; Win64; x64) AppleWebKit/537.36 (KHTML, like Gecko) Chrome/138.0.0.0 Safari/537.36","WebKit","Chrome","138.0.0.0","Windows","10.0","https://app.prolific.com/","en-US,en;q=0.9","60a50457d02bfc23c02d4717","683dba2a8a9dda3513610c04","688090dead790a237d562ae4","3","0","60a50457d02bfc23c02d4717","3","0","2025-07-23T07:50:09.667Z","","","","","","","","","","","ControlQ","","50","","","","","","","","","","","","","","","","","","","","","","","","","","","","",""
"2990","","<div style=""width:500px;"">
  <p>How would you describe your current emotional state?</p>
  </div>","100","html-slider-response","62","836144","0.0-5.0-3.10","181","1","2025-07-23 07:36:15","1f75c3e559b7213887762d5229550c2b","41.145.211.168","Mozilla/5.0 (Windows NT 10.0; Win64; x64) AppleWebKit/537.36 (KHTML, like Gecko) Chrome/138.0.0.0 Safari/537.36","WebKit","Chrome","138.0.0.0","Windows","10.0","https://app.prolific.com/","en-US,en;q=0.9","60a50457d02bfc23c02d4717","683dba2a8a9dda3513610c04","688090dead790a237d562ae4","3","0","60a50457d02bfc23c02d4717","3","0","2025-07-23T07:50:12.659Z","","","","","","","","","","","StressQ","","50","","","","","","","","","","","","","","","","","","","","","","","","","","","","",""
"1958","","<div style=""width:500px;"">
  <p>What best describes how you currently feel?</p>
  </div>","80","html-slider-response","63","838103","0.0-5.0-4.10","181","1","2025-07-23 07:36:15","1f75c3e559b7213887762d5229550c2b","41.145.211.168","Mozilla/5.0 (Windows NT 10.0; Win64; x64) AppleWebKit/537.36 (KHTML, like Gecko) Chrome/138.0.0.0 Safari/537.36","WebKit","Chrome","138.0.0.0","Windows","10.0","https://app.prolific.com/","en-US,en;q=0.9","60a50457d02bfc23c02d4717","683dba2a8a9dda3513610c04","688090dead790a237d562ae4","3","0","60a50457d02bfc23c02d4717","3","0","2025-07-23T07:50:14.618Z","","","","","","","","","","","MotivationQ","","50","","","","","","","","","","","","","","","","","","","","","","","","","","","","",""
"","","","","ctl-task-cpt","64","869779","0.0-5.0-0.11","181","1","2025-07-23 07:36:15","1f75c3e559b7213887762d5229550c2b","41.145.211.168","Mozilla/5.0 (Windows NT 10.0; Win64; x64) AppleWebKit/537.36 (KHTML, like Gecko) Chrome/138.0.0.0 Safari/537.36","WebKit","Chrome","138.0.0.0","Windows","10.0","https://app.prolific.com/","en-US,en;q=0.9","60a50457d02bfc23c02d4717","683dba2a8a9dda3513610c04","688090dead790a237d562ae4","3","0","60a50457d02bfc23c02d4717","3","0","2025-07-23T07:50:46.294Z","","","","","","","","","","","","","","win-only","3","g1:SW,g2:NE","0.6","12","0","842944.6","1325.4","6326","28656.7","1","4","8","6","1","1","1","13","12","0.09848484848484848","1338","3000","1390","[""down"",""left""]","{""num_key_presses"":6,""num_perfect"":3,""num_errors"":0,""num_randdir"":3,""num_randdir_good_moves"":2,""num_whilered"":0,""num_whileblue"":0,""num_blue"":2,""num_good_moves"":5}","[421.57142857142856,415.47767857142856,0.3,421.57142857142856,415.47767857142856,101.1,421.57142857142856,415.47767857142856,205.2,421.57142857142856,415.47767857142856,319,434.57142857142856,407.47767857142856,420.2,476.57142857142856,343.47767857142856,527,474.57142857142856,346.47767857142856,631.1,401.57142857142856,451.47767857142856,732,260.57142857142856,606.4776785714286,835.4,218.57142857142856,657.4776785714286,940.9,157.57142857142856,710.4776785714286,1042.4,109.57142857142857,734.4776785714286,1145.4,85.57142857142857,748.4776785714286,1246.8,81.57142857142857,754.4776785714286,1348.1,81.57142857142857,754.4776785714286,1450.3,83.57142857142857,752.4776785714286,1550.4,86.57142857142857,744.4776785714286,1654.5,250.57142857142856,664.4776785714286,1756,621.5714285714286,566.4776785714286,1856.1,911.5714285714286,520.4776785714286,1956.8,1069.5714285714287,506.47767857142856,2060.5,1102.5714285714287,501.47767857142856,2165.4,1102.5714285714287,501.47767857142856,2266.8,1102.5714285714287,501.47767857142856,2369.4,1102.5714285714287,501.47767857142856,2470.6,1102.5714285714287,501.47767857142856,2570.9,1102.5714285714287,501.47767857142856,2679.1,1102.5714285714287,501.47767857142856,2781.1,1102.5714285714287,501.47767857142856,2897,1102.5714285714287,501.47767857142856,2999.8,1102.5714285714287,501.47767857142856,3100.5,1102.5714285714287,501.47767857142856,3206.5,1102.5714285714287,501.47767857142856,3306.6,1102.5714285714287,501.47767857142856,3410.2,1102.5714285714287,501.47767857142856,3510.6,1102.5714285714287,501.47767857142856,3611.3,1102.5714285714287,501.47767857142856,3715.7,1102.5714285714287,501.47767857142856,3816.3,1102.5714285714287,501.47767857142856,3920.8,1102.5714285714287,501.47767857142856,4020.9,1102.5714285714287,501.47767857142856,4125.8,1102.5714285714287,501.47767857142856,4228.1,1102.5714285714287,501.47767857142856,4330.4,1102.5714285714287,501.47767857142856,4431.2,1102.5714285714287,501.47767857142856,4535.8,1102.5714285714287,501.47767857142856,4637.6,1102.5714285714287,501.47767857142856,4737.6,1102.5714285714287,501.47767857142856,4850.5,1102.5714285714287,501.47767857142856,4950.6]","[5028.3,5028.3,2580.4,2016.2,431.7,""oops"",""down"",""left"",""good_move"",11300.7,6272,2806.1,8151.2,343.4,""oops"",""down"",""left"",""good_move"",14028.3,2726.9,2339.1,11301.4,387.8,""smooth"",""down"",""down"",""good_move"",16079,2050.2,1679.1,14028.8,371.1,""oops"",""down"",""right"",""bad_move"",18818.3,2739.1,2389,16079.2,350.1,""smooth"",""down"",""down"",""good_move"",22202.4,3383.6,2969.7,18818.8,413.9,""smooth"",""left"",""left"",""good_move""]","",""
"3243","","<div style=""width:500px;"">
  <p>What determined the result of this run?</p>
  </div>","56","html-slider-response","65","873024","0.0-5.0-1.11","181","1","2025-07-23 07:36:15","1f75c3e559b7213887762d5229550c2b","41.145.211.168","Mozilla/5.0 (Windows NT 10.0; Win64; x64) AppleWebKit/537.36 (KHTML, like Gecko) Chrome/138.0.0.0 Safari/537.36","WebKit","Chrome","138.0.0.0","Windows","10.0","https://app.prolific.com/","en-US,en;q=0.9","60a50457d02bfc23c02d4717","683dba2a8a9dda3513610c04","688090dead790a237d562ae4","3","0","60a50457d02bfc23c02d4717","3","0","2025-07-23T07:50:49.539Z","","","","","","","","","","","AttribQ","","50","","","","","","","","","","","","","","","","","","","","","","","","","","","","",""
"2008","","<div style=""width:500px;"">
  <p>How much control did you have over the ball?</p>
  </div>","57","html-slider-response","66","875034","0.0-5.0-2.11","181","1","2025-07-23 07:36:15","1f75c3e559b7213887762d5229550c2b","41.145.211.168","Mozilla/5.0 (Windows NT 10.0; Win64; x64) AppleWebKit/537.36 (KHTML, like Gecko) Chrome/138.0.0.0 Safari/537.36","WebKit","Chrome","138.0.0.0","Windows","10.0","https://app.prolific.com/","en-US,en;q=0.9","60a50457d02bfc23c02d4717","683dba2a8a9dda3513610c04","688090dead790a237d562ae4","3","0","60a50457d02bfc23c02d4717","3","0","2025-07-23T07:50:51.549Z","","","","","","","","","","","ControlQ","","50","","","","","","","","","","","","","","","","","","","","","","","","","","","","",""
"2117","","<div style=""width:500px;"">
  <p>How would you describe your current emotional state?</p>
  </div>","84","html-slider-response","67","877153","0.0-5.0-3.11","181","1","2025-07-23 07:36:15","1f75c3e559b7213887762d5229550c2b","41.145.211.168","Mozilla/5.0 (Windows NT 10.0; Win64; x64) AppleWebKit/537.36 (KHTML, like Gecko) Chrome/138.0.0.0 Safari/537.36","WebKit","Chrome","138.0.0.0","Windows","10.0","https://app.prolific.com/","en-US,en;q=0.9","60a50457d02bfc23c02d4717","683dba2a8a9dda3513610c04","688090dead790a237d562ae4","3","0","60a50457d02bfc23c02d4717","3","0","2025-07-23T07:50:53.668Z","","","","","","","","","","","StressQ","","50","","","","","","","","","","","","","","","","","","","","","","","","","","","","",""
"3870","","<div style=""width:500px;"">
  <p>What best describes how you currently feel?</p>
  </div>","88","html-slider-response","68","881025","0.0-5.0-4.11","181","1","2025-07-23 07:36:15","1f75c3e559b7213887762d5229550c2b","41.145.211.168","Mozilla/5.0 (Windows NT 10.0; Win64; x64) AppleWebKit/537.36 (KHTML, like Gecko) Chrome/138.0.0.0 Safari/537.36","WebKit","Chrome","138.0.0.0","Windows","10.0","https://app.prolific.com/","en-US,en;q=0.9","60a50457d02bfc23c02d4717","683dba2a8a9dda3513610c04","688090dead790a237d562ae4","3","0","60a50457d02bfc23c02d4717","3","0","2025-07-23T07:50:57.540Z","","","","","","","","","","","MotivationQ","","50","","","","","","","","","","","","","","","","","","","","","","","","","","","","",""
"","","","","ctl-task-cpt","69","900480","0.0-5.0-0.12","181","1","2025-07-23 07:36:15","1f75c3e559b7213887762d5229550c2b","41.145.211.168","Mozilla/5.0 (Windows NT 10.0; Win64; x64) AppleWebKit/537.36 (KHTML, like Gecko) Chrome/138.0.0.0 Safari/537.36","WebKit","Chrome","138.0.0.0","Windows","10.0","https://app.prolific.com/","en-US,en;q=0.9","60a50457d02bfc23c02d4717","683dba2a8a9dda3513610c04","688090dead790a237d562ae4","3","0","60a50457d02bfc23c02d4717","3","0","2025-07-23T07:51:16.995Z","","","","","","","","","","","","","","win-only","0","g1:NW,g2:SE","0.7","13","0","885866.1","1300.5","6303.7","16427.2","1","4","4","6","1","1","1","14","13","0.10606060606060606","1055.9","3000","1875","[""left"",""up""]","{""num_key_presses"":4,""num_perfect"":3,""num_errors"":0,""num_randdir"":1,""num_randdir_good_moves"":1,""num_whilered"":0,""num_whileblue"":0,""num_blue"":0,""num_good_moves"":4}","[426.57142857142856,417.47767857142856,0.3,426.57142857142856,417.47767857142856,104,426.57142857142856,417.47767857142856,206.5,455.57142857142856,403.47767857142856,313,532.5714285714286,370.47767857142856,416.1,576.5714285714286,368.47767857142856,520.6,555.5714285714286,312.47767857142856,625.8,200.57142857142856,118.47767857142857,729.2,120.57142857142857,76.47767857142857,830.1,112.57142857142857,71.47767857142857,932.8,111.57142857142857,71.47767857142857,1038.2,111.57142857142857,71.47767857142857,1139.8,121.57142857142857,71.47767857142857,1251.1,169.57142857142856,74.47767857142857,1352.7,368.57142857142856,97.47767857142857,1455.2,600.5714285714286,128.47767857142856,1556.4,714.5714285714286,144.47767857142856,1661.4,825.5714285714286,165.47767857142856,1766.9,882.5714285714286,178.47767857142856,1870.6,940.5714285714286,193.47767857142856,1973.6,957.5714285714286,203.47767857142856,2073.9,954.5714285714286,207.47767857142856,2174.8,954.5714285714286,207.47767857142856,2275.3,954.5714285714286,207.47767857142856,2380.4,954.5714285714286,207.47767857142856,2487.4,954.5714285714286,207.47767857142856,2590,954.5714285714286,207.47767857142856,2703.2,954.5714285714286,207.47767857142856,2805.3,954.5714285714286,207.47767857142856,2910.2,954.5714285714286,207.47767857142856,3013.5,954.5714285714286,207.47767857142856,3124.1,954.5714285714286,207.47767857142856,3236.2,954.5714285714286,207.47767857142856,3338,954.5714285714286,207.47767857142856,3440.7,954.5714285714286,207.47767857142856,3550.7,954.5714285714286,207.47767857142856,3653.5,954.5714285714286,207.47767857142856,3755.5,954.5714285714286,207.47767857142856,3855.9,954.5714285714286,207.47767857142856,3960.9,954.5714285714286,207.47767857142856,4061.5,954.5714285714286,207.47767857142856,4165.8,954.5714285714286,207.47767857142856,4265.8,954.5714285714286,207.47767857142856,4369.9,954.5714285714286,207.47767857142856,4476,954.5714285714286,207.47767857142856,4580.6,954.5714285714286,207.47767857142856,4685.8,954.5714285714286,207.47767857142856,4788.2,954.5714285714286,207.47767857142856,4890.2]","[1462.5,1462.5,1000,0,462.5,""smooth"",""up"",""up"",""good_move"",4231,2767.8,2399.3,1463.2,368.5,""smooth"",""left"",""left"",""good_move"",6949.5,2718.1,2295.9,4231.4,422.2,""oops"",""left"",""up"",""good_move"",9985.2,3035.4,2678.1,6949.8,357.3,""smooth"",""left"",""left"",""good_move""]","",""
"2951","","<div style=""width:500px;"">
  <p>What determined the result of this run?</p>
  </div>","84","html-slider-response","70","903432","0.0-5.0-1.12","181","1","2025-07-23 07:36:15","1f75c3e559b7213887762d5229550c2b","41.145.211.168","Mozilla/5.0 (Windows NT 10.0; Win64; x64) AppleWebKit/537.36 (KHTML, like Gecko) Chrome/138.0.0.0 Safari/537.36","WebKit","Chrome","138.0.0.0","Windows","10.0","https://app.prolific.com/","en-US,en;q=0.9","60a50457d02bfc23c02d4717","683dba2a8a9dda3513610c04","688090dead790a237d562ae4","3","0","60a50457d02bfc23c02d4717","3","0","2025-07-23T07:51:19.947Z","","","","","","","","","","","AttribQ","","50","","","","","","","","","","","","","","","","","","","","","","","","","","","","",""
"1910","","<div style=""width:500px;"">
  <p>How much control did you have over the ball?</p>
  </div>","85","html-slider-response","71","905344","0.0-5.0-2.12","181","1","2025-07-23 07:36:15","1f75c3e559b7213887762d5229550c2b","41.145.211.168","Mozilla/5.0 (Windows NT 10.0; Win64; x64) AppleWebKit/537.36 (KHTML, like Gecko) Chrome/138.0.0.0 Safari/537.36","WebKit","Chrome","138.0.0.0","Windows","10.0","https://app.prolific.com/","en-US,en;q=0.9","60a50457d02bfc23c02d4717","683dba2a8a9dda3513610c04","688090dead790a237d562ae4","3","0","60a50457d02bfc23c02d4717","3","0","2025-07-23T07:51:21.860Z","","","","","","","","","","","ControlQ","","50","","","","","","","","","","","","","","","","","","","","","","","","","","","","",""
"2158","","<div style=""width:500px;"">
  <p>How would you describe your current emotional state?</p>
  </div>","83","html-slider-response","72","907503","0.0-5.0-3.12","181","1","2025-07-23 07:36:15","1f75c3e559b7213887762d5229550c2b","41.145.211.168","Mozilla/5.0 (Windows NT 10.0; Win64; x64) AppleWebKit/537.36 (KHTML, like Gecko) Chrome/138.0.0.0 Safari/537.36","WebKit","Chrome","138.0.0.0","Windows","10.0","https://app.prolific.com/","en-US,en;q=0.9","60a50457d02bfc23c02d4717","683dba2a8a9dda3513610c04","688090dead790a237d562ae4","3","0","60a50457d02bfc23c02d4717","3","0","2025-07-23T07:51:24.019Z","","","","","","","","","","","StressQ","","50","","","","","","","","","","","","","","","","","","","","","","","","","","","","",""
"4232","","<div style=""width:500px;"">
  <p>What best describes how you currently feel?</p>
  </div>","68","html-slider-response","73","911737","0.0-5.0-4.12","181","1","2025-07-23 07:36:15","1f75c3e559b7213887762d5229550c2b","41.145.211.168","Mozilla/5.0 (Windows NT 10.0; Win64; x64) AppleWebKit/537.36 (KHTML, like Gecko) Chrome/138.0.0.0 Safari/537.36","WebKit","Chrome","138.0.0.0","Windows","10.0","https://app.prolific.com/","en-US,en;q=0.9","60a50457d02bfc23c02d4717","683dba2a8a9dda3513610c04","688090dead790a237d562ae4","3","0","60a50457d02bfc23c02d4717","3","0","2025-07-23T07:51:28.252Z","","","","","","","","","","","MotivationQ","","50","","","","","","","","","","","","","","","","","","","","","","","","","","","","",""
"","","","","ctl-task-cpt","74","931533","0.0-5.0-0.13","181","1","2025-07-23 07:36:15","1f75c3e559b7213887762d5229550c2b","41.145.211.168","Mozilla/5.0 (Windows NT 10.0; Win64; x64) AppleWebKit/537.36 (KHTML, like Gecko) Chrome/138.0.0.0 Safari/537.36","WebKit","Chrome","138.0.0.0","Windows","10.0","https://app.prolific.com/","en-US,en;q=0.9","60a50457d02bfc23c02d4717","683dba2a8a9dda3513610c04","688090dead790a237d562ae4","3","0","60a50457d02bfc23c02d4717","3","0","2025-07-23T07:51:48.048Z","","","","","","","","","","","","","","win-only","2","g1:SE,g2:NW","0.8","14","0","916578.2","1244.1","6249.3","16775.4","1","4","8","6","1","1","1","15","14","0.11363636363636363","1248.9","3000","2050","[""down"",""right""]","{""num_key_presses"":4,""num_perfect"":3,""num_errors"":0,""num_randdir"":1,""num_randdir_good_moves"":1,""num_whilered"":0,""num_whileblue"":0,""num_blue"":0,""num_good_moves"":4}","[416.57142857142856,414.47767857142856,0.2,416.57142857142856,414.47767857142856,114.1,416.57142857142856,414.47767857142856,227.3,413.57142857142856,417.47767857142856,331.4,413.57142857142856,417.47767857142856,433.3,413.57142857142856,417.47767857142856,546.1,454.57142857142856,449.47767857142856,647.2,561.5714285714286,570.4776785714286,749.5,690.5714285714286,673.4776785714286,853.8,703.5714285714286,687.4776785714286,960.8,712.5714285714286,707.4776785714286,1063.1,732.5714285714286,736.4776785714286,1164.4,737.5714285714286,746.4776785714286,1267.5,737.5714285714286,746.4776785714286,1377.7,737.5714285714286,746.4776785714286,1480.4,747.5714285714286,742.4776785714286,1580.5,840.5714285714286,680.4776785714286,1682.7,935.5714285714286,601.4776785714286,1783.5,1019.5714285714286,545.4776785714286,1891.7,1050.5714285714287,535.4776785714286,1999.6,1051.5714285714287,535.4776785714286,2120.8,1051.5714285714287,535.4776785714286,2237.3,1051.5714285714287,535.4776785714286,2338.2,1051.5714285714287,535.4776785714286,2442.1,1051.5714285714287,535.4776785714286,2542.6,1051.5714285714287,535.4776785714286,2646.8,1051.5714285714287,535.4776785714286,2749.2,1051.5714285714287,535.4776785714286,2855.2,1051.5714285714287,535.4776785714286,2961.5,1051.5714285714287,535.4776785714286,3065.9,1051.5714285714287,535.4776785714286,3182.5,1051.5714285714287,535.4776785714286,3291.1,1051.5714285714287,535.4776785714286,3399.6,1051.5714285714287,535.4776785714286,3502.9,1051.5714285714287,535.4776785714286,3607.5,1051.5714285714287,535.4776785714286,3715.1,1051.5714285714287,535.4776785714286,3821.9,1051.5714285714287,535.4776785714286,3928.8,1051.5714285714287,535.4776785714286,4036.3,1051.5714285714287,535.4776785714286,4138.6,1051.5714285714287,535.4776785714286,4248.3,1051.5714285714287,535.4776785714286,4351.8,1051.5714285714287,535.4776785714286,4464.8,1051.5714285714287,535.4776785714286,4577.1,1051.5714285714287,535.4776785714286,4678.9,1051.5714285714287,535.4776785714286,4781,1051.5714285714287,535.4776785714286,4881.2,1051.5714285714287,535.4776785714286,4982.6]","[1370.5,1370.5,1000,0,370.5,""smooth"",""right"",""right"",""good_move"",4292.8,2921.5,2556,1371.3,365.5,""smooth"",""down"",""down"",""good_move"",7478,3184.9,2833.2,4293.1,351.7,""smooth"",""right"",""right"",""good_move"",10426.5,2948.1,2623.8,7478.4,324.3,""oops"",""down"",""down"",""good_move""]","",""
"2258","","<div style=""width:500px;"">
  <p>What determined the result of this run?</p>
  </div>","100","html-slider-response","75","933792","0.0-5.0-1.13","181","1","2025-07-23 07:36:15","1f75c3e559b7213887762d5229550c2b","41.145.211.168","Mozilla/5.0 (Windows NT 10.0; Win64; x64) AppleWebKit/537.36 (KHTML, like Gecko) Chrome/138.0.0.0 Safari/537.36","WebKit","Chrome","138.0.0.0","Windows","10.0","https://app.prolific.com/","en-US,en;q=0.9","60a50457d02bfc23c02d4717","683dba2a8a9dda3513610c04","688090dead790a237d562ae4","3","0","60a50457d02bfc23c02d4717","3","0","2025-07-23T07:51:50.307Z","","","","","","","","","","","AttribQ","","50","","","","","","","","","","","","","","","","","","","","","","","","","","","","",""
"1942","","<div style=""width:500px;"">
  <p>How much control did you have over the ball?</p>
  </div>","100","html-slider-response","76","935736","0.0-5.0-2.13","181","1","2025-07-23 07:36:15","1f75c3e559b7213887762d5229550c2b","41.145.211.168","Mozilla/5.0 (Windows NT 10.0; Win64; x64) AppleWebKit/537.36 (KHTML, like Gecko) Chrome/138.0.0.0 Safari/537.36","WebKit","Chrome","138.0.0.0","Windows","10.0","https://app.prolific.com/","en-US,en;q=0.9","60a50457d02bfc23c02d4717","683dba2a8a9dda3513610c04","688090dead790a237d562ae4","3","0","60a50457d02bfc23c02d4717","3","0","2025-07-23T07:51:52.251Z","","","","","","","","","","","ControlQ","","50","","","","","","","","","","","","","","","","","","","","","","","","","","","","",""
"2702","","<div style=""width:500px;"">
  <p>How would you describe your current emotional state?</p>
