"rt","response_timestamp","stimulus","response","trial_type","trial_index","time_elapsed","internal_node_id","run_id","condition","recorded_at","source_code_version","ip","user_agent","device","browser","browser_version","platform","platform_version","referer","accept_language","PROLIFIC_PID","STUDY_ID","SESSION_ID","WEEK","BATCH","prolific_id","week","batch","realtime","success","responses","item_order","radio_event_ids","radio_event_times","key_event_times","mouse_event_times","straightlining","zigzagging","honeypot","eventType","view_history","slider_start","which_type","canvas_config","goals_layout","control_level","trial_number","tutorial_trial_number","trial_start_time","phase1_start_time","phase2_start_time","phase3_start_time","goal_1_value","goal_1_distance","goal_2_value","goal_2_distance","goal_selected","outcome","outcome_total","participant_final_score","participant_initial_score","participant_final_score_prop","goal_choice_rt","allocated_time","allocated_time_remaining","goal_direction","counts","mouse_movements","key_presses","question_order","question_id"
"24163","1752746465492","<p style='font-size:40px;line-height:1.25'><strong>Welcome to the experiment!</strong></p><p style='font-size:1.1em;line-height:1.25'>Thank you for participanting in our experiment again! You will be asked to play the Dysfunctional Ball Game again. We will briefly recap the rules before we start.</p><p style='font-size:1.1em;line-height:1.25'>Press <strong>Next</strong> to continue.</p>","0","custom-html-button-response","0","24165","0.0-0.0","130","1","2025-07-17 10:00:40","1f75c3e559b7213887762d5229550c2b","89.154.153.225","Mozilla/5.0 (Macintosh; Intel Mac OS X 10_15_7) AppleWebKit/537.36 (KHTML, like Gecko) Chrome/138.0.0.0 Safari/537.36","Macintosh","Chrome","138.0.0.0","OS X","10_15_7","https://app.prolific.com/","pt-PT,pt;q=0.9,en-US;q=0.8,en;q=0.7,ca;q=0.6,fr;q=0.5,de;q=0.4","66db15814e7818d8b9593ad5","68764874ac79eee8c1d4cb03","6878c981b0ce56d959e21918","2","0","66db15814e7818d8b9593ad5","2","0","2025-07-17T10:01:05.493Z","","","","","","","","","","","","","","","","","","","","","","","","","","","","","","","","","","","","","","","","","",""
"9200","","","","fullscreen","1","34370","0.0-1.0","130","1","2025-07-17 10:00:40","1f75c3e559b7213887762d5229550c2b","89.154.153.225","Mozilla/5.0 (Macintosh; Intel Mac OS X 10_15_7) AppleWebKit/537.36 (KHTML, like Gecko) Chrome/138.0.0.0 Safari/537.36","Macintosh","Chrome","138.0.0.0","OS X","10_15_7","https://app.prolific.com/","pt-PT,pt;q=0.9,en-US;q=0.8,en;q=0.7,ca;q=0.6,fr;q=0.5,de;q=0.4","66db15814e7818d8b9593ad5","68764874ac79eee8c1d4cb03","6878c981b0ce56d959e21918","2","0","66db15814e7818d8b9593ad5","2","0","","true","","","","","","","","","","","","","","","","","","","","","","","","","","","","","","","","","","","","","","","","",""
"2423","1752746478122","<p style='font-size:1.1em;line-height:1.25'>In the following, we will ask you a few questions relating to your feelings in the last 24 hours.<br></p><p style='font-size:1.1em;line-height:1.25'>Press the <strong>Next</strong> button to continue.</p>","0","custom-html-button-response","2","36795","0.0-2.0-0.0","130","1","2025-07-17 10:00:40","1f75c3e559b7213887762d5229550c2b","89.154.153.225","Mozilla/5.0 (Macintosh; Intel Mac OS X 10_15_7) AppleWebKit/537.36 (KHTML, like Gecko) Chrome/138.0.0.0 Safari/537.36","Macintosh","Chrome","138.0.0.0","OS X","10_15_7","https://app.prolific.com/","pt-PT,pt;q=0.9,en-US;q=0.8,en;q=0.7,ca;q=0.6,fr;q=0.5,de;q=0.4","66db15814e7818d8b9593ad5","68764874ac79eee8c1d4cb03","6878c981b0ce56d959e21918","2","0","66db15814e7818d8b9593ad5","2","0","2025-07-17T10:01:18.123Z","","","","","","","","","","","","","","","","","","","","","","","","","","","","","","","","","","","","","","","","","",""
"54827.800000000745","","","","survey-template","3","91627","0.0-2.0-1.0","130","1","2025-07-17 10:00:40","1f75c3e559b7213887762d5229550c2b","89.154.153.225","Mozilla/5.0 (Macintosh; Intel Mac OS X 10_15_7) AppleWebKit/537.36 (KHTML, like Gecko) Chrome/138.0.0.0 Safari/537.36","Macintosh","Chrome","138.0.0.0","OS X","10_15_7","https://app.prolific.com/","pt-PT,pt;q=0.9,en-US;q=0.8,en;q=0.7,ca;q=0.6,fr;q=0.5,de;q=0.4","66db15814e7818d8b9593ad5","68764874ac79eee8c1d4cb03","6878c981b0ce56d959e21918","2","0","66db15814e7818d8b9593ad5","2","0","2025-07-17T10:02:12.955Z","","{""Q01"":""3"",""Q02"":""1"",""Q03"":""1"",""Q04"":""1"",""Q05"":""0"",""Q06"":""2"",""Q07"":""3"",""Q08"":""0"",""Q09"":""1"",""Q10"":""2"",""Q11"":""2"",""Q12"":""0"",""Q13"":""5"",""Q14"":""0"",""Q15"":""1"",""Q16"":""0"",""Q17"":""0"",""Q18"":""1"",""Q19"":""3"",""Q20"":""1"",""Q21"":""1"",""Q22"":""0""}","[0,1,2,3,4,5,6,7,8,9,10,11,12,13,14,15,16,17,18,19,20,21]","[""Q01"",""Q02"",""Q03"",""Q04"",""Q05"",""Q06"",""Q07"",""Q08"",""Q09"",""Q10"",""Q11"",""Q12"",""Q13"",""Q14"",""Q15"",""Q16"",""Q17"",""Q18"",""Q19"",""Q20"",""Q21"",""Q22""]","[4022.900000002235,5874.199999999255,7282.900000002235,8622.60000000149,10022.10000000149,12773.400000002235,14336.300000000745,18667.400000002235,19520.900000002235,21985.900000002235,23262,25718,27113.300000000745,32048.699999999255,34151.699999999255,35725.800000000745,37366.60000000149,39090.400000002235,48233.699999999255,50715.300000000745,51728.400000002235,53911]","[]","[0.19999999925494194,4022.900000002235,5874.199999999255,7282.900000002235,8622.60000000149,10022.10000000149,12023.10000000149,12773.400000002235,14336.300000000745,17660.699999999255,18667.400000002235,19520.900000002235,21985.900000002235,23262,25718,27113.300000000745,32048.699999999255,34151.699999999255,35725.800000000745,37366.60000000149,39090.400000002235,47126.10000000149,48233.699999999255,50715.300000000745,51728.400000002235,53911,54822.10000000149]","0.36363636363636365","0.47619047619047616","0","drsp","","","","","","","","","","","","","","","","","","","","","","","","","","","","","","",""
"33514.60000000149","","","","survey-template","4","125144","0.0-2.0-2.0","130","1","2025-07-17 10:00:40","1f75c3e559b7213887762d5229550c2b","89.154.153.225","Mozilla/5.0 (Macintosh; Intel Mac OS X 10_15_7) AppleWebKit/537.36 (KHTML, like Gecko) Chrome/138.0.0.0 Safari/537.36","Macintosh","Chrome","138.0.0.0","OS X","10_15_7","https://app.prolific.com/","pt-PT,pt;q=0.9,en-US;q=0.8,en;q=0.7,ca;q=0.6,fr;q=0.5,de;q=0.4","66db15814e7818d8b9593ad5","68764874ac79eee8c1d4cb03","6878c981b0ce56d959e21918","2","0","66db15814e7818d8b9593ad5","2","0","2025-07-17T10:02:46.472Z","","{""Q01"":""1"",""Q02"":""3"",""Q03"":""1""}","[0,1,2]","[""Q01"",""Q02"",""Q03""]","[27484.900000002235,31289.400000002235,32684.70000000298]","[]","[27484.900000002235,31289.400000002235,32684.70000000298,33513.5]","0.6666666666666666","1","0","stress","","","","","","","","","","","","","","","","","","","","","","","","","","","","","","",""
"11361","","","","instructions","5","136507","0.0-3.0-0.0","130","1","2025-07-17 10:00:40","1f75c3e559b7213887762d5229550c2b","89.154.153.225","Mozilla/5.0 (Macintosh; Intel Mac OS X 10_15_7) AppleWebKit/537.36 (KHTML, like Gecko) Chrome/138.0.0.0 Safari/537.36","Macintosh","Chrome","138.0.0.0","OS X","10_15_7","https://app.prolific.com/","pt-PT,pt;q=0.9,en-US;q=0.8,en;q=0.7,ca;q=0.6,fr;q=0.5,de;q=0.4","66db15814e7818d8b9593ad5","68764874ac79eee8c1d4cb03","6878c981b0ce56d959e21918","2","0","66db15814e7818d8b9593ad5","2","0","","","","","","","","","","","","","[{""page_index"":0,""viewing_time"":11361}]","","","","","","","","","","","","","","","","","","","","","","","","","","","","","",""
"4361","","<p>Before you start with this game please answer the following three questions yourself. </p>
  <p>Through this game, we measure several aspects of your cognitive performance, such as reaction times, multi-tasking capabilities </p>
  <p>and the ability to assess the situation you are in.</p>
  <p></p>
  <p><b>How good do you usually are in such tasks?</b></p>","48","html-slider-response","6","140869","0.0-4.0-0.0","130","1","2025-07-17 10:00:40","1f75c3e559b7213887762d5229550c2b","89.154.153.225","Mozilla/5.0 (Macintosh; Intel Mac OS X 10_15_7) AppleWebKit/537.36 (KHTML, like Gecko) Chrome/138.0.0.0 Safari/537.36","Macintosh","Chrome","138.0.0.0","OS X","10_15_7","https://app.prolific.com/","pt-PT,pt;q=0.9,en-US;q=0.8,en;q=0.7,ca;q=0.6,fr;q=0.5,de;q=0.4","66db15814e7818d8b9593ad5","68764874ac79eee8c1d4cb03","6878c981b0ce56d959e21918","2","0","66db15814e7818d8b9593ad5","2","0","2025-07-17T10:03:02.198Z","","","","","","","","","","","PreSkillQ","","50","","","","","","","","","","","","","","","","","","","","","","","","","","","","",""
"3728","","<div style=""width:500px;"">
  <p>How well do you think you will perform in this task compared to other participants?</p>
  </div>","38","html-slider-response","7","144599","0.0-4.0-1.0","130","1","2025-07-17 10:00:40","1f75c3e559b7213887762d5229550c2b","89.154.153.225","Mozilla/5.0 (Macintosh; Intel Mac OS X 10_15_7) AppleWebKit/537.36 (KHTML, like Gecko) Chrome/138.0.0.0 Safari/537.36","Macintosh","Chrome","138.0.0.0","OS X","10_15_7","https://app.prolific.com/","pt-PT,pt;q=0.9,en-US;q=0.8,en;q=0.7,ca;q=0.6,fr;q=0.5,de;q=0.4","66db15814e7818d8b9593ad5","68764874ac79eee8c1d4cb03","6878c981b0ce56d959e21918","2","0","66db15814e7818d8b9593ad5","2","0","2025-07-17T10:03:05.927Z","","","","","","","","","","","PrePerfQ","","50","","","","","","","","","","","","","","","","","","","","","","","","","","","","",""
"5638","","<div style=""width:500px;"">
  <p>What best describes how you currently feel?</p>
  </div>","54","html-slider-response","8","150238","0.0-4.0-2.0","130","1","2025-07-17 10:00:40","1f75c3e559b7213887762d5229550c2b","89.154.153.225","Mozilla/5.0 (Macintosh; Intel Mac OS X 10_15_7) AppleWebKit/537.36 (KHTML, like Gecko) Chrome/138.0.0.0 Safari/537.36","Macintosh","Chrome","138.0.0.0","OS X","10_15_7","https://app.prolific.com/","pt-PT,pt;q=0.9,en-US;q=0.8,en;q=0.7,ca;q=0.6,fr;q=0.5,de;q=0.4","66db15814e7818d8b9593ad5","68764874ac79eee8c1d4cb03","6878c981b0ce56d959e21918","2","0","66db15814e7818d8b9593ad5","2","0","2025-07-17T10:03:11.566Z","","","","","","","","","","","PreMotivationQ","","50","","","","","","","","","","","","","","","","","","","","","","","","","","","","",""
"","","","","ctl-task-cpt","9","181012","0.0-5.0-0.0","130","1","2025-07-17 10:00:40","1f75c3e559b7213887762d5229550c2b","89.154.153.225","Mozilla/5.0 (Macintosh; Intel Mac OS X 10_15_7) AppleWebKit/537.36 (KHTML, like Gecko) Chrome/138.0.0.0 Safari/537.36","Macintosh","Chrome","138.0.0.0","OS X","10_15_7","https://app.prolific.com/","pt-PT,pt;q=0.9,en-US;q=0.8,en;q=0.7,ca;q=0.6,fr;q=0.5,de;q=0.4","66db15814e7818d8b9593ad5","68764874ac79eee8c1d4cb03","6878c981b0ce56d959e21918","2","0","66db15814e7818d8b9593ad5","2","0","2025-07-17T10:03:42.340Z","","","","","","","","","","","","","","win-only","0","g1:NW,g2:SE","1","1","0","151465.9","1415.8","6417.1","27768.7","1","4","8","6","2","8","8","8","0","0.06060606060606061","1332.5","3000","930","[""down"",""right""]","{""num_key_presses"":6,""num_perfect"":6,""num_errors"":0,""num_randdir"":0,""num_randdir_good_moves"":0,""num_whilered"":0,""num_whileblue"":0,""num_blue"":1,""num_good_moves"":6}","[733,715.796875,0.3,733,715.796875,100.6,733,715.796875,205.1,733,715.796875,310.5,733,715.796875,410.5,733,715.796875,510.6,733,715.796875,615.6,903,857.796875,720.2,1305,1215.796875,821.2,1329,1251.796875,925.3,1333,1281.796875,1030.4,1339,1321.796875,1136.5,1339,1321.796875,1240.6,1339,1321.796875,1340.9,1339,1321.796875,1440.9,1339,1321.796875,1544.9,1339,1321.796875,1645.5,1351,1289.796875,1745.6,1735,577.796875,1850.4,1745,563.796875,1950.4,1745,563.796875,2051.1,1745,563.796875,2151.2,1745,563.796875,2254.7,1745,563.796875,2355.4,1745,563.796875,2459.5,1745,563.796875,2560.8,1745,563.796875,2665.8,1745,563.796875,2770,1745,563.796875,2870.1,1745,563.796875,2970.2,1745,563.796875,3075.4,1745,563.796875,3180.5,1745,563.796875,3280.9,1745,563.796875,3385.3,1745,563.796875,3486.1,1745,563.796875,3589.8,1745,563.796875,3690.8,1745,563.796875,3795,1745,563.796875,3895.6,1745,563.796875,4000.5,1745,563.796875,4105,1745,563.796875,4205.2,1745,563.796875,4305.4,1745,563.796875,4405.5,1745,563.796875,4510.1,1745,563.796875,4610.1,1745,563.796875,4716,1745,563.796875,4819.8,1745,563.796875,4919.9]","[1312.9,1312.8,1000,0.1,312.8,""smooth"",""down"",""down"",""good_move"",3790.4,2477,2164.4,1313.4,312.6,""smooth"",""down"",""down"",""good_move"",6972.2,3181.6,2808.9,3790.7,372.7,""smooth"",""down"",""down"",""good_move"",14347.1,7374.5,3135.4,10843.5,368.2,""smooth"",""right"",""right"",""good_move"",17576,3228.5,2873.2,14347.5,355.3,""smooth"",""right"",""right"",""good_move"",21260.6,3684.4,3298.2,17576.4,386.1,""smooth"",""right"",""right"",""good_move""]","",""
"4741","","<div style=""width:500px;"">
  <p>What determined the result of this run?</p>
  </div>","77","html-slider-response","10","185755","0.0-5.0-1.0","130","1","2025-07-17 10:00:40","1f75c3e559b7213887762d5229550c2b","89.154.153.225","Mozilla/5.0 (Macintosh; Intel Mac OS X 10_15_7) AppleWebKit/537.36 (KHTML, like Gecko) Chrome/138.0.0.0 Safari/537.36","Macintosh","Chrome","138.0.0.0","OS X","10_15_7","https://app.prolific.com/","pt-PT,pt;q=0.9,en-US;q=0.8,en;q=0.7,ca;q=0.6,fr;q=0.5,de;q=0.4","66db15814e7818d8b9593ad5","68764874ac79eee8c1d4cb03","6878c981b0ce56d959e21918","2","0","66db15814e7818d8b9593ad5","2","0","2025-07-17T10:03:47.083Z","","","","","","","","","","","AttribQ","","50","","","","","","","","","","","","","","","","","","","","","","","","","","","","",""
"1570","","<div style=""width:500px;"">
  <p>How much control did you have over the ball?</p>
  </div>","77","html-slider-response","11","187326","0.0-5.0-2.0","130","1","2025-07-17 10:00:40","1f75c3e559b7213887762d5229550c2b","89.154.153.225","Mozilla/5.0 (Macintosh; Intel Mac OS X 10_15_7) AppleWebKit/537.36 (KHTML, like Gecko) Chrome/138.0.0.0 Safari/537.36","Macintosh","Chrome","138.0.0.0","OS X","10_15_7","https://app.prolific.com/","pt-PT,pt;q=0.9,en-US;q=0.8,en;q=0.7,ca;q=0.6,fr;q=0.5,de;q=0.4","66db15814e7818d8b9593ad5","68764874ac79eee8c1d4cb03","6878c981b0ce56d959e21918","2","0","66db15814e7818d8b9593ad5","2","0","2025-07-17T10:03:48.654Z","","","","","","","","","","","ControlQ","","50","","","","","","","","","","","","","","","","","","","","","","","","","","","","",""
"6342","","<div style=""width:500px;"">
  <p>How would you describe your current emotional state?</p>
  </div>","30","html-slider-response","12","193669","0.0-5.0-3.0","130","1","2025-07-17 10:00:40","1f75c3e559b7213887762d5229550c2b","89.154.153.225","Mozilla/5.0 (Macintosh; Intel Mac OS X 10_15_7) AppleWebKit/537.36 (KHTML, like Gecko) Chrome/138.0.0.0 Safari/537.36","Macintosh","Chrome","138.0.0.0","OS X","10_15_7","https://app.prolific.com/","pt-PT,pt;q=0.9,en-US;q=0.8,en;q=0.7,ca;q=0.6,fr;q=0.5,de;q=0.4","66db15814e7818d8b9593ad5","68764874ac79eee8c1d4cb03","6878c981b0ce56d959e21918","2","0","66db15814e7818d8b9593ad5","2","0","2025-07-17T10:03:54.997Z","","","","","","","","","","","StressQ","","50","","","","","","","","","","","","","","","","","","","","","","","","","","","","",""
"3101","","<div style=""width:500px;"">
  <p>What best describes how you currently feel?</p>
  </div>","54","html-slider-response","13","196772","0.0-5.0-4.0","130","1","2025-07-17 10:00:40","1f75c3e559b7213887762d5229550c2b","89.154.153.225","Mozilla/5.0 (Macintosh; Intel Mac OS X 10_15_7) AppleWebKit/537.36 (KHTML, like Gecko) Chrome/138.0.0.0 Safari/537.36","Macintosh","Chrome","138.0.0.0","OS X","10_15_7","https://app.prolific.com/","pt-PT,pt;q=0.9,en-US;q=0.8,en;q=0.7,ca;q=0.6,fr;q=0.5,de;q=0.4","66db15814e7818d8b9593ad5","68764874ac79eee8c1d4cb03","6878c981b0ce56d959e21918","2","0","66db15814e7818d8b9593ad5","2","0","2025-07-17T10:03:58.100Z","","","","","","","","","","","MotivationQ","","50","","","","","","","","","","","","","","","","","","","","","","","","","","","","",""
"","","","","ctl-task-cpt","14","215487","0.0-5.0-0.1","130","1","2025-07-17 10:00:40","1f75c3e559b7213887762d5229550c2b","89.154.153.225","Mozilla/5.0 (Macintosh; Intel Mac OS X 10_15_7) AppleWebKit/537.36 (KHTML, like Gecko) Chrome/138.0.0.0 Safari/537.36","Macintosh","Chrome","138.0.0.0","OS X","10_15_7","https://app.prolific.com/","pt-PT,pt;q=0.9,en-US;q=0.8,en;q=0.7,ca;q=0.6,fr;q=0.5,de;q=0.4","66db15814e7818d8b9593ad5","68764874ac79eee8c1d4cb03","6878c981b0ce56d959e21918","2","0","66db15814e7818d8b9593ad5","2","0","2025-07-17T10:04:16.816Z","","","","","","","","","","","","","","win-only","1","g1:NE,g2:SW","0.9","2","0","197998.3","1997.2","7001.6","15706.1","1","4","4","6","1","1","1","9","8","0.06818181818181818","1251.7","3000","1750","[""up"",""right""]","{""num_key_presses"":4,""num_perfect"":4,""num_errors"":0,""num_randdir"":0,""num_randdir_good_moves"":0,""num_whilered"":0,""num_whileblue"":0,""num_blue"":0,""num_good_moves"":4}","[739,725.796875,0.1,739,725.796875,103.1,739,725.796875,204.1,739,725.796875,308.6,739,725.796875,408.9,739,725.796875,513.9,739,725.796875,618.8,925,515.796875,719,1137,297.796875,819.1,1167,265.796875,923,1335,99.796875,1023.5,1339,99.796875,1123.6,1339,99.796875,1223.7,1339,99.796875,1328.9,1339,99.796875,1434.3,1443,303.796875,1538.4,1697,641.796875,1639.4,1705,657.796875,1743.4,1705,657.796875,1843.4,1705,657.796875,1943.7,1705,657.796875,2048.7,1705,657.796875,2153.8,1705,657.796875,2254.4,1705,657.796875,2354.4,1705,657.796875,2458.1,1705,657.796875,2558.1,1705,657.796875,2658.7,1705,657.796875,2763.3,1705,657.796875,2863.5,1705,657.796875,2963.6,1705,657.796875,3063.9,1705,657.796875,3168.7,1705,657.796875,3269.2,1705,657.796875,3373.7,1705,657.796875,3474.3,1705,657.796875,3574.3,1705,657.796875,3674.3,1705,657.796875,3779,1705,657.796875,3879.2,1705,657.796875,3983.4,1705,657.796875,4084,1705,657.796875,4188.7,1705,657.796875,4288.7,1705,657.796875,4388.9,1705,657.796875,4489.6,1705,657.796875,4593.7,1705,657.796875,4698,1705,657.796875,4798,1705,657.796875,4898.5,1705,657.796875,4999.1]","[1332.8,1332.8,1000,0,332.8,""smooth"",""up"",""up"",""good_move"",3854.1,2520.7,2207.6,1333.4,313.1,""smooth"",""up"",""up"",""good_move"",6540,2685.7,2388.8,3854.3,296.9,""smooth"",""right"",""right"",""good_move"",8618.2,2078,1747.8,6540.2,330.2,""smooth"",""right"",""right"",""good_move""]","",""
"1555","","<div style=""width:500px;"">
  <p>What determined the result of this run?</p>
  </div>","85","html-slider-response","15","217044","0.0-5.0-1.1","130","1","2025-07-17 10:00:40","1f75c3e559b7213887762d5229550c2b","89.154.153.225","Mozilla/5.0 (Macintosh; Intel Mac OS X 10_15_7) AppleWebKit/537.36 (KHTML, like Gecko) Chrome/138.0.0.0 Safari/537.36","Macintosh","Chrome","138.0.0.0","OS X","10_15_7","https://app.prolific.com/","pt-PT,pt;q=0.9,en-US;q=0.8,en;q=0.7,ca;q=0.6,fr;q=0.5,de;q=0.4","66db15814e7818d8b9593ad5","68764874ac79eee8c1d4cb03","6878c981b0ce56d959e21918","2","0","66db15814e7818d8b9593ad5","2","0","2025-07-17T10:04:18.372Z","","","","","","","","","","","AttribQ","","50","","","","","","","","","","","","","","","","","","","","","","","","","","","","",""
"1445","","<div style=""width:500px;"">
  <p>How much control did you have over the ball?</p>
  </div>","89","html-slider-response","16","218490","0.0-5.0-2.1","130","1","2025-07-17 10:00:40","1f75c3e559b7213887762d5229550c2b","89.154.153.225","Mozilla/5.0 (Macintosh; Intel Mac OS X 10_15_7) AppleWebKit/537.36 (KHTML, like Gecko) Chrome/138.0.0.0 Safari/537.36","Macintosh","Chrome","138.0.0.0","OS X","10_15_7","https://app.prolific.com/","pt-PT,pt;q=0.9,en-US;q=0.8,en;q=0.7,ca;q=0.6,fr;q=0.5,de;q=0.4","66db15814e7818d8b9593ad5","68764874ac79eee8c1d4cb03","6878c981b0ce56d959e21918","2","0","66db15814e7818d8b9593ad5","2","0","2025-07-17T10:04:19.818Z","","","","","","","","","","","ControlQ","","50","","","","","","","","","","","","","","","","","","","","","","","","","","","","",""
"2686","","<div style=""width:500px;"">
  <p>How would you describe your current emotional state?</p>
  </div>","28","html-slider-response","17","221177","0.0-5.0-3.1","130","1","2025-07-17 10:00:40","1f75c3e559b7213887762d5229550c2b","89.154.153.225","Mozilla/5.0 (Macintosh; Intel Mac OS X 10_15_7) AppleWebKit/537.36 (KHTML, like Gecko) Chrome/138.0.0.0 Safari/537.36","Macintosh","Chrome","138.0.0.0","OS X","10_15_7","https://app.prolific.com/","pt-PT,pt;q=0.9,en-US;q=0.8,en;q=0.7,ca;q=0.6,fr;q=0.5,de;q=0.4","66db15814e7818d8b9593ad5","68764874ac79eee8c1d4cb03","6878c981b0ce56d959e21918","2","0","66db15814e7818d8b9593ad5","2","0","2025-07-17T10:04:22.505Z","","","","","","","","","","","StressQ","","50","","","","","","","","","","","","","","","","","","","","","","","","","","","","",""
"1785","","<div style=""width:500px;"">
  <p>What best describes how you currently feel?</p>
  </div>","63","html-slider-response","18","222964","0.0-5.0-4.1","130","1","2025-07-17 10:00:40","1f75c3e559b7213887762d5229550c2b","89.154.153.225","Mozilla/5.0 (Macintosh; Intel Mac OS X 10_15_7) AppleWebKit/537.36 (KHTML, like Gecko) Chrome/138.0.0.0 Safari/537.36","Macintosh","Chrome","138.0.0.0","OS X","10_15_7","https://app.prolific.com/","pt-PT,pt;q=0.9,en-US;q=0.8,en;q=0.7,ca;q=0.6,fr;q=0.5,de;q=0.4","66db15814e7818d8b9593ad5","68764874ac79eee8c1d4cb03","6878c981b0ce56d959e21918","2","0","66db15814e7818d8b9593ad5","2","0","2025-07-17T10:04:24.292Z","","","","","","","","","","","MotivationQ","","50","","","","","","","","","","","","","","","","","","","","","","","","","","","","",""
"","","","","ctl-task-cpt","19","241726","0.0-5.0-0.2","130","1","2025-07-17 10:00:40","1f75c3e559b7213887762d5229550c2b","89.154.153.225","Mozilla/5.0 (Macintosh; Intel Mac OS X 10_15_7) AppleWebKit/537.36 (KHTML, like Gecko) Chrome/138.0.0.0 Safari/537.36","Macintosh","Chrome","138.0.0.0","OS X","10_15_7","https://app.prolific.com/","pt-PT,pt;q=0.9,en-US;q=0.8,en;q=0.7,ca;q=0.6,fr;q=0.5,de;q=0.4","66db15814e7818d8b9593ad5","68764874ac79eee8c1d4cb03","6878c981b0ce56d959e21918","2","0","66db15814e7818d8b9593ad5","2","0","2025-07-17T10:04:43.054Z","","","","","","","","","","","","","","win-only","1","g1:NE,g2:SW","0.8","3","0","224191.4","1015.7","6021.5","15750.9","1","4","8","6","1","1","1","10","9","0.07575757575757576","2043.4","3000","1705","[""up"",""right""]","{""num_key_presses"":4,""num_perfect"":3,""num_errors"":0,""num_randdir"":1,""num_randdir_good_moves"":1,""num_whilered"":0,""num_whileblue"":0,""num_blue"":0,""num_good_moves"":4}","[719,731.796875,0.2,719,731.796875,100.2,719,731.796875,200.4,1427,707.796875,300.7,1625,739.796875,404.8,1625,739.796875,505.4,1625,739.796875,610.6,1625,739.796875,710.7,1625,739.796875,816.5,1617,729.796875,921,1539,569.796875,1024.8,1469,461.796875,1125.7,1467,461.796875,1225.7,1467,461.796875,1329.7,1407,265.796875,1430.6,1375,203.796875,1530.7,1349,227.796875,1635.6,1343,233.796875,1740.2,1361,193.796875,1844.7,1361,193.796875,1944.7,1361,193.796875,2044.9,1361,193.796875,2150.6,1369,209.796875,2255.2,1671,793.796875,2355.4,1707,863.796875,2455.4,1707,863.796875,2555.4,1707,863.796875,2660.5,1707,863.796875,2765.2,1707,863.796875,2870.3,1707,863.796875,2970.5,1707,863.796875,3075.5,1707,863.796875,3179.8,1707,863.796875,3280.2,1707,863.796875,3380.5,1707,863.796875,3484.8,1707,863.796875,3585.3,1707,863.796875,3685.4,1707,863.796875,3791.4,1707,863.796875,3894.9,1707,863.796875,4000.4,1707,863.796875,4105.5,1707,863.796875,4207.3,1707,863.796875,4310.7,1707,863.796875,4411.2,1707,863.796875,4515.2,1707,863.796875,4615.4,1707,863.796875,4715.6,1707,863.796875,4816.8,1707,863.796875,4920.5]","[1307.5,1307.5,1000,0,307.5,""smooth"",""up"",""up"",""good_move"",4800.9,3493.1,3168.1,1307.8,325,""smooth"",""up"",""up"",""good_move"",6809.3,2008.2,1659.1,4801.1,349.1,""oops"",""right"",""right"",""good_move"",9641.3,2831.6,2495.1,6809.7,336.5,""smooth"",""right"",""right"",""good_move""]","",""
"2302","","<div style=""width:500px;"">
  <p>What determined the result of this run?</p>
  </div>","92","html-slider-response","20","244029","0.0-5.0-1.2","130","1","2025-07-17 10:00:40","1f75c3e559b7213887762d5229550c2b","89.154.153.225","Mozilla/5.0 (Macintosh; Intel Mac OS X 10_15_7) AppleWebKit/537.36 (KHTML, like Gecko) Chrome/138.0.0.0 Safari/537.36","Macintosh","Chrome","138.0.0.0","OS X","10_15_7","https://app.prolific.com/","pt-PT,pt;q=0.9,en-US;q=0.8,en;q=0.7,ca;q=0.6,fr;q=0.5,de;q=0.4","66db15814e7818d8b9593ad5","68764874ac79eee8c1d4cb03","6878c981b0ce56d959e21918","2","0","66db15814e7818d8b9593ad5","2","0","2025-07-17T10:04:45.357Z","","","","","","","","","","","AttribQ","","50","","","","","","","","","","","","","","","","","","","","","","","","","","","","",""
"3229","","<div style=""width:500px;"">
  <p>How much control did you have over the ball?</p>
  </div>","45","html-slider-response","21","247260","0.0-5.0-2.2","130","1","2025-07-17 10:00:40","1f75c3e559b7213887762d5229550c2b","89.154.153.225","Mozilla/5.0 (Macintosh; Intel Mac OS X 10_15_7) AppleWebKit/537.36 (KHTML, like Gecko) Chrome/138.0.0.0 Safari/537.36","Macintosh","Chrome","138.0.0.0","OS X","10_15_7","https://app.prolific.com/","pt-PT,pt;q=0.9,en-US;q=0.8,en;q=0.7,ca;q=0.6,fr;q=0.5,de;q=0.4","66db15814e7818d8b9593ad5","68764874ac79eee8c1d4cb03","6878c981b0ce56d959e21918","2","0","66db15814e7818d8b9593ad5","2","0","2025-07-17T10:04:48.588Z","","","","","","","","","","","ControlQ","","50","","","","","","","","","","","","","","","","","","","","","","","","","","","","",""
"3062","","<div style=""width:500px;"">
  <p>How would you describe your current emotional state?</p>
  </div>","41","html-slider-response","22","250323","0.0-5.0-3.2","130","1","2025-07-17 10:00:40","1f75c3e559b7213887762d5229550c2b","89.154.153.225","Mozilla/5.0 (Macintosh; Intel Mac OS X 10_15_7) AppleWebKit/537.36 (KHTML, like Gecko) Chrome/138.0.0.0 Safari/537.36","Macintosh","Chrome","138.0.0.0","OS X","10_15_7","https://app.prolific.com/","pt-PT,pt;q=0.9,en-US;q=0.8,en;q=0.7,ca;q=0.6,fr;q=0.5,de;q=0.4","66db15814e7818d8b9593ad5","68764874ac79eee8c1d4cb03","6878c981b0ce56d959e21918","2","0","66db15814e7818d8b9593ad5","2","0","2025-07-17T10:04:51.651Z","","","","","","","","","","","StressQ","","50","","","","","","","","","","","","","","","","","","","","","","","","","","","","",""
"2161","","<div style=""width:500px;"">
  <p>What best describes how you currently feel?</p>
  </div>","59","html-slider-response","23","252485","0.0-5.0-4.2","130","1","2025-07-17 10:00:40","1f75c3e559b7213887762d5229550c2b","89.154.153.225","Mozilla/5.0 (Macintosh; Intel Mac OS X 10_15_7) AppleWebKit/537.36 (KHTML, like Gecko) Chrome/138.0.0.0 Safari/537.36","Macintosh","Chrome","138.0.0.0","OS X","10_15_7","https://app.prolific.com/","pt-PT,pt;q=0.9,en-US;q=0.8,en;q=0.7,ca;q=0.6,fr;q=0.5,de;q=0.4","66db15814e7818d8b9593ad5","68764874ac79eee8c1d4cb03","6878c981b0ce56d959e21918","2","0","66db15814e7818d8b9593ad5","2","0","2025-07-17T10:04:53.813Z","","","","","","","","","","","MotivationQ","","50","","","","","","","","","","","","","","","","","","","","","","","","","","","","",""
"","","","","ctl-task-cpt","24","280044","0.0-5.0-0.3","130","1","2025-07-17 10:00:40","1f75c3e559b7213887762d5229550c2b","89.154.153.225","Mozilla/5.0 (Macintosh; Intel Mac OS X 10_15_7) AppleWebKit/537.36 (KHTML, like Gecko) Chrome/138.0.0.0 Safari/537.36","Macintosh","Chrome","138.0.0.0","OS X","10_15_7","https://app.prolific.com/","pt-PT,pt;q=0.9,en-US;q=0.8,en;q=0.7,ca;q=0.6,fr;q=0.5,de;q=0.4","66db15814e7818d8b9593ad5","68764874ac79eee8c1d4cb03","6878c981b0ce56d959e21918","2","0","66db15814e7818d8b9593ad5","2","0","2025-07-17T10:05:21.372Z","","","","","","","","","","","","","","win-only","0","g1:NW,g2:SE","0.7","4","0","253712","1089.7","6091.3","24550.9","1","4","4","6","2","4","3","13","10","0.09848484848484848","1371.5","3000","935","[""down"",""right""]","{""num_key_presses"":7,""num_perfect"":4,""num_errors"":1,""num_randdir"":2,""num_randdir_good_moves"":2,""num_whilered"":0,""num_whileblue"":0,""num_blue"":0,""num_good_moves"":6}","[737,729.796875,0.2,737,729.796875,100.9,737,729.796875,201.3,737,729.796875,307.1,737,729.796875,411.1,737,729.796875,518.1,737,729.796875,620.9,737,729.796875,726.3,737,729.796875,827.1,905,905.796875,931.2,1359,1409.796875,1036.5,1363,1423.796875,1140.9,1357,1423.796875,1241.4,1357,1423.796875,1346.5,1357,1423.796875,1451.4,1357,1423.796875,1555.6,1793,1193.796875,1656,1897,1145.796875,1756.5,1897,1145.796875,1856.5,1897,1145.796875,1960.6,1897,1145.796875,2060.8,1897,1145.796875,2165.8,1897,1145.796875,2266.2,1897,1145.796875,2371.5,1897,1145.796875,2476.1,1897,1145.796875,2576.3,1897,1145.796875,2680.5,1897,1145.796875,2780.5,1897,1145.796875,2886.3,1897,1145.796875,2992.4,1897,1145.796875,3095.3,1897,1145.796875,3196.2,1897,1145.796875,3301.4,1897,1145.796875,3406.4,1897,1145.796875,3510.8,1897,1145.796875,3610.9,1897,1145.796875,3717.9,1897,1145.796875,3822.1,1897,1145.796875,3925.7,1897,1145.796875,4026.4,1897,1145.796875,4130.8,1897,1145.796875,4232,1897,1145.796875,4335.4,1897,1145.796875,4435.7,1897,1145.796875,4535.8,1897,1145.796875,4641.1,1897,1145.796875,4742.8,1897,1145.796875,4843.2,1897,1145.796875,4945.5]","[321,321.1,1000,0,-678.9,""error"",""-"",""-"",""no_move"",4671.7,4350.4,2959.3,1324.2,388.2,""smooth"",""down"",""down"",""good_move"",7475.2,2803.1,2402.2,4672.1,400.9,""smooth"",""down"",""down"",""good_move"",10357.2,2881.8,2567.7,7475.4,314.1,""smooth"",""right"",""right"",""good_move"",13157,2799.3,2479.4,10357.7,319.9,""oops"",""right"",""down"",""good_move"",15666.2,2509,2189.7,13157.2,319.3,""oops"",""right"",""right"",""good_move"",18372.8,2706.5,2358.7,15666.3,347.8,""smooth"",""right"",""right"",""good_move""]","",""
"3530","","<div style=""width:500px;"">
  <p>What determined the result of this run?</p>
  </div>","64","html-slider-response","25","283575","0.0-5.0-1.3","130","1","2025-07-17 10:00:40","1f75c3e559b7213887762d5229550c2b","89.154.153.225","Mozilla/5.0 (Macintosh; Intel Mac OS X 10_15_7) AppleWebKit/537.36 (KHTML, like Gecko) Chrome/138.0.0.0 Safari/537.36","Macintosh","Chrome","138.0.0.0","OS X","10_15_7","https://app.prolific.com/","pt-PT,pt;q=0.9,en-US;q=0.8,en;q=0.7,ca;q=0.6,fr;q=0.5,de;q=0.4","66db15814e7818d8b9593ad5","68764874ac79eee8c1d4cb03","6878c981b0ce56d959e21918","2","0","66db15814e7818d8b9593ad5","2","0","2025-07-17T10:05:24.904Z","","","","","","","","","","","AttribQ","","50","","","","","","","","","","","","","","","","","","","","","","","","","","","","",""
"2065","","<div style=""width:500px;"">
  <p>How much control did you have over the ball?</p>
  </div>","39","html-slider-response","26","285641","0.0-5.0-2.3","130","1","2025-07-17 10:00:40","1f75c3e559b7213887762d5229550c2b","89.154.153.225","Mozilla/5.0 (Macintosh; Intel Mac OS X 10_15_7) AppleWebKit/537.36 (KHTML, like Gecko) Chrome/138.0.0.0 Safari/537.36","Macintosh","Chrome","138.0.0.0","OS X","10_15_7","https://app.prolific.com/","pt-PT,pt;q=0.9,en-US;q=0.8,en;q=0.7,ca;q=0.6,fr;q=0.5,de;q=0.4","66db15814e7818d8b9593ad5","68764874ac79eee8c1d4cb03","6878c981b0ce56d959e21918","2","0","66db15814e7818d8b9593ad5","2","0","2025-07-17T10:05:26.969Z","","","","","","","","","","","ControlQ","","50","","","","","","","","","","","","","","","","","","","","","","","","","","","","",""
"2735","","<div style=""width:500px;"">
  <p>How would you describe your current emotional state?</p>
  </div>","40","html-slider-response","27","288378","0.0-5.0-3.3","130","1","2025-07-17 10:00:40","1f75c3e559b7213887762d5229550c2b","89.154.153.225","Mozilla/5.0 (Macintosh; Intel Mac OS X 10_15_7) AppleWebKit/537.36 (KHTML, like Gecko) Chrome/138.0.0.0 Safari/537.36","Macintosh","Chrome","138.0.0.0","OS X","10_15_7","https://app.prolific.com/","pt-PT,pt;q=0.9,en-US;q=0.8,en;q=0.7,ca;q=0.6,fr;q=0.5,de;q=0.4","66db15814e7818d8b9593ad5","68764874ac79eee8c1d4cb03","6878c981b0ce56d959e21918","2","0","66db15814e7818d8b9593ad5","2","0","2025-07-17T10:05:29.706Z","","","","","","","","","","","StressQ","","50","","","","","","","","","","","","","","","","","","","","","","","","","","","","",""
"2161","","<div style=""width:500px;"">
  <p>What best describes how you currently feel?</p>
  </div>","55","html-slider-response","28","290539","0.0-5.0-4.3","130","1","2025-07-17 10:00:40","1f75c3e559b7213887762d5229550c2b","89.154.153.225","Mozilla/5.0 (Macintosh; Intel Mac OS X 10_15_7) AppleWebKit/537.36 (KHTML, like Gecko) Chrome/138.0.0.0 Safari/537.36","Macintosh","Chrome","138.0.0.0","OS X","10_15_7","https://app.prolific.com/","pt-PT,pt;q=0.9,en-US;q=0.8,en;q=0.7,ca;q=0.6,fr;q=0.5,de;q=0.4","66db15814e7818d8b9593ad5","68764874ac79eee8c1d4cb03","6878c981b0ce56d959e21918","2","0","66db15814e7818d8b9593ad5","2","0","2025-07-17T10:05:31.867Z","","","","","","","","","","","MotivationQ","","50","","","","","","","","","","","","","","","","","","","","","","","","","","","","",""
"","","","","ctl-task-cpt","29","333550","0.0-5.0-0.4","130","1","2025-07-17 10:00:40","1f75c3e559b7213887762d5229550c2b","89.154.153.225","Mozilla/5.0 (Macintosh; Intel Mac OS X 10_15_7) AppleWebKit/537.36 (KHTML, like Gecko) Chrome/138.0.0.0 Safari/537.36","Macintosh","Chrome","138.0.0.0","OS X","10_15_7","https://app.prolific.com/","pt-PT,pt;q=0.9,en-US;q=0.8,en;q=0.7,ca;q=0.6,fr;q=0.5,de;q=0.4","66db15814e7818d8b9593ad5","68764874ac79eee8c1d4cb03","6878c981b0ce56d959e21918","2","0","66db15814e7818d8b9593ad5","2","0","2025-07-17T10:06:14.878Z","","","","","","","","","","","","","","win-only","1","g1:NE,g2:SW","0.6","5","0","291765.5","1137.7","6141","40001.3","1","4","4","6","2","-4","-4","9","13","0.06818181818181818","1627.1","3000","-3005","[""down"",""left""]","{""num_key_presses"":9,""num_perfect"":6,""num_errors"":0,""num_randdir"":3,""num_randdir_good_moves"":1,""num_whilered"":0,""num_whileblue"":0,""num_blue"":2,""num_good_moves"":7}","[747,727.796875,0.1,747,727.796875,103,747,727.796875,208.5,747,727.796875,313.6,747,727.796875,418.6,747,727.796875,522.5,747,727.796875,622.8,747,727.796875,727.5,747,727.796875,828.2,747,727.796875,932.6,417,885.796875,1033.2,161,1035.796875,1138.6,137,1111.796875,1242.5,171,1247.796875,1343.6,177,1373.796875,1448.5,177,1373.796875,1553.1,177,1373.796875,1658.6,177,1373.796875,1763.9,177,1373.796875,1868.2,445,1325.796875,1968.2,1065,1353.796875,2068.3,1115,1371.796875,2172.9,1115,1371.796875,2278.7,1115,1371.796875,2383.1,1115,1371.796875,2483.3,1115,1371.796875,2583.4,1115,1371.796875,2683.6,1115,1371.796875,2788.2,1115,1371.796875,2888.3,1115,1371.796875,2993.5,1115,1371.796875,3097.5,1115,1371.796875,3197.7,1115,1371.796875,3297.7,1115,1371.796875,3403.1,1115,1371.796875,3503.4,1115,1371.796875,3608.6,1115,1371.796875,3713.5,1115,1371.796875,3818.3,1115,1371.796875,3922.8,1115,1371.796875,4022.9,1115,1371.796875,4127.7,1115,1371.796875,4228.4,1115,1371.796875,4328.6,1115,1371.796875,4432.6,1115,1371.796875,4538.3,1115,1371.796875,4643.3,1115,1371.796875,4747.6,1115,1371.796875,4847.7,1115,1371.796875,4947.8]","[5389.3,5389.3,3040.2,2004.6,344.5,""smooth"",""down"",""down"",""good_move"",8096.3,2706.6,2361.1,5389.7,345.5,""smooth"",""left"",""left"",""good_move"",11006.8,2910.2,2602.7,8096.6,307.5,""smooth"",""left"",""left"",""good_move"",13715.5,2708.5,2343.7,11007,364.8,""smooth"",""down"",""down"",""good_move"",15763.7,2048,1760.5,13715.7,287.5,""oops"",""left"",""right"",""bad_move"",18430.7,2666.7,2347.6,15764,319.1,""smooth"",""left"",""left"",""good_move"",25497.3,7066.5,3320.4,21814.5,362.4,""oops"",""left"",""down"",""good_move"",28728.9,3231.4,2865.4,25497.5,366,""oops"",""left"",""right"",""bad_move"",31605.7,2876.5,2547.5,28729.2,329,""smooth"",""left"",""left"",""good_move""]","",""
"2266","","<div style=""width:500px;"">
  <p>What determined the result of this run?</p>
  </div>","34","html-slider-response","30","335817","0.0-5.0-1.4","130","1","2025-07-17 10:00:40","1f75c3e559b7213887762d5229550c2b","89.154.153.225","Mozilla/5.0 (Macintosh; Intel Mac OS X 10_15_7) AppleWebKit/537.36 (KHTML, like Gecko) Chrome/138.0.0.0 Safari/537.36","Macintosh","Chrome","138.0.0.0","OS X","10_15_7","https://app.prolific.com/","pt-PT,pt;q=0.9,en-US;q=0.8,en;q=0.7,ca;q=0.6,fr;q=0.5,de;q=0.4","66db15814e7818d8b9593ad5","68764874ac79eee8c1d4cb03","6878c981b0ce56d959e21918","2","0","66db15814e7818d8b9593ad5","2","0","2025-07-17T10:06:17.145Z","","","","","","","","","","","AttribQ","","50","","","","","","","","","","","","","","","","","","","","","","","","","","","","",""
"2329","","<div style=""width:500px;"">
  <p>How much control did you have over the ball?</p>
  </div>","32","html-slider-response","31","338147","0.0-5.0-2.4","130","1","2025-07-17 10:00:40","1f75c3e559b7213887762d5229550c2b","89.154.153.225","Mozilla/5.0 (Macintosh; Intel Mac OS X 10_15_7) AppleWebKit/537.36 (KHTML, like Gecko) Chrome/138.0.0.0 Safari/537.36","Macintosh","Chrome","138.0.0.0","OS X","10_15_7","https://app.prolific.com/","pt-PT,pt;q=0.9,en-US;q=0.8,en;q=0.7,ca;q=0.6,fr;q=0.5,de;q=0.4","66db15814e7818d8b9593ad5","68764874ac79eee8c1d4cb03","6878c981b0ce56d959e21918","2","0","66db15814e7818d8b9593ad5","2","0","2025-07-17T10:06:19.475Z","","","","","","","","","","","ControlQ","","50","","","","","","","","","","","","","","","","","","","","","","","","","","","","",""
"2305","","<div style=""width:500px;"">
  <p>How would you describe your current emotional state?</p>
  </div>","53","html-slider-response","32","340453","0.0-5.0-3.4","130","1","2025-07-17 10:00:40","1f75c3e559b7213887762d5229550c2b","89.154.153.225","Mozilla/5.0 (Macintosh; Intel Mac OS X 10_15_7) AppleWebKit/537.36 (KHTML, like Gecko) Chrome/138.0.0.0 Safari/537.36","Macintosh","Chrome","138.0.0.0","OS X","10_15_7","https://app.prolific.com/","pt-PT,pt;q=0.9,en-US;q=0.8,en;q=0.7,ca;q=0.6,fr;q=0.5,de;q=0.4","66db15814e7818d8b9593ad5","68764874ac79eee8c1d4cb03","6878c981b0ce56d959e21918","2","0","66db15814e7818d8b9593ad5","2","0","2025-07-17T10:06:21.781Z","","","","","","","","","","","StressQ","","50","","","","","","","","","","","","","","","","","","","","","","","","","","","","",""
"2009","","<div style=""width:500px;"">
  <p>What best describes how you currently feel?</p>
  </div>","54","html-slider-response","33","342463","0.0-5.0-4.4","130","1","2025-07-17 10:00:40","1f75c3e559b7213887762d5229550c2b","89.154.153.225","Mozilla/5.0 (Macintosh; Intel Mac OS X 10_15_7) AppleWebKit/537.36 (KHTML, like Gecko) Chrome/138.0.0.0 Safari/537.36","Macintosh","Chrome","138.0.0.0","OS X","10_15_7","https://app.prolific.com/","pt-PT,pt;q=0.9,en-US;q=0.8,en;q=0.7,ca;q=0.6,fr;q=0.5,de;q=0.4","66db15814e7818d8b9593ad5","68764874ac79eee8c1d4cb03","6878c981b0ce56d959e21918","2","0","66db15814e7818d8b9593ad5","2","0","2025-07-17T10:06:23.791Z","","","","","","","","","","","MotivationQ","","50","","","","","","","","","","","","","","","","","","","","","","","","","","","","",""
"","","","","ctl-task-cpt","34","387161","0.0-5.0-0.5","130","1","2025-07-17 10:00:40","1f75c3e559b7213887762d5229550c2b","89.154.153.225","Mozilla/5.0 (Macintosh; Intel Mac OS X 10_15_7) AppleWebKit/537.36 (KHTML, like Gecko) Chrome/138.0.0.0 Safari/537.36","Macintosh","Chrome","138.0.0.0","OS X","10_15_7","https://app.prolific.com/","pt-PT,pt;q=0.9,en-US;q=0.8,en;q=0.7,ca;q=0.6,fr;q=0.5,de;q=0.4","66db15814e7818d8b9593ad5","68764874ac79eee8c1d4cb03","6878c981b0ce56d959e21918","2","0","66db15814e7818d8b9593ad5","2","0","2025-07-17T10:07:08.489Z","","","","","","","","","","","","","","win-only","3","g1:SW,g2:NE","0.5","6","0","343689","1122.2","6125.7","41685.5","1","4","8","6","1","-1","-1","8","9","0.06060606060606061","1395.2","3000","-3005","[""down"",""left""]","{""num_key_presses"":8,""num_perfect"":4,""num_errors"":0,""num_randdir"":4,""num_randdir_good_moves"":1,""num_whilered"":0,""num_whileblue"":0,""num_blue"":3,""num_good_moves"":5}","[719,717.796875,0.2,719,717.796875,103.7,719,717.796875,209,719,717.796875,313.4,719,717.796875,413.4,719,717.796875,518.3,719,717.796875,618.3,765,679.796875,719,749,693.796875,823.1,121,1289.796875,923.5,43,1363.796875,1028.8,59,1365.796875,1134,103,1373.796875,1238.5,103,1373.796875,1338.9,103,1373.796875,1443.6,103,1373.796875,1548.1,261,1371.796875,1648.1,631,1397.796875,1748.2,631,1397.796875,1854.1,631,1397.796875,1954.2,631,1397.796875,2059.1,631,1397.796875,2163.5,631,1397.796875,2268.8,631,1397.796875,2373.3,631,1397.796875,2473.3,631,1397.796875,2578.6,631,1397.796875,2683,631,1397.796875,2783,631,1397.796875,2883.3,631,1397.796875,2988.8,631,1397.796875,3088.8,631,1397.796875,3193.1,631,1397.796875,3293.9,631,1397.796875,3393.9,631,1397.796875,3498.3,631,1397.796875,3603.4,631,1397.796875,3703.5,631,1397.796875,3809,631,1397.796875,3913.6,631,1397.796875,4018.4,631,1397.796875,4123,631,1397.796875,4229,631,1397.796875,4333.1,631,1397.796875,4438.2,631,1397.796875,4538.8,631,1397.796875,4643.8,631,1397.796875,4743.9,631,1397.796875,4844.3,631,1397.796875,4948.1]","[1297.8,1297.9,1000,0,297.9,""oops"",""down"",""up"",""bad_move"",8288.8,6990.5,1942.1,5885,461.7,""smooth"",""left"",""left"",""good_move"",10978.2,2689,2355.5,8289.2,333.5,""smooth"",""left"",""left"",""good_move"",13639.8,2661.3,2359,10978.5,302.3,""oops"",""down"",""right"",""bad_move"",20371.8,6731.7,3102.4,16919.5,349.9,""smooth"",""down"",""down"",""good_move"",27198.3,6826.3,2550.8,24305.1,342.4,""oops"",""down"",""up"",""bad_move"",30347.1,3148.4,2805.6,27198.7,342.8,""oops"",""down"",""down"",""good_move"",33176.6,2829.3,2414.4,30347.3,414.9,""smooth"",""down"",""down"",""good_move""]","",""
"2833","","<div style=""width:500px;"">
  <p>What determined the result of this run?</p>
  </div>","26","html-slider-response","35","389995","0.0-5.0-1.5","130","1","2025-07-17 10:00:40","1f75c3e559b7213887762d5229550c2b","89.154.153.225","Mozilla/5.0 (Macintosh; Intel Mac OS X 10_15_7) AppleWebKit/537.36 (KHTML, like Gecko) Chrome/138.0.0.0 Safari/537.36","Macintosh","Chrome","138.0.0.0","OS X","10_15_7","https://app.prolific.com/","pt-PT,pt;q=0.9,en-US;q=0.8,en;q=0.7,ca;q=0.6,fr;q=0.5,de;q=0.4","66db15814e7818d8b9593ad5","68764874ac79eee8c1d4cb03","6878c981b0ce56d959e21918","2","0","66db15814e7818d8b9593ad5","2","0","2025-07-17T10:07:11.323Z","","","","","","","","","","","AttribQ","","50","","","","","","","","","","","","","","","","","","","","","","","","","","","","",""
"2424","","<div style=""width:500px;"">
  <p>How much control did you have over the ball?</p>
  </div>","16","html-slider-response","36","392419","0.0-5.0-2.5","130","1","2025-07-17 10:00:40","1f75c3e559b7213887762d5229550c2b","89.154.153.225","Mozilla/5.0 (Macintosh; Intel Mac OS X 10_15_7) AppleWebKit/537.36 (KHTML, like Gecko) Chrome/138.0.0.0 Safari/537.36","Macintosh","Chrome","138.0.0.0","OS X","10_15_7","https://app.prolific.com/","pt-PT,pt;q=0.9,en-US;q=0.8,en;q=0.7,ca;q=0.6,fr;q=0.5,de;q=0.4","66db15814e7818d8b9593ad5","68764874ac79eee8c1d4cb03","6878c981b0ce56d959e21918","2","0","66db15814e7818d8b9593ad5","2","0","2025-07-17T10:07:13.747Z","","","","","","","","","","","ControlQ","","50","","","","","","","","","","","","","","","","","","","","","","","","","","","","",""
"2449","","<div style=""width:500px;"">
  <p>How would you describe your current emotional state?</p>
  </div>","69","html-slider-response","37","394868","0.0-5.0-3.5","130","1","2025-07-17 10:00:40","1f75c3e559b7213887762d5229550c2b","89.154.153.225","Mozilla/5.0 (Macintosh; Intel Mac OS X 10_15_7) AppleWebKit/537.36 (KHTML, like Gecko) Chrome/138.0.0.0 Safari/537.36","Macintosh","Chrome","138.0.0.0","OS X","10_15_7","https://app.prolific.com/","pt-PT,pt;q=0.9,en-US;q=0.8,en;q=0.7,ca;q=0.6,fr;q=0.5,de;q=0.4","66db15814e7818d8b9593ad5","68764874ac79eee8c1d4cb03","6878c981b0ce56d959e21918","2","0","66db15814e7818d8b9593ad5","2","0","2025-07-17T10:07:16.197Z","","","","","","","","","","","StressQ","","50","","","","","","","","","","","","","","","","","","","","","","","","","","","","",""
"3126","","<div style=""width:500px;"">
  <p>What best describes how you currently feel?</p>
  </div>","57","html-slider-response","38","397995","0.0-5.0-4.5","130","1","2025-07-17 10:00:40","1f75c3e559b7213887762d5229550c2b","89.154.153.225","Mozilla/5.0 (Macintosh; Intel Mac OS X 10_15_7) AppleWebKit/537.36 (KHTML, like Gecko) Chrome/138.0.0.0 Safari/537.36","Macintosh","Chrome","138.0.0.0","OS X","10_15_7","https://app.prolific.com/","pt-PT,pt;q=0.9,en-US;q=0.8,en;q=0.7,ca;q=0.6,fr;q=0.5,de;q=0.4","66db15814e7818d8b9593ad5","68764874ac79eee8c1d4cb03","6878c981b0ce56d959e21918","2","0","66db15814e7818d8b9593ad5","2","0","2025-07-17T10:07:19.324Z","","","","","","","","","","","MotivationQ","","50","","","","","","","","","","","","","","","","","","","","","","","","","","","","",""
"","","","","ctl-task-cpt","39","451923","0.0-5.0-0.6","130","1","2025-07-17 10:00:40","1f75c3e559b7213887762d5229550c2b","89.154.153.225","Mozilla/5.0 (Macintosh; Intel Mac OS X 10_15_7) AppleWebKit/537.36 (KHTML, like Gecko) Chrome/138.0.0.0 Safari/537.36","Macintosh","Chrome","138.0.0.0","OS X","10_15_7","https://app.prolific.com/","pt-PT,pt;q=0.9,en-US;q=0.8,en;q=0.7,ca;q=0.6,fr;q=0.5,de;q=0.4","66db15814e7818d8b9593ad5","68764874ac79eee8c1d4cb03","6878c981b0ce56d959e21918","2","0","66db15814e7818d8b9593ad5","2","0","2025-07-17T10:08:13.251Z","","","","","","","","","","","","","","win-only","0","g1:NW,g2:SE","0.4","7","0","399221.5","1081.4","6086.2","50916","1","4","8","6","2","-8","-8","0","8","0","1387.9","3000","-3000","[""down"",""right""]","{""num_key_presses"":8,""num_perfect"":3,""num_errors"":0,""num_randdir"":5,""num_randdir_good_moves"":2,""num_whilered"":0,""num_whileblue"":0,""num_blue"":6,""num_good_moves"":5}","[733,731.796875,0.1,733,731.796875,104.4,733,731.796875,209,733,731.796875,309,733,731.796875,409.6,733,731.796875,509.6,733,731.796875,614.5,733,731.796875,719.8,733,731.796875,824.1,743,749.796875,929.2,1237,1303.796875,1034,1271,1363.796875,1134.3,1251,1367.796875,1234.3,1251,1367.796875,1339.4,1251,1367.796875,1439.5,1251,1367.796875,1539.6,1365,1335.796875,1643.8,1913,1261.796875,1744,1913,1261.796875,1844.5,1913,1261.796875,1949,1913,1261.796875,2049.6,1913,1261.796875,2154,1913,1261.796875,2259.7,1913,1261.796875,2364.1,1913,1261.796875,2469.8,1913,1261.796875,2573.8,1913,1261.796875,2673.8,1913,1261.796875,2774.3,1913,1261.796875,2874.5,1913,1261.796875,2978.8,1913,1261.796875,3079.6,1913,1261.796875,3179.7,1913,1261.796875,3279.8,1913,1261.796875,3380.6,1913,1261.796875,3483.9,1913,1261.796875,3584.4,1913,1261.796875,3684.7,1913,1261.796875,3789.4,1913,1261.796875,3894.6,1913,1261.796875,3999.4,1913,1261.796875,4099.5,1913,1261.796875,4203.8,1913,1261.796875,4304.1,1913,1261.796875,4404.1,1913,1261.796875,4509.3,1913,1261.796875,4609.4,1913,1261.796875,4709.4,1913,1261.796875,4809.5,1913,1261.796875,4909.6]","[1312.5,1312.5,1000,0,312.5,""oops"",""down"",""left"",""bad_move"",25435.6,24122.8,2575.1,22494,366.5,""smooth"",""down"",""down"",""good_move"",28966.4,3530.5,3004,25435.9,526.5,""oops"",""down"",""up"",""bad_move"",31939.4,2972.7,2489,28966.7,483.7,""smooth"",""down"",""down"",""good_move"",34584.6,2645,2300.8,31939.6,344.2,""oops"",""right"",""down"",""good_move"",37043.3,2458.4,2144.4,34584.9,314,""oops"",""right"",""up"",""bad_move"",40199.3,3155.7,2783.3,37043.6,372.4,""oops"",""down"",""down"",""good_move"",43112.3,2912.8,2590.2,40199.5,322.6,""smooth"",""down"",""down"",""good_move""]","",""
"2166","","<div style=""width:500px;"">
  <p>What determined the result of this run?</p>
  </div>","16","html-slider-response","40","454090","0.0-5.0-1.6","130","1","2025-07-17 10:00:40","1f75c3e559b7213887762d5229550c2b","89.154.153.225","Mozilla/5.0 (Macintosh; Intel Mac OS X 10_15_7) AppleWebKit/537.36 (KHTML, like Gecko) Chrome/138.0.0.0 Safari/537.36","Macintosh","Chrome","138.0.0.0","OS X","10_15_7","https://app.prolific.com/","pt-PT,pt;q=0.9,en-US;q=0.8,en;q=0.7,ca;q=0.6,fr;q=0.5,de;q=0.4","66db15814e7818d8b9593ad5","68764874ac79eee8c1d4cb03","6878c981b0ce56d959e21918","2","0","66db15814e7818d8b9593ad5","2","0","2025-07-17T10:08:15.418Z","","","","","","","","","","","AttribQ","","50","","","","","","","","","","","","","","","","","","","","","","","","","","","","",""
"3789","","<div style=""width:500px;"">
  <p>How much control did you have over the ball?</p>
  </div>","16","html-slider-response","41","457879","0.0-5.0-2.6","130","1","2025-07-17 10:00:40","1f75c3e559b7213887762d5229550c2b","89.154.153.225","Mozilla/5.0 (Macintosh; Intel Mac OS X 10_15_7) AppleWebKit/537.36 (KHTML, like Gecko) Chrome/138.0.0.0 Safari/537.36","Macintosh","Chrome","138.0.0.0","OS X","10_15_7","https://app.prolific.com/","pt-PT,pt;q=0.9,en-US;q=0.8,en;q=0.7,ca;q=0.6,fr;q=0.5,de;q=0.4","66db15814e7818d8b9593ad5","68764874ac79eee8c1d4cb03","6878c981b0ce56d959e21918","2","0","66db15814e7818d8b9593ad5","2","0","2025-07-17T10:08:19.208Z","","","","","","","","","","","ControlQ","","50","","","","","","","","","","","","","","","","","","","","","","","","","","","","",""
"1450","","<div style=""width:500px;"">
  <p>How would you describe your current emotional state?</p>
  </div>","84","html-slider-response","42","459331","0.0-5.0-3.6","130","1","2025-07-17 10:00:40","1f75c3e559b7213887762d5229550c2b","89.154.153.225","Mozilla/5.0 (Macintosh; Intel Mac OS X 10_15_7) AppleWebKit/537.36 (KHTML, like Gecko) Chrome/138.0.0.0 Safari/537.36","Macintosh","Chrome","138.0.0.0","OS X","10_15_7","https://app.prolific.com/","pt-PT,pt;q=0.9,en-US;q=0.8,en;q=0.7,ca;q=0.6,fr;q=0.5,de;q=0.4","66db15814e7818d8b9593ad5","68764874ac79eee8c1d4cb03","6878c981b0ce56d959e21918","2","0","66db15814e7818d8b9593ad5","2","0","2025-07-17T10:08:20.659Z","","","","","","","","","","","StressQ","","50","","","","","","","","","","","","","","","","","","","","","","","","","","","","",""
"1858","","<div style=""width:500px;"">
  <p>What best describes how you currently feel?</p>
  </div>","54","html-slider-response","43","461190","0.0-5.0-4.6","130","1","2025-07-17 10:00:40","1f75c3e559b7213887762d5229550c2b","89.154.153.225","Mozilla/5.0 (Macintosh; Intel Mac OS X 10_15_7) AppleWebKit/537.36 (KHTML, like Gecko) Chrome/138.0.0.0 Safari/537.36","Macintosh","Chrome","138.0.0.0","OS X","10_15_7","https://app.prolific.com/","pt-PT,pt;q=0.9,en-US;q=0.8,en;q=0.7,ca;q=0.6,fr;q=0.5,de;q=0.4","66db15814e7818d8b9593ad5","68764874ac79eee8c1d4cb03","6878c981b0ce56d959e21918","2","0","66db15814e7818d8b9593ad5","2","0","2025-07-17T10:08:22.518Z","","","","","","","","","","","MotivationQ","","50","","","","","","","","","","","","","","","","","","","","","","","","","","","","",""
"","","","","ctl-task-cpt","44","504156","0.0-5.0-0.7","130","1","2025-07-17 10:00:40","1f75c3e559b7213887762d5229550c2b","89.154.153.225","Mozilla/5.0 (Macintosh; Intel Mac OS X 10_15_7) AppleWebKit/537.36 (KHTML, like Gecko) Chrome/138.0.0.0 Safari/537.36","Macintosh","Chrome","138.0.0.0","OS X","10_15_7","https://app.prolific.com/","pt-PT,pt;q=0.9,en-US;q=0.8,en;q=0.7,ca;q=0.6,fr;q=0.5,de;q=0.4","66db15814e7818d8b9593ad5","68764874ac79eee8c1d4cb03","6878c981b0ce56d959e21918","2","0","66db15814e7818d8b9593ad5","2","0","2025-07-17T10:09:05.484Z","","","","","","","","","","","","","","win-only","1","g1:NE,g2:SW","0.3","8","0","462415.3","1121.4","6126.2","39956.1","1","4","4","6","1","-1","-1","0","0","0","1252.8","3000","-3000","[""up"",""right""]","{""num_key_presses"":7,""num_perfect"":2,""num_errors"":0,""num_randdir"":5,""num_randdir_good_moves"":2,""num_whilered"":0,""num_whileblue"":0,""num_blue"":3,""num_good_moves"":4}","[739,743.796875,0.1,739,743.796875,104.1,739,743.796875,204.2,739,743.796875,309.3,739,743.796875,413.8,739,743.796875,514.6,739,743.796875,618.8,739,743.796875,719.1,891,583.796875,823.9,1339,111.796875,924.7,1345,113.796875,1025,1345,115.796875,1129.8,1345,115.796875,1234.5,1345,115.796875,1334.7,1345,115.796875,1438.9,1711,495.796875,1539,1835,643.796875,1644.9,1835,643.796875,1748.9,1835,643.796875,1849.1,1835,643.796875,1949.2,1835,643.796875,2049.2,1835,643.796875,2155,1835,643.796875,2259.1,1835,643.796875,2359.4,1835,643.796875,2463.9,1835,643.796875,2569.8,1835,643.796875,2674.7,1835,643.796875,2779.8,1835,643.796875,2884.9,1835,643.796875,2989.3,1835,643.796875,3093.9,1835,643.796875,3194.5,1835,643.796875,3299,1835,643.796875,3399.9,1835,643.796875,3504,1835,643.796875,3604.4,1835,643.796875,3709,1835,643.796875,3809.1,1835,643.796875,3909.6,1835,643.796875,4009.6,1835,643.796875,4113.8,1835,643.796875,4213.8,1835,643.796875,4314.5,1835,643.796875,4419.1,1835,643.796875,4519.7,1835,643.796875,4624.9,1835,643.796875,4729.5,1835,643.796875,4829.6,1835,643.796875,4934.8]","[1342.4,1342.4,1000,0,342.4,""smooth"",""up"",""up"",""good_move"",3900.1,2557.5,1809.9,1342.6,747.6,""oops"",""up"",""down"",""bad_move"",14520.2,10619.7,3331.6,10864.5,324.1,""smooth"",""up"",""up"",""good_move"",16929.7,2409.3,1988.6,14520.4,420.7,""oops"",""up"",""left"",""bad_move"",21334,4404.1,4097.7,16929.9,306.4,""oops"",""right"",""right"",""good_move"",27711.8,6377.5,2776.5,24570.2,365.1,""oops"",""right"",""left"",""bad_move"",30954.1,3242.1,2842.8,27712,399.3,""oops"",""up"",""right"",""good_move""]","",""
"1958","","<div style=""width:500px;"">
  <p>What determined the result of this run?</p>
  </div>","18","html-slider-response","45","506115","0.0-5.0-1.7","130","1","2025-07-17 10:00:40","1f75c3e559b7213887762d5229550c2b","89.154.153.225","Mozilla/5.0 (Macintosh; Intel Mac OS X 10_15_7) AppleWebKit/537.36 (KHTML, like Gecko) Chrome/138.0.0.0 Safari/537.36","Macintosh","Chrome","138.0.0.0","OS X","10_15_7","https://app.prolific.com/","pt-PT,pt;q=0.9,en-US;q=0.8,en;q=0.7,ca;q=0.6,fr;q=0.5,de;q=0.4","66db15814e7818d8b9593ad5","68764874ac79eee8c1d4cb03","6878c981b0ce56d959e21918","2","0","66db15814e7818d8b9593ad5","2","0","2025-07-17T10:09:07.443Z","","","","","","","","","","","AttribQ","","50","","","","","","","","","","","","","","","","","","","","","","","","","","","","",""
"2128","","<div style=""width:500px;"">
  <p>How much control did you have over the ball?</p>
  </div>","5","html-slider-response","46","508244","0.0-5.0-2.7","130","1","2025-07-17 10:00:40","1f75c3e559b7213887762d5229550c2b","89.154.153.225","Mozilla/5.0 (Macintosh; Intel Mac OS X 10_15_7) AppleWebKit/537.36 (KHTML, like Gecko) Chrome/138.0.0.0 Safari/537.36","Macintosh","Chrome","138.0.0.0","OS X","10_15_7","https://app.prolific.com/","pt-PT,pt;q=0.9,en-US;q=0.8,en;q=0.7,ca;q=0.6,fr;q=0.5,de;q=0.4","66db15814e7818d8b9593ad5","68764874ac79eee8c1d4cb03","6878c981b0ce56d959e21918","2","0","66db15814e7818d8b9593ad5","2","0","2025-07-17T10:09:09.572Z","","","","","","","","","","","ControlQ","","50","","","","","","","","","","","","","","","","","","","","","","","","","","","","",""
"1698","","<div style=""width:500px;"">
  <p>How would you describe your current emotional state?</p>
  </div>","87","html-slider-response","47","509943","0.0-5.0-3.7","130","1","2025-07-17 10:00:40","1f75c3e559b7213887762d5229550c2b","89.154.153.225","Mozilla/5.0 (Macintosh; Intel Mac OS X 10_15_7) AppleWebKit/537.36 (KHTML, like Gecko) Chrome/138.0.0.0 Safari/537.36","Macintosh","Chrome","138.0.0.0","OS X","10_15_7","https://app.prolific.com/","pt-PT,pt;q=0.9,en-US;q=0.8,en;q=0.7,ca;q=0.6,fr;q=0.5,de;q=0.4","66db15814e7818d8b9593ad5","68764874ac79eee8c1d4cb03","6878c981b0ce56d959e21918","2","0","66db15814e7818d8b9593ad5","2","0","2025-07-17T10:09:11.271Z","","","","","","","","","","","StressQ","","50","","","","","","","","","","","","","","","","","","","","","","","","","","","","",""
"2664","","<div style=""width:500px;"">
  <p>What best describes how you currently feel?</p>
  </div>","54","html-slider-response","48","512607","0.0-5.0-4.7","130","1","2025-07-17 10:00:40","1f75c3e559b7213887762d5229550c2b","89.154.153.225","Mozilla/5.0 (Macintosh; Intel Mac OS X 10_15_7) AppleWebKit/537.36 (KHTML, like Gecko) Chrome/138.0.0.0 Safari/537.36","Macintosh","Chrome","138.0.0.0","OS X","10_15_7","https://app.prolific.com/","pt-PT,pt;q=0.9,en-US;q=0.8,en;q=0.7,ca;q=0.6,fr;q=0.5,de;q=0.4","66db15814e7818d8b9593ad5","68764874ac79eee8c1d4cb03","6878c981b0ce56d959e21918","2","0","66db15814e7818d8b9593ad5","2","0","2025-07-17T10:09:13.935Z","","","","","","","","","","","MotivationQ","","50","","","","","","","","","","","","","","","","","","","","","","","","","","","","",""
"","","","","ctl-task-cpt","49","552179","0.0-5.0-0.8","130","1","2025-07-17 10:00:40","1f75c3e559b7213887762d5229550c2b","89.154.153.225","Mozilla/5.0 (Macintosh; Intel Mac OS X 10_15_7) AppleWebKit/537.36 (KHTML, like Gecko) Chrome/138.0.0.0 Safari/537.36","Macintosh","Chrome","138.0.0.0","OS X","10_15_7","https://app.prolific.com/","pt-PT,pt;q=0.9,en-US;q=0.8,en;q=0.7,ca;q=0.6,fr;q=0.5,de;q=0.4","66db15814e7818d8b9593ad5","68764874ac79eee8c1d4cb03","6878c981b0ce56d959e21918","2","0","66db15814e7818d8b9593ad5","2","0","2025-07-17T10:09:53.507Z","","","","","","","","","","","","","","win-only","3","g1:SW,g2:NE","0.2","9","0","513832.8","1201.8","6206.1","36561.2","1","4","8","6","1","-1","-1","0","0","0","1435.3","3000","-3005","[""down"",""left""]","{""num_key_presses"":8,""num_perfect"":0,""num_errors"":0,""num_randdir"":8,""num_randdir_good_moves"":5,""num_whilered"":0,""num_whileblue"":0,""num_blue"":2,""num_good_moves"":5}","[729,731.796875,0.2,729,731.796875,103.8,729,731.796875,208.3,729,731.796875,309.2,729,731.796875,414.3,729,731.796875,514.3,729,731.796875,618.4,729,731.796875,723.4,729,731.796875,823.8,693,755.796875,928.4,55,1295.796875,1029,45,1333.796875,1133.7,123,1321.796875,1239.3,133,1321.796875,1343.2,133,1321.796875,1443.8,133,1321.796875,1544.1,133,1321.796875,1648.3,639,1393.796875,1748.4,1199,1605.796875,1854,1199,1605.796875,1954.1,1199,1605.796875,2058.5,1199,1605.796875,2158.6,1199,1605.796875,2259.2,1199,1605.796875,2363.4,1199,1605.796875,2468.3,1199,1605.796875,2568.3,1199,1605.796875,2668.8,1199,1605.796875,2773.8,1199,1605.796875,2874.3,1199,1605.796875,2978.7,1199,1605.796875,3079,1199,1605.796875,3179.1,1199,1605.796875,3283.8,1199,1605.796875,3383.9,1199,1605.796875,3489.2,1199,1605.796875,3593.4,1199,1605.796875,3694.3,1199,1605.796875,3794.3,1199,1605.796875,3898.9,1199,1605.796875,4003.5,1199,1605.796875,4104.2,1199,1605.796875,4209.3,1199,1605.796875,4314.4,1199,1605.796875,4418.4,1199,1605.796875,4518.7,1199,1605.796875,4623.4,1199,1605.796875,4723.5,1199,1605.796875,4823.8,1199,1605.796875,4923.9]","[1365.1,1365.1,1000,0,365.1,""oops"",""down"",""down"",""good_move"",3862.8,2497.6,2133,1365.3,364.6,""oops"",""down"",""left"",""good_move"",6981.4,3118.2,2754.8,3863.2,363.4,""oops"",""down"",""down"",""good_move"",12964.2,5982.4,2314.6,10239.9,409.7,""oops"",""left"",""up"",""bad_move"",15339.7,2375.4,1971.3,12964.4,404,""oops"",""left"",""right"",""bad_move"",22339.1,6999.3,2639.6,19309.5,390.1,""oops"",""down"",""left"",""good_move"",25131.5,2792.1,2445.9,22339.4,346.2,""oops"",""down"",""left"",""good_move"",27904.3,2772.7,2406.2,25131.6,366.5,""oops"",""down"",""up"",""bad_move""]","",""
"2133","","<div style=""width:500px;"">
  <p>What determined the result of this run?</p>
  </div>","30","html-slider-response","50","554314","0.0-5.0-1.8","130","1","2025-07-17 10:00:40","1f75c3e559b7213887762d5229550c2b","89.154.153.225","Mozilla/5.0 (Macintosh; Intel Mac OS X 10_15_7) AppleWebKit/537.36 (KHTML, like Gecko) Chrome/138.0.0.0 Safari/537.36","Macintosh","Chrome","138.0.0.0","OS X","10_15_7","https://app.prolific.com/","pt-PT,pt;q=0.9,en-US;q=0.8,en;q=0.7,ca;q=0.6,fr;q=0.5,de;q=0.4","66db15814e7818d8b9593ad5","68764874ac79eee8c1d4cb03","6878c981b0ce56d959e21918","2","0","66db15814e7818d8b9593ad5","2","0","2025-07-17T10:09:55.642Z","","","","","","","","","","","AttribQ","","50","","","","","","","","","","","","","","","","","","","","","","","","","","","","",""
"2289","","<div style=""width:500px;"">
  <p>How much control did you have over the ball?</p>
  </div>","18","html-slider-response","51","556603","0.0-5.0-2.8","130","1","2025-07-17 10:00:40","1f75c3e559b7213887762d5229550c2b","89.154.153.225","Mozilla/5.0 (Macintosh; Intel Mac OS X 10_15_7) AppleWebKit/537.36 (KHTML, like Gecko) Chrome/138.0.0.0 Safari/537.36","Macintosh","Chrome","138.0.0.0","OS X","10_15_7","https://app.prolific.com/","pt-PT,pt;q=0.9,en-US;q=0.8,en;q=0.7,ca;q=0.6,fr;q=0.5,de;q=0.4","66db15814e7818d8b9593ad5","68764874ac79eee8c1d4cb03","6878c981b0ce56d959e21918","2","0","66db15814e7818d8b9593ad5","2","0","2025-07-17T10:09:57.931Z","","","","","","","","","","","ControlQ","","50","","","","","","","","","","","","","","","","","","","","","","","","","","","","",""
"2169","","<div style=""width:500px;"">
  <p>How would you describe your current emotional state?</p>
  </div>","76","html-slider-response","52","558773","0.0-5.0-3.8","130","1","2025-07-17 10:00:40","1f75c3e559b7213887762d5229550c2b","89.154.153.225","Mozilla/5.0 (Macintosh; Intel Mac OS X 10_15_7) AppleWebKit/537.36 (KHTML, like Gecko) Chrome/138.0.0.0 Safari/537.36","Macintosh","Chrome","138.0.0.0","OS X","10_15_7","https://app.prolific.com/","pt-PT,pt;q=0.9,en-US;q=0.8,en;q=0.7,ca;q=0.6,fr;q=0.5,de;q=0.4","66db15814e7818d8b9593ad5","68764874ac79eee8c1d4cb03","6878c981b0ce56d959e21918","2","0","66db15814e7818d8b9593ad5","2","0","2025-07-17T10:10:00.101Z","","","","","","","","","","","StressQ","","50","","","","","","","","","","","","","","","","","","","","","","","","","","","","",""
"2344","","<div style=""width:500px;"">
  <p>What best describes how you currently feel?</p>
  </div>","47","html-slider-response","53","561117","0.0-5.0-4.8","130","1","2025-07-17 10:00:40","1f75c3e559b7213887762d5229550c2b","89.154.153.225","Mozilla/5.0 (Macintosh; Intel Mac OS X 10_15_7) AppleWebKit/537.36 (KHTML, like Gecko) Chrome/138.0.0.0 Safari/537.36","Macintosh","Chrome","138.0.0.0","OS X","10_15_7","https://app.prolific.com/","pt-PT,pt;q=0.9,en-US;q=0.8,en;q=0.7,ca;q=0.6,fr;q=0.5,de;q=0.4","66db15814e7818d8b9593ad5","68764874ac79eee8c1d4cb03","6878c981b0ce56d959e21918","2","0","66db15814e7818d8b9593ad5","2","0","2025-07-17T10:10:02.445Z","","","","","","","","","","","MotivationQ","","50","","","","","","","","","","","","","","","","","","","","","","","","","","","","",""
"","","","","ctl-task-cpt","54","588644","0.0-5.0-0.9","130","1","2025-07-17 10:00:40","1f75c3e559b7213887762d5229550c2b","89.154.153.225","Mozilla/5.0 (Macintosh; Intel Mac OS X 10_15_7) AppleWebKit/537.36 (KHTML, like Gecko) Chrome/138.0.0.0 Safari/537.36","Macintosh","Chrome","138.0.0.0","OS X","10_15_7","https://app.prolific.com/","pt-PT,pt;q=0.9,en-US;q=0.8,en;q=0.7,ca;q=0.6,fr;q=0.5,de;q=0.4","66db15814e7818d8b9593ad5","68764874ac79eee8c1d4cb03","6878c981b0ce56d959e21918","2","0","66db15814e7818d8b9593ad5","2","0","2025-07-17T10:10:29.972Z","","","","","","","","","","","","","","win-only","3","g1:SW,g2:NE","0.4","10","0","562341.7","1514.7","6515.5","24515.9","1","4","4","6","1","1","1","1","0","0.007575757575757576","1778.4","3000","810","[""down"",""left""]","{""num_key_presses"":6,""num_perfect"":3,""num_errors"":0,""num_randdir"":3,""num_randdir_good_moves"":2,""num_whilered"":0,""num_whileblue"":0,""num_blue"":1,""num_good_moves"":5}","[727,745.796875,0.1,727,745.796875,100.8,727,745.796875,200.9,727,745.796875,301,727,745.796875,405.6,727,745.796875,505.9,727,745.796875,606.3,727,745.796875,710.6,727,745.796875,811,727,745.796875,916.3,727,745.796875,1016.6,727,745.796875,1121.2,663,799.796875,1221.6,397,1061.796875,1325.8,223,1243.796875,1426.5,193,1261.796875,1531.6,187,1261.796875,1636.2,187,1261.796875,1740.7,187,1261.796875,1841.2,187,1261.796875,1941.2,271,1261.796875,2046.6,721,1349.796875,2151.5,721,1349.796875,2251.5,721,1349.796875,2356.1,721,1349.796875,2460.8,721,1349.796875,2561.6,721,1349.796875,2665.7,721,1349.796875,2766.7,721,1349.796875,2870.5,721,1349.796875,2971,721,1349.796875,3071.3,721,1349.796875,3176.4,721,1349.796875,3280.7,721,1349.796875,3380.7,721,1349.796875,3480.8,721,1349.796875,3581.2,721,1349.796875,3686.2,721,1349.796875,3786.6,721,1349.796875,3891,721,1349.796875,3991,721,1349.796875,4091,721,1349.796875,4191.2,721,1349.796875,4291.4,721,1349.796875,4396.4,721,1349.796875,4500.7,721,1349.796875,4601.1,721,1349.796875,4705.7,721,1349.796875,4810.9,721,1349.796875,4912.1]","[5215.1,5215.1,2775.6,2005,434.5,""smooth"",""down"",""down"",""good_move"",8145.7,2930.3,2573.4,5215.4,356.9,""oops"",""down"",""down"",""good_move"",10512.4,2366.5,2000.1,8145.9,366.4,""oops"",""left"",""up"",""bad_move"",13163,2650.3,2220,10512.7,430.3,""oops"",""down"",""left"",""good_move"",14950.2,1787,1447.1,13163.2,339.9,""smooth"",""down"",""down"",""good_move"",17912.5,2962.1,2660.1,14950.4,302,""smooth"",""left"",""left"",""good_move""]","",""
"2553","","<div style=""width:500px;"">
  <p>What determined the result of this run?</p>
  </div>","45","html-slider-response","55","591198","0.0-5.0-1.9","130","1","2025-07-17 10:00:40","1f75c3e559b7213887762d5229550c2b","89.154.153.225","Mozilla/5.0 (Macintosh; Intel Mac OS X 10_15_7) AppleWebKit/537.36 (KHTML, like Gecko) Chrome/138.0.0.0 Safari/537.36","Macintosh","Chrome","138.0.0.0","OS X","10_15_7","https://app.prolific.com/","pt-PT,pt;q=0.9,en-US;q=0.8,en;q=0.7,ca;q=0.6,fr;q=0.5,de;q=0.4","66db15814e7818d8b9593ad5","68764874ac79eee8c1d4cb03","6878c981b0ce56d959e21918","2","0","66db15814e7818d8b9593ad5","2","0","2025-07-17T10:10:32.526Z","","","","","","","","","","","AttribQ","","50","","","","","","","","","","","","","","","","","","","","","","","","","","","","",""
"2272","","<div style=""width:500px;"">
  <p>How much control did you have over the ball?</p>
  </div>","42","html-slider-response","56","593471","0.0-5.0-2.9","130","1","2025-07-17 10:00:40","1f75c3e559b7213887762d5229550c2b","89.154.153.225","Mozilla/5.0 (Macintosh; Intel Mac OS X 10_15_7) AppleWebKit/537.36 (KHTML, like Gecko) Chrome/138.0.0.0 Safari/537.36","Macintosh","Chrome","138.0.0.0","OS X","10_15_7","https://app.prolific.com/","pt-PT,pt;q=0.9,en-US;q=0.8,en;q=0.7,ca;q=0.6,fr;q=0.5,de;q=0.4","66db15814e7818d8b9593ad5","68764874ac79eee8c1d4cb03","6878c981b0ce56d959e21918","2","0","66db15814e7818d8b9593ad5","2","0","2025-07-17T10:10:34.799Z","","","","","","","","","","","ControlQ","","50","","","","","","","","","","","","","","","","","","","","","","","","","","","","",""
"2280","","<div style=""width:500px;"">
  <p>How would you describe your current emotional state?</p>
  </div>","66","html-slider-response","57","595752","0.0-5.0-3.9","130","1","2025-07-17 10:00:40","1f75c3e559b7213887762d5229550c2b","89.154.153.225","Mozilla/5.0 (Macintosh; Intel Mac OS X 10_15_7) AppleWebKit/537.36 (KHTML, like Gecko) Chrome/138.0.0.0 Safari/537.36","Macintosh","Chrome","138.0.0.0","OS X","10_15_7","https://app.prolific.com/","pt-PT,pt;q=0.9,en-US;q=0.8,en;q=0.7,ca;q=0.6,fr;q=0.5,de;q=0.4","66db15814e7818d8b9593ad5","68764874ac79eee8c1d4cb03","6878c981b0ce56d959e21918","2","0","66db15814e7818d8b9593ad5","2","0","2025-07-17T10:10:37.080Z","","","","","","","","","","","StressQ","","50","","","","","","","","","","","","","","","","","","","","","","","","","","","","",""
"3836","","<div style=""width:500px;"">
  <p>What best describes how you currently feel?</p>
  </div>","47","html-slider-response","58","599589","0.0-5.0-4.9","130","1","2025-07-17 10:00:40","1f75c3e559b7213887762d5229550c2b","89.154.153.225","Mozilla/5.0 (Macintosh; Intel Mac OS X 10_15_7) AppleWebKit/537.36 (KHTML, like Gecko) Chrome/138.0.0.0 Safari/537.36","Macintosh","Chrome","138.0.0.0","OS X","10_15_7","https://app.prolific.com/","pt-PT,pt;q=0.9,en-US;q=0.8,en;q=0.7,ca;q=0.6,fr;q=0.5,de;q=0.4","66db15814e7818d8b9593ad5","68764874ac79eee8c1d4cb03","6878c981b0ce56d959e21918","2","0","66db15814e7818d8b9593ad5","2","0","2025-07-17T10:10:40.917Z","","","","","","","","","","","MotivationQ","","50","","","","","","","","","","","","","","","","","","","","","","","","","","","","",""
"","","","","ctl-task-cpt","59","637218","0.0-5.0-0.10","130","1","2025-07-17 10:00:40","1f75c3e559b7213887762d5229550c2b","89.154.153.225","Mozilla/5.0 (Macintosh; Intel Mac OS X 10_15_7) AppleWebKit/537.36 (KHTML, like Gecko) Chrome/138.0.0.0 Safari/537.36","Macintosh","Chrome","138.0.0.0","OS X","10_15_7","https://app.prolific.com/","pt-PT,pt;q=0.9,en-US;q=0.8,en;q=0.7,ca;q=0.6,fr;q=0.5,de;q=0.4","66db15814e7818d8b9593ad5","68764874ac79eee8c1d4cb03","6878c981b0ce56d959e21918","2","0","66db15814e7818d8b9593ad5","2","0","2025-07-17T10:11:18.546Z","","","","","","","","","","","","","","win-only","2","g1:SE,g2:NW","0.5","11","0","600813.4","1313.9","6315.9","34600.8","1","4","4","6","1","-1","-1","0","1","0","1243.1","3000","-3000","[""down"",""right""]","{""num_key_presses"":8,""num_perfect"":4,""num_errors"":0,""num_randdir"":4,""num_randdir_good_moves"":1,""num_whilered"":0,""num_whileblue"":0,""num_blue"":1,""num_good_moves"":5}","[731,739.796875,0.2,731,739.796875,101.9,731,739.796875,202,731,739.796875,306.3,731,739.796875,411.1,753,739.796875,511.8,1159,911.796875,616.6,1309,1059.796875,722,1309,1061.796875,826.5,1309,1071.796875,926.7,1393,1413.796875,1031.8,1395,1425.796875,1136.6,1395,1425.796875,1236.8,1395,1425.796875,1336.8,1395,1425.796875,1437.2,1395,1425.796875,1542.2,1395,1425.796875,1646.2,1395,1425.796875,1746.5,1395,1425.796875,1851.8,1395,1425.796875,1956.3,1395,1425.796875,2056.6,1395,1425.796875,2161.5,1395,1425.796875,2262,1395,1425.796875,2362.1,1395,1425.796875,2466.6,1395,1425.796875,2567.1,1395,1425.796875,2672.1,1395,1425.796875,2776.8,1395,1425.796875,2882.2,1395,1425.796875,2986.7,1395,1425.796875,3087.2,1395,1425.796875,3192,1395,1425.796875,3297.1,1395,1425.796875,3401.8,1395,1425.796875,3502.2,1395,1425.796875,3606.3,1395,1425.796875,3711.7,1395,1425.796875,3811.9,1395,1425.796875,3912.1,1395,1425.796875,4012.2,1395,1425.796875,4116.3,1395,1425.796875,4216.3,1395,1425.796875,4317.1,1395,1425.796875,4417.8,1395,1425.796875,4521.2,1395,1425.796875,4621.3,1395,1425.796875,4726.4,1395,1425.796875,4826.4,1395,1425.796875,4931.6]","[1349,1349,1000,0,349,""oops"",""down"",""left"",""bad_move"",4145.1,2795.8,2390.8,1349.3,405,""smooth"",""down"",""down"",""good_move"",7306.8,3161.5,2835.4,4145.3,326.1,""oops"",""down"",""left"",""bad_move"",10031.2,2724.3,2339.6,7307,384.7,""oops"",""right"",""right"",""good_move"",12374.2,2342.6,1929.9,10031.6,412.7,""smooth"",""right"",""right"",""good_move"",15276.8,2902.6,2550.2,12374.3,352.4,""smooth"",""right"",""right"",""good_move"",22562.6,7285.6,2927.2,19270,365.4,""smooth"",""down"",""down"",""good_move"",25477.7,2914.8,2580.2,22562.9,334.6,""oops"",""right"",""left"",""bad_move""]","",""
"5372","","<div style=""width:500px;"">
  <p>What determined the result of this run?</p>
  </div>","47","html-slider-response","60","642594","0.0-5.0-1.10","130","1","2025-07-17 10:00:40","1f75c3e559b7213887762d5229550c2b","89.154.153.225","Mozilla/5.0 (Macintosh; Intel Mac OS X 10_15_7) AppleWebKit/537.36 (KHTML, like Gecko) Chrome/138.0.0.0 Safari/537.36","Macintosh","Chrome","138.0.0.0","OS X","10_15_7","https://app.prolific.com/","pt-PT,pt;q=0.9,en-US;q=0.8,en;q=0.7,ca;q=0.6,fr;q=0.5,de;q=0.4","66db15814e7818d8b9593ad5","68764874ac79eee8c1d4cb03","6878c981b0ce56d959e21918","2","0","66db15814e7818d8b9593ad5","2","0","2025-07-17T10:11:23.922Z","","","","","","","","","","","AttribQ","","50","","","","","","","","","","","","","","","","","","","","","","","","","","","","",""
"1523","","<div style=""width:500px;"">
  <p>How much control did you have over the ball?</p>
  </div>","41","html-slider-response","61","644118","0.0-5.0-2.10","130","1","2025-07-17 10:00:40","1f75c3e559b7213887762d5229550c2b","89.154.153.225","Mozilla/5.0 (Macintosh; Intel Mac OS X 10_15_7) AppleWebKit/537.36 (KHTML, like Gecko) Chrome/138.0.0.0 Safari/537.36","Macintosh","Chrome","138.0.0.0","OS X","10_15_7","https://app.prolific.com/","pt-PT,pt;q=0.9,en-US;q=0.8,en;q=0.7,ca;q=0.6,fr;q=0.5,de;q=0.4","66db15814e7818d8b9593ad5","68764874ac79eee8c1d4cb03","6878c981b0ce56d959e21918","2","0","66db15814e7818d8b9593ad5","2","0","2025-07-17T10:11:25.447Z","","","","","","","","","","","ControlQ","","50","","","","","","","","","","","","","","","","","","","","","","","","","","","","",""
"2241","","<div style=""width:500px;"">
  <p>How would you describe your current emotional state?</p>
  </div>","62","html-slider-response","62","646361","0.0-5.0-3.10","130","1","2025-07-17 10:00:40","1f75c3e559b7213887762d5229550c2b","89.154.153.225","Mozilla/5.0 (Macintosh; Intel Mac OS X 10_15_7) AppleWebKit/537.36 (KHTML, like Gecko) Chrome/138.0.0.0 Safari/537.36","Macintosh","Chrome","138.0.0.0","OS X","10_15_7","https://app.prolific.com/","pt-PT,pt;q=0.9,en-US;q=0.8,en;q=0.7,ca;q=0.6,fr;q=0.5,de;q=0.4","66db15814e7818d8b9593ad5","68764874ac79eee8c1d4cb03","6878c981b0ce56d959e21918","2","0","66db15814e7818d8b9593ad5","2","0","2025-07-17T10:11:27.689Z","","","","","","","","","","","StressQ","","50","","","","","","","","","","","","","","","","","","","","","","","","","","","","",""
"1459","","<div style=""width:500px;"">
  <p>What best describes how you currently feel?</p>
  </div>","45","html-slider-response","63","647822","0.0-5.0-4.10","130","1","2025-07-17 10:00:40","1f75c3e559b7213887762d5229550c2b","89.154.153.225","Mozilla/5.0 (Macintosh; Intel Mac OS X 10_15_7) AppleWebKit/537.36 (KHTML, like Gecko) Chrome/138.0.0.0 Safari/537.36","Macintosh","Chrome","138.0.0.0","OS X","10_15_7","https://app.prolific.com/","pt-PT,pt;q=0.9,en-US;q=0.8,en;q=0.7,ca;q=0.6,fr;q=0.5,de;q=0.4","66db15814e7818d8b9593ad5","68764874ac79eee8c1d4cb03","6878c981b0ce56d959e21918","2","0","66db15814e7818d8b9593ad5","2","0","2025-07-17T10:11:29.150Z","","","","","","","","","","","MotivationQ","","50","","","","","","","","","","","","","","","","","","","","","","","","","","","","",""
"","","","","ctl-task-cpt","64","694322","0.0-5.0-0.11","130","1","2025-07-17 10:00:40","1f75c3e559b7213887762d5229550c2b","89.154.153.225","Mozilla/5.0 (Macintosh; Intel Mac OS X 10_15_7) AppleWebKit/537.36 (KHTML, like Gecko) Chrome/138.0.0.0 Safari/537.36","Macintosh","Chrome","138.0.0.0","OS X","10_15_7","https://app.prolific.com/","pt-PT,pt;q=0.9,en-US;q=0.8,en;q=0.7,ca;q=0.6,fr;q=0.5,de;q=0.4","66db15814e7818d8b9593ad5","68764874ac79eee8c1d4cb03","6878c981b0ce56d959e21918","2","0","66db15814e7818d8b9593ad5","2","0","2025-07-17T10:12:15.650Z","","","","","","","","","","","","","","win-only","0","g1:NW,g2:SE","0.6","12","0","649022","5188.4","10191.6","43484.4","1","4","8","6","2","-8","-8","0","0","0","1459.4","3000","-3010","[""down"",""right""]","{""num_key_presses"":7,""num_perfect"":4,""num_errors"":0,""num_randdir"":3,""num_randdir_good_moves"":1,""num_whilered"":0,""num_whileblue"":0,""num_blue"":4,""num_good_moves"":5}","[739,743.796875,0.2,739,743.796875,102.9,739,743.796875,206.8,739,743.796875,309,739,743.796875,414.3,739,743.796875,517.5,739,743.796875,622.6,739,743.796875,722.9,739,745.796875,827.1,1071,1133.796875,927.8,1181,1251.796875,1032.1,1181,1251.796875,1132.4,1239,1285.796875,1232.4,1261,1299.796875,1337.5,1261,1299.796875,1442.6,1261,1299.796875,1542.7,1261,1299.796875,1647.6,1537,1295.796875,1747.7,1851,1297.796875,1852.9,1851,1297.796875,1957.5,1851,1297.796875,2062.6,1851,1297.796875,2163,1851,1297.796875,2267.3,1851,1297.796875,2367.9,1851,1297.796875,2472.1,1851,1297.796875,2573.5,1851,1297.796875,2677.3,1851,1297.796875,2777.9,1851,1297.796875,2882.3,1851,1297.796875,2986.7,1851,1297.796875,3087.8,1851,1297.796875,3187.9,1851,1297.796875,3292,1851,1297.796875,3392.1,1851,1297.796875,3492.9,1851,1297.796875,3597.2,1851,1297.796875,3697.4,1851,1297.796875,3802.2,1851,1297.796875,3907,1851,1297.796875,4007.1,1851,1297.796875,4112.6,1851,1297.796875,4213.9,1851,1297.796875,4317.2,1851,1297.796875,4417.3,1851,1297.796875,4522.2,1851,1297.796875,4622.6,1851,1297.796875,4728,1851,1297.796875,4832.3,1851,1297.796875,4937.3]","[8107.4,8107.4,2000.5,5619.5,487.4,""oops"",""down"",""up"",""bad_move"",13813.4,5705.8,1995.2,11419.6,398.6,""oops"",""down"",""right"",""good_move"",16232,2418.4,2021.9,13813.6,396.5,""oops"",""down"",""up"",""bad_move"",19065.6,2833.4,2470.5,16232.2,362.9,""smooth"",""right"",""right"",""good_move"",22071.5,3005.7,2622.5,19065.8,383.2,""smooth"",""right"",""right"",""good_move"",24581.3,2509.6,2148.2,22071.7,361.4,""smooth"",""down"",""down"",""good_move"",31093.1,6511.5,2088.5,28584.1,420.5,""smooth"",""down"",""down"",""good_move""]","",""
"5596","","<div style=""width:500px;"">
  <p>What determined the result of this run?</p>
  </div>","23","html-slider-response","65","699919","0.0-5.0-1.11","130","1","2025-07-17 10:00:40","1f75c3e559b7213887762d5229550c2b","89.154.153.225","Mozilla/5.0 (Macintosh; Intel Mac OS X 10_15_7) AppleWebKit/537.36 (KHTML, like Gecko) Chrome/138.0.0.0 Safari/537.36","Macintosh","Chrome","138.0.0.0","OS X","10_15_7","https://app.prolific.com/","pt-PT,pt;q=0.9,en-US;q=0.8,en;q=0.7,ca;q=0.6,fr;q=0.5,de;q=0.4","66db15814e7818d8b9593ad5","68764874ac79eee8c1d4cb03","6878c981b0ce56d959e21918","2","0","66db15814e7818d8b9593ad5","2","0","2025-07-17T10:12:21.247Z","","","","","","","","","","","AttribQ","","50","","","","","","","","","","","","","","","","","","","","","","","","","","","","",""
"1571","","<div style=""width:500px;"">
  <p>How much control did you have over the ball?</p>
  </div>","23","html-slider-response","66","701491","0.0-5.0-2.11","130","1","2025-07-17 10:00:40","1f75c3e559b7213887762d5229550c2b","89.154.153.225","Mozilla/5.0 (Macintosh; Intel Mac OS X 10_15_7) AppleWebKit/537.36 (KHTML, like Gecko) Chrome/138.0.0.0 Safari/537.36","Macintosh","Chrome","138.0.0.0","OS X","10_15_7","https://app.prolific.com/","pt-PT,pt;q=0.9,en-US;q=0.8,en;q=0.7,ca;q=0.6,fr;q=0.5,de;q=0.4","66db15814e7818d8b9593ad5","68764874ac79eee8c1d4cb03","6878c981b0ce56d959e21918","2","0","66db15814e7818d8b9593ad5","2","0","2025-07-17T10:12:22.819Z","","","","","","","","","","","ControlQ","","50","","","","","","","","","","","","","","","","","","","","","","","","","","","","",""
"4059","","<div style=""width:500px;"">
  <p>How would you describe your current emotional state?</p>
  </div>","68","html-slider-response","67","705550","0.0-5.0-3.11","130","1","2025-07-17 10:00:40","1f75c3e559b7213887762d5229550c2b","89.154.153.225","Mozilla/5.0 (Macintosh; Intel Mac OS X 10_15_7) AppleWebKit/537.36 (KHTML, like Gecko) Chrome/138.0.0.0 Safari/537.36","Macintosh","Chrome","138.0.0.0","OS X","10_15_7","https://app.prolific.com/","pt-PT,pt;q=0.9,en-US;q=0.8,en;q=0.7,ca;q=0.6,fr;q=0.5,de;q=0.4","66db15814e7818d8b9593ad5","68764874ac79eee8c1d4cb03","6878c981b0ce56d959e21918","2","0","66db15814e7818d8b9593ad5","2","0","2025-07-17T10:12:26.878Z","","","","","","","","","","","StressQ","","50","","","","","","","","","","","","","","","","","","","","","","","","","","","","",""
"2065","","<div style=""width:500px;"">
  <p>What best describes how you currently feel?</p>
  </div>","44","html-slider-response","68","707616","0.0-5.0-4.11","130","1","2025-07-17 10:00:40","1f75c3e559b7213887762d5229550c2b","89.154.153.225","Mozilla/5.0 (Macintosh; Intel Mac OS X 10_15_7) AppleWebKit/537.36 (KHTML, like Gecko) Chrome/138.0.0.0 Safari/537.36","Macintosh","Chrome","138.0.0.0","OS X","10_15_7","https://app.prolific.com/","pt-PT,pt;q=0.9,en-US;q=0.8,en;q=0.7,ca;q=0.6,fr;q=0.5,de;q=0.4","66db15814e7818d8b9593ad5","68764874ac79eee8c1d4cb03","6878c981b0ce56d959e21918","2","0","66db15814e7818d8b9593ad5","2","0","2025-07-17T10:12:28.945Z","","","","","","","","","","","MotivationQ","","50","","","","","","","","","","","","","","","","","","","","","","","","","","","","",""
"","","","","ctl-task-cpt","69","755962","0.0-5.0-0.12","130","1","2025-07-17 10:00:40","1f75c3e559b7213887762d5229550c2b","89.154.153.225","Mozilla/5.0 (Macintosh; Intel Mac OS X 10_15_7) AppleWebKit/537.36 (KHTML, like Gecko) Chrome/138.0.0.0 Safari/537.36","Macintosh","Chrome","138.0.0.0","OS X","10_15_7","https://app.prolific.com/","pt-PT,pt;q=0.9,en-US;q=0.8,en;q=0.7,ca;q=0.6,fr;q=0.5,de;q=0.4","66db15814e7818d8b9593ad5","68764874ac79eee8c1d4cb03","6878c981b0ce56d959e21918","2","0","66db15814e7818d8b9593ad5","2","0","2025-07-17T10:13:17.290Z","","","","","","","","","","","","","","win-only","2","g1:SE,g2:NW","0.7","13","0","708811","1273.6","6275.5","45330.9","1","4","4","6","1","1","1","1","0","0.007575757575757576","1459.4","3000","455","[""down"",""right""]","{""num_key_presses"":6,""num_perfect"":5,""num_errors"":0,""num_randdir"":1,""num_randdir_good_moves"":0,""num_whilered"":0,""num_whileblue"":0,""num_blue"":6,""num_good_moves"":5}","[731,735.796875,0.1,731,735.796875,101.9,731,735.796875,207.3,731,735.796875,312.4,731,735.796875,412.6,739,735.796875,517,745,739.796875,617.5,1133,1177.796875,721.6,1389,1469.796875,822.7,1393,1471.796875,927,1393,1471.796875,1028,1393,1471.796875,1132.5,1393,1433.796875,1232.5,1387,1385.796875,1332.5,1387,1385.796875,1432.6,1387,1385.796875,1537.6,1387,1385.796875,1637.6,2077,1143.796875,1742.4,2191,1113.796875,1842.4,2191,1113.796875,1942.4,2191,1113.796875,2042.4,2191,1113.796875,2147.8,2139,1127.796875,2252.1,1927,1199.796875,2357.1,1883,1209.796875,2461.9,1883,1209.796875,2567.2,1883,1209.796875,2667.5,1883,1209.796875,2771.9,1883,1209.796875,2871.9,1883,1209.796875,2977.6,1883,1209.796875,3081.6,1883,1209.796875,3182.2,1883,1209.796875,3287.5,1883,1209.796875,3392,1883,1209.796875,3492.1,1883,1209.796875,3596,1883,1209.796875,3697,1883,1209.796875,3797.4,1883,1209.796875,3902.2,1883,1209.796875,4006.9,1883,1209.796875,4107,1883,1209.796875,4212.2,1883,1209.796875,4317.1,1883,1209.796875,4417.4,1883,1209.796875,4517.5,1883,1209.796875,4617.5,1883,1209.796875,4722.1,1883,1209.796875,4822.3,1883,1209.796875,4927.1]","[1316,1316,1000,0,316,""smooth"",""down"",""down"",""good_move"",8090.6,6774.4,2826.9,4885.8,377.9,""smooth"",""right"",""right"",""good_move"",22372.4,14281.6,3533.7,18490,348.7,""smooth"",""down"",""down"",""good_move"",25300.1,2927.3,2530.3,22372.8,397,""oops"",""right"",""left"",""bad_move"",28423.7,3123.5,2462.3,25300.2,661.2,""smooth"",""right"",""right"",""good_move"",38966.3,10542.3,2089.8,36400.1,476.4,""smooth"",""right"",""right"",""good_move""]","",""
"5513","","<div style=""width:500px;"">
  <p>What determined the result of this run?</p>
  </div>","54","html-slider-response","70","761476","0.0-5.0-1.12","130","1","2025-07-17 10:00:40","1f75c3e559b7213887762d5229550c2b","89.154.153.225","Mozilla/5.0 (Macintosh; Intel Mac OS X 10_15_7) AppleWebKit/537.36 (KHTML, like Gecko) Chrome/138.0.0.0 Safari/537.36","Macintosh","Chrome","138.0.0.0","OS X","10_15_7","https://app.prolific.com/","pt-PT,pt;q=0.9,en-US;q=0.8,en;q=0.7,ca;q=0.6,fr;q=0.5,de;q=0.4","66db15814e7818d8b9593ad5","68764874ac79eee8c1d4cb03","6878c981b0ce56d959e21918","2","0","66db15814e7818d8b9593ad5","2","0","2025-07-17T10:13:22.804Z","","","","","","","","","","","AttribQ","","50","","","","","","","","","","","","","","","","","","","","","","","","","","","","",""
"1971","","<div style=""width:500px;"">
  <p>How much control did you have over the ball?</p>
  </div>","46","html-slider-response","71","763447","0.0-5.0-2.12","130","1","2025-07-17 10:00:40","1f75c3e559b7213887762d5229550c2b","89.154.153.225","Mozilla/5.0 (Macintosh; Intel Mac OS X 10_15_7) AppleWebKit/537.36 (KHTML, like Gecko) Chrome/138.0.0.0 Safari/537.36","Macintosh","Chrome","138.0.0.0","OS X","10_15_7","https://app.prolific.com/","pt-PT,pt;q=0.9,en-US;q=0.8,en;q=0.7,ca;q=0.6,fr;q=0.5,de;q=0.4","66db15814e7818d8b9593ad5","68764874ac79eee8c1d4cb03","6878c981b0ce56d959e21918","2","0","66db15814e7818d8b9593ad5","2","0","2025-07-17T10:13:24.775Z","","","","","","","","","","","ControlQ","","50","","","","","","","","","","","","","","","","","","","","","","","","","","","","",""
"1762","","<div style=""width:500px;"">
  <p>How would you describe your current emotional state?</p>
  </div>","62","html-slider-response","72","765210","0.0-5.0-3.12","130","1","2025-07-17 10:00:40","1f75c3e559b7213887762d5229550c2b","89.154.153.225","Mozilla/5.0 (Macintosh; Intel Mac OS X 10_15_7) AppleWebKit/537.36 (KHTML, like Gecko) Chrome/138.0.0.0 Safari/537.36","Macintosh","Chrome","138.0.0.0","OS X","10_15_7","https://app.prolific.com/","pt-PT,pt;q=0.9,en-US;q=0.8,en;q=0.7,ca;q=0.6,fr;q=0.5,de;q=0.4","66db15814e7818d8b9593ad5","68764874ac79eee8c1d4cb03","6878c981b0ce56d959e21918","2","0","66db15814e7818d8b9593ad5","2","0","2025-07-17T10:13:26.538Z","","","","","","","","","","","StressQ","","50","","","","","","","","","","","","","","","","","","","","","","","","","","","","",""
"3453","","<div style=""width:500px;"">
  <p>What best describes how you currently feel?</p>
  </div>","40","html-slider-response","73","768664","0.0-5.0-4.12","130","1","2025-07-17 10:00:40","1f75c3e559b7213887762d5229550c2b","89.154.153.225","Mozilla/5.0 (Macintosh; Intel Mac OS X 10_15_7) AppleWebKit/537.36 (KHTML, like Gecko) Chrome/138.0.0.0 Safari/537.36","Macintosh","Chrome","138.0.0.0","OS X","10_15_7","https://app.prolific.com/","pt-PT,pt;q=0.9,en-US;q=0.8,en;q=0.7,ca;q=0.6,fr;q=0.5,de;q=0.4","66db15814e7818d8b9593ad5","68764874ac79eee8c1d4cb03","6878c981b0ce56d959e21918","2","0","66db15814e7818d8b9593ad5","2","0","2025-07-17T10:13:29.992Z","","","","","","","","","","","MotivationQ","","50","","","","","","","","","","","","","","","","","","","","","","","","","","","","",""
"","","","","ctl-task-cpt","74","807330","0.0-5.0-0.13","130","1","2025-07-17 10:00:40","1f75c3e559b7213887762d5229550c2b","89.154.153.225","Mozilla/5.0 (Macintosh; Intel Mac OS X 10_15_7) AppleWebKit/537.36 (KHTML, like Gecko) Chrome/138.0.0.0 Safari/537.36","Macintosh","Chrome","138.0.0.0","OS X","10_15_7","https://app.prolific.com/","pt-PT,pt;q=0.9,en-US;q=0.8,en;q=0.7,ca;q=0.6,fr;q=0.5,de;q=0.4","66db15814e7818d8b9593ad5","68764874ac79eee8c1d4cb03","6878c981b0ce56d959e21918","2","0","66db15814e7818d8b9593ad5","2","0","2025-07-17T10:14:08.658Z","","","","","","","","","","","","","","win-only","3","g1:SW,g2:NE","0.8","14","0","769857.6","1163.5","6165.4","35655.9","1","4","8","6","2","8","8","9","1","0.06818181818181818","1457.4","3000","285","[""up"",""right""]","{""num_key_presses"":8,""num_perfect"":7,""num_errors"":0,""num_randdir"":1,""num_randdir_good_moves"":0,""num_whilered"":0,""num_whileblue"":0,""num_blue"":2,""num_good_moves"":7}","[725,735.796875,0,725,735.796875,101.6,725,735.796875,202.1,725,735.796875,306.8,725,735.796875,412.4,725,735.796875,512.5,727,735.796875,616.9,731,735.796875,717.3,743,731.796875,822.1,1273,415.796875,927.4,1403,355.796875,1032,1403,355.796875,1137.4,1369,251.796875,1241.8,1369,231.796875,1342.1,1369,231.796875,1446.9,1369,231.796875,1547.5,1369,231.796875,1652.6,1657,701.796875,1757.6,1745,845.796875,1861.7,1745,845.796875,1962.4,1745,845.796875,2066.6,1745,845.796875,2167,1745,845.796875,2267.5,1745,845.796875,2372.3,1745,845.796875,2476.6,1745,845.796875,2577.1,1745,845.796875,2681.8,1745,845.796875,2782.4,1745,845.796875,2887.6,1745,845.796875,2992,1745,845.796875,3099.4,1745,845.796875,3201.9,1745,845.796875,3306.5,1745,845.796875,3407.2,1745,845.796875,3511.6,1745,845.796875,3612.1,1745,845.796875,3712.3,1745,845.796875,3817.2,1745,845.796875,3921.7,1745,845.796875,4027.4,1745,845.796875,4131.6,1745,845.796875,4237,1745,845.796875,4342,1745,845.796875,4446.9,1745,845.796875,4547.2,1745,845.796875,4652.4,1745,845.796875,4756.7,1745,845.796875,4856.9,1745,845.796875,4957]","[1298.8,1298.8,1000,0,298.8,""smooth"",""up"",""up"",""good_move"",3816.9,2518,2209.2,1298.9,308.8,""smooth"",""up"",""up"",""good_move"",6313.1,2496.1,2191.2,3817.1,304.9,""smooth"",""right"",""right"",""good_move"",9137.8,2824.3,2495.6,6313.5,328.7,""smooth"",""right"",""right"",""good_move"",12463,3325,2983.6,9138,341.4,""smooth"",""up"",""up"",""good_move"",18921.2,6458,2734.1,15845.3,341.8,""oops"",""right"",""left"",""bad_move"",26829.5,7908,3127.2,23290.5,411.8,""smooth"",""right"",""right"",""good_move"",29403.7,2574,2150.8,26829.7,423.2,""smooth"",""right"",""right"",""good_move""]","",""
"2044","","<div style=""width:500px;"">
  <p>What determined the result of this run?</p>
  </div>","54","html-slider-response","75","809375","0.0-5.0-1.13","130","1","2025-07-17 10:00:40","1f75c3e559b7213887762d5229550c2b","89.154.153.225","Mozilla/5.0 (Macintosh; Intel Mac OS X 10_15_7) AppleWebKit/537.36 (KHTML, like Gecko) Chrome/138.0.0.0 Safari/537.36","Macintosh","Chrome","138.0.0.0","OS X","10_15_7","https://app.prolific.com/","pt-PT,pt;q=0.9,en-US;q=0.8,en;q=0.7,ca;q=0.6,fr;q=0.5,de;q=0.4","66db15814e7818d8b9593ad5","68764874ac79eee8c1d4cb03","6878c981b0ce56d959e21918","2","0","66db15814e7818d8b9593ad5","2","0","2025-07-17T10:14:10.703Z","","","","","","","","","","","AttribQ","","50","","","","","","","","","","","","","","","","","","","","","","","","","","","","",""
"1978","","<div style=""width:500px;"">
  <p>How much control did you have over the ball?</p>
  </div>","43","html-slider-response","76","811354","0.0-5.0-2.13","130","1","2025-07-17 10:00:40","1f75c3e559b7213887762d5229550c2b","89.154.153.225","Mozilla/5.0 (Macintosh; Intel Mac OS X 10_15_7) AppleWebKit/537.36 (KHTML, like Gecko) Chrome/138.0.0.0 Safari/537.36","Macintosh","Chrome","138.0.0.0","OS X","10_15_7","https://app.prolific.com/","pt-PT,pt;q=0.9,en-US;q=0.8,en;q=0.7,ca;q=0.6,fr;q=0.5,de;q=0.4","66db15814e7818d8b9593ad5","68764874ac79eee8c1d4cb03","6878c981b0ce56d959e21918","2","0","66db15814e7818d8b9593ad5","2","0","2025-07-17T10:14:12.682Z","","","","","","","","","","","ControlQ","","50","","","","","","","","","","","","","","","","","","","","","","","","","","","","",""
"2121","","<div style=""width:500px;"">
  <p>How would you describe your current emotional state?</p>
  </div>","61","html-slider-response","77","813476","0.0-5.0-3.13","130","1","2025-07-17 10:00:40","1f75c3e559b7213887762d5229550c2b","89.154.153.225","Mozilla/5.0 (Macintosh; Intel Mac OS X 10_15_7) AppleWebKit/537.36 (KHTML, like Gecko) Chrome/138.0.0.0 Safari/537.36","Macintosh","Chrome","138.0.0.0","OS X","10_15_7","https://app.prolific.com/","pt-PT,pt;q=0.9,en-US;q=0.8,en;q=0.7,ca;q=0.6,fr;q=0.5,de;q=0.4","66db15814e7818d8b9593ad5","68764874ac79eee8c1d4cb03","6878c981b0ce56d959e21918","2","0","66db15814e7818d8b9593ad5","2","0","2025-07-17T10:14:14.804Z","","","","","","","","","","","StressQ","","50","","","","","","","","","","","","","","","","","","","","","","","","","","","","",""
"2041","","<div style=""width:500px;"">
  <p>What best describes how you currently feel?</p>
  </div>","46","html-slider-response","78","815518","0.0-5.0-4.13","130","1","2025-07-17 10:00:40","1f75c3e559b7213887762d5229550c2b","89.154.153.225","Mozilla/5.0 (Macintosh; Intel Mac OS X 10_15_7) AppleWebKit/537.36 (KHTML, like Gecko) Chrome/138.0.0.0 Safari/537.36","Macintosh","Chrome","138.0.0.0","OS X","10_15_7","https://app.prolific.com/","pt-PT,pt;q=0.9,en-US;q=0.8,en;q=0.7,ca;q=0.6,fr;q=0.5,de;q=0.4","66db15814e7818d8b9593ad5","68764874ac79eee8c1d4cb03","6878c981b0ce56d959e21918","2","0","66db15814e7818d8b9593ad5","2","0","2025-07-17T10:14:16.846Z","","","","","","","","","","","MotivationQ","","50","","","","","","","","","","","","","","","","","","","","","","","","","","","","",""
"","","","","ctl-task-cpt","79","840540","0.0-5.0-0.14","130","1","2025-07-17 10:00:40","1f75c3e559b7213887762d5229550c2b","89.154.153.225","Mozilla/5.0 (Macintosh; Intel Mac OS X 10_15_7) AppleWebKit/537.36 (KHTML, like Gecko) Chrome/138.0.0.0 Safari/537.36","Macintosh","Chrome","138.0.0.0","OS X","10_15_7","https://app.prolific.com/","pt-PT,pt;q=0.9,en-US;q=0.8,en;q=0.7,ca;q=0.6,fr;q=0.5,de;q=0.4","66db15814e7818d8b9593ad5","68764874ac79eee8c1d4cb03","6878c981b0ce56d959e21918","2","0","66db15814e7818d8b9593ad5","2","0","2025-07-17T10:14:41.868Z","","","","","","","","","","","","","","win-only","1","g1:NE,g2:SW","0.9","15","0","816710.9","1361","6361.3","22011.6","1","4","8","6","1","1","1","10","9","0.07575757575757576","1795.9","3000","1630","[""up"",""right""]","{""num_key_presses"":4,""num_perfect"":3,""num_errors"":0,""num_randdir"":1,""num_randdir_good_moves"":1,""num_whilered"":0,""num_whileblue"":0,""num_blue"":1,""num_good_moves"":4}","[717,721.796875,0.1,717,721.796875,100.1,717,721.796875,205,717,721.796875,309.4,717,721.796875,410.1,717,721.796875,510.1,717,721.796875,614.5,717,721.796875,714.6,717,721.796875,815.4,717,721.796875,920.4,717,721.796875,1020.4,717,721.796875,1124.6,671,735.796875,1224.7,549,789.796875,1329.6,915,491.796875,1430.4,1331,159.796875,1534.9,1335,159.796875,1640.3,1335,159.796875,1745.2,1335,159.796875,1850.4,1335,159.796875,1950.6,1483,285.796875,2055,1781,551.796875,2155.3,1781,551.796875,2255.7,1781,551.796875,2359.9,1781,551.796875,2459.9,1781,551.796875,2560.7,1781,551.796875,2665,1781,551.796875,2765.3,1781,551.796875,2869.8,1781,551.796875,2970.6,1781,551.796875,3075.5,1781,551.796875,3180,1781,551.796875,3280.2,1781,551.796875,3380.5,1781,551.796875,3484.6,1781,551.796875,3584.8,1781,551.796875,3684.8,1781,551.796875,3789.9,1781,551.796875,3890.1,1781,551.796875,3990.2,1781,551.796875,4094.3,1781,551.796875,4194.8,1781,551.796875,4295.3,1781,551.796875,4399.3,1781,551.796875,4499.5,1781,551.796875,4600,1781,551.796875,4704.7,1781,551.796875,4805.6,1781,551.796875,4905.6]","[1321.2,1321.2,1000,0,321.2,""smooth"",""up"",""up"",""good_move"",4934.3,3612.7,3246.5,1321.6,366.2,""smooth"",""up"",""up"",""good_move"",12474.4,7539.8,2989.5,9119,365.9,""oops"",""right"",""right"",""good_move"",15564,3089.4,2746.3,12474.6,343.1,""smooth"",""right"",""right"",""good_move""]","",""
"9550","","<div style=""width:500px;"">
  <p>What determined the result of this run?</p>
  </div>","62","html-slider-response","80","850091","0.0-5.0-1.14","130","1","2025-07-17 10:00:40","1f75c3e559b7213887762d5229550c2b","89.154.153.225","Mozilla/5.0 (Macintosh; Intel Mac OS X 10_15_7) AppleWebKit/537.36 (KHTML, like Gecko) Chrome/138.0.0.0 Safari/537.36","Macintosh","Chrome","138.0.0.0","OS X","10_15_7","https://app.prolific.com/","pt-PT,pt;q=0.9,en-US;q=0.8,en;q=0.7,ca;q=0.6,fr;q=0.5,de;q=0.4","66db15814e7818d8b9593ad5","68764874ac79eee8c1d4cb03","6878c981b0ce56d959e21918","2","0","66db15814e7818d8b9593ad5","2","0","2025-07-17T10:14:51.419Z","","","","","","","","","","","AttribQ","","50","","","","","","","","","","","","","","","","","","","","","","","","","","","","",""
"3707","","<div style=""width:500px;"">
  <p>How much control did you have over the ball?</p>
  </div>","62","html-slider-response","81","853799","0.0-5.0-2.14","130","1","2025-07-17 10:00:40","1f75c3e559b7213887762d5229550c2b","89.154.153.225","Mozilla/5.0 (Macintosh; Intel Mac OS X 10_15_7) AppleWebKit/537.36 (KHTML, like Gecko) Chrome/138.0.0.0 Safari/537.36","Macintosh","Chrome","138.0.0.0","OS X","10_15_7","https://app.prolific.com/","pt-PT,pt;q=0.9,en-US;q=0.8,en;q=0.7,ca;q=0.6,fr;q=0.5,de;q=0.4","66db15814e7818d8b9593ad5","68764874ac79eee8c1d4cb03","6878c981b0ce56d959e21918","2","0","66db15814e7818d8b9593ad5","2","0","2025-07-17T10:14:55.127Z","","","","","","","","","","","ControlQ","","50","","","","","","","","","","","","","","","","","","","","","","","","","","","","",""
"2488","","<div style=""width:500px;"">
  <p>How would you describe your current emotional state?</p>
  </div>","58","html-slider-response","82","856287","0.0-5.0-3.14","130","1","2025-07-17 10:00:40","1f75c3e559b7213887762d5229550c2b","89.154.153.225","Mozilla/5.0 (Macintosh; Intel Mac OS X 10_15_7) AppleWebKit/537.36 (KHTML, like Gecko) Chrome/138.0.0.0 Safari/537.36","Macintosh","Chrome","138.0.0.0","OS X","10_15_7","https://app.prolific.com/","pt-PT,pt;q=0.9,en-US;q=0.8,en;q=0.7,ca;q=0.6,fr;q=0.5,de;q=0.4","66db15814e7818d8b9593ad5","68764874ac79eee8c1d4cb03","6878c981b0ce56d959e21918","2","0","66db15814e7818d8b9593ad5","2","0","2025-07-17T10:14:57.616Z","","","","","","","","","","","StressQ","","50","","","","","","","","","","","","","","","","","","","","","","","","","","","","",""
"1410","","<div style=""width:500px;"">
  <p>What best describes how you currently feel?</p>
  </div>","45","html-slider-response","83","857698","0.0-5.0-4.14","130","1","2025-07-17 10:00:40","1f75c3e559b7213887762d5229550c2b","89.154.153.225","Mozilla/5.0 (Macintosh; Intel Mac OS X 10_15_7) AppleWebKit/537.36 (KHTML, like Gecko) Chrome/138.0.0.0 Safari/537.36","Macintosh","Chrome","138.0.0.0","OS X","10_15_7","https://app.prolific.com/","pt-PT,pt;q=0.9,en-US;q=0.8,en;q=0.7,ca;q=0.6,fr;q=0.5,de;q=0.4","66db15814e7818d8b9593ad5","68764874ac79eee8c1d4cb03","6878c981b0ce56d959e21918","2","0","66db15814e7818d8b9593ad5","2","0","2025-07-17T10:14:59.026Z","","","","","","","","","","","MotivationQ","","50","","","","","","","","","","","","","","","","","","","","","","","","","","","","",""
"","","","","ctl-task-cpt","84","876474","0.0-5.0-0.15","130","1","2025-07-17 10:00:40","1f75c3e559b7213887762d5229550c2b","89.154.153.225","Mozilla/5.0 (Macintosh; Intel Mac OS X 10_15_7) AppleWebKit/537.36 (KHTML, like Gecko) Chrome/138.0.0.0 Safari/537.36","Macintosh","Chrome","138.0.0.0","OS X","10_15_7","https://app.prolific.com/","pt-PT,pt;q=0.9,en-US;q=0.8,en;q=0.7,ca;q=0.6,fr;q=0.5,de;q=0.4","66db15814e7818d8b9593ad5","68764874ac79eee8c1d4cb03","6878c981b0ce56d959e21918","2","0","66db15814e7818d8b9593ad5","2","0","2025-07-17T10:15:17.802Z","","","","","","","","","","","","","","win-only","1","g1:NE,g2:SW","0.8","16","0","858890.9","962.9","5965.3","15765.4","1","4","4","6","1","1","1","11","10","0.08333333333333333","1180.9","3000","1495","[""up"",""right""]","{""num_key_presses"":4,""num_perfect"":4,""num_errors"":0,""num_randdir"":0,""num_randdir_good_moves"":0,""num_whilered"":0,""num_whileblue"":0,""num_blue"":0,""num_good_moves"":4}","[727,743.796875,0.1,727,743.796875,102.6,727,743.796875,207.6,727,743.796875,312.7,727,743.796875,417.9,727,743.796875,522.3,727,743.796875,622.6,1105,395.796875,723.3,1369,113.796875,823.9,1393,107.796875,927.5,1397,107.796875,1027.7,1397,107.796875,1127.8,1397,107.796875,1233.1,1397,107.796875,1337.4,1397,107.796875,1438,1691,587.796875,1542.4,1751,723.796875,1642.7,1751,723.796875,1747.3,1751,723.796875,1847.8,1751,723.796875,1952.5,1751,723.796875,2053.4,1751,723.796875,2157.7,1751,723.796875,2262.9,1751,723.796875,2367.7,1751,723.796875,2472.5,1751,723.796875,2573.2,1751,723.796875,2677.7,1751,723.796875,2782.6,1751,723.796875,2882.8,1751,723.796875,2987.5,1751,723.796875,3093.1,1751,723.796875,3193.1,1751,723.796875,3297.3,1751,723.796875,3398.1,1751,723.796875,3502.9,1751,723.796875,3607.7,1751,723.796875,3708,1751,723.796875,3812.9,1751,723.796875,3913,1751,723.796875,4013.3,1751,723.796875,4117.9,1751,723.796875,4218,1751,723.796875,4322.6,1751,723.796875,4422.7,1751,723.796875,4528.2,1751,723.796875,4632.6,1751,723.796875,4732.6,1751,723.796875,4833.1,1751,723.796875,4937.2]","[1363.3,1363.3,1000,0,363.3,""smooth"",""up"",""up"",""good_move"",4323,2959.5,2574.4,1363.5,385.1,""smooth"",""up"",""up"",""good_move"",6978.5,2655.1,2241.6,4323.4,413.5,""smooth"",""right"",""right"",""good_move"",9714.2,2735.5,2369.7,6978.7,365.8,""smooth"",""right"",""right"",""good_move""]","",""
"3452","","<div style=""width:500px;"">
  <p>What determined the result of this run?</p>
  </div>","84","html-slider-response","85","879927","0.0-5.0-1.15","130","1","2025-07-17 10:00:40","1f75c3e559b7213887762d5229550c2b","89.154.153.225","Mozilla/5.0 (Macintosh; Intel Mac OS X 10_15_7) AppleWebKit/537.36 (KHTML, like Gecko) Chrome/138.0.0.0 Safari/537.36","Macintosh","Chrome","138.0.0.0","OS X","10_15_7","https://app.prolific.com/","pt-PT,pt;q=0.9,en-US;q=0.8,en;q=0.7,ca;q=0.6,fr;q=0.5,de;q=0.4","66db15814e7818d8b9593ad5","68764874ac79eee8c1d4cb03","6878c981b0ce56d959e21918","2","0","66db15814e7818d8b9593ad5","2","0","2025-07-17T10:15:21.255Z","","","","","","","","","","","AttribQ","","50","","","","","","","","","","","","","","","","","","","","","","","","","","","","",""
"2520","","<div style=""width:500px;"">
  <p>How much control did you have over the ball?</p>
