"rt","response_timestamp","stimulus","response","trial_type","trial_index","time_elapsed","internal_node_id","run_id","condition","recorded_at","source_code_version","ip","user_agent","device","browser","browser_version","platform","platform_version","referer","accept_language","PROLIFIC_PID","STUDY_ID","SESSION_ID","WEEK","BATCH","prolific_id","week","batch","realtime","success","responses","item_order","radio_event_ids","radio_event_times","key_event_times","mouse_event_times","straightlining","zigzagging","honeypot","eventType","view_history","slider_start","which_type","canvas_config","goals_layout","control_level","trial_number","tutorial_trial_number","trial_start_time","phase1_start_time","phase2_start_time","phase3_start_time","goal_1_value","goal_1_distance","goal_2_value","goal_2_distance","goal_selected","outcome","outcome_total","participant_final_score","participant_initial_score","participant_final_score_prop","goal_choice_rt","allocated_time","allocated_time_remaining","goal_direction","counts","mouse_movements","key_presses","question_order","question_id"
"2179","1753252721638","<p style='font-size:40px;line-height:1.25'><strong>Welcome to the experiment!</strong></p><p style='font-size:1.1em;line-height:1.25'>Thank you for participanting in our experiment again! You will be asked to play the Dysfunctional Ball Game again. We will briefly recap the rules before we start.</p><p style='font-size:1.1em;line-height:1.25'>Press <strong>Next</strong> to continue.</p>","0","custom-html-button-response","0","2181","0.0-0.0","159","1","2025-07-23 06:38:40","1f75c3e559b7213887762d5229550c2b","178.212.218.4","Mozilla/5.0 (Windows NT 10.0; Win64; x64) AppleWebKit/537.36 (KHTML, like Gecko) Chrome/138.0.0.0 Safari/537.36","WebKit","Chrome","138.0.0.0","Windows","10.0","null","pl-PL,pl;q=0.9,en-US;q=0.8,en;q=0.7","5c2b339a85602a00012ffedd","683db9eb0562dbf637994deb","688082d985641d5cc083b4d2","2","1","5c2b339a85602a00012ffedd","2","1","2025-07-23T06:38:41.639Z","","","","","","","","","","","","","","","","","","","","","","","","","","","","","","","","","","","","","","","","","",""
"877","","","","fullscreen","1","4060","0.0-1.0","159","1","2025-07-23 06:38:40","1f75c3e559b7213887762d5229550c2b","178.212.218.4","Mozilla/5.0 (Windows NT 10.0; Win64; x64) AppleWebKit/537.36 (KHTML, like Gecko) Chrome/138.0.0.0 Safari/537.36","WebKit","Chrome","138.0.0.0","Windows","10.0","null","pl-PL,pl;q=0.9,en-US;q=0.8,en;q=0.7","5c2b339a85602a00012ffedd","683db9eb0562dbf637994deb","688082d985641d5cc083b4d2","2","1","5c2b339a85602a00012ffedd","2","1","","true","","","","","","","","","","","","","","","","","","","","","","","","","","","","","","","","","","","","","","","","",""
"2076","1753252725595","<p style='font-size:1.1em;line-height:1.25'>In the following, we will ask you a few questions relating to your feelings in the last 24 hours.<br></p><p style='font-size:1.1em;line-height:1.25'>Press the <strong>Next</strong> button to continue.</p>","0","custom-html-button-response","2","6138","0.0-2.0-0.0","159","1","2025-07-23 06:38:40","1f75c3e559b7213887762d5229550c2b","178.212.218.4","Mozilla/5.0 (Windows NT 10.0; Win64; x64) AppleWebKit/537.36 (KHTML, like Gecko) Chrome/138.0.0.0 Safari/537.36","WebKit","Chrome","138.0.0.0","Windows","10.0","null","pl-PL,pl;q=0.9,en-US;q=0.8,en;q=0.7","5c2b339a85602a00012ffedd","683db9eb0562dbf637994deb","688082d985641d5cc083b4d2","2","1","5c2b339a85602a00012ffedd","2","1","2025-07-23T06:38:45.596Z","","","","","","","","","","","","","","","","","","","","","","","","","","","","","","","","","","","","","","","","","",""
"61469.899999999994","","","","survey-template","3","67612","0.0-2.0-1.0","159","1","2025-07-23 06:38:40","1f75c3e559b7213887762d5229550c2b","178.212.218.4","Mozilla/5.0 (Windows NT 10.0; Win64; x64) AppleWebKit/537.36 (KHTML, like Gecko) Chrome/138.0.0.0 Safari/537.36","WebKit","Chrome","138.0.0.0","Windows","10.0","null","pl-PL,pl;q=0.9,en-US;q=0.8,en;q=0.7","5c2b339a85602a00012ffedd","683db9eb0562dbf637994deb","688082d985641d5cc083b4d2","2","1","5c2b339a85602a00012ffedd","2","1","2025-07-23T06:39:47.070Z","","{""Q01"":""1"",""Q02"":""1"",""Q03"":""1"",""Q04"":""3"",""Q05"":""1"",""Q06"":""2"",""Q07"":""1"",""Q08"":""1"",""Q09"":""2"",""Q10"":""2"",""Q11"":""3"",""Q12"":""1"",""Q13"":""5"",""Q14"":""1"",""Q15"":""2"",""Q16"":""3"",""Q17"":""1"",""Q18"":""1"",""Q19"":""1"",""Q20"":""2"",""Q21"":""1"",""Q22"":""1""}","[0,1,2,3,4,5,6,7,8,9,10,11,12,13,14,15,16,17,18,19,20,21]","[""Q01"",""Q02"",""Q03"",""Q04"",""Q05"",""Q06"",""Q07"",""Q06"",""Q08"",""Q09"",""Q10"",""Q09"",""Q11"",""Q12"",""Q13"",""Q14"",""Q15"",""Q16"",""Q17"",""Q18"",""Q19"",""Q20"",""Q21"",""Q22""]","[20950.800000000003,22320,23054.100000000006,24755.100000000006,26052.90000000001,26649.20000000001,27396,29143.20000000001,30397.100000000006,31730.100000000006,35616,36857,38365.899999999994,40535.899999999994,42032,43921.899999999994,46258.100000000006,48006.80000000002,50751.80000000002,51962.70000000001,53590.80000000002,57000.70000000001,58767.70000000001,60713.70000000001]","[]","[1.6000000000058208,20950.800000000003,22320,23054.100000000006,24755.100000000006,26052.90000000001,26649.20000000001,27396,28318,29143.20000000001,30397.100000000006,31730.100000000006,33662.20000000001,34335.600000000006,35616,36857,38365.899999999994,40535.899999999994,42032,43921.899999999994,46258.100000000006,48006.80000000002,50751.80000000002,51962.70000000001,53590.80000000002,55597.899999999994,57000.70000000001,58767.70000000001,60290,60713.70000000001,61465]","0.5909090909090909","0.38095238095238093","0","drsp","","","","","","","","","","","","","","","","","","","","","","","","","","","","","","",""
"7477.600000000006","","","","survey-template","4","75091","0.0-2.0-2.0","159","1","2025-07-23 06:38:40","1f75c3e559b7213887762d5229550c2b","178.212.218.4","Mozilla/5.0 (Windows NT 10.0; Win64; x64) AppleWebKit/537.36 (KHTML, like Gecko) Chrome/138.0.0.0 Safari/537.36","WebKit","Chrome","138.0.0.0","Windows","10.0","null","pl-PL,pl;q=0.9,en-US;q=0.8,en;q=0.7","5c2b339a85602a00012ffedd","683db9eb0562dbf637994deb","688082d985641d5cc083b4d2","2","1","5c2b339a85602a00012ffedd","2","1","2025-07-23T06:39:54.549Z","","{""Q01"":""3"",""Q02"":""3"",""Q03"":""1""}","[0,1,2]","[""Q01"",""Q02"",""Q03"",""Q03""]","[2686.399999999994,4068.399999999994,5295.600000000006,6634.700000000012]","[]","[2686.399999999994,4068.399999999994,5295.600000000006,5935.399999999994,6634.700000000012,7476.899999999994]","0.3333333333333333","1","0","stress","","","","","","","","","","","","","","","","","","","","","","","","","","","","","","",""
"99377","","","","instructions","5","174469","0.0-3.0-0.0","159","1","2025-07-23 06:38:40","1f75c3e559b7213887762d5229550c2b","178.212.218.4","Mozilla/5.0 (Windows NT 10.0; Win64; x64) AppleWebKit/537.36 (KHTML, like Gecko) Chrome/138.0.0.0 Safari/537.36","WebKit","Chrome","138.0.0.0","Windows","10.0","null","pl-PL,pl;q=0.9,en-US;q=0.8,en;q=0.7","5c2b339a85602a00012ffedd","683db9eb0562dbf637994deb","688082d985641d5cc083b4d2","2","1","5c2b339a85602a00012ffedd","2","1","","","","","","","","","","","","","[{""page_index"":0,""viewing_time"":99376}]","","","","","","","","","","","","","","","","","","","","","","","","","","","","","",""
"6320","","<p>Before you start with this game please answer the following three questions yourself. </p>
  <p>Through this game, we measure several aspects of your cognitive performance, such as reaction times, multi-tasking capabilities </p>
  <p>and the ability to assess the situation you are in.</p>
  <p></p>
  <p><b>How good do you usually are in such tasks?</b></p>","64","html-slider-response","6","180791","0.0-4.0-0.0","159","1","2025-07-23 06:38:40","1f75c3e559b7213887762d5229550c2b","178.212.218.4","Mozilla/5.0 (Windows NT 10.0; Win64; x64) AppleWebKit/537.36 (KHTML, like Gecko) Chrome/138.0.0.0 Safari/537.36","WebKit","Chrome","138.0.0.0","Windows","10.0","null","pl-PL,pl;q=0.9,en-US;q=0.8,en;q=0.7","5c2b339a85602a00012ffedd","683db9eb0562dbf637994deb","688082d985641d5cc083b4d2","2","1","5c2b339a85602a00012ffedd","2","1","2025-07-23T06:41:40.249Z","","","","","","","","","","","PreSkillQ","","50","","","","","","","","","","","","","","","","","","","","","","","","","","","","",""
"2274","","<div style=""width:500px;"">
  <p>How well do you think you will perform in this task compared to other participants?</p>
  </div>","62","html-slider-response","7","183066","0.0-4.0-1.0","159","1","2025-07-23 06:38:40","1f75c3e559b7213887762d5229550c2b","178.212.218.4","Mozilla/5.0 (Windows NT 10.0; Win64; x64) AppleWebKit/537.36 (KHTML, like Gecko) Chrome/138.0.0.0 Safari/537.36","WebKit","Chrome","138.0.0.0","Windows","10.0","null","pl-PL,pl;q=0.9,en-US;q=0.8,en;q=0.7","5c2b339a85602a00012ffedd","683db9eb0562dbf637994deb","688082d985641d5cc083b4d2","2","1","5c2b339a85602a00012ffedd","2","1","2025-07-23T06:41:42.525Z","","","","","","","","","","","PrePerfQ","","50","","","","","","","","","","","","","","","","","","","","","","","","","","","","",""
"3500","","<div style=""width:500px;"">
  <p>What best describes how you currently feel?</p>
  </div>","9","html-slider-response","8","186567","0.0-4.0-2.0","159","1","2025-07-23 06:38:40","1f75c3e559b7213887762d5229550c2b","178.212.218.4","Mozilla/5.0 (Windows NT 10.0; Win64; x64) AppleWebKit/537.36 (KHTML, like Gecko) Chrome/138.0.0.0 Safari/537.36","WebKit","Chrome","138.0.0.0","Windows","10.0","null","pl-PL,pl;q=0.9,en-US;q=0.8,en;q=0.7","5c2b339a85602a00012ffedd","683db9eb0562dbf637994deb","688082d985641d5cc083b4d2","2","1","5c2b339a85602a00012ffedd","2","1","2025-07-23T06:41:46.026Z","","","","","","","","","","","PreMotivationQ","","50","","","","","","","","","","","","","","","","","","","","","","","","","","","","",""
"","","","","ctl-task-cpt","9","216151","0.0-5.0-0.0","159","1","2025-07-23 06:38:40","1f75c3e559b7213887762d5229550c2b","178.212.218.4","Mozilla/5.0 (Windows NT 10.0; Win64; x64) AppleWebKit/537.36 (KHTML, like Gecko) Chrome/138.0.0.0 Safari/537.36","WebKit","Chrome","138.0.0.0","Windows","10.0","null","pl-PL,pl;q=0.9,en-US;q=0.8,en;q=0.7","5c2b339a85602a00012ffedd","683db9eb0562dbf637994deb","688082d985641d5cc083b4d2","2","1","5c2b339a85602a00012ffedd","2","1","2025-07-23T06:42:15.609Z","","","","","","","","","","","","","","win-only","0","g1:NW,g2:SE","1","1","0","187647.4","1752.6","6756","26578.9","1","4","8","6","2","-8","-8","0","0","0","3085.1","3000","-3005","[""down"",""right""]","{""num_key_presses"":5,""num_perfect"":5,""num_errors"":0,""num_randdir"":0,""num_randdir_good_moves"":0,""num_whilered"":0,""num_whileblue"":0,""num_blue"":1,""num_good_moves"":5}","[548.4285714285714,553.3348214285714,0.1,548.4285714285714,553.3348214285714,104.4,548.4285714285714,553.3348214285714,208.6,548.4285714285714,553.3348214285714,308.7,548.4285714285714,553.3348214285714,412.9,548.4285714285714,553.3348214285714,514.1,548.4285714285714,553.3348214285714,618.3,548.4285714285714,553.3348214285714,723,548.4285714285714,553.3348214285714,823.2,548.4285714285714,553.3348214285714,924.1,548.4285714285714,553.3348214285714,1029.5,548.4285714285714,553.3348214285714,1133.4,509.42857142857144,543.3348214285714,1238,504.42857142857144,541.3348214285714,1338.6,500.42857142857144,538.3348214285714,1444,349.42857142857144,725.3348214285714,1548.4,349.42857142857144,725.3348214285714,1648.8,349.42857142857144,725.3348214285714,1753,349.42857142857144,725.3348214285714,1854.6,349.42857142857144,725.3348214285714,1959.2,349.42857142857144,725.3348214285714,2063.2,349.42857142857144,725.3348214285714,2167.8,349.42857142857144,725.3348214285714,2268.2,349.42857142857144,725.3348214285714,2369,1042.4285714285713,1138.3348214285713,2474.1,1647.4285714285713,1278.3348214285713,2578.3,1374.4285714285713,1019.3348214285714,2679.2,1274.4285714285713,955.3348214285714,2783.8,1173.4285714285713,899.3348214285714,2883.8,976.4285714285714,1022.3348214285714,2987.9,973.4285714285714,1014.3348214285714,3088.7,973.4285714285714,1014.3348214285714,3193.2,973.4285714285714,1014.3348214285714,3298,973.4285714285714,1014.3348214285714,3399.3,973.4285714285714,1014.3348214285714,3503.3,973.4285714285714,1014.3348214285714,3607.9,973.4285714285714,1014.3348214285714,3708.7,973.4285714285714,1014.3348214285714,3814,973.4285714285714,1014.3348214285714,3918.8,973.4285714285714,1014.3348214285714,4023.2,973.4285714285714,1014.3348214285714,4128.5,973.4285714285714,1014.3348214285714,4229.3,973.4285714285714,1014.3348214285714,4332.8,973.4285714285714,1014.3348214285714,4434.2,973.4285714285714,1014.3348214285714,4538.4,973.4285714285714,1014.3348214285714,4638.8,973.4285714285714,1014.3348214285714,4743.3,973.4285714285714,1014.3348214285714,4843.4,973.4285714285714,1014.3348214285714,4944.4]","[1995.8,1995.8,1000,0,995.8,""smooth"",""right"",""right"",""good_move"",5331.2,3335.1,2792.5,1996.1,542.6,""smooth"",""down"",""down"",""good_move"",8442,3110.4,2688.2,5331.6,422.2,""smooth"",""down"",""down"",""good_move"",15379.1,6937,2590.6,12369.6,418.9,""smooth"",""down"",""down"",""good_move"",17637.1,2257.9,1750.8,15379.2,507.1,""smooth"",""right"",""right"",""good_move""]","",""
"3680","","<div style=""width:500px;"">
  <p>What determined the result of this run?</p>
  </div>","63","html-slider-response","10","219832","0.0-5.0-1.0","159","1","2025-07-23 06:38:40","1f75c3e559b7213887762d5229550c2b","178.212.218.4","Mozilla/5.0 (Windows NT 10.0; Win64; x64) AppleWebKit/537.36 (KHTML, like Gecko) Chrome/138.0.0.0 Safari/537.36","WebKit","Chrome","138.0.0.0","Windows","10.0","null","pl-PL,pl;q=0.9,en-US;q=0.8,en;q=0.7","5c2b339a85602a00012ffedd","683db9eb0562dbf637994deb","688082d985641d5cc083b4d2","2","1","5c2b339a85602a00012ffedd","2","1","2025-07-23T06:42:19.290Z","","","","","","","","","","","AttribQ","","50","","","","","","","","","","","","","","","","","","","","","","","","","","","","",""
"1976","","<div style=""width:500px;"">
  <p>How much control did you have over the ball?</p>
  </div>","60","html-slider-response","11","221809","0.0-5.0-2.0","159","1","2025-07-23 06:38:40","1f75c3e559b7213887762d5229550c2b","178.212.218.4","Mozilla/5.0 (Windows NT 10.0; Win64; x64) AppleWebKit/537.36 (KHTML, like Gecko) Chrome/138.0.0.0 Safari/537.36","WebKit","Chrome","138.0.0.0","Windows","10.0","null","pl-PL,pl;q=0.9,en-US;q=0.8,en;q=0.7","5c2b339a85602a00012ffedd","683db9eb0562dbf637994deb","688082d985641d5cc083b4d2","2","1","5c2b339a85602a00012ffedd","2","1","2025-07-23T06:42:21.267Z","","","","","","","","","","","ControlQ","","50","","","","","","","","","","","","","","","","","","","","","","","","","","","","",""
"2346","","<div style=""width:500px;"">
  <p>How would you describe your current emotional state?</p>
  </div>","74","html-slider-response","12","224156","0.0-5.0-3.0","159","1","2025-07-23 06:38:40","1f75c3e559b7213887762d5229550c2b","178.212.218.4","Mozilla/5.0 (Windows NT 10.0; Win64; x64) AppleWebKit/537.36 (KHTML, like Gecko) Chrome/138.0.0.0 Safari/537.36","WebKit","Chrome","138.0.0.0","Windows","10.0","null","pl-PL,pl;q=0.9,en-US;q=0.8,en;q=0.7","5c2b339a85602a00012ffedd","683db9eb0562dbf637994deb","688082d985641d5cc083b4d2","2","1","5c2b339a85602a00012ffedd","2","1","2025-07-23T06:42:23.614Z","","","","","","","","","","","StressQ","","50","","","","","","","","","","","","","","","","","","","","","","","","","","","","",""
"2793","","<div style=""width:500px;"">
  <p>What best describes how you currently feel?</p>
  </div>","32","html-slider-response","13","226951","0.0-5.0-4.0","159","1","2025-07-23 06:38:40","1f75c3e559b7213887762d5229550c2b","178.212.218.4","Mozilla/5.0 (Windows NT 10.0; Win64; x64) AppleWebKit/537.36 (KHTML, like Gecko) Chrome/138.0.0.0 Safari/537.36","WebKit","Chrome","138.0.0.0","Windows","10.0","null","pl-PL,pl;q=0.9,en-US;q=0.8,en;q=0.7","5c2b339a85602a00012ffedd","683db9eb0562dbf637994deb","688082d985641d5cc083b4d2","2","1","5c2b339a85602a00012ffedd","2","1","2025-07-23T06:42:26.409Z","","","","","","","","","","","MotivationQ","","50","","","","","","","","","","","","","","","","","","","","","","","","","","","","",""
"","","","","ctl-task-cpt","14","249398","0.0-5.0-0.1","159","1","2025-07-23 06:38:40","1f75c3e559b7213887762d5229550c2b","178.212.218.4","Mozilla/5.0 (Windows NT 10.0; Win64; x64) AppleWebKit/537.36 (KHTML, like Gecko) Chrome/138.0.0.0 Safari/537.36","WebKit","Chrome","138.0.0.0","Windows","10.0","null","pl-PL,pl;q=0.9,en-US;q=0.8,en;q=0.7","5c2b339a85602a00012ffedd","683db9eb0562dbf637994deb","688082d985641d5cc083b4d2","2","1","5c2b339a85602a00012ffedd","2","1","2025-07-23T06:42:48.856Z","","","","","","","","","","","","","","win-only","3","g1:SW,g2:NE","0.9","2","0","228029.5","929.5","5930.5","19430.5","1","4","4","6","1","1","1","1","0","0.007575757575757576","1458","3000","1065","[""down"",""left""]","{""num_key_presses"":4,""num_perfect"":4,""num_errors"":0,""num_randdir"":0,""num_randdir_good_moves"":0,""num_whilered"":0,""num_whileblue"":0,""num_blue"":1,""num_good_moves"":4}","[550.4285714285714,549.3348214285714,0.1,550.4285714285714,548.3348214285714,101.7,550.4285714285714,548.3348214285714,206.8,550.4285714285714,548.3348214285714,311.8,550.4285714285714,548.3348214285714,411.8,550.4285714285714,548.3348214285714,511.8,854.4285714285714,368.33482142857144,616.7,1006.4285714285714,147.33482142857144,718,985.4285714285714,100.33482142857143,821.9,928.4285714285714,110.33482142857143,927.9,703.4285714285714,364.33482142857144,1031.2,49.42857142857143,1051.3348214285713,1132.3,112.42857142857143,976.3348214285714,1236.3,113.42857142857143,975.3348214285714,1336.4,113.42857142857143,975.3348214285714,1437.2,113.42857142857143,975.3348214285714,1537.7,120.42857142857143,976.3348214285714,1641.8,273.42857142857144,985.3348214285714,1743.1,273.42857142857144,987.3348214285714,1846.9,273.42857142857144,987.3348214285714,1947,273.42857142857144,987.3348214285714,2051.7,273.42857142857144,987.3348214285714,2157.7,273.42857142857144,987.3348214285714,2262.3,273.42857142857144,987.3348214285714,2367.2,273.42857142857144,987.3348214285714,2472,273.42857142857144,987.3348214285714,2576,273.42857142857144,987.3348214285714,2677.1,273.42857142857144,987.3348214285714,2777.1,273.42857142857144,987.3348214285714,2881.6,273.42857142857144,987.3348214285714,2981.6,273.42857142857144,987.3348214285714,3086.4,273.42857142857144,987.3348214285714,3192,273.42857142857144,987.3348214285714,3297.2,273.42857142857144,987.3348214285714,3402.5,273.42857142857144,987.3348214285714,3502.9,273.42857142857144,987.3348214285714,3605.9,273.42857142857144,987.3348214285714,3706.5,273.42857142857144,987.3348214285714,3812.3,273.42857142857144,987.3348214285714,3916.5,273.42857142857144,987.3348214285714,4016.9,273.42857142857144,987.3348214285714,4121.6,273.42857142857144,987.3348214285714,4221.7,273.42857142857144,987.3348214285714,4322.9,273.42857142857144,987.3348214285714,4427.2,273.42857142857144,987.3348214285714,4527.4,273.42857142857144,987.3348214285714,4627.4,273.42857142857144,987.3348214285714,4732.1,273.42857142857144,987.3348214285714,4836.9,273.42857142857144,987.3348214285714,4937.1]","[1532.3,1532.3,1000,0,532.3,""smooth"",""left"",""left"",""good_move"",4387.2,2854.6,2315.3,1532.6,539.3,""smooth"",""left"",""left"",""good_move"",11066.5,6679.2,2836.8,7870.8,358.9,""smooth"",""down"",""down"",""good_move"",13416.1,2349.4,1827.5,11066.7,521.9,""smooth"",""down"",""down"",""good_move""]","",""
"2213","","<div style=""width:500px;"">
  <p>What determined the result of this run?</p>
  </div>","100","html-slider-response","15","251612","0.0-5.0-1.1","159","1","2025-07-23 06:38:40","1f75c3e559b7213887762d5229550c2b","178.212.218.4","Mozilla/5.0 (Windows NT 10.0; Win64; x64) AppleWebKit/537.36 (KHTML, like Gecko) Chrome/138.0.0.0 Safari/537.36","WebKit","Chrome","138.0.0.0","Windows","10.0","null","pl-PL,pl;q=0.9,en-US;q=0.8,en;q=0.7","5c2b339a85602a00012ffedd","683db9eb0562dbf637994deb","688082d985641d5cc083b4d2","2","1","5c2b339a85602a00012ffedd","2","1","2025-07-23T06:42:51.070Z","","","","","","","","","","","AttribQ","","50","","","","","","","","","","","","","","","","","","","","","","","","","","","","",""
"3415","","<div style=""width:500px;"">
  <p>How much control did you have over the ball?</p>
  </div>","100","html-slider-response","16","255028","0.0-5.0-2.1","159","1","2025-07-23 06:38:40","1f75c3e559b7213887762d5229550c2b","178.212.218.4","Mozilla/5.0 (Windows NT 10.0; Win64; x64) AppleWebKit/537.36 (KHTML, like Gecko) Chrome/138.0.0.0 Safari/537.36","WebKit","Chrome","138.0.0.0","Windows","10.0","null","pl-PL,pl;q=0.9,en-US;q=0.8,en;q=0.7","5c2b339a85602a00012ffedd","683db9eb0562dbf637994deb","688082d985641d5cc083b4d2","2","1","5c2b339a85602a00012ffedd","2","1","2025-07-23T06:42:54.486Z","","","","","","","","","","","ControlQ","","50","","","","","","","","","","","","","","","","","","","","","","","","","","","","",""
"2799","","<div style=""width:500px;"">
  <p>How would you describe your current emotional state?</p>
  </div>","37","html-slider-response","17","257828","0.0-5.0-3.1","159","1","2025-07-23 06:38:40","1f75c3e559b7213887762d5229550c2b","178.212.218.4","Mozilla/5.0 (Windows NT 10.0; Win64; x64) AppleWebKit/537.36 (KHTML, like Gecko) Chrome/138.0.0.0 Safari/537.36","WebKit","Chrome","138.0.0.0","Windows","10.0","null","pl-PL,pl;q=0.9,en-US;q=0.8,en;q=0.7","5c2b339a85602a00012ffedd","683db9eb0562dbf637994deb","688082d985641d5cc083b4d2","2","1","5c2b339a85602a00012ffedd","2","1","2025-07-23T06:42:57.286Z","","","","","","","","","","","StressQ","","50","","","","","","","","","","","","","","","","","","","","","","","","","","","","",""
"2499","","<div style=""width:500px;"">
  <p>What best describes how you currently feel?</p>
  </div>","54","html-slider-response","18","260328","0.0-5.0-4.1","159","1","2025-07-23 06:38:40","1f75c3e559b7213887762d5229550c2b","178.212.218.4","Mozilla/5.0 (Windows NT 10.0; Win64; x64) AppleWebKit/537.36 (KHTML, like Gecko) Chrome/138.0.0.0 Safari/537.36","WebKit","Chrome","138.0.0.0","Windows","10.0","null","pl-PL,pl;q=0.9,en-US;q=0.8,en;q=0.7","5c2b339a85602a00012ffedd","683db9eb0562dbf637994deb","688082d985641d5cc083b4d2","2","1","5c2b339a85602a00012ffedd","2","1","2025-07-23T06:42:59.786Z","","","","","","","","","","","MotivationQ","","50","","","","","","","","","","","","","","","","","","","","","","","","","","","","",""
"","","","","ctl-task-cpt","19","299199","0.0-5.0-0.2","159","1","2025-07-23 06:38:40","1f75c3e559b7213887762d5229550c2b","178.212.218.4","Mozilla/5.0 (Windows NT 10.0; Win64; x64) AppleWebKit/537.36 (KHTML, like Gecko) Chrome/138.0.0.0 Safari/537.36","WebKit","Chrome","138.0.0.0","Windows","10.0","null","pl-PL,pl;q=0.9,en-US;q=0.8,en;q=0.7","5c2b339a85602a00012ffedd","683db9eb0562dbf637994deb","688082d985641d5cc083b4d2","2","1","5c2b339a85602a00012ffedd","2","1","2025-07-23T06:43:38.657Z","","","","","","","","","","","","","","win-only","0","g1:NW,g2:SE","0.8","3","0","261407.7","752","5755.8","35851.2","1","4","8","6","2","8","7","8","1","0.06060606060606061","1165.9","3000","180","[""down"",""right""]","{""num_key_presses"":7,""num_perfect"":5,""num_errors"":1,""num_randdir"":1,""num_randdir_good_moves"":1,""num_whilered"":0,""num_whileblue"":0,""num_blue"":3,""num_good_moves"":6}","[538.4285714285714,558.3348214285714,0.1,538.4285714285714,558.3348214285714,103.6,538.4285714285714,558.3348214285714,203.6,538.4285714285714,558.3348214285714,303.6,538.4285714285714,558.3348214285714,405,538.4285714285714,558.3348214285714,508.9,538.4285714285714,558.3348214285714,609.7,598.4285714285714,618.3348214285714,715.4,908.4285714285714,884.3348214285714,819.2,904.4285714285714,881.3348214285714,919.5,949.4285714285714,952.3348214285714,1020.8,990.4285714285714,980.3348214285714,1123.8,990.4285714285714,980.3348214285714,1225.3,990.4285714285714,980.3348214285714,1329.2,990.4285714285714,980.3348214285714,1429.3,990.4285714285714,980.3348214285714,1533.7,990.4285714285714,980.3348214285714,1634.6,990.4285714285714,980.3348214285714,1739.5,990.4285714285714,980.3348214285714,1839.7,990.4285714285714,980.3348214285714,1943.8,990.4285714285714,980.3348214285714,2044.3,990.4285714285714,980.3348214285714,2149,990.4285714285714,980.3348214285714,2253.5,990.4285714285714,980.3348214285714,2353.6,990.4285714285714,980.3348214285714,2458.5,990.4285714285714,980.3348214285714,2558.6,990.4285714285714,980.3348214285714,2658.6,990.4285714285714,980.3348214285714,2759.5,990.4285714285714,980.3348214285714,2859.5,990.4285714285714,980.3348214285714,2964.5,990.4285714285714,980.3348214285714,3064.7,990.4285714285714,980.3348214285714,3168.9,990.4285714285714,980.3348214285714,3269.5,990.4285714285714,980.3348214285714,3374.2,990.4285714285714,980.3348214285714,3474.2,990.4285714285714,980.3348214285714,3574.4,990.4285714285714,980.3348214285714,3679.5,990.4285714285714,980.3348214285714,3783.5,990.4285714285714,980.3348214285714,3888.5,990.4285714285714,980.3348214285714,3988.6,990.4285714285714,980.3348214285714,4094.3,990.4285714285714,980.3348214285714,4194.6,990.4285714285714,980.3348214285714,4298.5,990.4285714285714,980.3348214285714,4398.9,990.4285714285714,980.3348214285714,4503.3,990.4285714285714,980.3348214285714,4603.6,990.4285714285714,980.3348214285714,4704.4,990.4285714285714,980.3348214285714,4808.4,990.4285714285714,980.3348214285714,4909.3]","[478.7,478.7,1000,0,-521.3,""error"",""-"",""-"",""no_move"",8429.6,7950.7,3017.1,5025.1,387.4,""smooth"",""down"",""down"",""good_move"",15156.7,6726.6,2649.3,12095,412.4,""smooth"",""right"",""right"",""good_move"",21523.4,6366.5,1981.8,19140.5,401.1,""smooth"",""right"",""right"",""good_move"",24237.8,2714.3,2008.5,21523.5,705.8,""oops"",""right"",""right"",""good_move"",26664.8,2426.7,1807.1,24238.1,619.6,""smooth"",""down"",""down"",""good_move"",30009.2,3344.2,3014,26665,330.2,""smooth"",""down"",""down"",""good_move""]","",""
"4206","","<div style=""width:500px;"">
  <p>What determined the result of this run?</p>
  </div>","100","html-slider-response","20","303406","0.0-5.0-1.2","159","1","2025-07-23 06:38:40","1f75c3e559b7213887762d5229550c2b","178.212.218.4","Mozilla/5.0 (Windows NT 10.0; Win64; x64) AppleWebKit/537.36 (KHTML, like Gecko) Chrome/138.0.0.0 Safari/537.36","WebKit","Chrome","138.0.0.0","Windows","10.0","null","pl-PL,pl;q=0.9,en-US;q=0.8,en;q=0.7","5c2b339a85602a00012ffedd","683db9eb0562dbf637994deb","688082d985641d5cc083b4d2","2","1","5c2b339a85602a00012ffedd","2","1","2025-07-23T06:43:42.864Z","","","","","","","","","","","AttribQ","","50","","","","","","","","","","","","","","","","","","","","","","","","","","","","",""
"1509","","<div style=""width:500px;"">
  <p>How much control did you have over the ball?</p>
  </div>","100","html-slider-response","21","304916","0.0-5.0-2.2","159","1","2025-07-23 06:38:40","1f75c3e559b7213887762d5229550c2b","178.212.218.4","Mozilla/5.0 (Windows NT 10.0; Win64; x64) AppleWebKit/537.36 (KHTML, like Gecko) Chrome/138.0.0.0 Safari/537.36","WebKit","Chrome","138.0.0.0","Windows","10.0","null","pl-PL,pl;q=0.9,en-US;q=0.8,en;q=0.7","5c2b339a85602a00012ffedd","683db9eb0562dbf637994deb","688082d985641d5cc083b4d2","2","1","5c2b339a85602a00012ffedd","2","1","2025-07-23T06:43:44.374Z","","","","","","","","","","","ControlQ","","50","","","","","","","","","","","","","","","","","","","","","","","","","","","","",""
"4608","","<div style=""width:500px;"">
  <p>How would you describe your current emotional state?</p>
  </div>","35","html-slider-response","22","309525","0.0-5.0-3.2","159","1","2025-07-23 06:38:40","1f75c3e559b7213887762d5229550c2b","178.212.218.4","Mozilla/5.0 (Windows NT 10.0; Win64; x64) AppleWebKit/537.36 (KHTML, like Gecko) Chrome/138.0.0.0 Safari/537.36","WebKit","Chrome","138.0.0.0","Windows","10.0","null","pl-PL,pl;q=0.9,en-US;q=0.8,en;q=0.7","5c2b339a85602a00012ffedd","683db9eb0562dbf637994deb","688082d985641d5cc083b4d2","2","1","5c2b339a85602a00012ffedd","2","1","2025-07-23T06:43:48.983Z","","","","","","","","","","","StressQ","","50","","","","","","","","","","","","","","","","","","","","","","","","","","","","",""
"1900","","<div style=""width:500px;"">
  <p>What best describes how you currently feel?</p>
  </div>","47","html-slider-response","23","311427","0.0-5.0-4.2","159","1","2025-07-23 06:38:40","1f75c3e559b7213887762d5229550c2b","178.212.218.4","Mozilla/5.0 (Windows NT 10.0; Win64; x64) AppleWebKit/537.36 (KHTML, like Gecko) Chrome/138.0.0.0 Safari/537.36","WebKit","Chrome","138.0.0.0","Windows","10.0","null","pl-PL,pl;q=0.9,en-US;q=0.8,en;q=0.7","5c2b339a85602a00012ffedd","683db9eb0562dbf637994deb","688082d985641d5cc083b4d2","2","1","5c2b339a85602a00012ffedd","2","1","2025-07-23T06:43:50.885Z","","","","","","","","","","","MotivationQ","","50","","","","","","","","","","","","","","","","","","","","","","","","","","","","",""
"","","","","ctl-task-cpt","24","331621","0.0-5.0-0.3","159","1","2025-07-23 06:38:40","1f75c3e559b7213887762d5229550c2b","178.212.218.4","Mozilla/5.0 (Windows NT 10.0; Win64; x64) AppleWebKit/537.36 (KHTML, like Gecko) Chrome/138.0.0.0 Safari/537.36","WebKit","Chrome","138.0.0.0","Windows","10.0","null","pl-PL,pl;q=0.9,en-US;q=0.8,en;q=0.7","5c2b339a85602a00012ffedd","683db9eb0562dbf637994deb","688082d985641d5cc083b4d2","2","1","5c2b339a85602a00012ffedd","2","1","2025-07-23T06:44:11.080Z","","","","","","","","","","","","","","win-only","3","g1:SW,g2:NE","0.7","4","0","312506.4","703.2","5706.1","17175.6","1","4","4","6","1","1","1","9","8","0.06818181818181818","1279.9","3000","1155","[""down"",""left""]","{""num_key_presses"":4,""num_perfect"":4,""num_errors"":0,""num_randdir"":0,""num_randdir_good_moves"":0,""num_whilered"":0,""num_whileblue"":0,""num_blue"":0,""num_good_moves"":4}","[549.4285714285714,541.3348214285714,0.4,549.4285714285714,541.3348214285714,102.3,549.4285714285714,541.3348214285714,202.4,549.4285714285714,541.3348214285714,308.3,549.4285714285714,541.3348214285714,413.3,549.4285714285714,541.3348214285714,519,549.4285714285714,541.3348214285714,623,539.4285714285714,558.3348214285714,727.6,300.42857142857144,832.3348214285714,832.5,44.42857142857143,1010.3348214285714,932.8,30.42857142857143,1024.3348214285713,1033.3,33.42857142857143,1038.3348214285713,1134.5,75.42857142857143,982.3348214285714,1237.8,76.42857142857143,981.3348214285714,1338.6,77.42857142857143,981.3348214285714,1443.7,258.42857142857144,981.3348214285714,1549.2,823.4285714285714,927.3348214285714,1653.2,827.4285714285714,926.3348214285714,1757.7,827.4285714285714,926.3348214285714,1858.7,827.4285714285714,926.3348214285714,1962.6,827.4285714285714,926.3348214285714,2067.4,827.4285714285714,926.3348214285714,2167.4,827.4285714285714,926.3348214285714,2267.4,827.4285714285714,926.3348214285714,2372.6,827.4285714285714,926.3348214285714,2477.7,827.4285714285714,926.3348214285714,2583.1,827.4285714285714,926.3348214285714,2683.5,827.4285714285714,926.3348214285714,2788.6,827.4285714285714,926.3348214285714,2892.4,827.4285714285714,926.3348214285714,2992.9,827.4285714285714,926.3348214285714,3097.3,827.4285714285714,926.3348214285714,3197.5,827.4285714285714,926.3348214285714,3298.7,827.4285714285714,926.3348214285714,3402.7,827.4285714285714,926.3348214285714,3507.4,827.4285714285714,926.3348214285714,3613.4,827.4285714285714,926.3348214285714,3717.2,827.4285714285714,926.3348214285714,3817.9,827.4285714285714,926.3348214285714,3922.6,827.4285714285714,926.3348214285714,4023.7,827.4285714285714,926.3348214285714,4127.3,827.4285714285714,926.3348214285714,4227.4,827.4285714285714,926.3348214285714,4333.2,827.4285714285714,926.3348214285714,4437.7,827.4285714285714,926.3348214285714,4538.4,827.4285714285714,926.3348214285714,4642.5,827.4285714285714,926.3348214285714,4743.2,827.4285714285714,926.3348214285714,4847.4,827.4285714285714,926.3348214285714,4947.8]","[1560.4,1560.4,1000,0,560.4,""smooth"",""left"",""left"",""good_move"",4824.4,3263.5,2796.7,1560.9,466.8,""smooth"",""left"",""left"",""good_move"",8291.7,3467.1,3114.3,4824.6,352.8,""smooth"",""down"",""down"",""good_move"",11384.1,3091.7,2603.4,8292.4,488.3,""smooth"",""down"",""down"",""good_move""]","",""
"7243","","<div style=""width:500px;"">
  <p>What determined the result of this run?</p>
  </div>","100","html-slider-response","25","338866","0.0-5.0-1.3","159","1","2025-07-23 06:38:40","1f75c3e559b7213887762d5229550c2b","178.212.218.4","Mozilla/5.0 (Windows NT 10.0; Win64; x64) AppleWebKit/537.36 (KHTML, like Gecko) Chrome/138.0.0.0 Safari/537.36","WebKit","Chrome","138.0.0.0","Windows","10.0","null","pl-PL,pl;q=0.9,en-US;q=0.8,en;q=0.7","5c2b339a85602a00012ffedd","683db9eb0562dbf637994deb","688082d985641d5cc083b4d2","2","1","5c2b339a85602a00012ffedd","2","1","2025-07-23T06:44:18.324Z","","","","","","","","","","","AttribQ","","50","","","","","","","","","","","","","","","","","","","","","","","","","","","","",""
"1289","","<div style=""width:500px;"">
  <p>How much control did you have over the ball?</p>
  </div>","98","html-slider-response","26","340156","0.0-5.0-2.3","159","1","2025-07-23 06:38:40","1f75c3e559b7213887762d5229550c2b","178.212.218.4","Mozilla/5.0 (Windows NT 10.0; Win64; x64) AppleWebKit/537.36 (KHTML, like Gecko) Chrome/138.0.0.0 Safari/537.36","WebKit","Chrome","138.0.0.0","Windows","10.0","null","pl-PL,pl;q=0.9,en-US;q=0.8,en;q=0.7","5c2b339a85602a00012ffedd","683db9eb0562dbf637994deb","688082d985641d5cc083b4d2","2","1","5c2b339a85602a00012ffedd","2","1","2025-07-23T06:44:19.614Z","","","","","","","","","","","ControlQ","","50","","","","","","","","","","","","","","","","","","","","","","","","","","","","",""
"2678","","<div style=""width:500px;"">
  <p>How would you describe your current emotional state?</p>
  </div>","31","html-slider-response","27","342835","0.0-5.0-3.3","159","1","2025-07-23 06:38:40","1f75c3e559b7213887762d5229550c2b","178.212.218.4","Mozilla/5.0 (Windows NT 10.0; Win64; x64) AppleWebKit/537.36 (KHTML, like Gecko) Chrome/138.0.0.0 Safari/537.36","WebKit","Chrome","138.0.0.0","Windows","10.0","null","pl-PL,pl;q=0.9,en-US;q=0.8,en;q=0.7","5c2b339a85602a00012ffedd","683db9eb0562dbf637994deb","688082d985641d5cc083b4d2","2","1","5c2b339a85602a00012ffedd","2","1","2025-07-23T06:44:22.293Z","","","","","","","","","","","StressQ","","50","","","","","","","","","","","","","","","","","","","","","","","","","","","","",""
"2195","","<div style=""width:500px;"">
  <p>What best describes how you currently feel?</p>
  </div>","32","html-slider-response","28","345032","0.0-5.0-4.3","159","1","2025-07-23 06:38:40","1f75c3e559b7213887762d5229550c2b","178.212.218.4","Mozilla/5.0 (Windows NT 10.0; Win64; x64) AppleWebKit/537.36 (KHTML, like Gecko) Chrome/138.0.0.0 Safari/537.36","WebKit","Chrome","138.0.0.0","Windows","10.0","null","pl-PL,pl;q=0.9,en-US;q=0.8,en;q=0.7","5c2b339a85602a00012ffedd","683db9eb0562dbf637994deb","688082d985641d5cc083b4d2","2","1","5c2b339a85602a00012ffedd","2","1","2025-07-23T06:44:24.490Z","","","","","","","","","","","MotivationQ","","50","","","","","","","","","","","","","","","","","","","","","","","","","","","","",""
"","","","","ctl-task-cpt","29","385252","0.0-5.0-0.4","159","1","2025-07-23 06:38:40","1f75c3e559b7213887762d5229550c2b","178.212.218.4","Mozilla/5.0 (Windows NT 10.0; Win64; x64) AppleWebKit/537.36 (KHTML, like Gecko) Chrome/138.0.0.0 Safari/537.36","WebKit","Chrome","138.0.0.0","Windows","10.0","null","pl-PL,pl;q=0.9,en-US;q=0.8,en;q=0.7","5c2b339a85602a00012ffedd","683db9eb0562dbf637994deb","688082d985641d5cc083b4d2","2","1","5c2b339a85602a00012ffedd","2","1","2025-07-23T06:45:04.710Z","","","","","","","","","","","","","","win-only","3","g1:SW,g2:NE","0.6","5","0","346111.6","984.3","5985.4","37200.5","1","4","8","6","2","-8","-8","1","9","0.007575757575757576","1434.5","3000","-3015","[""up"",""right""]","{""num_key_presses"":7,""num_perfect"":6,""num_errors"":0,""num_randdir"":1,""num_randdir_good_moves"":0,""num_whilered"":0,""num_whileblue"":0,""num_blue"":3,""num_good_moves"":6}","[537.4285714285714,553.3348214285714,0.2,537.4285714285714,553.3348214285714,103.1,537.4285714285714,553.3348214285714,207.4,537.4285714285714,553.3348214285714,311.5,537.4285714285714,553.3348214285714,412.1,537.4285714285714,553.3348214285714,518.1,537.4285714285714,553.3348214285714,622,537.4285714285714,553.3348214285714,726.8,485.42857142857144,678.3348214285714,828.1,497.42857142857144,701.3348214285714,933,864.4285714285714,294.33482142857144,1037.4,901.4285714285714,264.33482142857144,1141.8,1025.4285714285713,204.33482142857144,1242.2,1028.4285714285713,140.33482142857144,1346.3,1025.4285714285713,118.33482142857143,1446.7,1025.4285714285713,118.33482142857143,1553.4,1025.4285714285713,118.33482142857143,1656.2,1025.4285714285713,118.33482142857143,1756.3,1025.4285714285713,118.33482142857143,1856.3,1025.4285714285713,118.33482142857143,1957.9,1025.4285714285713,118.33482142857143,2061.1,1025.4285714285713,118.33482142857143,2161.7,1025.4285714285713,118.33482142857143,2263.1,1025.4285714285713,118.33482142857143,2366.5,1025.4285714285713,118.33482142857143,2467.3,1025.4285714285713,118.33482142857143,2571.2,1025.4285714285713,118.33482142857143,2672.3,1025.4285714285713,118.33482142857143,2777.1,1025.4285714285713,118.33482142857143,2882.2,1025.4285714285713,118.33482142857143,2986.3,1025.4285714285713,118.33482142857143,3086.5,1025.4285714285713,118.33482142857143,3186.9,1025.4285714285713,118.33482142857143,3291.1,1025.4285714285713,118.33482142857143,3391.2,1025.4285714285713,118.33482142857143,3491.4,1025.4285714285713,118.33482142857143,3591.7,1025.4285714285713,118.33482142857143,3696.8,1025.4285714285713,118.33482142857143,3797.2,1025.4285714285713,118.33482142857143,3901.5,1025.4285714285713,118.33482142857143,4002.6,1025.4285714285713,118.33482142857143,4103.1,1025.4285714285713,118.33482142857143,4206.2,1025.4285714285713,118.33482142857143,4306.2,1025.4285714285713,118.33482142857143,4407.1,1025.4285714285713,118.33482142857143,4507.9,1025.4285714285713,118.33482142857143,4611.1,1025.4285714285713,118.33482142857143,4711.1,1025.4285714285713,118.33482142857143,4812.3,1025.4285714285713,118.33482142857143,4916.1]","[1490.5,1490.5,1000,0,490.5,""smooth"",""right"",""right"",""good_move"",11396.6,9905.9,2513.8,8495.8,387,""smooth"",""right"",""right"",""good_move"",14189.3,2792.6,2152.1,11396.7,640.5,""smooth"",""right"",""right"",""good_move"",16692.4,2502.8,2089.9,14189.6,412.9,""smooth"",""up"",""up"",""good_move"",19727.5,3034.8,2659.7,16692.7,375.1,""oops"",""up"",""down"",""bad_move"",22272.3,2544.4,2111.3,19728,433,""smooth"",""up"",""up"",""good_move"",25659.3,3386.8,3104.9,22272.5,281.9,""smooth"",""up"",""up"",""good_move""]","",""
"2901","","<div style=""width:500px;"">
  <p>What determined the result of this run?</p>
  </div>","0","html-slider-response","30","388153","0.0-5.0-1.4","159","1","2025-07-23 06:38:40","1f75c3e559b7213887762d5229550c2b","178.212.218.4","Mozilla/5.0 (Windows NT 10.0; Win64; x64) AppleWebKit/537.36 (KHTML, like Gecko) Chrome/138.0.0.0 Safari/537.36","WebKit","Chrome","138.0.0.0","Windows","10.0","null","pl-PL,pl;q=0.9,en-US;q=0.8,en;q=0.7","5c2b339a85602a00012ffedd","683db9eb0562dbf637994deb","688082d985641d5cc083b4d2","2","1","5c2b339a85602a00012ffedd","2","1","2025-07-23T06:45:07.611Z","","","","","","","","","","","AttribQ","","50","","","","","","","","","","","","","","","","","","","","","","","","","","","","",""
"3068","","<div style=""width:500px;"">
  <p>How much control did you have over the ball?</p>
  </div>","0","html-slider-response","31","391222","0.0-5.0-2.4","159","1","2025-07-23 06:38:40","1f75c3e559b7213887762d5229550c2b","178.212.218.4","Mozilla/5.0 (Windows NT 10.0; Win64; x64) AppleWebKit/537.36 (KHTML, like Gecko) Chrome/138.0.0.0 Safari/537.36","WebKit","Chrome","138.0.0.0","Windows","10.0","null","pl-PL,pl;q=0.9,en-US;q=0.8,en;q=0.7","5c2b339a85602a00012ffedd","683db9eb0562dbf637994deb","688082d985641d5cc083b4d2","2","1","5c2b339a85602a00012ffedd","2","1","2025-07-23T06:45:10.680Z","","","","","","","","","","","ControlQ","","50","","","","","","","","","","","","","","","","","","","","","","","","","","","","",""
"1661","","<div style=""width:500px;"">
  <p>How would you describe your current emotional state?</p>
  </div>","100","html-slider-response","32","392884","0.0-5.0-3.4","159","1","2025-07-23 06:38:40","1f75c3e559b7213887762d5229550c2b","178.212.218.4","Mozilla/5.0 (Windows NT 10.0; Win64; x64) AppleWebKit/537.36 (KHTML, like Gecko) Chrome/138.0.0.0 Safari/537.36","WebKit","Chrome","138.0.0.0","Windows","10.0","null","pl-PL,pl;q=0.9,en-US;q=0.8,en;q=0.7","5c2b339a85602a00012ffedd","683db9eb0562dbf637994deb","688082d985641d5cc083b4d2","2","1","5c2b339a85602a00012ffedd","2","1","2025-07-23T06:45:12.342Z","","","","","","","","","","","StressQ","","50","","","","","","","","","","","","","","","","","","","","","","","","","","","","",""
"3529","","<div style=""width:500px;"">
  <p>What best describes how you currently feel?</p>
  </div>","0","html-slider-response","33","396414","0.0-5.0-4.4","159","1","2025-07-23 06:38:40","1f75c3e559b7213887762d5229550c2b","178.212.218.4","Mozilla/5.0 (Windows NT 10.0; Win64; x64) AppleWebKit/537.36 (KHTML, like Gecko) Chrome/138.0.0.0 Safari/537.36","WebKit","Chrome","138.0.0.0","Windows","10.0","null","pl-PL,pl;q=0.9,en-US;q=0.8,en;q=0.7","5c2b339a85602a00012ffedd","683db9eb0562dbf637994deb","688082d985641d5cc083b4d2","2","1","5c2b339a85602a00012ffedd","2","1","2025-07-23T06:45:15.872Z","","","","","","","","","","","MotivationQ","","50","","","","","","","","","","","","","","","","","","","","","","","","","","","","",""
"","","","","ctl-task-cpt","34","423804","0.0-5.0-0.5","159","1","2025-07-23 06:38:40","1f75c3e559b7213887762d5229550c2b","178.212.218.4","Mozilla/5.0 (Windows NT 10.0; Win64; x64) AppleWebKit/537.36 (KHTML, like Gecko) Chrome/138.0.0.0 Safari/537.36","WebKit","Chrome","138.0.0.0","Windows","10.0","null","pl-PL,pl;q=0.9,en-US;q=0.8,en;q=0.7","5c2b339a85602a00012ffedd","683db9eb0562dbf637994deb","688082d985641d5cc083b4d2","2","1","5c2b339a85602a00012ffedd","2","1","2025-07-23T06:45:43.262Z","","","","","","","","","","","","","","win-only","3","g1:SW,g2:NE","0.5","6","0","397493.4","863.9","5866.4","24370.8","1","4","4","6","1","1","1","2","1","0.015151515151515152","993.1","3000","305","[""down"",""left""]","{""num_key_presses"":6,""num_perfect"":3,""num_errors"":0,""num_randdir"":3,""num_randdir_good_moves"":2,""num_whilered"":0,""num_whileblue"":0,""num_blue"":0,""num_good_moves"":5}","[554.4285714285714,569.3348214285714,0.3,554.4285714285714,569.3348214285714,105,554.4285714285714,569.3348214285714,206.9,554.4285714285714,569.3348214285714,307.7,554.4285714285714,569.3348214285714,412.4,554.4285714285714,569.3348214285714,515.3,553.4285714285714,569.3348214285714,616.9,211.42857142857144,914.3348214285714,722.7,115.42857142857143,989.3348214285714,828.4,115.42857142857143,1001.3348214285714,932.5,115.42857142857143,1001.3348214285714,1037,115.42857142857143,1001.3348214285714,1142,115.42857142857143,1001.3348214285714,1247.1,115.42857142857143,1001.3348214285714,1347.8,115.42857142857143,1001.3348214285714,1451.9,115.42857142857143,1001.3348214285714,1556.6,115.42857142857143,1001.3348214285714,1656.6,115.42857142857143,1001.3348214285714,1756.6,115.42857142857143,1001.3348214285714,1857.1,115.42857142857143,1001.3348214285714,1957.4,115.42857142857143,1001.3348214285714,2061.8,115.42857142857143,1001.3348214285714,2161.9,115.42857142857143,1001.3348214285714,2267.6,115.42857142857143,1001.3348214285714,2371.5,115.42857142857143,1001.3348214285714,2472.4,115.42857142857143,1001.3348214285714,2576.6,115.42857142857143,1001.3348214285714,2676.9,115.42857142857143,1001.3348214285714,2777.2,115.42857142857143,1001.3348214285714,2877.6,115.42857142857143,1001.3348214285714,2982.9,115.42857142857143,1001.3348214285714,3086.9,115.42857142857143,1001.3348214285714,3186.9,115.42857142857143,1001.3348214285714,3287.7,115.42857142857143,1001.3348214285714,3391.7,115.42857142857143,1001.3348214285714,3492.9,115.42857142857143,1001.3348214285714,3593.1,115.42857142857143,1001.3348214285714,3697.6,115.42857142857143,1001.3348214285714,3797.9,115.42857142857143,1001.3348214285714,3902.9,115.42857142857143,1001.3348214285714,4006.4,115.42857142857143,1001.3348214285714,4107.4,115.42857142857143,1001.3348214285714,4207.7,115.42857142857143,1001.3348214285714,4312.2,115.42857142857143,1001.3348214285714,4412.2,115.42857142857143,1001.3348214285714,4517,115.42857142857143,1001.3348214285714,4617,115.42857142857143,1001.3348214285714,4717.7,115.42857142857143,1001.3348214285714,4821.5,115.42857142857143,1001.3348214285714,4921.7]","[1545.6,1545.6,1000,0,545.6,""smooth"",""left"",""left"",""good_move"",5004.8,3458.8,2962.3,1546,496.5,""smooth"",""left"",""left"",""good_move"",8818.9,3814,3255.9,5004.9,558.1,""oops"",""down"",""right"",""bad_move"",11977.4,3158.2,2797.6,8819.2,360.6,""oops"",""left"",""down"",""good_move"",15694.5,3716.4,3273.4,11978.1,443,""oops"",""left"",""left"",""good_move"",18420.3,2725.4,2398.9,15694.9,326.5,""smooth"",""down"",""down"",""good_move""]","",""
"2190","","<div style=""width:500px;"">
  <p>What determined the result of this run?</p>
  </div>","26","html-slider-response","35","425995","0.0-5.0-1.5","159","1","2025-07-23 06:38:40","1f75c3e559b7213887762d5229550c2b","178.212.218.4","Mozilla/5.0 (Windows NT 10.0; Win64; x64) AppleWebKit/537.36 (KHTML, like Gecko) Chrome/138.0.0.0 Safari/537.36","WebKit","Chrome","138.0.0.0","Windows","10.0","null","pl-PL,pl;q=0.9,en-US;q=0.8,en;q=0.7","5c2b339a85602a00012ffedd","683db9eb0562dbf637994deb","688082d985641d5cc083b4d2","2","1","5c2b339a85602a00012ffedd","2","1","2025-07-23T06:45:45.453Z","","","","","","","","","","","AttribQ","","50","","","","","","","","","","","","","","","","","","","","","","","","","","","","",""
"1953","","<div style=""width:500px;"">
  <p>How much control did you have over the ball?</p>
  </div>","61","html-slider-response","36","427949","0.0-5.0-2.5","159","1","2025-07-23 06:38:40","1f75c3e559b7213887762d5229550c2b","178.212.218.4","Mozilla/5.0 (Windows NT 10.0; Win64; x64) AppleWebKit/537.36 (KHTML, like Gecko) Chrome/138.0.0.0 Safari/537.36","WebKit","Chrome","138.0.0.0","Windows","10.0","null","pl-PL,pl;q=0.9,en-US;q=0.8,en;q=0.7","5c2b339a85602a00012ffedd","683db9eb0562dbf637994deb","688082d985641d5cc083b4d2","2","1","5c2b339a85602a00012ffedd","2","1","2025-07-23T06:45:47.407Z","","","","","","","","","","","ControlQ","","50","","","","","","","","","","","","","","","","","","","","","","","","","","","","",""
"1734","","<div style=""width:500px;"">
  <p>How would you describe your current emotional state?</p>
  </div>","66","html-slider-response","37","429685","0.0-5.0-3.5","159","1","2025-07-23 06:38:40","1f75c3e559b7213887762d5229550c2b","178.212.218.4","Mozilla/5.0 (Windows NT 10.0; Win64; x64) AppleWebKit/537.36 (KHTML, like Gecko) Chrome/138.0.0.0 Safari/537.36","WebKit","Chrome","138.0.0.0","Windows","10.0","null","pl-PL,pl;q=0.9,en-US;q=0.8,en;q=0.7","5c2b339a85602a00012ffedd","683db9eb0562dbf637994deb","688082d985641d5cc083b4d2","2","1","5c2b339a85602a00012ffedd","2","1","2025-07-23T06:45:49.143Z","","","","","","","","","","","StressQ","","50","","","","","","","","","","","","","","","","","","","","","","","","","","","","",""
"2387","","<div style=""width:500px;"">
  <p>What best describes how you currently feel?</p>
  </div>","56","html-slider-response","38","432073","0.0-5.0-4.5","159","1","2025-07-23 06:38:40","1f75c3e559b7213887762d5229550c2b","178.212.218.4","Mozilla/5.0 (Windows NT 10.0; Win64; x64) AppleWebKit/537.36 (KHTML, like Gecko) Chrome/138.0.0.0 Safari/537.36","WebKit","Chrome","138.0.0.0","Windows","10.0","null","pl-PL,pl;q=0.9,en-US;q=0.8,en;q=0.7","5c2b339a85602a00012ffedd","683db9eb0562dbf637994deb","688082d985641d5cc083b4d2","2","1","5c2b339a85602a00012ffedd","2","1","2025-07-23T06:45:51.531Z","","","","","","","","","","","MotivationQ","","50","","","","","","","","","","","","","","","","","","","","","","","","","","","","",""
"","","","","ctl-task-cpt","39","454811","0.0-5.0-0.6","159","1","2025-07-23 06:38:40","1f75c3e559b7213887762d5229550c2b","178.212.218.4","Mozilla/5.0 (Windows NT 10.0; Win64; x64) AppleWebKit/537.36 (KHTML, like Gecko) Chrome/138.0.0.0 Safari/537.36","WebKit","Chrome","138.0.0.0","Windows","10.0","null","pl-PL,pl;q=0.9,en-US;q=0.8,en;q=0.7","5c2b339a85602a00012ffedd","683db9eb0562dbf637994deb","688082d985641d5cc083b4d2","2","1","5c2b339a85602a00012ffedd","2","1","2025-07-23T06:46:14.270Z","","","","","","","","","","","","","","win-only","2","g1:SE,g2:NW","0.4","7","0","433152","941.7","5945.8","19720.6","1","4","4","6","1","1","1","3","2","0.022727272727272728","1445.9","3000","1405","[""down"",""right""]","{""num_key_presses"":4,""num_perfect"":3,""num_errors"":0,""num_randdir"":1,""num_randdir_good_moves"":1,""num_whilered"":0,""num_whileblue"":0,""num_blue"":1,""num_good_moves"":4}","[553.4285714285714,564.3348214285714,0.3,553.4285714285714,564.3348214285714,104.6,553.4285714285714,564.3348214285714,205,553.4285714285714,564.3348214285714,308.9,553.4285714285714,564.3348214285714,410.3,553.4285714285714,564.3348214285714,515,553.4285714285714,564.3348214285714,619.5,553.4285714285714,564.3348214285714,720.3,553.4285714285714,564.3348214285714,820.5,672.4285714285714,756.3348214285714,923.8,1112.4285714285713,1091.3348214285713,1024.8,1091.4285714285713,1074.3348214285713,1130.3,1089.4285714285713,1072.3348214285713,1235.5,1072.4285714285713,976.3348214285714,1338.8,1069.4285714285713,973.3348214285714,1440.4,1069.4285714285713,973.3348214285714,1540.6,1069.4285714285713,973.3348214285714,1640.6,1069.4285714285713,973.3348214285714,1745.2,1069.4285714285713,973.3348214285714,1849,1068.4285714285713,973.3348214285714,1949.6,1068.4285714285713,973.3348214285714,2054.3,1068.4285714285713,973.3348214285714,2155.1,1068.4285714285713,973.3348214285714,2259.7,1068.4285714285713,973.3348214285714,2359.8,1068.4285714285713,973.3348214285714,2459.8,1068.4285714285713,973.3348214285714,2564.6,1068.4285714285713,973.3348214285714,2669,1068.4285714285713,973.3348214285714,2769.6,1068.4285714285713,973.3348214285714,2869.7,1068.4285714285713,973.3348214285714,2975.5,1068.4285714285713,973.3348214285714,3078.9,1068.4285714285713,973.3348214285714,3179.6,1068.4285714285713,973.3348214285714,3283.9,1068.4285714285713,973.3348214285714,3385.8,1068.4285714285713,973.3348214285714,3488.6,1068.4285714285713,973.3348214285714,3589,1068.4285714285713,973.3348214285714,3690.4,1162.4285714285713,821.3348214285714,3790.8,1329.4285714285713,561.3348214285714,3895.8,1326.4285714285713,559.3348214285714,3999.5,1291.4285714285713,605.3348214285714,4100.3,1291.4285714285713,605.3348214285714,4204.1,1291.4285714285713,605.3348214285714,4304.8,1291.4285714285713,605.3348214285714,4405,1291.4285714285713,605.3348214285714,4505.2,1291.4285714285713,605.3348214285714,4609.8,1291.4285714285713,605.3348214285714,4714,1291.4285714285713,605.3348214285714,4815,1291.4285714285713,605.3348214285714,4918.8]","[1429.4,1429.4,1000,0,429.4,""smooth"",""right"",""right"",""good_move"",4117.9,2688.1,2285.2,1429.8,403,""smooth"",""right"",""right"",""good_move"",6932.1,2814.1,2430.8,4118,383.3,""oops"",""down"",""down"",""good_move"",13686.5,6754.1,3168.1,10120.5,397.9,""smooth"",""down"",""down"",""good_move""]","",""
"3625","","<div style=""width:500px;"">
  <p>What determined the result of this run?</p>
  </div>","100","html-slider-response","40","458438","0.0-5.0-1.6","159","1","2025-07-23 06:38:40","1f75c3e559b7213887762d5229550c2b","178.212.218.4","Mozilla/5.0 (Windows NT 10.0; Win64; x64) AppleWebKit/537.36 (KHTML, like Gecko) Chrome/138.0.0.0 Safari/537.36","WebKit","Chrome","138.0.0.0","Windows","10.0","null","pl-PL,pl;q=0.9,en-US;q=0.8,en;q=0.7","5c2b339a85602a00012ffedd","683db9eb0562dbf637994deb","688082d985641d5cc083b4d2","2","1","5c2b339a85602a00012ffedd","2","1","2025-07-23T06:46:17.896Z","","","","","","","","","","","AttribQ","","50","","","","","","","","","","","","","","","","","","","","","","","","","","","","",""
"1481","","<div style=""width:500px;"">
  <p>How much control did you have over the ball?</p>
  </div>","100","html-slider-response","41","459921","0.0-5.0-2.6","159","1","2025-07-23 06:38:40","1f75c3e559b7213887762d5229550c2b","178.212.218.4","Mozilla/5.0 (Windows NT 10.0; Win64; x64) AppleWebKit/537.36 (KHTML, like Gecko) Chrome/138.0.0.0 Safari/537.36","WebKit","Chrome","138.0.0.0","Windows","10.0","null","pl-PL,pl;q=0.9,en-US;q=0.8,en;q=0.7","5c2b339a85602a00012ffedd","683db9eb0562dbf637994deb","688082d985641d5cc083b4d2","2","1","5c2b339a85602a00012ffedd","2","1","2025-07-23T06:46:19.379Z","","","","","","","","","","","ControlQ","","50","","","","","","","","","","","","","","","","","","","","","","","","","","","","",""
"3109","","<div style=""width:500px;"">
  <p>How would you describe your current emotional state?</p>
  </div>","37","html-slider-response","42","463031","0.0-5.0-3.6","159","1","2025-07-23 06:38:40","1f75c3e559b7213887762d5229550c2b","178.212.218.4","Mozilla/5.0 (Windows NT 10.0; Win64; x64) AppleWebKit/537.36 (KHTML, like Gecko) Chrome/138.0.0.0 Safari/537.36","WebKit","Chrome","138.0.0.0","Windows","10.0","null","pl-PL,pl;q=0.9,en-US;q=0.8,en;q=0.7","5c2b339a85602a00012ffedd","683db9eb0562dbf637994deb","688082d985641d5cc083b4d2","2","1","5c2b339a85602a00012ffedd","2","1","2025-07-23T06:46:22.489Z","","","","","","","","","","","StressQ","","50","","","","","","","","","","","","","","","","","","","","","","","","","","","","",""
"1717","","<div style=""width:500px;"">
  <p>What best describes how you currently feel?</p>
  </div>","62","html-slider-response","43","464749","0.0-5.0-4.6","159","1","2025-07-23 06:38:40","1f75c3e559b7213887762d5229550c2b","178.212.218.4","Mozilla/5.0 (Windows NT 10.0; Win64; x64) AppleWebKit/537.36 (KHTML, like Gecko) Chrome/138.0.0.0 Safari/537.36","WebKit","Chrome","138.0.0.0","Windows","10.0","null","pl-PL,pl;q=0.9,en-US;q=0.8,en;q=0.7","5c2b339a85602a00012ffedd","683db9eb0562dbf637994deb","688082d985641d5cc083b4d2","2","1","5c2b339a85602a00012ffedd","2","1","2025-07-23T06:46:24.207Z","","","","","","","","","","","MotivationQ","","50","","","","","","","","","","","","","","","","","","","","","","","","","","","","",""
"","","","","ctl-task-cpt","44","500608","0.0-5.0-0.7","159","1","2025-07-23 06:38:40","1f75c3e559b7213887762d5229550c2b","178.212.218.4","Mozilla/5.0 (Windows NT 10.0; Win64; x64) AppleWebKit/537.36 (KHTML, like Gecko) Chrome/138.0.0.0 Safari/537.36","WebKit","Chrome","138.0.0.0","Windows","10.0","null","pl-PL,pl;q=0.9,en-US;q=0.8,en;q=0.7","5c2b339a85602a00012ffedd","683db9eb0562dbf637994deb","688082d985641d5cc083b4d2","2","1","5c2b339a85602a00012ffedd","2","1","2025-07-23T06:47:00.066Z","","","","","","","","","","","","","","win-only","2","g1:SE,g2:NW","0.3","8","0","465829.2","802.7","5806.9","32840.5","1","4","8","6","1","1","1","4","3","0.030303030303030304","1099.4","3000","455","[""down"",""right""]","{""num_key_presses"":6,""num_perfect"":2,""num_errors"":0,""num_randdir"":4,""num_randdir_good_moves"":3,""num_whilered"":0,""num_whileblue"":0,""num_blue"":3,""num_good_moves"":5}","[559.4285714285714,557.3348214285714,0.3,559.4285714285714,555.3348214285714,103.2,559.4285714285714,555.3348214285714,207.9,559.4285714285714,555.3348214285714,309.1,559.4285714285714,555.3348214285714,413.1,559.4285714285714,555.3348214285714,518.6,561.4285714285714,565.3348214285714,620.1,758.4285714285714,853.3348214285714,725,959.4285714285714,965.3348214285714,828.6,979.4285714285714,955.3348214285714,933.5,982.4285714285714,955.3348214285714,1034,982.4285714285714,955.3348214285714,1138.7,982.4285714285714,955.3348214285714,1242.9,982.4285714285714,955.3348214285714,1348.9,982.4285714285714,955.3348214285714,1452.9,982.4285714285714,955.3348214285714,1558,982.4285714285714,955.3348214285714,1658.7,982.4285714285714,955.3348214285714,1763.2,982.4285714285714,955.3348214285714,1867.7,982.4285714285714,955.3348214285714,1967.7,982.4285714285714,955.3348214285714,2068.2,982.4285714285714,955.3348214285714,2173.3,982.4285714285714,955.3348214285714,2273.6,982.4285714285714,955.3348214285714,2378.7,982.4285714285714,955.3348214285714,2483.1,982.4285714285714,955.3348214285714,2583.6,1177.4285714285713,839.3348214285714,2684.4,1721.4285714285713,421.33482142857144,2788.3,1717.4285714285713,428.33482142857144,2892.8,1712.4285714285713,434.33482142857144,2997.7,1712.4285714285713,434.33482142857144,3098.1,1712.4285714285713,434.33482142857144,3203,1712.4285714285713,434.33482142857144,3303.8,1712.4285714285713,434.33482142857144,3407.9,1712.4285714285713,434.33482142857144,3508,1712.4285714285713,434.33482142857144,3608.8,1712.4285714285713,434.33482142857144,3709,1712.4285714285713,434.33482142857144,3813.2,1712.4285714285713,434.33482142857144,3913.6,1712.4285714285713,434.33482142857144,4018.1,1712.4285714285713,434.33482142857144,4118.8,1712.4285714285713,434.33482142857144,4223.2,1712.4285714285713,434.33482142857144,4323.5,1712.4285714285713,434.33482142857144,4429.5,1712.4285714285713,434.33482142857144,4533.6,1712.4285714285713,434.33482142857144,4637.6,1712.4285714285713,434.33482142857144,4738.3,1712.4285714285713,434.33482142857144,4843.4,1712.4285714285713,434.33482142857144,4944]","[1535.6,1535.6,1000,0,535.6,""oops"",""right"",""right"",""good_move"",4094.9,2558.9,2106.1,1536,452.8,""oops"",""right"",""down"",""good_move"",6398.5,2303.1,1859.1,4095.4,444,""oops"",""right"",""left"",""bad_move"",12508.6,6109.8,2641.9,9488.9,377.8,""smooth"",""right"",""right"",""good_move"",19950.3,7441.6,3449.9,16114.3,386.2,""oops"",""right"",""right"",""good_move"",26946.6,6995.6,2895.2,23669.1,382.3,""smooth"",""down"",""down"",""good_move""]","",""
"4221","","<div style=""width:500px;"">
  <p>What determined the result of this run?</p>
  </div>","66","html-slider-response","45","504830","0.0-5.0-1.7","159","1","2025-07-23 06:38:40","1f75c3e559b7213887762d5229550c2b","178.212.218.4","Mozilla/5.0 (Windows NT 10.0; Win64; x64) AppleWebKit/537.36 (KHTML, like Gecko) Chrome/138.0.0.0 Safari/537.36","WebKit","Chrome","138.0.0.0","Windows","10.0","null","pl-PL,pl;q=0.9,en-US;q=0.8,en;q=0.7","5c2b339a85602a00012ffedd","683db9eb0562dbf637994deb","688082d985641d5cc083b4d2","2","1","5c2b339a85602a00012ffedd","2","1","2025-07-23T06:47:04.288Z","","","","","","","","","","","AttribQ","","50","","","","","","","","","","","","","","","","","","","","","","","","","","","","",""
"2494","","<div style=""width:500px;"">
  <p>How much control did you have over the ball?</p>
  </div>","58","html-slider-response","46","507326","0.0-5.0-2.7","159","1","2025-07-23 06:38:40","1f75c3e559b7213887762d5229550c2b","178.212.218.4","Mozilla/5.0 (Windows NT 10.0; Win64; x64) AppleWebKit/537.36 (KHTML, like Gecko) Chrome/138.0.0.0 Safari/537.36","WebKit","Chrome","138.0.0.0","Windows","10.0","null","pl-PL,pl;q=0.9,en-US;q=0.8,en;q=0.7","5c2b339a85602a00012ffedd","683db9eb0562dbf637994deb","688082d985641d5cc083b4d2","2","1","5c2b339a85602a00012ffedd","2","1","2025-07-23T06:47:06.784Z","","","","","","","","","","","ControlQ","","50","","","","","","","","","","","","","","","","","","","","","","","","","","","","",""
"2794","","<div style=""width:500px;"">
  <p>How would you describe your current emotional state?</p>
  </div>","60","html-slider-response","47","510120","0.0-5.0-3.7","159","1","2025-07-23 06:38:40","1f75c3e559b7213887762d5229550c2b","178.212.218.4","Mozilla/5.0 (Windows NT 10.0; Win64; x64) AppleWebKit/537.36 (KHTML, like Gecko) Chrome/138.0.0.0 Safari/537.36","WebKit","Chrome","138.0.0.0","Windows","10.0","null","pl-PL,pl;q=0.9,en-US;q=0.8,en;q=0.7","5c2b339a85602a00012ffedd","683db9eb0562dbf637994deb","688082d985641d5cc083b4d2","2","1","5c2b339a85602a00012ffedd","2","1","2025-07-23T06:47:09.578Z","","","","","","","","","","","StressQ","","50","","","","","","","","","","","","","","","","","","","","","","","","","","","","",""
"1902","","<div style=""width:500px;"">
  <p>What best describes how you currently feel?</p>
  </div>","62","html-slider-response","48","512023","0.0-5.0-4.7","159","1","2025-07-23 06:38:40","1f75c3e559b7213887762d5229550c2b","178.212.218.4","Mozilla/5.0 (Windows NT 10.0; Win64; x64) AppleWebKit/537.36 (KHTML, like Gecko) Chrome/138.0.0.0 Safari/537.36","WebKit","Chrome","138.0.0.0","Windows","10.0","null","pl-PL,pl;q=0.9,en-US;q=0.8,en;q=0.7","5c2b339a85602a00012ffedd","683db9eb0562dbf637994deb","688082d985641d5cc083b4d2","2","1","5c2b339a85602a00012ffedd","2","1","2025-07-23T06:47:11.481Z","","","","","","","","","","","MotivationQ","","50","","","","","","","","","","","","","","","","","","","","","","","","","","","","",""
"","","","","ctl-task-cpt","49","546149","0.0-5.0-0.8","159","1","2025-07-23 06:38:40","1f75c3e559b7213887762d5229550c2b","178.212.218.4","Mozilla/5.0 (Windows NT 10.0; Win64; x64) AppleWebKit/537.36 (KHTML, like Gecko) Chrome/138.0.0.0 Safari/537.36","WebKit","Chrome","138.0.0.0","Windows","10.0","null","pl-PL,pl;q=0.9,en-US;q=0.8,en;q=0.7","5c2b339a85602a00012ffedd","683db9eb0562dbf637994deb","688082d985641d5cc083b4d2","2","1","5c2b339a85602a00012ffedd","2","1","2025-07-23T06:47:45.607Z","","","","","","","","","","","","","","win-only","1","g1:NE,g2:SW","0.2","9","0","513102.6","720.3","5721","31106.4","1","4","4","6","2","-4","-4","0","4","0","1234.4","3000","-3000","[""down"",""left""]","{""num_key_presses"":6,""num_perfect"":1,""num_errors"":0,""num_randdir"":5,""num_randdir_good_moves"":1,""num_whilered"":0,""num_whileblue"":0,""num_blue"":2,""num_good_moves"":2}","[553.4285714285714,548.3348214285714,0.2,553.4285714285714,548.3348214285714,101,553.4285714285714,548.3348214285714,205.1,553.4285714285714,548.3348214285714,305.2,553.4285714285714,548.3348214285714,411.3,553.4285714285714,548.3348214285714,516.5,553.4285714285714,548.3348214285714,621.1,530.4285714285714,584.3348214285714,723,204.42857142857144,991.3348214285714,826.8,165.42857142857144,1041.3348214285713,931.8,47.42857142857143,1136.3348214285713,1036.2,70.42857142857143,1050.3348214285713,1136.2,82.42857142857143,1024.3348214285713,1237.6,82.42857142857143,1024.3348214285713,1340.7,82.42857142857143,1024.3348214285713,1441.8,82.42857142857143,1024.3348214285713,1547.2,82.42857142857143,1024.3348214285713,1652,82.42857142857143,1024.3348214285713,1756.1,82.42857142857143,1024.3348214285713,1860.6,82.42857142857143,1024.3348214285713,1965.2,82.42857142857143,1024.3348214285713,2066.4,82.42857142857143,1024.3348214285713,2171.6,173.42857142857144,1013.3348214285714,2275.5,1159.4285714285713,808.3348214285714,2375.6,1394.4285714285713,672.3348214285714,2475.9,1621.4285714285713,468.33482142857144,2578.8,1652.4285714285713,455.33482142857144,2680.3,1652.4285714285713,455.33482142857144,2781.3,1652.4285714285713,455.33482142857144,2886.2,1652.4285714285713,455.33482142857144,2990.1,1652.4285714285713,455.33482142857144,3090.4,1652.4285714285713,455.33482142857144,3191.6,1652.4285714285713,455.33482142857144,3295,1652.4285714285713,455.33482142857144,3395.3,1652.4285714285713,455.33482142857144,3496.2,1652.4285714285713,455.33482142857144,3601,1652.4285714285713,455.33482142857144,3706,1652.4285714285713,455.33482142857144,3811,1652.4285714285713,455.33482142857144,3915.5,1652.4285714285713,455.33482142857144,4020.9,1652.4285714285713,455.33482142857144,4125.3,1652.4285714285713,455.33482142857144,4225.6,1652.4285714285713,455.33482142857144,4326.4,1652.4285714285713,455.33482142857144,4430.3,1652.4285714285713,455.33482142857144,4530.6,1652.4285714285713,455.33482142857144,4636.8,1652.4285714285713,455.33482142857144,4740.4,1652.4285714285713,455.33482142857144,4840.4,1652.4285714285713,455.33482142857144,4941.6]","[1472.6,1472.6,1000,0,472.6,""oops"",""down"",""right"",""bad_move"",5123.9,3650.8,3265.1,1473.1,385.7,""oops"",""down"",""up"",""bad_move"",7261.5,2137,1783,5124.6,354,""oops"",""down"",""right"",""bad_move"",10390.7,3128.8,2792.2,7261.9,336.6,""smooth"",""down"",""down"",""good_move"",17352,6960.9,2599.9,14375.6,376.5,""oops"",""down"",""left"",""good_move"",22897.6,5545.4,1984.4,20555,358.2,""oops"",""down"",""right"",""bad_move""]","",""
"3697","","<div style=""width:500px;"">
  <p>What determined the result of this run?</p>
  </div>","0","html-slider-response","50","549847","0.0-5.0-1.8","159","1","2025-07-23 06:38:40","1f75c3e559b7213887762d5229550c2b","178.212.218.4","Mozilla/5.0 (Windows NT 10.0; Win64; x64) AppleWebKit/537.36 (KHTML, like Gecko) Chrome/138.0.0.0 Safari/537.36","WebKit","Chrome","138.0.0.0","Windows","10.0","null","pl-PL,pl;q=0.9,en-US;q=0.8,en;q=0.7","5c2b339a85602a00012ffedd","683db9eb0562dbf637994deb","688082d985641d5cc083b4d2","2","1","5c2b339a85602a00012ffedd","2","1","2025-07-23T06:47:49.305Z","","","","","","","","","","","AttribQ","","50","","","","","","","","","","","","","","","","","","","","","","","","","","","","",""
"1987","","<div style=""width:500px;"">
  <p>How much control did you have over the ball?</p>
  </div>","0","html-slider-response","51","551835","0.0-5.0-2.8","159","1","2025-07-23 06:38:40","1f75c3e559b7213887762d5229550c2b","178.212.218.4","Mozilla/5.0 (Windows NT 10.0; Win64; x64) AppleWebKit/537.36 (KHTML, like Gecko) Chrome/138.0.0.0 Safari/537.36","WebKit","Chrome","138.0.0.0","Windows","10.0","null","pl-PL,pl;q=0.9,en-US;q=0.8,en;q=0.7","5c2b339a85602a00012ffedd","683db9eb0562dbf637994deb","688082d985641d5cc083b4d2","2","1","5c2b339a85602a00012ffedd","2","1","2025-07-23T06:47:51.293Z","","","","","","","","","","","ControlQ","","50","","","","","","","","","","","","","","","","","","","","","","","","","","","","",""
"2155","","<div style=""width:500px;"">
  <p>How would you describe your current emotional state?</p>
  </div>","100","html-slider-response","52","553991","0.0-5.0-3.8","159","1","2025-07-23 06:38:40","1f75c3e559b7213887762d5229550c2b","178.212.218.4","Mozilla/5.0 (Windows NT 10.0; Win64; x64) AppleWebKit/537.36 (KHTML, like Gecko) Chrome/138.0.0.0 Safari/537.36","WebKit","Chrome","138.0.0.0","Windows","10.0","null","pl-PL,pl;q=0.9,en-US;q=0.8,en;q=0.7","5c2b339a85602a00012ffedd","683db9eb0562dbf637994deb","688082d985641d5cc083b4d2","2","1","5c2b339a85602a00012ffedd","2","1","2025-07-23T06:47:53.449Z","","","","","","","","","","","StressQ","","50","","","","","","","","","","","","","","","","","","","","","","","","","","","","",""
"1749","","<div style=""width:500px;"">
  <p>What best describes how you currently feel?</p>
  </div>","0","html-slider-response","53","555741","0.0-5.0-4.8","159","1","2025-07-23 06:38:40","1f75c3e559b7213887762d5229550c2b","178.212.218.4","Mozilla/5.0 (Windows NT 10.0; Win64; x64) AppleWebKit/537.36 (KHTML, like Gecko) Chrome/138.0.0.0 Safari/537.36","WebKit","Chrome","138.0.0.0","Windows","10.0","null","pl-PL,pl;q=0.9,en-US;q=0.8,en;q=0.7","5c2b339a85602a00012ffedd","683db9eb0562dbf637994deb","688082d985641d5cc083b4d2","2","1","5c2b339a85602a00012ffedd","2","1","2025-07-23T06:47:55.199Z","","","","","","","","","","","MotivationQ","","50","","","","","","","","","","","","","","","","","","","","","","","","","","","","",""
"","","","","ctl-task-cpt","54","597390","0.0-5.0-0.9","159","1","2025-07-23 06:38:40","1f75c3e559b7213887762d5229550c2b","178.212.218.4","Mozilla/5.0 (Windows NT 10.0; Win64; x64) AppleWebKit/537.36 (KHTML, like Gecko) Chrome/138.0.0.0 Safari/537.36","WebKit","Chrome","138.0.0.0","Windows","10.0","null","pl-PL,pl;q=0.9,en-US;q=0.8,en;q=0.7","5c2b339a85602a00012ffedd","683db9eb0562dbf637994deb","688082d985641d5cc083b4d2","2","1","5c2b339a85602a00012ffedd","2","1","2025-07-23T06:48:36.848Z","","","","","","","","","","","","","","win-only","3","g1:SW,g2:NE","0.4","10","0","556820.6","686.5","5690.7","38630.2","1","4","8","6","1","-1","-1","0","0","0","1243","3000","-2995","[""down"",""left""]","{""num_key_presses"":7,""num_perfect"":3,""num_errors"":0,""num_randdir"":4,""num_randdir_good_moves"":1,""num_whilered"":0,""num_whileblue"":0,""num_blue"":3,""num_good_moves"":4}","[550.4285714285714,555.3348214285714,0.1,550.4285714285714,555.3348214285714,104.3,550.4285714285714,555.3348214285714,204.5,550.4285714285714,555.3348214285714,309.3,550.4285714285714,555.3348214285714,410.3,549.4285714285714,557.3348214285714,514,256.42857142857144,879.3348214285714,614.5,208.42857142857144,918.3348214285714,719.9,200.42857142857144,924.3348214285714,820.1,198.42857142857144,924.3348214285714,920.1,126.42857142857143,963.3348214285714,1020.1,70.42857142857143,993.3348214285714,1121,47.42857142857143,1015.3348214285714,1224.4,47.42857142857143,1015.3348214285714,1326,47.42857142857143,1015.3348214285714,1428.8,45.42857142857143,1018.3348214285714,1529.4,44.42857142857143,1018.3348214285714,1629.7,44.42857142857143,1018.3348214285714,1734.5,44.42857142857143,1018.3348214285714,1834.6,44.42857142857143,1018.3348214285714,1934.8,44.42857142857143,1018.3348214285714,2039.6,44.42857142857143,1018.3348214285714,2139.6,44.42857142857143,1018.3348214285714,2244.5,44.42857142857143,1018.3348214285714,2344.5,43.42857142857143,1018.3348214285714,2448.7,43.42857142857143,1018.3348214285714,2549.4,43.42857142857143,1018.3348214285714,2654.3,43.42857142857143,1018.3348214285714,2759.3,43.42857142857143,1018.3348214285714,2865.7,43.42857142857143,1018.3348214285714,2970.4,43.42857142857143,1018.3348214285714,3073.8,43.42857142857143,1018.3348214285714,3174.1,43.42857142857143,1018.3348214285714,3280.1,43.42857142857143,1018.3348214285714,3384,43.42857142857143,1018.3348214285714,3484.5,43.42857142857143,1018.3348214285714,3585.1,43.42857142857143,1018.3348214285714,3688.9,43.42857142857143,1018.3348214285714,3797.4,43.42857142857143,1018.3348214285714,3898.6,43.42857142857143,1018.3348214285714,4000.3,43.42857142857143,1018.3348214285714,4103.9,43.42857142857143,1018.3348214285714,4204.2,43.42857142857143,1018.3348214285714,4305.1,43.42857142857143,1018.3348214285714,4410.1,43.42857142857143,1018.3348214285714,4514.1,43.42857142857143,1018.3348214285714,4614.3,43.42857142857143,1018.3348214285714,4714.6,43.42857142857143,1018.3348214285714,4819.9,43.42857142857143,1018.3348214285714,4924]","[8285.9,8285.9,2246.8,5540.3,498.8,""smooth"",""down"",""down"",""good_move"",11412,3125.7,2580.6,8286.3,545.1,""smooth"",""down"",""down"",""good_move"",14177.5,2765.4,2318.1,11412.1,447.3,""smooth"",""left"",""left"",""good_move"",18273.8,4096.1,3752.5,14177.7,343.6,""oops"",""left"",""up"",""bad_move"",25513.1,7239.1,3255.8,21890.1,367.2,""oops"",""left"",""down"",""good_move"",27906.5,2393.1,2006.8,25513.4,386.3,""oops"",""left"",""up"",""bad_move"",30935.6,3028.7,2661,27906.9,367.7,""oops"",""left"",""right"",""bad_move""]","",""
"1972","","<div style=""width:500px;"">
  <p>What determined the result of this run?</p>
  </div>","0","html-slider-response","55","599364","0.0-5.0-1.9","159","1","2025-07-23 06:38:40","1f75c3e559b7213887762d5229550c2b","178.212.218.4","Mozilla/5.0 (Windows NT 10.0; Win64; x64) AppleWebKit/537.36 (KHTML, like Gecko) Chrome/138.0.0.0 Safari/537.36","WebKit","Chrome","138.0.0.0","Windows","10.0","null","pl-PL,pl;q=0.9,en-US;q=0.8,en;q=0.7","5c2b339a85602a00012ffedd","683db9eb0562dbf637994deb","688082d985641d5cc083b4d2","2","1","5c2b339a85602a00012ffedd","2","1","2025-07-23T06:48:38.822Z","","","","","","","","","","","AttribQ","","50","","","","","","","","","","","","","","","","","","","","","","","","","","","","",""
"1716","","<div style=""width:500px;"">
  <p>How much control did you have over the ball?</p>
  </div>","0","html-slider-response","56","601081","0.0-5.0-2.9","159","1","2025-07-23 06:38:40","1f75c3e559b7213887762d5229550c2b","178.212.218.4","Mozilla/5.0 (Windows NT 10.0; Win64; x64) AppleWebKit/537.36 (KHTML, like Gecko) Chrome/138.0.0.0 Safari/537.36","WebKit","Chrome","138.0.0.0","Windows","10.0","null","pl-PL,pl;q=0.9,en-US;q=0.8,en;q=0.7","5c2b339a85602a00012ffedd","683db9eb0562dbf637994deb","688082d985641d5cc083b4d2","2","1","5c2b339a85602a00012ffedd","2","1","2025-07-23T06:48:40.539Z","","","","","","","","","","","ControlQ","","50","","","","","","","","","","","","","","","","","","","","","","","","","","","","",""
"1726","","<div style=""width:500px;"">
  <p>How would you describe your current emotional state?</p>
  </div>","100","html-slider-response","57","602808","0.0-5.0-3.9","159","1","2025-07-23 06:38:40","1f75c3e559b7213887762d5229550c2b","178.212.218.4","Mozilla/5.0 (Windows NT 10.0; Win64; x64) AppleWebKit/537.36 (KHTML, like Gecko) Chrome/138.0.0.0 Safari/537.36","WebKit","Chrome","138.0.0.0","Windows","10.0","null","pl-PL,pl;q=0.9,en-US;q=0.8,en;q=0.7","5c2b339a85602a00012ffedd","683db9eb0562dbf637994deb","688082d985641d5cc083b4d2","2","1","5c2b339a85602a00012ffedd","2","1","2025-07-23T06:48:42.266Z","","","","","","","","","","","StressQ","","50","","","","","","","","","","","","","","","","","","","","","","","","","","","","",""
"4090","","<div style=""width:500px;"">
  <p>What best describes how you currently feel?</p>
  </div>","8","html-slider-response","58","606899","0.0-5.0-4.9","159","1","2025-07-23 06:38:40","1f75c3e559b7213887762d5229550c2b","178.212.218.4","Mozilla/5.0 (Windows NT 10.0; Win64; x64) AppleWebKit/537.36 (KHTML, like Gecko) Chrome/138.0.0.0 Safari/537.36","WebKit","Chrome","138.0.0.0","Windows","10.0","null","pl-PL,pl;q=0.9,en-US;q=0.8,en;q=0.7","5c2b339a85602a00012ffedd","683db9eb0562dbf637994deb","688082d985641d5cc083b4d2","2","1","5c2b339a85602a00012ffedd","2","1","2025-07-23T06:48:46.357Z","","","","","","","","","","","MotivationQ","","50","","","","","","","","","","","","","","","","","","","","","","","","","","","","",""
"","","","","ctl-task-cpt","59","641090","0.0-5.0-0.10","159","1","2025-07-23 06:38:40","1f75c3e559b7213887762d5229550c2b","178.212.218.4","Mozilla/5.0 (Windows NT 10.0; Win64; x64) AppleWebKit/537.36 (KHTML, like Gecko) Chrome/138.0.0.0 Safari/537.36","WebKit","Chrome","138.0.0.0","Windows","10.0","null","pl-PL,pl;q=0.9,en-US;q=0.8,en;q=0.7","5c2b339a85602a00012ffedd","683db9eb0562dbf637994deb","688082d985641d5cc083b4d2","2","1","5c2b339a85602a00012ffedd","2","1","2025-07-23T06:49:20.548Z","","","","","","","","","","","","","","win-only","3","g1:SW,g2:NE","0.5","11","0","607979.4","611.2","5616.4","31171.6","1","4","4","6","1","-1","-4","0","0","0","922.7","3000","-2975","[""down"",""left""]","{""num_key_presses"":22,""num_perfect"":4,""num_errors"":3,""num_randdir"":2,""num_randdir_good_moves"":0,""num_whilered"":13,""num_whileblue"":0,""num_blue"":0,""num_good_moves"":4}","[543.4285714285714,558.3348214285714,0.1,543.4285714285714,558.3348214285714,100.9,543.4285714285714,558.3348214285714,200.9,543.4285714285714,558.3348214285714,304.3,543.4285714285714,558.3348214285714,404.9,399.42857142857144,779.3348214285714,507,221.42857142857144,957.3348214285714,610.2,192.42857142857144,979.3348214285714,711.4,150.42857142857144,1001.3348214285714,815.7,114.42857142857143,1017.3348214285714,920.8,114.42857142857143,1017.3348214285714,1025.7,114.42857142857143,1017.3348214285714,1129.5,114.42857142857143,1017.3348214285714,1230.4,114.42857142857143,1017.3348214285714,1330.7,114.42857142857143,1017.3348214285714,1430.9,114.42857142857143,1017.3348214285714,1535.3,113.42857142857143,1017.3348214285714,1639.9,113.42857142857143,1017.3348214285714,1740,113.42857142857143,1017.3348214285714,1844.8,113.42857142857143,1017.3348214285714,1951.3,113.42857142857143,1017.3348214285714,2054.8,113.42857142857143,1017.3348214285714,2154.8,113.42857142857143,1017.3348214285714,2255.5,113.42857142857143,1017.3348214285714,2355.7,113.42857142857143,1017.3348214285714,2459.4,113.42857142857143,1017.3348214285714,2559.7,113.42857142857143,1017.3348214285714,2664.4,113.42857142857143,1017.3348214285714,2769.7,113.42857142857143,1017.3348214285714,2874.3,113.42857142857143,1017.3348214285714,2974.7,113.42857142857143,1017.3348214285714,3079.2,113.42857142857143,1017.3348214285714,3180.4,515.4285714285714,892.3348214285714,3282.6,1430.4285714285713,631.3348214285714,3384.7,1415.4285714285713,598.3348214285714,3486.8,1437.4285714285713,541.3348214285714,3589.8,1434.4285714285713,537.3348214285714,3695.3,1434.4285714285713,537.3348214285714,3800.2,1434.4285714285713,537.3348214285714,3900.2,1434.4285714285713,537.3348214285714,4005.2,1434.4285714285713,537.3348214285714,4109.5,1434.4285714285713,537.3348214285714,4209.9,1434.4285714285713,537.3348214285714,4314.5,1434.4285714285713,537.3348214285714,4414.6,1434.4285714285713,537.3348214285714,4519.4,1434.4285714285713,537.3348214285714,4620.9,1434.4285714285713,537.3348214285714,4725.1,1434.4285714285713,537.3348214285714,4830.9,1434.4285714285713,537.3348214285714,4936.1]","[1710.4,1710.4,1000,0,710.4,""smooth"",""down"",""down"",""good_move"",5255.8,3545,3089.9,1710.8,455.1,""oops"",""down"",""right"",""bad_move"",8936.1,3679.9,3331.2,5256.2,348.7,""smooth"",""left"",""left"",""good_move"",11829.4,2893.1,2585,8936.3,308.1,""smooth"",""left"",""left"",""good_move"",15277.7,3448.1,2937.1,11829.6,511,""oops"",""left"",""right"",""bad_move"",17695.8,2417.9,1914.7,15278,503.1,""smooth"",""left"",""left"",""good_move"",19502,1806,3358.8,17696,-1552.8,""error"",""-"",""-"",""no_move"",20136,633.3,3358.8,17696,-918.8,""while_red"",""-"",""-"",""no_move"",20317.9,815.2,3358.8,17696,-736.9,""while_red"",""-"",""-"",""no_move"",20498.5,995.8,3358.8,17696,-556.3,""while_red"",""-"",""-"",""no_move"",20650.1,1147.5,2880.1,20505.2,-2735.1,""error"",""-"",""-"",""no_move"",20830.7,180.3,2880.1,20505.2,-2554.6,""while_red"",""-"",""-"",""no_move"",21010.7,360.3,2880.1,20505.2,-2374.6,""while_red"",""-"",""-"",""no_move"",21211.9,561.5,2880.1,20505.2,-2173.4,""while_red"",""-"",""-"",""no_move"",21387.8,737.4,2880.1,20505.2,-1997.5,""while_red"",""-"",""-"",""no_move"",21550.5,900.1,2880.1,20505.2,-1834.7,""while_red"",""-"",""-"",""no_move"",21702.1,1051.7,2516.3,21650.9,-2465.1,""error"",""-"",""-"",""no_move"",21848.9,146.7,2516.3,21650.9,-2318.3,""while_red"",""-"",""-"",""no_move"",21999.7,297.5,2516.3,21650.9,-2167.4,""while_red"",""-"",""-"",""no_move"",22134.8,432.6,2516.3,21650.9,-2032.4,""while_red"",""-"",""-"",""no_move"",22263.6,561.4,2516.3,21650.9,-1903.6,""while_red"",""-"",""-"",""no_move"",22402.9,700.7,2516.3,21650.9,-1764.3,""while_red"",""-"",""-"",""no_move""]","",""
"2304","","<div style=""width:500px;"">
  <p>What determined the result of this run?</p>
  </div>","0","html-slider-response","60","643395","0.0-5.0-1.10","159","1","2025-07-23 06:38:40","1f75c3e559b7213887762d5229550c2b","178.212.218.4","Mozilla/5.0 (Windows NT 10.0; Win64; x64) AppleWebKit/537.36 (KHTML, like Gecko) Chrome/138.0.0.0 Safari/537.36","WebKit","Chrome","138.0.0.0","Windows","10.0","null","pl-PL,pl;q=0.9,en-US;q=0.8,en;q=0.7","5c2b339a85602a00012ffedd","683db9eb0562dbf637994deb","688082d985641d5cc083b4d2","2","1","5c2b339a85602a00012ffedd","2","1","2025-07-23T06:49:22.853Z","","","","","","","","","","","AttribQ","","50","","","","","","","","","","","","","","","","","","","","","","","","","","","","",""
"1917","","<div style=""width:500px;"">
  <p>How much control did you have over the ball?</p>
  </div>","0","html-slider-response","61","645314","0.0-5.0-2.10","159","1","2025-07-23 06:38:40","1f75c3e559b7213887762d5229550c2b","178.212.218.4","Mozilla/5.0 (Windows NT 10.0; Win64; x64) AppleWebKit/537.36 (KHTML, like Gecko) Chrome/138.0.0.0 Safari/537.36","WebKit","Chrome","138.0.0.0","Windows","10.0","null","pl-PL,pl;q=0.9,en-US;q=0.8,en;q=0.7","5c2b339a85602a00012ffedd","683db9eb0562dbf637994deb","688082d985641d5cc083b4d2","2","1","5c2b339a85602a00012ffedd","2","1","2025-07-23T06:49:24.772Z","","","","","","","","","","","ControlQ","","50","","","","","","","","","","","","","","","","","","","","","","","","","","","","",""
"1689","","<div style=""width:500px;"">
  <p>How would you describe your current emotional state?</p>
  </div>","100","html-slider-response","62","647003","0.0-5.0-3.10","159","1","2025-07-23 06:38:40","1f75c3e559b7213887762d5229550c2b","178.212.218.4","Mozilla/5.0 (Windows NT 10.0; Win64; x64) AppleWebKit/537.36 (KHTML, like Gecko) Chrome/138.0.0.0 Safari/537.36","WebKit","Chrome","138.0.0.0","Windows","10.0","null","pl-PL,pl;q=0.9,en-US;q=0.8,en;q=0.7","5c2b339a85602a00012ffedd","683db9eb0562dbf637994deb","688082d985641d5cc083b4d2","2","1","5c2b339a85602a00012ffedd","2","1","2025-07-23T06:49:26.461Z","","","","","","","","","","","StressQ","","50","","","","","","","","","","","","","","","","","","","","","","","","","","","","",""
"2005","","<div style=""width:500px;"">
  <p>What best describes how you currently feel?</p>
  </div>","0","html-slider-response","63","649009","0.0-5.0-4.10","159","1","2025-07-23 06:38:40","1f75c3e559b7213887762d5229550c2b","178.212.218.4","Mozilla/5.0 (Windows NT 10.0; Win64; x64) AppleWebKit/537.36 (KHTML, like Gecko) Chrome/138.0.0.0 Safari/537.36","WebKit","Chrome","138.0.0.0","Windows","10.0","null","pl-PL,pl;q=0.9,en-US;q=0.8,en;q=0.7","5c2b339a85602a00012ffedd","683db9eb0562dbf637994deb","688082d985641d5cc083b4d2","2","1","5c2b339a85602a00012ffedd","2","1","2025-07-23T06:49:28.467Z","","","","","","","","","","","MotivationQ","","50","","","","","","","","","","","","","","","","","","","","","","","","","","","","",""
"","","","","ctl-task-cpt","64","679910","0.0-5.0-0.11","159","1","2025-07-23 06:38:40","1f75c3e559b7213887762d5229550c2b","178.212.218.4","Mozilla/5.0 (Windows NT 10.0; Win64; x64) AppleWebKit/537.36 (KHTML, like Gecko) Chrome/138.0.0.0 Safari/537.36","WebKit","Chrome","138.0.0.0","Windows","10.0","null","pl-PL,pl;q=0.9,en-US;q=0.8,en;q=0.7","5c2b339a85602a00012ffedd","683db9eb0562dbf637994deb","688082d985641d5cc083b4d2","2","1","5c2b339a85602a00012ffedd","2","1","2025-07-23T06:49:59.368Z","","","","","","","","","","","","","","win-only","1","g1:NE,g2:SW","0.6","12","0","650089","607.1","5611.5","27881.2","1","4","8","6","1","1","1","1","0","0.007575757575757576","1521.1","3000","845","[""up"",""right""]","{""num_key_presses"":6,""num_perfect"":5,""num_errors"":0,""num_randdir"":1,""num_randdir_good_moves"":0,""num_whilered"":0,""num_whileblue"":0,""num_blue"":2,""num_good_moves"":5}","[561.4285714285714,571.3348214285714,0.2,561.4285714285714,571.3348214285714,104.5,561.4285714285714,571.3348214285714,208.9,561.4285714285714,571.3348214285714,314.1,536.4285714285714,606.3348214285714,418,370.42857142857144,876.3348214285714,521.2,364.42857142857144,891.3348214285714,623.4,363.42857142857144,892.3348214285714,724.2,168.42857142857144,1024.3348214285713,828.3,147.42857142857144,1041.3348214285713,928.6,530.4285714285714,721.3348214285714,1034.6,1066.4285714285713,40.33482142857143,1135.5,1075.4285714285713,3.3348214285714306,1238.3,1086.4285714285713,-6.665178571428569,1340.1,1023.4285714285714,76.33482142857143,1444.4,1023.4285714285714,76.33482142857143,1544.5,1023.4285714285714,76.33482142857143,1649.3,1023.4285714285714,76.33482142857143,1754.1,1023.4285714285714,76.33482142857143,1859.2,1023.4285714285714,76.33482142857143,1959.8,1023.4285714285714,76.33482142857143,2060,1023.4285714285714,76.33482142857143,2163.8,1023.4285714285714,76.33482142857143,2264.5,1023.4285714285714,76.33482142857143,2369.5,1023.4285714285714,76.33482142857143,2474.6,1023.4285714285714,76.33482142857143,2579.6,1023.4285714285714,76.33482142857143,2684.3,1023.4285714285714,76.33482142857143,2784.5,1023.4285714285714,76.33482142857143,2888.5,1023.4285714285714,76.33482142857143,2993.7,1023.4285714285714,76.33482142857143,3099.4,1023.4285714285714,76.33482142857143,3203.4,1023.4285714285714,76.33482142857143,3308.5,1023.4285714285714,76.33482142857143,3414,1023.4285714285714,76.33482142857143,3519.1,1023.4285714285714,76.33482142857143,3620,1023.4285714285714,76.33482142857143,3724,1023.4285714285714,76.33482142857143,3824,1023.4285714285714,76.33482142857143,3925,1023.4285714285714,76.33482142857143,4029.1,1023.4285714285714,76.33482142857143,4134,1023.4285714285714,76.33482142857143,4239,1023.4285714285714,76.33482142857143,4344.2,1023.4285714285714,76.33482142857143,4448.8,1023.4285714285714,76.33482142857143,4554.4,1023.4285714285714,76.33482142857143,4660,1023.4285714285714,76.33482142857143,4763.5,1023.4285714285714,76.33482142857143,4863.7,1023.4285714285714,76.33482142857143,4968.8]","[1435,1435,1000,0,435,""smooth"",""right"",""right"",""good_move"",7761,6325.8,2460.5,4944.7,355.9,""smooth"",""right"",""right"",""good_move"",14904,7142.6,2815.2,11739.5,349.3,""oops"",""up"",""down"",""bad_move"",17099,2194.4,1802.3,14904.7,392.1,""smooth"",""up"",""up"",""good_move"",19997.7,2898.2,2540.4,17099.6,357.8,""smooth"",""up"",""up"",""good_move"",22181.9,2183.9,1875.2,19998,308.7,""smooth"",""up"",""up"",""good_move""]","",""
"3219","","<div style=""width:500px;"">
  <p>What determined the result of this run?</p>
  </div>","34","html-slider-response","65","683129","0.0-5.0-1.11","159","1","2025-07-23 06:38:40","1f75c3e559b7213887762d5229550c2b","178.212.218.4","Mozilla/5.0 (Windows NT 10.0; Win64; x64) AppleWebKit/537.36 (KHTML, like Gecko) Chrome/138.0.0.0 Safari/537.36","WebKit","Chrome","138.0.0.0","Windows","10.0","null","pl-PL,pl;q=0.9,en-US;q=0.8,en;q=0.7","5c2b339a85602a00012ffedd","683db9eb0562dbf637994deb","688082d985641d5cc083b4d2","2","1","5c2b339a85602a00012ffedd","2","1","2025-07-23T06:50:02.587Z","","","","","","","","","","","AttribQ","","50","","","","","","","","","","","","","","","","","","","","","","","","","","","","",""
"1443","","<div style=""width:500px;"">
  <p>How much control did you have over the ball?</p>
  </div>","34","html-slider-response","66","684574","0.0-5.0-2.11","159","1","2025-07-23 06:38:40","1f75c3e559b7213887762d5229550c2b","178.212.218.4","Mozilla/5.0 (Windows NT 10.0; Win64; x64) AppleWebKit/537.36 (KHTML, like Gecko) Chrome/138.0.0.0 Safari/537.36","WebKit","Chrome","138.0.0.0","Windows","10.0","null","pl-PL,pl;q=0.9,en-US;q=0.8,en;q=0.7","5c2b339a85602a00012ffedd","683db9eb0562dbf637994deb","688082d985641d5cc083b4d2","2","1","5c2b339a85602a00012ffedd","2","1","2025-07-23T06:50:04.032Z","","","","","","","","","","","ControlQ","","50","","","","","","","","","","","","","","","","","","","","","","","","","","","","",""
"3326","","<div style=""width:500px;"">
  <p>How would you describe your current emotional state?</p>
  </div>","86","html-slider-response","67","687901","0.0-5.0-3.11","159","1","2025-07-23 06:38:40","1f75c3e559b7213887762d5229550c2b","178.212.218.4","Mozilla/5.0 (Windows NT 10.0; Win64; x64) AppleWebKit/537.36 (KHTML, like Gecko) Chrome/138.0.0.0 Safari/537.36","WebKit","Chrome","138.0.0.0","Windows","10.0","null","pl-PL,pl;q=0.9,en-US;q=0.8,en;q=0.7","5c2b339a85602a00012ffedd","683db9eb0562dbf637994deb","688082d985641d5cc083b4d2","2","1","5c2b339a85602a00012ffedd","2","1","2025-07-23T06:50:07.359Z","","","","","","","","","","","StressQ","","50","","","","","","","","","","","","","","","","","","","","","","","","","","","","",""
"1737","","<div style=""width:500px;"">
  <p>What best describes how you currently feel?</p>
  </div>","30","html-slider-response","68","689639","0.0-5.0-4.11","159","1","2025-07-23 06:38:40","1f75c3e559b7213887762d5229550c2b","178.212.218.4","Mozilla/5.0 (Windows NT 10.0; Win64; x64) AppleWebKit/537.36 (KHTML, like Gecko) Chrome/138.0.0.0 Safari/537.36","WebKit","Chrome","138.0.0.0","Windows","10.0","null","pl-PL,pl;q=0.9,en-US;q=0.8,en;q=0.7","5c2b339a85602a00012ffedd","683db9eb0562dbf637994deb","688082d985641d5cc083b4d2","2","1","5c2b339a85602a00012ffedd","2","1","2025-07-23T06:50:09.097Z","","","","","","","","","","","MotivationQ","","50","","","","","","","","","","","","","","","","","","","","","","","","","","","","",""
"","","","","ctl-task-cpt","69","720848","0.0-5.0-0.12","159","1","2025-07-23 06:38:40","1f75c3e559b7213887762d5229550c2b","178.212.218.4","Mozilla/5.0 (Windows NT 10.0; Win64; x64) AppleWebKit/537.36 (KHTML, like Gecko) Chrome/138.0.0.0 Safari/537.36","WebKit","Chrome","138.0.0.0","Windows","10.0","null","pl-PL,pl;q=0.9,en-US;q=0.8,en;q=0.7","5c2b339a85602a00012ffedd","683db9eb0562dbf637994deb","688082d985641d5cc083b4d2","2","1","5c2b339a85602a00012ffedd","2","1","2025-07-23T06:50:40.306Z","","","","","","","","","","","","","","win-only","2","g1:SE,g2:NW","0.7","13","0","690718.4","616.6","5621.8","28190.4","1","4","4","6","1","-1","-2","0","1","0","1017.8","3000","-2995","[""down"",""right""]","{""num_key_presses"":6,""num_perfect"":4,""num_errors"":1,""num_randdir"":1,""num_randdir_good_moves"":0,""num_whilered"":0,""num_whileblue"":0,""num_blue"":1,""num_good_moves"":4}","[546.4285714285714,558.3348214285714,0.1,546.4285714285714,558.3348214285714,106.2,546.4285714285714,558.3348214285714,209.1,546.4285714285714,558.3348214285714,312.9,546.4285714285714,558.3348214285714,414,581.4285714285714,618.3348214285714,516,1067.4285714285713,983.3348214285714,622.3,1082.4285714285713,981.3348214285714,724.6,1075.4285714285713,976.3348214285714,829.2,1038.4285714285713,987.3348214285714,933.6,1033.4285714285713,990.3348214285714,1035.9,1033.4285714285713,990.3348214285714,1138.1,1033.4285714285713,990.3348214285714,1239.4,1033.4285714285713,990.3348214285714,1344.3,1033.4285714285713,990.3348214285714,1445.2,1033.4285714285713,990.3348214285714,1549.2,1033.4285714285713,990.3348214285714,1655.4,1033.4285714285713,990.3348214285714,1759.8,1032.4285714285713,990.3348214285714,1863.8,1032.4285714285713,990.3348214285714,1964.6,1032.4285714285713,990.3348214285714,2065,1032.4285714285713,990.3348214285714,2169,1032.4285714285713,990.3348214285714,2269.6,1032.4285714285713,990.3348214285714,2377.7,1032.4285714285713,990.3348214285714,2479,1032.4285714285713,990.3348214285714,2580.2,1032.4285714285713,990.3348214285714,2684.8,1032.4285714285713,990.3348214285714,2790.9,1032.4285714285713,990.3348214285714,2895.3,1032.4285714285713,990.3348214285714,3000.5,1032.4285714285713,990.3348214285714,3100.5,1032.4285714285713,990.3348214285714,3204.6,1032.4285714285713,990.3348214285714,3308.8,1032.4285714285713,990.3348214285714,3409,1032.4285714285713,990.3348214285714,3509.3,1032.4285714285713,990.3348214285714,3609.8,1032.4285714285713,990.3348214285714,3714.5,1032.4285714285713,990.3348214285714,3818.9,1032.4285714285713,990.3348214285714,3919.7,1032.4285714285713,990.3348214285714,4020.2,1032.4285714285713,990.3348214285714,4124,1032.4285714285713,990.3348214285714,4224.7,1032.4285714285713,990.3348214285714,4325,1032.4285714285713,990.3348214285714,4429.4,1032.4285714285713,990.3348214285714,4529.8,1032.4285714285713,990.3348214285714,4629.8,1032.4285714285713,990.3348214285714,4734.8,1032.4285714285713,990.3348214285714,4834.8,1032.4285714285713,990.3348214285714,4935.2]","[402.2,402.2,1000,0,-597.7,""error"",""-"",""-"",""no_move"",4481.2,4078.7,2532.7,1404.3,544.2,""smooth"",""right"",""right"",""good_move"",7713,3231.4,2843.3,4481.6,388.1,""smooth"",""right"",""right"",""good_move"",13209.2,5495.9,2544.3,10075.1,589.8,""oops"",""down"",""up"",""bad_move"",16177.9,2968.2,2562.6,13209.7,405.6,""smooth"",""down"",""down"",""good_move"",19198.8,3020.8,2535.6,16178.1,485.2,""smooth"",""down"",""down"",""good_move""]","",""
"3745","","<div style=""width:500px;"">
  <p>What determined the result of this run?</p>
  </div>","34","html-slider-response","70","724594","0.0-5.0-1.12","159","1","2025-07-23 06:38:40","1f75c3e559b7213887762d5229550c2b","178.212.218.4","Mozilla/5.0 (Windows NT 10.0; Win64; x64) AppleWebKit/537.36 (KHTML, like Gecko) Chrome/138.0.0.0 Safari/537.36","WebKit","Chrome","138.0.0.0","Windows","10.0","null","pl-PL,pl;q=0.9,en-US;q=0.8,en;q=0.7","5c2b339a85602a00012ffedd","683db9eb0562dbf637994deb","688082d985641d5cc083b4d2","2","1","5c2b339a85602a00012ffedd","2","1","2025-07-23T06:50:44.052Z","","","","","","","","","","","AttribQ","","50","","","","","","","","","","","","","","","","","","","","","","","","","","","","",""
"2260","","<div style=""width:500px;"">
  <p>How much control did you have over the ball?</p>
  </div>","22","html-slider-response","71","726855","0.0-5.0-2.12","159","1","2025-07-23 06:38:40","1f75c3e559b7213887762d5229550c2b","178.212.218.4","Mozilla/5.0 (Windows NT 10.0; Win64; x64) AppleWebKit/537.36 (KHTML, like Gecko) Chrome/138.0.0.0 Safari/537.36","WebKit","Chrome","138.0.0.0","Windows","10.0","null","pl-PL,pl;q=0.9,en-US;q=0.8,en;q=0.7","5c2b339a85602a00012ffedd","683db9eb0562dbf637994deb","688082d985641d5cc083b4d2","2","1","5c2b339a85602a00012ffedd","2","1","2025-07-23T06:50:46.313Z","","","","","","","","","","","ControlQ","","50","","","","","","","","","","","","","","","","","","","","","","","","","","","","",""
"4506","","<div style=""width:500px;"">
  <p>How would you describe your current emotional state?</p>
  </div>","100","html-slider-response","72","731362","0.0-5.0-3.12","159","1","2025-07-23 06:38:40","1f75c3e559b7213887762d5229550c2b","178.212.218.4","Mozilla/5.0 (Windows NT 10.0; Win64; x64) AppleWebKit/537.36 (KHTML, like Gecko) Chrome/138.0.0.0 Safari/537.36","WebKit","Chrome","138.0.0.0","Windows","10.0","null","pl-PL,pl;q=0.9,en-US;q=0.8,en;q=0.7","5c2b339a85602a00012ffedd","683db9eb0562dbf637994deb","688082d985641d5cc083b4d2","2","1","5c2b339a85602a00012ffedd","2","1","2025-07-23T06:50:50.820Z","","","","","","","","","","","StressQ","","50","","","","","","","","","","","","","","","","","","","","","","","","","","","","",""
"2623","","<div style=""width:500px;"">
  <p>What best describes how you currently feel?</p>
  </div>","38","html-slider-response","73","733986","0.0-5.0-4.12","159","1","2025-07-23 06:38:40","1f75c3e559b7213887762d5229550c2b","178.212.218.4","Mozilla/5.0 (Windows NT 10.0; Win64; x64) AppleWebKit/537.36 (KHTML, like Gecko) Chrome/138.0.0.0 Safari/537.36","WebKit","Chrome","138.0.0.0","Windows","10.0","null","pl-PL,pl;q=0.9,en-US;q=0.8,en;q=0.7","5c2b339a85602a00012ffedd","683db9eb0562dbf637994deb","688082d985641d5cc083b4d2","2","1","5c2b339a85602a00012ffedd","2","1","2025-07-23T06:50:53.444Z","","","","","","","","","","","MotivationQ","","50","","","","","","","","","","","","","","","","","","","","","","","","","","","","",""
"","","","","ctl-task-cpt","74","770976","0.0-5.0-0.13","159","1","2025-07-23 06:38:40","1f75c3e559b7213887762d5229550c2b","178.212.218.4","Mozilla/5.0 (Windows NT 10.0; Win64; x64) AppleWebKit/537.36 (KHTML, like Gecko) Chrome/138.0.0.0 Safari/537.36","WebKit","Chrome","138.0.0.0","Windows","10.0","null","pl-PL,pl;q=0.9,en-US;q=0.8,en;q=0.7","5c2b339a85602a00012ffedd","683db9eb0562dbf637994deb","688082d985641d5cc083b4d2","2","1","5c2b339a85602a00012ffedd","2","1","2025-07-23T06:51:30.435Z","","","","","","","","","","","","","","win-only","1","g1:NE,g2:SW","0.8","14","0","735065.3","922.3","5926.3","33971.2","1","4","8","6","2","8","8","8","0","0.06060606060606061","2012.1","3000","740","[""down"",""left""]","{""num_key_presses"":6,""num_perfect"":6,""num_errors"":0,""num_randdir"":0,""num_randdir_good_moves"":0,""num_whilered"":0,""num_whileblue"":0,""num_blue"":3,""num_good_moves"":6}","[547.4285714285714,561.3348214285714,0.3,546.4285714285714,561.3348214285714,103.5,546.4285714285714,561.3348214285714,203.7,546.4285714285714,561.3348214285714,308.9,546.4285714285714,561.3348214285714,413.7,546.4285714285714,561.3348214285714,514.5,546.4285714285714,561.3348214285714,619.3,546.4285714285714,561.3348214285714,719.4,546.4285714285714,561.3348214285714,824.4,546.4285714285714,561.3348214285714,928.9,813.4285714285714,440.33482142857144,1028.9,952.4285714285714,217.33482142857144,1135.1,972.4285714285714,200.33482142857144,1236.9,975.4285714285714,198.33482142857144,1338.6,805.4285714285714,406.33482142857144,1441.1,185.42857142857144,1000.3348214285714,1544.3,29.42857142857143,1005.3348214285714,1645.4,-2.5714285714285694,1020.3348214285714,1749.2,31.42857142857143,1041.3348214285713,1858.3,122.42857142857143,986.3348214285714,1959.5,122.42857142857143,986.3348214285714,2063.5,122.42857142857143,986.3348214285714,2163.5,122.42857142857143,986.3348214285714,2265.3,122.42857142857143,986.3348214285714,2368.7,122.42857142857143,986.3348214285714,2468.9,122.42857142857143,986.3348214285714,2569.4,122.42857142857143,986.3348214285714,2674.1,122.42857142857143,986.3348214285714,2778.9,122.42857142857143,986.3348214285714,2879.4,122.42857142857143,986.3348214285714,2983.7,122.42857142857143,986.3348214285714,3084.9,122.42857142857143,986.3348214285714,3188.4,122.42857142857143,986.3348214285714,3288.5,122.42857142857143,986.3348214285714,3389.4,122.42857142857143,986.3348214285714,3490.5,122.42857142857143,986.3348214285714,3593.2,122.42857142857143,986.3348214285714,3694.3,122.42857142857143,986.3348214285714,3798.2,122.42857142857143,986.3348214285714,3899.3,122.42857142857143,986.3348214285714,3999.7,122.42857142857143,986.3348214285714,4104.8,122.42857142857143,986.3348214285714,4209.6,122.42857142857143,986.3348214285714,4314.2,122.42857142857143,986.3348214285714,4414.6,122.42857142857143,986.3348214285714,4518.7,122.42857142857143,986.3348214285714,4619.6,122.42857142857143,986.3348214285714,4723.7,122.42857142857143,986.3348214285714,4828.9,122.42857142857143,986.3348214285714,4933.2]","[5132.3,5132.3,2727.1,2005,400.2,""smooth"",""down"",""down"",""good_move"",8489.2,3356.5,2953.9,5132.7,402.6,""smooth"",""down"",""down"",""good_move"",15278.4,6788.7,3026.9,11900.9,350.6,""smooth"",""down"",""down"",""good_move"",17930.3,2651.5,2138.8,15278.8,512.7,""smooth"",""left"",""left"",""good_move"",24275.1,6344.3,2284,21662.5,328.6,""smooth"",""left"",""left"",""good_move"",27956,3680.2,3363.5,24275.8,316.8,""smooth"",""left"",""left"",""good_move""]","",""
"2396","","<div style=""width:500px;"">
  <p>What determined the result of this run?</p>
  </div>","100","html-slider-response","75","773374","0.0-5.0-1.13","159","1","2025-07-23 06:38:40","1f75c3e559b7213887762d5229550c2b","178.212.218.4","Mozilla/5.0 (Windows NT 10.0; Win64; x64) AppleWebKit/537.36 (KHTML, like Gecko) Chrome/138.0.0.0 Safari/537.36","WebKit","Chrome","138.0.0.0","Windows","10.0","null","pl-PL,pl;q=0.9,en-US;q=0.8,en;q=0.7","5c2b339a85602a00012ffedd","683db9eb0562dbf637994deb","688082d985641d5cc083b4d2","2","1","5c2b339a85602a00012ffedd","2","1","2025-07-23T06:51:32.832Z","","","","","","","","","","","AttribQ","","50","","","","","","","","","","","","","","","","","","","","","","","","","","","","",""
"1778","","<div style=""width:500px;"">
  <p>How much control did you have over the ball?</p>
  </div>","100","html-slider-response","76","775153","0.0-5.0-2.13","159","1","2025-07-23 06:38:40","1f75c3e559b7213887762d5229550c2b","178.212.218.4","Mozilla/5.0 (Windows NT 10.0; Win64; x64) AppleWebKit/537.36 (KHTML, like Gecko) Chrome/138.0.0.0 Safari/537.36","WebKit","Chrome","138.0.0.0","Windows","10.0","null","pl-PL,pl;q=0.9,en-US;q=0.8,en;q=0.7","5c2b339a85602a00012ffedd","683db9eb0562dbf637994deb","688082d985641d5cc083b4d2","2","1","5c2b339a85602a00012ffedd","2","1","2025-07-23T06:51:34.611Z","","","","","","","","","","","ControlQ","","50","","","","","","","","","","","","","","","","","","","","","","","","","","","","",""
"1927","","<div style=""width:500px;"">
  <p>How would you describe your current emotional state?</p>
