"rt","response_timestamp","stimulus","response","trial_type","trial_index","time_elapsed","internal_node_id","run_id","condition","recorded_at","source_code_version","ip","user_agent","device","browser","browser_version","platform","platform_version","referer","accept_language","PROLIFIC_PID","STUDY_ID","SESSION_ID","WEEK","BATCH","prolific_id","week","batch","realtime","success","responses","item_order","radio_event_ids","radio_event_times","key_event_times","mouse_event_times","straightlining","zigzagging","honeypot","eventType","view_history","slider_start","which_type","canvas_config","goals_layout","control_level","trial_number","tutorial_trial_number","trial_start_time","phase1_start_time","phase2_start_time","phase3_start_time","goal_1_value","goal_1_distance","goal_2_value","goal_2_distance","goal_selected","outcome","outcome_total","participant_final_score","participant_initial_score","participant_final_score_prop","goal_choice_rt","allocated_time","allocated_time_remaining","goal_direction","counts","mouse_movements","key_presses","question_order","question_id"
"18115","1753256202473","<p style='font-size:40px;line-height:1.25'><strong>Welcome to the experiment!</strong></p><p style='font-size:1.1em;line-height:1.25'>Thank you for participanting in our experiment again! You will be asked to play the Dysfunctional Ball Game again. We will briefly recap the rules before we start.</p><p style='font-size:1.1em;line-height:1.25'>Press <strong>Next</strong> to continue.</p>","0","custom-html-button-response","0","18118","0.0-0.0","182","1","2025-07-23 07:37:26","1f75c3e559b7213887762d5229550c2b","216.120.189.162","Mozilla/5.0 (Windows NT 10.0; Win64; x64) AppleWebKit/537.36 (KHTML, like Gecko) Chrome/138.0.0.0 Safari/537.36","WebKit","Chrome","138.0.0.0","Windows","10.0","https://app.prolific.com/","en-GB,en-US;q=0.9,en;q=0.8","667b366d0d0943e90dbee7d1","683db9eb0562dbf637994deb","688090e408502a0057d90025","2","1","667b366d0d0943e90dbee7d1","2","1","2025-07-23T07:36:42.475Z","","","","","","","","","","","","","","","","","","","","","","","","","","","","","","","","","","","","","","","","","",""
"13184","","","","fullscreen","1","32316","0.0-1.0","182","1","2025-07-23 07:37:26","1f75c3e559b7213887762d5229550c2b","216.120.189.162","Mozilla/5.0 (Windows NT 10.0; Win64; x64) AppleWebKit/537.36 (KHTML, like Gecko) Chrome/138.0.0.0 Safari/537.36","WebKit","Chrome","138.0.0.0","Windows","10.0","https://app.prolific.com/","en-GB,en-US;q=0.9,en;q=0.8","667b366d0d0943e90dbee7d1","683db9eb0562dbf637994deb","688090e408502a0057d90025","2","1","667b366d0d0943e90dbee7d1","2","1","","true","","","","","","","","","","","","","","","","","","","","","","","","","","","","","","","","","","","","","","","","",""
"4343","1753256221019","<p style='font-size:1.1em;line-height:1.25'>In the following, we will ask you a few questions relating to your feelings in the last 24 hours.<br></p><p style='font-size:1.1em;line-height:1.25'>Press the <strong>Next</strong> button to continue.</p>","0","custom-html-button-response","2","36662","0.0-2.0-0.0","182","1","2025-07-23 07:37:26","1f75c3e559b7213887762d5229550c2b","216.120.189.162","Mozilla/5.0 (Windows NT 10.0; Win64; x64) AppleWebKit/537.36 (KHTML, like Gecko) Chrome/138.0.0.0 Safari/537.36","WebKit","Chrome","138.0.0.0","Windows","10.0","https://app.prolific.com/","en-GB,en-US;q=0.9,en;q=0.8","667b366d0d0943e90dbee7d1","683db9eb0562dbf637994deb","688090e408502a0057d90025","2","1","667b366d0d0943e90dbee7d1","2","1","2025-07-23T07:37:01.019Z","","","","","","","","","","","","","","","","","","","","","","","","","","","","","","","","","","","","","","","","","",""
"149367.5","","","","survey-template","3","186036","0.0-2.0-1.0","182","1","2025-07-23 07:37:26","1f75c3e559b7213887762d5229550c2b","216.120.189.162","Mozilla/5.0 (Windows NT 10.0; Win64; x64) AppleWebKit/537.36 (KHTML, like Gecko) Chrome/138.0.0.0 Safari/537.36","WebKit","Chrome","138.0.0.0","Windows","10.0","https://app.prolific.com/","en-GB,en-US;q=0.9,en;q=0.8","667b366d0d0943e90dbee7d1","683db9eb0562dbf637994deb","688090e408502a0057d90025","2","1","667b366d0d0943e90dbee7d1","2","1","2025-07-23T07:39:30.393Z","","{""Q01"":""0"",""Q02"":""1"",""Q03"":""0"",""Q04"":""1"",""Q05"":""0"",""Q06"":""0"",""Q07"":""0"",""Q08"":""0"",""Q09"":""0"",""Q10"":""0"",""Q11"":""0"",""Q12"":""0"",""Q13"":""5"",""Q14"":""0"",""Q15"":""1"",""Q16"":""1"",""Q17"":""1"",""Q18"":""0"",""Q19"":""1"",""Q20"":""1"",""Q21"":""1"",""Q22"":""1""}","[0,1,2,3,4,5,6,7,8,9,10,11,12,13,14,15,16,17,18,19,20,21]","[""Q01"",""Q02"",""Q03"",""Q04"",""Q05"",""Q06"",""Q07"",""Q08"",""Q09"",""Q10"",""Q11"",""Q12"",""Q13"",""Q14"",""Q15"",""Q16"",""Q17"",""Q18"",""Q19"",""Q20"",""Q21"",""Q22""]","[8064.199999809265,13549.199999809265,18523.699999809265,20370,23179.39999985695,26570.5,28422.699999809265,30252.89999985695,32701.699999809265,35083.299999952316,39646.09999990463,52907.39999985695,59719.299999952316,65172.199999809265,103868,109427.89999985695,114912.29999995232,116729.79999995232,126165.5,130514.29999995232,140052.59999990463,145268.89999985695]","[]","[0,8064.199999809265,13549.199999809265,15360.099999904633,17234,18523.699999809265,20370,23179.39999985695,26570.5,28422.699999809265,30252.89999985695,32701.699999809265,35083.299999952316,39646.09999990463,52907.39999985695,59719.299999952316,65172.199999809265,103868,109427.89999985695,114912.29999995232,116729.79999995232,119548.59999990463,124538.09999990463,126165.5,130514.29999995232,140052.59999990463,145268.89999985695,149363.39999985695]","0.5454545454545454","0.42857142857142855","0","drsp","","","","","","","","","","","","","","","","","","","","","","","","","","","","","","",""
"45325.10000014305","","","","survey-template","4","231363","0.0-2.0-2.0","182","1","2025-07-23 07:37:26","1f75c3e559b7213887762d5229550c2b","216.120.189.162","Mozilla/5.0 (Windows NT 10.0; Win64; x64) AppleWebKit/537.36 (KHTML, like Gecko) Chrome/138.0.0.0 Safari/537.36","WebKit","Chrome","138.0.0.0","Windows","10.0","https://app.prolific.com/","en-GB,en-US;q=0.9,en;q=0.8","667b366d0d0943e90dbee7d1","683db9eb0562dbf637994deb","688090e408502a0057d90025","2","1","667b366d0d0943e90dbee7d1","2","1","2025-07-23T07:40:15.720Z","","{""Q01"":""1"",""Q02"":""2"",""Q03"":""1""}","[0,1,2]","[""Q01"",""Q02"",""Q03""]","[27602.200000047684,33906.40000009537,42752.10000014305]","[]","[27602.200000047684,31082.700000047684,33906.40000009537,42752.10000014305,45324.200000047684]","0.6666666666666666","0","0","stress","","","","","","","","","","","","","","","","","","","","","","","","","","","","","","",""
"8150","","","","instructions","5","239514","0.0-3.0-0.0","182","1","2025-07-23 07:37:26","1f75c3e559b7213887762d5229550c2b","216.120.189.162","Mozilla/5.0 (Windows NT 10.0; Win64; x64) AppleWebKit/537.36 (KHTML, like Gecko) Chrome/138.0.0.0 Safari/537.36","WebKit","Chrome","138.0.0.0","Windows","10.0","https://app.prolific.com/","en-GB,en-US;q=0.9,en;q=0.8","667b366d0d0943e90dbee7d1","683db9eb0562dbf637994deb","688090e408502a0057d90025","2","1","667b366d0d0943e90dbee7d1","2","1","","","","","","","","","","","","","[{""page_index"":0,""viewing_time"":8149}]","","","","","","","","","","","","","","","","","","","","","","","","","","","","","",""
"11510","","<p>Before you start with this game please answer the following three questions yourself. </p>
  <p>Through this game, we measure several aspects of your cognitive performance, such as reaction times, multi-tasking capabilities </p>
  <p>and the ability to assess the situation you are in.</p>
  <p></p>
  <p><b>How good do you usually are in such tasks?</b></p>","65","html-slider-response","6","251026","0.0-4.0-0.0","182","1","2025-07-23 07:37:26","1f75c3e559b7213887762d5229550c2b","216.120.189.162","Mozilla/5.0 (Windows NT 10.0; Win64; x64) AppleWebKit/537.36 (KHTML, like Gecko) Chrome/138.0.0.0 Safari/537.36","WebKit","Chrome","138.0.0.0","Windows","10.0","https://app.prolific.com/","en-GB,en-US;q=0.9,en;q=0.8","667b366d0d0943e90dbee7d1","683db9eb0562dbf637994deb","688090e408502a0057d90025","2","1","667b366d0d0943e90dbee7d1","2","1","2025-07-23T07:40:35.383Z","","","","","","","","","","","PreSkillQ","","50","","","","","","","","","","","","","","","","","","","","","","","","","","","","",""
"7218","","<div style=""width:500px;"">
  <p>How well do you think you will perform in this task compared to other participants?</p>
  </div>","62","html-slider-response","7","258245","0.0-4.0-1.0","182","1","2025-07-23 07:37:26","1f75c3e559b7213887762d5229550c2b","216.120.189.162","Mozilla/5.0 (Windows NT 10.0; Win64; x64) AppleWebKit/537.36 (KHTML, like Gecko) Chrome/138.0.0.0 Safari/537.36","WebKit","Chrome","138.0.0.0","Windows","10.0","https://app.prolific.com/","en-GB,en-US;q=0.9,en;q=0.8","667b366d0d0943e90dbee7d1","683db9eb0562dbf637994deb","688090e408502a0057d90025","2","1","667b366d0d0943e90dbee7d1","2","1","2025-07-23T07:40:42.602Z","","","","","","","","","","","PrePerfQ","","50","","","","","","","","","","","","","","","","","","","","","","","","","","","","",""
"6973","","<div style=""width:500px;"">
  <p>What best describes how you currently feel?</p>
  </div>","62","html-slider-response","8","265219","0.0-4.0-2.0","182","1","2025-07-23 07:37:26","1f75c3e559b7213887762d5229550c2b","216.120.189.162","Mozilla/5.0 (Windows NT 10.0; Win64; x64) AppleWebKit/537.36 (KHTML, like Gecko) Chrome/138.0.0.0 Safari/537.36","WebKit","Chrome","138.0.0.0","Windows","10.0","https://app.prolific.com/","en-GB,en-US;q=0.9,en;q=0.8","667b366d0d0943e90dbee7d1","683db9eb0562dbf637994deb","688090e408502a0057d90025","2","1","667b366d0d0943e90dbee7d1","2","1","2025-07-23T07:40:49.576Z","","","","","","","","","","","PreMotivationQ","","50","","","","","","","","","","","","","","","","","","","","","","","","","","","","",""
"","","","","ctl-task-cpt","9","306037","0.0-5.0-0.0","182","1","2025-07-23 07:37:26","1f75c3e559b7213887762d5229550c2b","216.120.189.162","Mozilla/5.0 (Windows NT 10.0; Win64; x64) AppleWebKit/537.36 (KHTML, like Gecko) Chrome/138.0.0.0 Safari/537.36","WebKit","Chrome","138.0.0.0","Windows","10.0","https://app.prolific.com/","en-GB,en-US;q=0.9,en;q=0.8","667b366d0d0943e90dbee7d1","683db9eb0562dbf637994deb","688090e408502a0057d90025","2","1","667b366d0d0943e90dbee7d1","2","1","2025-07-23T07:41:30.394Z","","","","","","","","","","","","","","win-only","0","g1:NW,g2:SE","1","1","0","266446.2","5376.7","10381","37805.4","1","4","8","6","2","8","8","8","0","0.06060606060606061","1800.7","3000","420","[""down"",""right""]","{""num_key_presses"":6,""num_perfect"":6,""num_errors"":0,""num_randdir"":0,""num_randdir_good_moves"":0,""num_whilered"":0,""num_whileblue"":0,""num_blue"":3,""num_good_moves"":6}","[416.57142857142856,419.1808016640799,0.4,416.57142857142856,419.1808016640799,105.8,416.57142857142856,419.1808016640799,210,416.57142857142856,419.1808016640799,310.2,416.57142857142856,419.1808016640799,414.9,416.57142857142856,419.1808016640799,514.9,416.57142857142856,419.1808016640799,614.9,436.07142857142856,437.1808016640799,715.4,623.5714285714286,620.1808016640799,822.4,689.5714285714286,671.1808016640799,924.1,689.5714285714286,671.1808016640799,1024.2,689.5714285714286,671.1808016640799,1124.7,728.5714285714286,713.1808016640799,1225.2,755.5714285714286,740.1808016640799,1326.1,763.0714285714286,750.6808016640799,1430.7,770.5714285714286,764.1808016640799,1534,770.5714285714286,765.6808016640799,1634,770.5714285714286,765.6808016640799,1738.9,770.5714285714286,765.6808016640799,1840.2,770.5714285714286,765.6808016640799,1944.5,770.5714285714286,765.6808016640799,2044.6,770.5714285714286,765.6808016640799,2144.9,770.5714285714286,765.6808016640799,2245,770.5714285714286,765.6808016640799,2349,770.5714285714286,765.6808016640799,2449.5,770.5714285714286,765.6808016640799,2554.6,770.5714285714286,765.6808016640799,2659.2,770.5714285714286,765.6808016640799,2760.1,770.5714285714286,765.6808016640799,2864.1,770.5714285714286,765.6808016640799,2966.1,770.5714285714286,765.6808016640799,3072.4,770.5714285714286,765.6808016640799,3174.6,770.5714285714286,765.6808016640799,3274.6,770.5714285714286,765.6808016640799,3374.6,770.5714285714286,765.6808016640799,3478.9,770.5714285714286,765.6808016640799,3580.1,770.5714285714286,765.6808016640799,3687.8,770.5714285714286,765.6808016640799,3789.9,770.5714285714286,765.6808016640799,3894.7,770.5714285714286,765.6808016640799,3994.7,770.5714285714286,765.6808016640799,4099.7,770.5714285714286,765.6808016640799,4201.1,770.5714285714286,765.6808016640799,4304.7,770.5714285714286,765.6808016640799,4404.8,770.5714285714286,765.6808016640799,4505,770.5714285714286,765.6808016640799,4610,770.5714285714286,765.6808016640799,4710,770.5714285714286,765.6808016640799,4815,770.5714285714286,765.6808016640799,4919.4]","[1527.3,1527.2,1000,0.1,527.2,""smooth"",""down"",""down"",""good_move"",3920.1,2392.2,1927.9,1527.9,464.3,""smooth"",""down"",""down"",""good_move"",7010.6,3090.3,2658.4,3920.3,431.9,""smooth"",""down"",""down"",""good_move"",17204.8,10193.9,2267.9,14410.5,526.4,""smooth"",""right"",""right"",""good_move"",24585.9,7380.7,2693,21485.3,407.7,""smooth"",""right"",""right"",""good_move"",27321,2734.7,2300.3,24586.3,434.4,""smooth"",""right"",""right"",""good_move""]","",""
"67157","","<div style=""width:500px;"">
  <p>What determined the result of this run?</p>
  </div>","75","html-slider-response","10","373196","0.0-5.0-1.0","182","1","2025-07-23 07:37:26","1f75c3e559b7213887762d5229550c2b","216.120.189.162","Mozilla/5.0 (Windows NT 10.0; Win64; x64) AppleWebKit/537.36 (KHTML, like Gecko) Chrome/138.0.0.0 Safari/537.36","WebKit","Chrome","138.0.0.0","Windows","10.0","https://app.prolific.com/","en-GB,en-US;q=0.9,en;q=0.8","667b366d0d0943e90dbee7d1","683db9eb0562dbf637994deb","688090e408502a0057d90025","2","1","667b366d0d0943e90dbee7d1","2","1","2025-07-23T07:42:37.553Z","","","","","","","","","","","AttribQ","","50","","","","","","","","","","","","","","","","","","","","","","","","","","","","",""
"4119","","<div style=""width:500px;"">
  <p>How much control did you have over the ball?</p>
  </div>","76","html-slider-response","11","377317","0.0-5.0-2.0","182","1","2025-07-23 07:37:26","1f75c3e559b7213887762d5229550c2b","216.120.189.162","Mozilla/5.0 (Windows NT 10.0; Win64; x64) AppleWebKit/537.36 (KHTML, like Gecko) Chrome/138.0.0.0 Safari/537.36","WebKit","Chrome","138.0.0.0","Windows","10.0","https://app.prolific.com/","en-GB,en-US;q=0.9,en;q=0.8","667b366d0d0943e90dbee7d1","683db9eb0562dbf637994deb","688090e408502a0057d90025","2","1","667b366d0d0943e90dbee7d1","2","1","2025-07-23T07:42:41.674Z","","","","","","","","","","","ControlQ","","50","","","","","","","","","","","","","","","","","","","","","","","","","","","","",""
"5123","","<div style=""width:500px;"">
  <p>How would you describe your current emotional state?</p>
  </div>","19","html-slider-response","12","382441","0.0-5.0-3.0","182","1","2025-07-23 07:37:26","1f75c3e559b7213887762d5229550c2b","216.120.189.162","Mozilla/5.0 (Windows NT 10.0; Win64; x64) AppleWebKit/537.36 (KHTML, like Gecko) Chrome/138.0.0.0 Safari/537.36","WebKit","Chrome","138.0.0.0","Windows","10.0","https://app.prolific.com/","en-GB,en-US;q=0.9,en;q=0.8","667b366d0d0943e90dbee7d1","683db9eb0562dbf637994deb","688090e408502a0057d90025","2","1","667b366d0d0943e90dbee7d1","2","1","2025-07-23T07:42:46.799Z","","","","","","","","","","","StressQ","","50","","","","","","","","","","","","","","","","","","","","","","","","","","","","",""
"5479","","<div style=""width:500px;"">
  <p>What best describes how you currently feel?</p>
  </div>","86","html-slider-response","13","387921","0.0-5.0-4.0","182","1","2025-07-23 07:37:26","1f75c3e559b7213887762d5229550c2b","216.120.189.162","Mozilla/5.0 (Windows NT 10.0; Win64; x64) AppleWebKit/537.36 (KHTML, like Gecko) Chrome/138.0.0.0 Safari/537.36","WebKit","Chrome","138.0.0.0","Windows","10.0","https://app.prolific.com/","en-GB,en-US;q=0.9,en;q=0.8","667b366d0d0943e90dbee7d1","683db9eb0562dbf637994deb","688090e408502a0057d90025","2","1","667b366d0d0943e90dbee7d1","2","1","2025-07-23T07:42:52.278Z","","","","","","","","","","","MotivationQ","","50","","","","","","","","","","","","","","","","","","","","","","","","","","","","",""
"","","","","ctl-task-cpt","14","426060","0.0-5.0-0.1","182","1","2025-07-23 07:37:26","1f75c3e559b7213887762d5229550c2b","216.120.189.162","Mozilla/5.0 (Windows NT 10.0; Win64; x64) AppleWebKit/537.36 (KHTML, like Gecko) Chrome/138.0.0.0 Safari/537.36","WebKit","Chrome","138.0.0.0","Windows","10.0","https://app.prolific.com/","en-GB,en-US;q=0.9,en;q=0.8","667b366d0d0943e90dbee7d1","683db9eb0562dbf637994deb","688090e408502a0057d90025","2","1","667b366d0d0943e90dbee7d1","2","1","2025-07-23T07:43:30.417Z","","","","","","","","","","","","","","win-only","2","g1:SE,g2:NW","0.9","2","0","389146.6","6495.2","11496.6","35121.2","1","4","4","6","2","-4","-4","4","8","0.030303030303030304","2255.6","3000","-2995","[""left"",""up""]","{""num_key_presses"":7,""num_perfect"":6,""num_errors"":0,""num_randdir"":1,""num_randdir_good_moves"":0,""num_whilered"":0,""num_whileblue"":0,""num_blue"":0,""num_good_moves"":6}","[421.07142857142856,416.1808016640799,0.2,421.07142857142856,416.1808016640799,100.2,421.07142857142856,416.1808016640799,200.4,421.07142857142856,416.1808016640799,300.9,421.07142857142856,416.1808016640799,405.8,421.07142857142856,416.1808016640799,506.2,421.07142857142856,416.1808016640799,606.9,421.07142857142856,416.1808016640799,712.1,421.07142857142856,416.1808016640799,815.6,421.07142857142856,416.1808016640799,916.3,421.07142857142856,416.1808016640799,1021.9,337.07142857142856,351.6808016640799,1125.4,179.57142857142856,213.68080166407992,1231,136.07142857142856,159.68080166407992,1336,98.57142857142857,131.18080166407992,1441.4,95.57142857142857,107.18080166407994,1542.7,80.57142857142857,74.18080166407994,1646.2,80.57142857142857,72.68080166407994,1750.4,80.57142857142857,80.18080166407994,1850.8,83.57142857142857,80.18080166407994,1951,83.57142857142857,80.18080166407994,2055.1,83.57142857142857,80.18080166407994,2156.3,83.57142857142857,80.18080166407994,2256.9,83.57142857142857,80.18080166407994,2361.8,83.57142857142857,80.18080166407994,2465.4,83.57142857142857,80.18080166407994,2570.9,83.57142857142857,80.18080166407994,2676.3,83.57142857142857,80.18080166407994,2777.3,83.57142857142857,80.18080166407994,2881.2,83.57142857142857,80.18080166407994,2986.1,83.57142857142857,80.18080166407994,3090.3,83.57142857142857,80.18080166407994,3190.4,83.57142857142857,80.18080166407994,3290.8,83.57142857142857,80.18080166407994,3396.3,83.57142857142857,80.18080166407994,3496.4,83.57142857142857,80.18080166407994,3600.5,83.57142857142857,80.18080166407994,3701.1,83.57142857142857,80.18080166407994,3801.2,83.57142857142857,80.18080166407994,3906.6,83.57142857142857,80.18080166407994,4010.6,83.57142857142857,80.18080166407994,4115.3,83.57142857142857,80.18080166407994,4215.3,83.57142857142857,80.18080166407994,4315.8,83.57142857142857,80.18080166407994,4417.4,83.57142857142857,80.18080166407994,4521.5,83.57142857142857,80.18080166407994,4626.4,83.57142857142857,80.18080166407994,4730.9,83.57142857142857,80.18080166407994,4835.7,83.57142857142857,80.18080166407994,4936.3]","[1425.2,1425.2,1000,0,425.2,""smooth"",""up"",""up"",""good_move"",4972.1,3546.4,3082.6,1425.8,463.7,""smooth"",""up"",""up"",""good_move"",7900.7,2928.1,2514.2,4972.6,413.9,""smooth"",""up"",""up"",""good_move"",10679,2778.2,2347.8,7900.9,430.3,""smooth"",""left"",""left"",""good_move"",14400.7,3721.2,3316,10679.5,405.2,""oops"",""left"",""right"",""bad_move"",17304.9,2903.5,2511.8,14401.4,391.7,""smooth"",""left"",""left"",""good_move"",20491.5,3186.4,2867.4,17305.1,319,""smooth"",""left"",""left"",""good_move""]","",""
"5252","","<div style=""width:500px;"">
  <p>What determined the result of this run?</p>
  </div>","34","html-slider-response","15","431313","0.0-5.0-1.1","182","1","2025-07-23 07:37:26","1f75c3e559b7213887762d5229550c2b","216.120.189.162","Mozilla/5.0 (Windows NT 10.0; Win64; x64) AppleWebKit/537.36 (KHTML, like Gecko) Chrome/138.0.0.0 Safari/537.36","WebKit","Chrome","138.0.0.0","Windows","10.0","https://app.prolific.com/","en-GB,en-US;q=0.9,en;q=0.8","667b366d0d0943e90dbee7d1","683db9eb0562dbf637994deb","688090e408502a0057d90025","2","1","667b366d0d0943e90dbee7d1","2","1","2025-07-23T07:43:35.670Z","","","","","","","","","","","AttribQ","","50","","","","","","","","","","","","","","","","","","","","","","","","","","","","",""
"6492","","<div style=""width:500px;"">
  <p>How much control did you have over the ball?</p>
  </div>","50","html-slider-response","16","437806","0.0-5.0-2.1","182","1","2025-07-23 07:37:26","1f75c3e559b7213887762d5229550c2b","216.120.189.162","Mozilla/5.0 (Windows NT 10.0; Win64; x64) AppleWebKit/537.36 (KHTML, like Gecko) Chrome/138.0.0.0 Safari/537.36","WebKit","Chrome","138.0.0.0","Windows","10.0","https://app.prolific.com/","en-GB,en-US;q=0.9,en;q=0.8","667b366d0d0943e90dbee7d1","683db9eb0562dbf637994deb","688090e408502a0057d90025","2","1","667b366d0d0943e90dbee7d1","2","1","2025-07-23T07:43:42.163Z","","","","","","","","","","","ControlQ","","50","","","","","","","","","","","","","","","","","","","","","","","","","","","","",""
"3589","","<div style=""width:500px;"">
  <p>How would you describe your current emotional state?</p>
  </div>","50","html-slider-response","17","441397","0.0-5.0-3.1","182","1","2025-07-23 07:37:26","1f75c3e559b7213887762d5229550c2b","216.120.189.162","Mozilla/5.0 (Windows NT 10.0; Win64; x64) AppleWebKit/537.36 (KHTML, like Gecko) Chrome/138.0.0.0 Safari/537.36","WebKit","Chrome","138.0.0.0","Windows","10.0","https://app.prolific.com/","en-GB,en-US;q=0.9,en;q=0.8","667b366d0d0943e90dbee7d1","683db9eb0562dbf637994deb","688090e408502a0057d90025","2","1","667b366d0d0943e90dbee7d1","2","1","2025-07-23T07:43:45.754Z","","","","","","","","","","","StressQ","","50","","","","","","","","","","","","","","","","","","","","","","","","","","","","",""
"2783","","<div style=""width:500px;"">
  <p>What best describes how you currently feel?</p>
  </div>","50","html-slider-response","18","444181","0.0-5.0-4.1","182","1","2025-07-23 07:37:26","1f75c3e559b7213887762d5229550c2b","216.120.189.162","Mozilla/5.0 (Windows NT 10.0; Win64; x64) AppleWebKit/537.36 (KHTML, like Gecko) Chrome/138.0.0.0 Safari/537.36","WebKit","Chrome","138.0.0.0","Windows","10.0","https://app.prolific.com/","en-GB,en-US;q=0.9,en;q=0.8","667b366d0d0943e90dbee7d1","683db9eb0562dbf637994deb","688090e408502a0057d90025","2","1","667b366d0d0943e90dbee7d1","2","1","2025-07-23T07:43:48.538Z","","","","","","","","","","","MotivationQ","","50","","","","","","","","","","","","","","","","","","","","","","","","","","","","",""
"","","","","ctl-task-cpt","19","502480","0.0-5.0-0.2","182","1","2025-07-23 07:37:26","1f75c3e559b7213887762d5229550c2b","216.120.189.162","Mozilla/5.0 (Windows NT 10.0; Win64; x64) AppleWebKit/537.36 (KHTML, like Gecko) Chrome/138.0.0.0 Safari/537.36","WebKit","Chrome","138.0.0.0","Windows","10.0","https://app.prolific.com/","en-GB,en-US;q=0.9,en;q=0.8","667b366d0d0943e90dbee7d1","683db9eb0562dbf637994deb","688090e408502a0057d90025","2","1","667b366d0d0943e90dbee7d1","2","1","2025-07-23T07:44:46.837Z","","","","","","","","","","","","","","win-only","3","g1:SW,g2:NE","0.8","3","0","445405.7","14410.6","19411.9","55276","1","4","4","6","2","-4","-4","0","4","0","2232.7","3000","-3010","[""up"",""right""]","{""num_key_presses"":7,""num_perfect"":5,""num_errors"":0,""num_randdir"":2,""num_randdir_good_moves"":1,""num_whilered"":0,""num_whileblue"":0,""num_blue"":4,""num_good_moves"":6}","[415.07142857142856,410.1808016640799,0.3,415.07142857142856,410.1808016640799,103.6,415.07142857142856,410.1808016640799,206.1,415.07142857142856,410.1808016640799,310.4,415.07142857142856,410.1808016640799,410.4,415.07142857142856,410.1808016640799,510.5,413.57142857142856,416.1808016640799,614.7,386.57142857142856,458.1808016640799,715.6,389.57142857142856,447.6808016640799,816.8,541.0714285714286,212.18080166407992,918,701.5714285714286,152.18080166407992,1019.9,713.5714285714286,150.68080166407992,1121.1,713.5714285714286,150.68080166407992,1221.6,713.5714285714286,150.68080166407992,1325.8,737.5714285714286,104.18080166407994,1435.1,748.0714285714286,92.18080166407994,1535.7,755.5714285714286,83.18080166407994,1640.5,761.5714285714286,80.18080166407994,1745.3,761.5714285714286,80.18080166407994,1846.2,761.5714285714286,80.18080166407994,1946.7,760.0714285714286,80.18080166407994,2050.5,760.0714285714286,80.18080166407994,2154.4,760.0714285714286,80.18080166407994,2255.9,760.0714285714286,80.18080166407994,2361.7,760.0714285714286,80.18080166407994,2463.9,760.0714285714286,80.18080166407994,2567.6,760.0714285714286,80.18080166407994,2670.1,760.0714285714286,80.18080166407994,2775.3,692.5714285714286,200.18080166407992,2882,589.0714285714286,356.1808016640799,2985.7,548.5714285714286,402.6808016640799,3090.4,532.0714285714286,422.1808016640799,3190.6,527.5714285714286,426.6808016640799,3291.6,524.5714285714286,423.6808016640799,3391.6,521.5714285714286,399.6808016640799,3495,536.5714285714286,369.6808016640799,3596.6,547.0714285714286,362.1808016640799,3700.2,548.5714285714286,362.1808016640799,3802.8,475.07142857142856,426.6808016640799,3906.3,434.57142857142856,485.1808016640799,4011.6,431.57142857142856,492.6808016640799,4115.6,428.57142857142856,494.1808016640799,4220.8,403.07142857142856,494.1808016640799,4321,386.57142857142856,491.1808016640799,4425.1,383.57142857142856,488.1808016640799,4526.4,383.57142857142856,488.1808016640799,4626.5,383.57142857142856,488.1808016640799,4730.6,383.57142857142856,488.1808016640799,4834.9,383.57142857142856,488.1808016640799,4935.9]","[1389.5,1389.5,1000,0,389.5,""smooth"",""up"",""up"",""good_move"",4697.5,3307.6,2920.1,1389.9,387.5,""oops"",""up"",""right"",""good_move"",18260.1,13562.1,2174.5,15719.1,366.5,""smooth"",""right"",""right"",""good_move"",20928.6,2668.3,2242.8,18260.3,425.5,""smooth"",""right"",""right"",""good_move"",26602.1,5673.2,2601.8,23593.9,406.4,""smooth"",""up"",""up"",""good_move"",29925.8,3323.5,2964.3,26602.3,359.2,""oops"",""up"",""down"",""bad_move"",33174.6,3248.5,2683.8,29926.1,564.7,""smooth"",""up"",""up"",""good_move""]","",""
"7821","","<div style=""width:500px;"">
  <p>What determined the result of this run?</p>
  </div>","50","html-slider-response","20","510303","0.0-5.0-1.2","182","1","2025-07-23 07:37:26","1f75c3e559b7213887762d5229550c2b","216.120.189.162","Mozilla/5.0 (Windows NT 10.0; Win64; x64) AppleWebKit/537.36 (KHTML, like Gecko) Chrome/138.0.0.0 Safari/537.36","WebKit","Chrome","138.0.0.0","Windows","10.0","https://app.prolific.com/","en-GB,en-US;q=0.9,en;q=0.8","667b366d0d0943e90dbee7d1","683db9eb0562dbf637994deb","688090e408502a0057d90025","2","1","667b366d0d0943e90dbee7d1","2","1","2025-07-23T07:44:54.660Z","","","","","","","","","","","AttribQ","","50","","","","","","","","","","","","","","","","","","","","","","","","","","","","",""
"3396","","<div style=""width:500px;"">
  <p>How much control did you have over the ball?</p>
  </div>","50","html-slider-response","21","513701","0.0-5.0-2.2","182","1","2025-07-23 07:37:26","1f75c3e559b7213887762d5229550c2b","216.120.189.162","Mozilla/5.0 (Windows NT 10.0; Win64; x64) AppleWebKit/537.36 (KHTML, like Gecko) Chrome/138.0.0.0 Safari/537.36","WebKit","Chrome","138.0.0.0","Windows","10.0","https://app.prolific.com/","en-GB,en-US;q=0.9,en;q=0.8","667b366d0d0943e90dbee7d1","683db9eb0562dbf637994deb","688090e408502a0057d90025","2","1","667b366d0d0943e90dbee7d1","2","1","2025-07-23T07:44:58.058Z","","","","","","","","","","","ControlQ","","50","","","","","","","","","","","","","","","","","","","","","","","","","","","","",""
"3189","","<div style=""width:500px;"">
  <p>How would you describe your current emotional state?</p>
  </div>","50","html-slider-response","22","516891","0.0-5.0-3.2","182","1","2025-07-23 07:37:26","1f75c3e559b7213887762d5229550c2b","216.120.189.162","Mozilla/5.0 (Windows NT 10.0; Win64; x64) AppleWebKit/537.36 (KHTML, like Gecko) Chrome/138.0.0.0 Safari/537.36","WebKit","Chrome","138.0.0.0","Windows","10.0","https://app.prolific.com/","en-GB,en-US;q=0.9,en;q=0.8","667b366d0d0943e90dbee7d1","683db9eb0562dbf637994deb","688090e408502a0057d90025","2","1","667b366d0d0943e90dbee7d1","2","1","2025-07-23T07:45:01.248Z","","","","","","","","","","","StressQ","","50","","","","","","","","","","","","","","","","","","","","","","","","","","","","",""
"3338","","<div style=""width:500px;"">
  <p>What best describes how you currently feel?</p>
  </div>","50","html-slider-response","23","520232","0.0-5.0-4.2","182","1","2025-07-23 07:37:26","1f75c3e559b7213887762d5229550c2b","216.120.189.162","Mozilla/5.0 (Windows NT 10.0; Win64; x64) AppleWebKit/537.36 (KHTML, like Gecko) Chrome/138.0.0.0 Safari/537.36","WebKit","Chrome","138.0.0.0","Windows","10.0","https://app.prolific.com/","en-GB,en-US;q=0.9,en;q=0.8","667b366d0d0943e90dbee7d1","683db9eb0562dbf637994deb","688090e408502a0057d90025","2","1","667b366d0d0943e90dbee7d1","2","1","2025-07-23T07:45:04.589Z","","","","","","","","","","","MotivationQ","","50","","","","","","","","","","","","","","","","","","","","","","","","","","","","",""
"","","","","ctl-task-cpt","24","563012","0.0-5.0-0.3","182","1","2025-07-23 07:37:26","1f75c3e559b7213887762d5229550c2b","216.120.189.162","Mozilla/5.0 (Windows NT 10.0; Win64; x64) AppleWebKit/537.36 (KHTML, like Gecko) Chrome/138.0.0.0 Safari/537.36","WebKit","Chrome","138.0.0.0","Windows","10.0","https://app.prolific.com/","en-GB,en-US;q=0.9,en;q=0.8","667b366d0d0943e90dbee7d1","683db9eb0562dbf637994deb","688090e408502a0057d90025","2","1","667b366d0d0943e90dbee7d1","2","1","2025-07-23T07:45:47.369Z","","","","","","","","","","","","","","win-only","3","g1:SW,g2:NE","0.7","4","0","521458.6","1817.1","6821.2","39771.5","1","4","8","6","2","-8","-8","0","0","0","1870.7","3000","-2530","[""up"",""right""]","{""num_key_presses"":7,""num_perfect"":4,""num_errors"":0,""num_randdir"":3,""num_randdir_good_moves"":1,""num_whilered"":0,""num_whileblue"":0,""num_blue"":3,""num_good_moves"":5}","[419.57142857142856,417.6808016640799,0.2,419.57142857142856,417.6808016640799,102.6,419.57142857142856,417.6808016640799,204.6,419.57142857142856,417.6808016640799,308.9,419.57142857142856,417.6808016640799,419.9,419.57142857142856,417.6808016640799,524,419.57142857142856,417.6808016640799,624.4,419.57142857142856,417.6808016640799,728.5,419.57142857142856,417.6808016640799,837.3,551.5714285714286,225.68080166407992,938.7,610.0714285714286,201.68080166407992,1043.9,656.5714285714286,173.18080166407992,1144.4,691.0714285714286,125.18080166407994,1248.3,710.5714285714286,114.68080166407994,1353.4,719.5714285714286,111.68080166407994,1454.6,737.5714285714286,105.68080166407994,1559.2,746.5714285714286,101.18080166407994,1663.4,746.5714285714286,101.18080166407994,1770.8,746.5714285714286,101.18080166407994,1873,746.5714285714286,101.18080166407994,1973.2,746.5714285714286,101.18080166407994,2074.2,746.5714285714286,101.18080166407994,2179.1,746.5714285714286,101.18080166407994,2286.4,746.5714285714286,101.18080166407994,2387.6,746.5714285714286,101.18080166407994,2488.7,746.5714285714286,101.18080166407994,2593.3,746.5714285714286,101.18080166407994,2693.8,746.5714285714286,101.18080166407994,2794.4,746.5714285714286,101.18080166407994,2903.1,746.5714285714286,101.18080166407994,3003.4,746.5714285714286,101.18080166407994,3103.9,746.5714285714286,101.18080166407994,3208.8,746.5714285714286,101.18080166407994,3308.8,746.5714285714286,101.18080166407994,3413.8,746.5714285714286,101.18080166407994,3519.3,746.5714285714286,101.18080166407994,3624.6,746.5714285714286,101.18080166407994,3736.4,746.5714285714286,101.18080166407994,3837,746.5714285714286,101.18080166407994,3938.8,746.5714285714286,101.18080166407994,4043.3,746.5714285714286,101.18080166407994,4143.3,746.5714285714286,101.18080166407994,4244.2,746.5714285714286,101.18080166407994,4353.7,746.5714285714286,101.18080166407994,4453.7,746.5714285714286,101.18080166407994,4555.3,746.5714285714286,101.18080166407994,4658.9,746.5714285714286,101.18080166407994,4763.7,746.5714285714286,101.18080166407994,4869.3,746.5714285714286,101.18080166407994,4974.2]","[1433.9,1433.9,1000,0,433.9,""smooth"",""up"",""up"",""good_move"",8527,7092.7,2592.8,5511,423.2,""smooth"",""up"",""up"",""good_move"",15223.9,6696.6,2799.9,11976.3,447.7,""oops"",""up"",""up"",""good_move"",18115.2,2891.1,2407.9,15224.1,483.2,""smooth"",""right"",""right"",""good_move"",24798.9,6683.3,2810.3,21629.5,359.1,""smooth"",""right"",""right"",""good_move"",27554.5,2755.4,2397.1,24799.1,358.3,""oops"",""right"",""down"",""bad_move"",29987.9,2432.9,2015.5,27555.1,417.4,""oops"",""right"",""down"",""bad_move""]","",""
"5265","","<div style=""width:500px;"">
  <p>What determined the result of this run?</p>
  </div>","50","html-slider-response","25","568278","0.0-5.0-1.3","182","1","2025-07-23 07:37:26","1f75c3e559b7213887762d5229550c2b","216.120.189.162","Mozilla/5.0 (Windows NT 10.0; Win64; x64) AppleWebKit/537.36 (KHTML, like Gecko) Chrome/138.0.0.0 Safari/537.36","WebKit","Chrome","138.0.0.0","Windows","10.0","https://app.prolific.com/","en-GB,en-US;q=0.9,en;q=0.8","667b366d0d0943e90dbee7d1","683db9eb0562dbf637994deb","688090e408502a0057d90025","2","1","667b366d0d0943e90dbee7d1","2","1","2025-07-23T07:45:52.635Z","","","","","","","","","","","AttribQ","","50","","","","","","","","","","","","","","","","","","","","","","","","","","","","",""
"3900","","<div style=""width:500px;"">
  <p>How much control did you have over the ball?</p>
  </div>","50","html-slider-response","26","572179","0.0-5.0-2.3","182","1","2025-07-23 07:37:26","1f75c3e559b7213887762d5229550c2b","216.120.189.162","Mozilla/5.0 (Windows NT 10.0; Win64; x64) AppleWebKit/537.36 (KHTML, like Gecko) Chrome/138.0.0.0 Safari/537.36","WebKit","Chrome","138.0.0.0","Windows","10.0","https://app.prolific.com/","en-GB,en-US;q=0.9,en;q=0.8","667b366d0d0943e90dbee7d1","683db9eb0562dbf637994deb","688090e408502a0057d90025","2","1","667b366d0d0943e90dbee7d1","2","1","2025-07-23T07:45:56.536Z","","","","","","","","","","","ControlQ","","50","","","","","","","","","","","","","","","","","","","","","","","","","","","","",""
"2837","","<div style=""width:500px;"">
  <p>How would you describe your current emotional state?</p>
  </div>","50","html-slider-response","27","575017","0.0-5.0-3.3","182","1","2025-07-23 07:37:26","1f75c3e559b7213887762d5229550c2b","216.120.189.162","Mozilla/5.0 (Windows NT 10.0; Win64; x64) AppleWebKit/537.36 (KHTML, like Gecko) Chrome/138.0.0.0 Safari/537.36","WebKit","Chrome","138.0.0.0","Windows","10.0","https://app.prolific.com/","en-GB,en-US;q=0.9,en;q=0.8","667b366d0d0943e90dbee7d1","683db9eb0562dbf637994deb","688090e408502a0057d90025","2","1","667b366d0d0943e90dbee7d1","2","1","2025-07-23T07:45:59.374Z","","","","","","","","","","","StressQ","","50","","","","","","","","","","","","","","","","","","","","","","","","","","","","",""
"2958","","<div style=""width:500px;"">
  <p>What best describes how you currently feel?</p>
  </div>","50","html-slider-response","28","577977","0.0-5.0-4.3","182","1","2025-07-23 07:37:26","1f75c3e559b7213887762d5229550c2b","216.120.189.162","Mozilla/5.0 (Windows NT 10.0; Win64; x64) AppleWebKit/537.36 (KHTML, like Gecko) Chrome/138.0.0.0 Safari/537.36","WebKit","Chrome","138.0.0.0","Windows","10.0","https://app.prolific.com/","en-GB,en-US;q=0.9,en;q=0.8","667b366d0d0943e90dbee7d1","683db9eb0562dbf637994deb","688090e408502a0057d90025","2","1","667b366d0d0943e90dbee7d1","2","1","2025-07-23T07:46:02.334Z","","","","","","","","","","","MotivationQ","","50","","","","","","","","","","","","","","","","","","","","","","","","","","","","",""
"","","","","ctl-task-cpt","29","610424","0.0-5.0-0.4","182","1","2025-07-23 07:37:26","1f75c3e559b7213887762d5229550c2b","216.120.189.162","Mozilla/5.0 (Windows NT 10.0; Win64; x64) AppleWebKit/537.36 (KHTML, like Gecko) Chrome/138.0.0.0 Safari/537.36","WebKit","Chrome","138.0.0.0","Windows","10.0","https://app.prolific.com/","en-GB,en-US;q=0.9,en;q=0.8","667b366d0d0943e90dbee7d1","683db9eb0562dbf637994deb","688090e408502a0057d90025","2","1","667b366d0d0943e90dbee7d1","2","1","2025-07-23T07:46:34.781Z","","","","","","","","","","","","","","win-only","2","g1:SE,g2:NW","0.6","5","0","579201.9","1691.6","6695.7","29442.7","1","4","4","6","2","4","4","4","0","0.030303030303030304","2536.4","3000","915","[""left"",""up""]","{""num_key_presses"":6,""num_perfect"":3,""num_errors"":0,""num_randdir"":3,""num_randdir_good_moves"":3,""num_whilered"":0,""num_whileblue"":0,""num_blue"":2,""num_good_moves"":6}","[413.57142857142856,426.6808016640799,0.3,413.57142857142856,426.6808016640799,104.1,413.57142857142856,426.6808016640799,205,413.57142857142856,426.6808016640799,309.7,413.57142857142856,426.6808016640799,412.3,413.57142857142856,426.6808016640799,515.6,413.57142857142856,426.6808016640799,618.6,413.57142857142856,426.6808016640799,719.9,410.57142857142856,423.6808016640799,823.6,302.57142857142856,326.1808016640799,924,275.57142857142856,293.1808016640799,1025,275.57142857142856,293.1808016640799,1131.5,275.57142857142856,293.1808016640799,1233.7,275.57142857142856,293.1808016640799,1333.8,116.57142857142857,161.18080166407992,1434.6,71.57142857142857,48.68080166407994,1534.9,71.57142857142857,48.68080166407994,1639,71.57142857142857,48.68080166407994,1749.3,71.57142857142857,48.68080166407994,1854.5,71.57142857142857,48.68080166407994,1960.2,71.57142857142857,48.68080166407994,2061.1,71.57142857142857,48.68080166407994,2164.8,71.57142857142857,48.68080166407994,2265.2,71.57142857142857,50.18080166407994,2369.3,71.57142857142857,50.18080166407994,2473.7,71.57142857142857,50.18080166407994,2574.1,71.57142857142857,50.18080166407994,2681.8,71.57142857142857,50.18080166407994,2782.4,71.57142857142857,50.18080166407994,2882.5,71.57142857142857,50.18080166407994,2984.7,71.57142857142857,50.18080166407994,3088.7,71.57142857142857,50.18080166407994,3188.8,71.57142857142857,50.18080166407994,3290.2,71.57142857142857,50.18080166407994,3391.1,71.57142857142857,50.18080166407994,3496.8,71.57142857142857,50.18080166407994,3598,71.57142857142857,50.18080166407994,3699.7,71.57142857142857,50.18080166407994,3804,71.57142857142857,50.18080166407994,3904.5,71.57142857142857,50.18080166407994,4014.5,71.57142857142857,50.18080166407994,4115.3,71.57142857142857,50.18080166407994,4219,71.57142857142857,50.18080166407994,4324,71.57142857142857,50.18080166407994,4431.9,71.57142857142857,50.18080166407994,4532.1,71.57142857142857,50.18080166407994,4634.5,71.57142857142857,50.18080166407994,4739.6,71.57142857142857,50.18080166407994,4847.4,71.57142857142857,50.18080166407994,4947.5]","[4529.8,4529.8,2133.7,2009.5,386.6,""oops"",""left"",""up"",""good_move"",7849.1,3319,2854.3,4530.2,464.7,""oops"",""up"",""left"",""good_move"",10953.4,3104,2670.1,7849.4,433.9,""oops"",""up"",""up"",""good_move"",13275.6,2321.9,1881.2,10953.7,440.7,""smooth"",""up"",""up"",""good_move"",15876.7,2601,2214.1,13275.7,386.9,""smooth"",""left"",""left"",""good_move"",22646.9,6769.9,2902.5,19310.5,433.9,""smooth"",""left"",""left"",""good_move""]","",""
"3922","","<div style=""width:500px;"">
  <p>What determined the result of this run?</p>
  </div>","50","html-slider-response","30","614347","0.0-5.0-1.4","182","1","2025-07-23 07:37:26","1f75c3e559b7213887762d5229550c2b","216.120.189.162","Mozilla/5.0 (Windows NT 10.0; Win64; x64) AppleWebKit/537.36 (KHTML, like Gecko) Chrome/138.0.0.0 Safari/537.36","WebKit","Chrome","138.0.0.0","Windows","10.0","https://app.prolific.com/","en-GB,en-US;q=0.9,en;q=0.8","667b366d0d0943e90dbee7d1","683db9eb0562dbf637994deb","688090e408502a0057d90025","2","1","667b366d0d0943e90dbee7d1","2","1","2025-07-23T07:46:38.704Z","","","","","","","","","","","AttribQ","","50","","","","","","","","","","","","","","","","","","","","","","","","","","","","",""
"2445","","<div style=""width:500px;"">
  <p>How much control did you have over the ball?</p>
  </div>","50","html-slider-response","31","616793","0.0-5.0-2.4","182","1","2025-07-23 07:37:26","1f75c3e559b7213887762d5229550c2b","216.120.189.162","Mozilla/5.0 (Windows NT 10.0; Win64; x64) AppleWebKit/537.36 (KHTML, like Gecko) Chrome/138.0.0.0 Safari/537.36","WebKit","Chrome","138.0.0.0","Windows","10.0","https://app.prolific.com/","en-GB,en-US;q=0.9,en;q=0.8","667b366d0d0943e90dbee7d1","683db9eb0562dbf637994deb","688090e408502a0057d90025","2","1","667b366d0d0943e90dbee7d1","2","1","2025-07-23T07:46:41.150Z","","","","","","","","","","","ControlQ","","50","","","","","","","","","","","","","","","","","","","","","","","","","","","","",""
"3052","","<div style=""width:500px;"">
  <p>How would you describe your current emotional state?</p>
  </div>","50","html-slider-response","32","619846","0.0-5.0-3.4","182","1","2025-07-23 07:37:26","1f75c3e559b7213887762d5229550c2b","216.120.189.162","Mozilla/5.0 (Windows NT 10.0; Win64; x64) AppleWebKit/537.36 (KHTML, like Gecko) Chrome/138.0.0.0 Safari/537.36","WebKit","Chrome","138.0.0.0","Windows","10.0","https://app.prolific.com/","en-GB,en-US;q=0.9,en;q=0.8","667b366d0d0943e90dbee7d1","683db9eb0562dbf637994deb","688090e408502a0057d90025","2","1","667b366d0d0943e90dbee7d1","2","1","2025-07-23T07:46:44.204Z","","","","","","","","","","","StressQ","","50","","","","","","","","","","","","","","","","","","","","","","","","","","","","",""
"3357","","<div style=""width:500px;"">
  <p>What best describes how you currently feel?</p>
  </div>","50","html-slider-response","33","623205","0.0-5.0-4.4","182","1","2025-07-23 07:37:26","1f75c3e559b7213887762d5229550c2b","216.120.189.162","Mozilla/5.0 (Windows NT 10.0; Win64; x64) AppleWebKit/537.36 (KHTML, like Gecko) Chrome/138.0.0.0 Safari/537.36","WebKit","Chrome","138.0.0.0","Windows","10.0","https://app.prolific.com/","en-GB,en-US;q=0.9,en;q=0.8","667b366d0d0943e90dbee7d1","683db9eb0562dbf637994deb","688090e408502a0057d90025","2","1","667b366d0d0943e90dbee7d1","2","1","2025-07-23T07:46:47.562Z","","","","","","","","","","","MotivationQ","","50","","","","","","","","","","","","","","","","","","","","","","","","","","","","",""
"","","","","ctl-task-cpt","34","664287","0.0-5.0-0.5","182","1","2025-07-23 07:37:26","1f75c3e559b7213887762d5229550c2b","216.120.189.162","Mozilla/5.0 (Windows NT 10.0; Win64; x64) AppleWebKit/537.36 (KHTML, like Gecko) Chrome/138.0.0.0 Safari/537.36","WebKit","Chrome","138.0.0.0","Windows","10.0","https://app.prolific.com/","en-GB,en-US;q=0.9,en;q=0.8","667b366d0d0943e90dbee7d1","683db9eb0562dbf637994deb","688090e408502a0057d90025","2","1","667b366d0d0943e90dbee7d1","2","1","2025-07-23T07:47:28.644Z","","","","","","","","","","","","","","win-only","1","g1:NE,g2:SW","0.5","6","0","624430","1792.8","6801.4","38070.6","1","4","8","6","2","-8","-9","0","4","0","1797.9","3000","-2110","[""down"",""left""]","{""num_key_presses"":7,""num_perfect"":3,""num_errors"":1,""num_randdir"":3,""num_randdir_good_moves"":0,""num_whilered"":0,""num_whileblue"":0,""num_blue"":2,""num_good_moves"":3}","[413.57142857142856,425.1808016640799,0.2,413.57142857142856,425.1808016640799,102.4,413.57142857142856,425.1808016640799,203.1,413.57142857142856,425.1808016640799,313.2,413.57142857142856,425.1808016640799,418.4,413.57142857142856,425.1808016640799,518.9,413.57142857142856,425.1808016640799,619.1,413.57142857142856,425.1808016640799,732.8,251.57142857142856,620.1808016640799,832.8,203.57142857142856,695.1808016640799,933,173.57142857142856,713.1808016640799,1033.7,173.57142857142856,713.1808016640799,1138.2,137.57142857142856,719.1808016640799,1245.5,86.57142857142857,755.1808016640799,1348,68.57142857142857,767.1808016640799,1448.4,68.57142857142857,767.1808016640799,1548.5,68.57142857142857,767.1808016640799,1652.5,68.57142857142857,767.1808016640799,1752.5,68.57142857142857,767.1808016640799,1867.7,68.57142857142857,767.1808016640799,1972.7,68.57142857142857,767.1808016640799,2072.8,68.57142857142857,767.1808016640799,2177.6,68.57142857142857,767.1808016640799,2278.3,68.57142857142857,767.1808016640799,2378.3,68.57142857142857,767.1808016640799,2478.7,68.57142857142857,767.1808016640799,2583.5,68.57142857142857,767.1808016640799,2690,68.57142857142857,767.1808016640799,2793.9,68.57142857142857,767.1808016640799,2897.6,68.57142857142857,767.1808016640799,2998.6,68.57142857142857,767.1808016640799,3103.6,68.57142857142857,767.1808016640799,3203.8,68.57142857142857,767.1808016640799,3307.2,68.57142857142857,767.1808016640799,3414,68.57142857142857,767.1808016640799,3517.9,68.57142857142857,767.1808016640799,3618.1,68.57142857142857,767.1808016640799,3718.5,68.57142857142857,767.1808016640799,3823,68.57142857142857,767.1808016640799,3929.7,68.57142857142857,767.1808016640799,4033.2,68.57142857142857,767.1808016640799,4138,68.57142857142857,767.1808016640799,4239.1,68.57142857142857,767.1808016640799,4340.1,68.57142857142857,767.1808016640799,4443.3,68.57142857142857,767.1808016640799,4547.9,68.57142857142857,767.1808016640799,4648.4,68.57142857142857,767.1808016640799,4748.4,68.57142857142857,767.1808016640799,4859.6,68.57142857142857,767.1808016640799,4962.5]","[1625.7,1625.7,1000,0,625.7,""oops"",""down"",""right"",""bad_move"",4202.9,2576.9,2137.9,1626,439,""smooth"",""down"",""down"",""good_move"",11302.2,7098.9,2531.7,8309.4,461.1,""oops"",""left"",""right"",""bad_move"",13895.8,2593.4,2187.4,11302.4,406,""smooth"",""right"",""down"",""good_move"",20373.3,6477.3,2881.5,17024.8,467,""oops"",""right"",""up"",""bad_move"",22557.6,2183.9,2317.2,20373.7,-133.3,""error"",""-"",""-"",""no_move"",26963.1,4405.1,2881.5,23565.9,515.7,""smooth"",""left"",""left"",""good_move""]","",""
"8136","","<div style=""width:500px;"">
  <p>What determined the result of this run?</p>
  </div>","50","html-slider-response","35","672424","0.0-5.0-1.5","182","1","2025-07-23 07:37:26","1f75c3e559b7213887762d5229550c2b","216.120.189.162","Mozilla/5.0 (Windows NT 10.0; Win64; x64) AppleWebKit/537.36 (KHTML, like Gecko) Chrome/138.0.0.0 Safari/537.36","WebKit","Chrome","138.0.0.0","Windows","10.0","https://app.prolific.com/","en-GB,en-US;q=0.9,en;q=0.8","667b366d0d0943e90dbee7d1","683db9eb0562dbf637994deb","688090e408502a0057d90025","2","1","667b366d0d0943e90dbee7d1","2","1","2025-07-23T07:47:36.781Z","","","","","","","","","","","AttribQ","","50","","","","","","","","","","","","","","","","","","","","","","","","","","","","",""
"3185","","<div style=""width:500px;"">
  <p>How much control did you have over the ball?</p>
  </div>","50","html-slider-response","36","675611","0.0-5.0-2.5","182","1","2025-07-23 07:37:26","1f75c3e559b7213887762d5229550c2b","216.120.189.162","Mozilla/5.0 (Windows NT 10.0; Win64; x64) AppleWebKit/537.36 (KHTML, like Gecko) Chrome/138.0.0.0 Safari/537.36","WebKit","Chrome","138.0.0.0","Windows","10.0","https://app.prolific.com/","en-GB,en-US;q=0.9,en;q=0.8","667b366d0d0943e90dbee7d1","683db9eb0562dbf637994deb","688090e408502a0057d90025","2","1","667b366d0d0943e90dbee7d1","2","1","2025-07-23T07:47:39.968Z","","","","","","","","","","","ControlQ","","50","","","","","","","","","","","","","","","","","","","","","","","","","","","","",""
"2909","","<div style=""width:500px;"">
  <p>How would you describe your current emotional state?</p>
  </div>","50","html-slider-response","37","678521","0.0-5.0-3.5","182","1","2025-07-23 07:37:26","1f75c3e559b7213887762d5229550c2b","216.120.189.162","Mozilla/5.0 (Windows NT 10.0; Win64; x64) AppleWebKit/537.36 (KHTML, like Gecko) Chrome/138.0.0.0 Safari/537.36","WebKit","Chrome","138.0.0.0","Windows","10.0","https://app.prolific.com/","en-GB,en-US;q=0.9,en;q=0.8","667b366d0d0943e90dbee7d1","683db9eb0562dbf637994deb","688090e408502a0057d90025","2","1","667b366d0d0943e90dbee7d1","2","1","2025-07-23T07:47:42.878Z","","","","","","","","","","","StressQ","","50","","","","","","","","","","","","","","","","","","","","","","","","","","","","",""
"4416","","<div style=""width:500px;"">
  <p>What best describes how you currently feel?</p>
  </div>","50","html-slider-response","38","682938","0.0-5.0-4.5","182","1","2025-07-23 07:37:26","1f75c3e559b7213887762d5229550c2b","216.120.189.162","Mozilla/5.0 (Windows NT 10.0; Win64; x64) AppleWebKit/537.36 (KHTML, like Gecko) Chrome/138.0.0.0 Safari/537.36","WebKit","Chrome","138.0.0.0","Windows","10.0","https://app.prolific.com/","en-GB,en-US;q=0.9,en;q=0.8","667b366d0d0943e90dbee7d1","683db9eb0562dbf637994deb","688090e408502a0057d90025","2","1","667b366d0d0943e90dbee7d1","2","1","2025-07-23T07:47:47.295Z","","","","","","","","","","","MotivationQ","","50","","","","","","","","","","","","","","","","","","","","","","","","","","","","",""
"","","","","ctl-task-cpt","39","725113","0.0-5.0-0.6","182","1","2025-07-23 07:37:26","1f75c3e559b7213887762d5229550c2b","216.120.189.162","Mozilla/5.0 (Windows NT 10.0; Win64; x64) AppleWebKit/537.36 (KHTML, like Gecko) Chrome/138.0.0.0 Safari/537.36","WebKit","Chrome","138.0.0.0","Windows","10.0","https://app.prolific.com/","en-GB,en-US;q=0.9,en;q=0.8","667b366d0d0943e90dbee7d1","683db9eb0562dbf637994deb","688090e408502a0057d90025","2","1","667b366d0d0943e90dbee7d1","2","1","2025-07-23T07:48:29.470Z","","","","","","","","","","","","","","win-only","1","g1:NE,g2:SW","0.4","7","0","684163","1312.7","6315.8","39155.2","1","4","8","6","2","-8","-8","0","0","0","1872.2","3000","-2275","[""down"",""left""]","{""num_key_presses"":8,""num_perfect"":2,""num_errors"":0,""num_randdir"":6,""num_randdir_good_moves"":3,""num_whilered"":0,""num_whileblue"":0,""num_blue"":2,""num_good_moves"":5}","[416.57142857142856,425.1808016640799,0.2,416.57142857142856,425.1808016640799,106.6,416.57142857142856,425.1808016640799,212.6,416.57142857142856,425.1808016640799,318.4,416.57142857142856,425.1808016640799,422.9,416.57142857142856,425.1808016640799,527.7,416.57142857142856,425.1808016640799,627.7,416.57142857142856,425.1808016640799,728.6,377.57142857142856,464.1808016640799,828.8,272.57142857142856,624.6808016640799,932.9,248.57142857142856,663.6808016640799,1038.1,173.57142857142856,729.6808016640799,1155.9,110.57142857142857,743.1808016640799,1256.8,89.57142857142857,752.1808016640799,1367,82.07142857142857,755.1808016640799,1474.1,82.07142857142857,755.1808016640799,1574.5,82.07142857142857,755.1808016640799,1677.8,82.07142857142857,755.1808016640799,1778.6,82.07142857142857,755.1808016640799,1880.4,82.07142857142857,755.1808016640799,1982.5,82.07142857142857,755.1808016640799,2084.9,82.07142857142857,755.1808016640799,2188.2,82.07142857142857,755.1808016640799,2293,82.07142857142857,755.1808016640799,2395.4,82.07142857142857,755.1808016640799,2500,82.07142857142857,755.1808016640799,2603.2,82.07142857142857,755.1808016640799,2703.2,82.07142857142857,755.1808016640799,2804.3,82.07142857142857,755.1808016640799,2911.1,82.07142857142857,755.1808016640799,3013,82.07142857142857,755.1808016640799,3117.8,82.07142857142857,755.1808016640799,3219.1,82.07142857142857,755.1808016640799,3319.2,82.07142857142857,755.1808016640799,3419.3,82.07142857142857,755.1808016640799,3532.2,82.07142857142857,755.1808016640799,3632.9,82.07142857142857,755.1808016640799,3738.1,82.07142857142857,755.1808016640799,3843,82.07142857142857,755.1808016640799,3943.8,82.07142857142857,755.1808016640799,4048.1,82.07142857142857,755.1808016640799,4152.6,82.07142857142857,755.1808016640799,4252.7,82.07142857142857,755.1808016640799,4358.5,82.07142857142857,755.1808016640799,4470.1,82.07142857142857,755.1808016640799,4573.1,154.07142857142856,749.1808016640799,4673.5,178.07142857142856,741.6808016640799,4777.7,238.07142857142856,704.1808016640799,4884.7,281.57142857142856,674.1808016640799,4990]","[1881.4,1881.4,1000,0,881.4,""oops"",""down"",""right"",""bad_move"",4330.9,2449,2039.5,1881.9,409.5,""oops"",""down"",""down"",""good_move"",10596.6,6265.4,2462.9,7765.3,368.4,""smooth"",""down"",""down"",""good_move"",13913.6,3316.8,2725.3,10596.8,591.5,""oops"",""down"",""right"",""bad_move"",17118.3,3204.4,2804.5,13913.9,399.9,""smooth"",""right"",""down"",""good_move"",20091.7,2973.2,2597.3,17118.5,375.9,""oops"",""right"",""left"",""good_move"",23489.5,3397.4,2856,20092.1,541.4,""oops"",""left"",""left"",""good_move"",26274.3,2784.6,2366.2,23489.8,418.3,""oops"",""left"",""right"",""bad_move""]","",""
"18524","","<div style=""width:500px;"">
  <p>What determined the result of this run?</p>
  </div>","50","html-slider-response","40","743639","0.0-5.0-1.6","182","1","2025-07-23 07:37:26","1f75c3e559b7213887762d5229550c2b","216.120.189.162","Mozilla/5.0 (Windows NT 10.0; Win64; x64) AppleWebKit/537.36 (KHTML, like Gecko) Chrome/138.0.0.0 Safari/537.36","WebKit","Chrome","138.0.0.0","Windows","10.0","https://app.prolific.com/","en-GB,en-US;q=0.9,en;q=0.8","667b366d0d0943e90dbee7d1","683db9eb0562dbf637994deb","688090e408502a0057d90025","2","1","667b366d0d0943e90dbee7d1","2","1","2025-07-23T07:48:47.996Z","","","","","","","","","","","AttribQ","","50","","","","","","","","","","","","","","","","","","","","","","","","","","","","",""
"3093","","<div style=""width:500px;"">
  <p>How much control did you have over the ball?</p>
  </div>","50","html-slider-response","41","746735","0.0-5.0-2.6","182","1","2025-07-23 07:37:26","1f75c3e559b7213887762d5229550c2b","216.120.189.162","Mozilla/5.0 (Windows NT 10.0; Win64; x64) AppleWebKit/537.36 (KHTML, like Gecko) Chrome/138.0.0.0 Safari/537.36","WebKit","Chrome","138.0.0.0","Windows","10.0","https://app.prolific.com/","en-GB,en-US;q=0.9,en;q=0.8","667b366d0d0943e90dbee7d1","683db9eb0562dbf637994deb","688090e408502a0057d90025","2","1","667b366d0d0943e90dbee7d1","2","1","2025-07-23T07:48:51.092Z","","","","","","","","","","","ControlQ","","50","","","","","","","","","","","","","","","","","","","","","","","","","","","","",""
"2936","","<div style=""width:500px;"">
  <p>How would you describe your current emotional state?</p>
  </div>","50","html-slider-response","42","749673","0.0-5.0-3.6","182","1","2025-07-23 07:37:26","1f75c3e559b7213887762d5229550c2b","216.120.189.162","Mozilla/5.0 (Windows NT 10.0; Win64; x64) AppleWebKit/537.36 (KHTML, like Gecko) Chrome/138.0.0.0 Safari/537.36","WebKit","Chrome","138.0.0.0","Windows","10.0","https://app.prolific.com/","en-GB,en-US;q=0.9,en;q=0.8","667b366d0d0943e90dbee7d1","683db9eb0562dbf637994deb","688090e408502a0057d90025","2","1","667b366d0d0943e90dbee7d1","2","1","2025-07-23T07:48:54.030Z","","","","","","","","","","","StressQ","","50","","","","","","","","","","","","","","","","","","","","","","","","","","","","",""
"5096","","<div style=""width:500px;"">
  <p>What best describes how you currently feel?</p>
  </div>","50","html-slider-response","43","754770","0.0-5.0-4.6","182","1","2025-07-23 07:37:26","1f75c3e559b7213887762d5229550c2b","216.120.189.162","Mozilla/5.0 (Windows NT 10.0; Win64; x64) AppleWebKit/537.36 (KHTML, like Gecko) Chrome/138.0.0.0 Safari/537.36","WebKit","Chrome","138.0.0.0","Windows","10.0","https://app.prolific.com/","en-GB,en-US;q=0.9,en;q=0.8","667b366d0d0943e90dbee7d1","683db9eb0562dbf637994deb","688090e408502a0057d90025","2","1","667b366d0d0943e90dbee7d1","2","1","2025-07-23T07:48:59.128Z","","","","","","","","","","","MotivationQ","","50","","","","","","","","","","","","","","","","","","","","","","","","","","","","",""
"","","","","ctl-task-cpt","44","798231","0.0-5.0-0.7","182","1","2025-07-23 07:37:26","1f75c3e559b7213887762d5229550c2b","216.120.189.162","Mozilla/5.0 (Windows NT 10.0; Win64; x64) AppleWebKit/537.36 (KHTML, like Gecko) Chrome/138.0.0.0 Safari/537.36","WebKit","Chrome","138.0.0.0","Windows","10.0","https://app.prolific.com/","en-GB,en-US;q=0.9,en;q=0.8","667b366d0d0943e90dbee7d1","683db9eb0562dbf637994deb","688090e408502a0057d90025","2","1","667b366d0d0943e90dbee7d1","2","1","2025-07-23T07:49:42.588Z","","","","","","","","","","","","","","win-only","1","g1:NE,g2:SW","0.3","8","0","755996.9","2442.4","7445.5","40435.5","1","4","4","6","2","-4","-4","0","0","0","1667.1","3000","-2290","[""down"",""left""]","{""num_key_presses"":8,""num_perfect"":3,""num_errors"":0,""num_randdir"":5,""num_randdir_good_moves"":2,""num_whilered"":0,""num_whileblue"":0,""num_blue"":2,""num_good_moves"":5}","[412.07142857142856,422.1808016640799,0.3,412.07142857142856,422.1808016640799,101.8,412.07142857142856,422.1808016640799,203.2,412.07142857142856,422.1808016640799,303.2,412.07142857142856,422.1808016640799,408.4,412.07142857142856,422.1808016640799,517.8,412.07142857142856,422.1808016640799,618.6,412.07142857142856,422.1808016640799,723.3,266.57142857142856,633.6808016640799,823.5,185.57142857142856,759.6808016640799,936.6,164.57142857142856,773.1808016640799,1038,140.57142857142856,779.1808016640799,1143.4,103.07142857142857,762.6808016640799,1246.5,97.07142857142857,764.1808016640799,1352.9,97.07142857142857,764.1808016640799,1453.9,97.07142857142857,764.1808016640799,1558.2,97.07142857142857,764.1808016640799,1669.8,97.07142857142857,764.1808016640799,1775.5,97.07142857142857,764.1808016640799,1878.7,97.07142857142857,764.1808016640799,1979.1,97.07142857142857,764.1808016640799,2079.1,97.07142857142857,764.1808016640799,2182.5,97.07142857142857,764.1808016640799,2284.1,97.07142857142857,764.1808016640799,2384.3,97.07142857142857,764.1808016640799,2484.5,194.57142857142856,671.1808016640799,2588.2,293.57142857142856,659.1808016640799,2688.4,311.57142857142856,656.1808016640799,2805.1,328.07142857142856,650.1808016640799,2910.8,359.57142857142856,627.6808016640799,3015.3,362.57142857142856,626.1808016640799,3117.8,362.57142857142856,626.1808016640799,3217.9,362.57142857142856,626.1808016640799,3324.3,362.57142857142856,626.1808016640799,3427.9,362.57142857142856,626.1808016640799,3533.4,362.57142857142856,626.1808016640799,3639,362.57142857142856,626.1808016640799,3743.6,362.57142857142856,626.1808016640799,3848.7,362.57142857142856,626.1808016640799,3953,362.57142857142856,626.1808016640799,4053.2,362.57142857142856,626.1808016640799,4154.2,362.57142857142856,626.1808016640799,4258.3,362.57142857142856,626.1808016640799,4358.9,362.57142857142856,626.1808016640799,4463.5,362.57142857142856,626.1808016640799,4568.1,362.57142857142856,626.1808016640799,4674.4,362.57142857142856,626.1808016640799,4783.4,362.57142857142856,626.1808016640799,4883.8,362.57142857142856,626.1808016640799,4988.2]","[1455.3,1455.3,1000,0,455.3,""oops"",""down"",""left"",""good_move"",3963.8,2507.9,1973.9,1455.9,534,""smooth"",""down"",""down"",""good_move"",10529.4,6565.2,2392.5,7683.3,453.6,""oops"",""down"",""right"",""bad_move"",13578.2,3048.5,2369.5,10529.7,679,""smooth"",""left"",""left"",""good_move"",17064.8,3486.3,3013.5,13578.7,472.7,""oops"",""left"",""down"",""good_move"",20031.3,2965.7,2364.6,17065.6,601.1,""smooth"",""left"",""left"",""good_move"",27267,7234.9,3252.6,23516,498.4,""oops"",""down"",""up"",""bad_move"",30291.1,3023.7,2478.7,27267.4,545,""oops"",""left"",""right"",""bad_move""]","",""
"3274","","<div style=""width:500px;"">
  <p>What determined the result of this run?</p>
  </div>","50","html-slider-response","45","801507","0.0-5.0-1.7","182","1","2025-07-23 07:37:26","1f75c3e559b7213887762d5229550c2b","216.120.189.162","Mozilla/5.0 (Windows NT 10.0; Win64; x64) AppleWebKit/537.36 (KHTML, like Gecko) Chrome/138.0.0.0 Safari/537.36","WebKit","Chrome","138.0.0.0","Windows","10.0","https://app.prolific.com/","en-GB,en-US;q=0.9,en;q=0.8","667b366d0d0943e90dbee7d1","683db9eb0562dbf637994deb","688090e408502a0057d90025","2","1","667b366d0d0943e90dbee7d1","2","1","2025-07-23T07:49:45.864Z","","","","","","","","","","","AttribQ","","50","","","","","","","","","","","","","","","","","","","","","","","","","","","","",""
"3742","","<div style=""width:500px;"">
  <p>How much control did you have over the ball?</p>
  </div>","50","html-slider-response","46","805250","0.0-5.0-2.7","182","1","2025-07-23 07:37:26","1f75c3e559b7213887762d5229550c2b","216.120.189.162","Mozilla/5.0 (Windows NT 10.0; Win64; x64) AppleWebKit/537.36 (KHTML, like Gecko) Chrome/138.0.0.0 Safari/537.36","WebKit","Chrome","138.0.0.0","Windows","10.0","https://app.prolific.com/","en-GB,en-US;q=0.9,en;q=0.8","667b366d0d0943e90dbee7d1","683db9eb0562dbf637994deb","688090e408502a0057d90025","2","1","667b366d0d0943e90dbee7d1","2","1","2025-07-23T07:49:49.607Z","","","","","","","","","","","ControlQ","","50","","","","","","","","","","","","","","","","","","","","","","","","","","","","",""
"4468","","<div style=""width:500px;"">
  <p>How would you describe your current emotional state?</p>
  </div>","50","html-slider-response","47","809719","0.0-5.0-3.7","182","1","2025-07-23 07:37:26","1f75c3e559b7213887762d5229550c2b","216.120.189.162","Mozilla/5.0 (Windows NT 10.0; Win64; x64) AppleWebKit/537.36 (KHTML, like Gecko) Chrome/138.0.0.0 Safari/537.36","WebKit","Chrome","138.0.0.0","Windows","10.0","https://app.prolific.com/","en-GB,en-US;q=0.9,en;q=0.8","667b366d0d0943e90dbee7d1","683db9eb0562dbf637994deb","688090e408502a0057d90025","2","1","667b366d0d0943e90dbee7d1","2","1","2025-07-23T07:49:54.076Z","","","","","","","","","","","StressQ","","50","","","","","","","","","","","","","","","","","","","","","","","","","","","","",""
"3184","","<div style=""width:500px;"">
  <p>What best describes how you currently feel?</p>
  </div>","50","html-slider-response","48","812905","0.0-5.0-4.7","182","1","2025-07-23 07:37:26","1f75c3e559b7213887762d5229550c2b","216.120.189.162","Mozilla/5.0 (Windows NT 10.0; Win64; x64) AppleWebKit/537.36 (KHTML, like Gecko) Chrome/138.0.0.0 Safari/537.36","WebKit","Chrome","138.0.0.0","Windows","10.0","https://app.prolific.com/","en-GB,en-US;q=0.9,en;q=0.8","667b366d0d0943e90dbee7d1","683db9eb0562dbf637994deb","688090e408502a0057d90025","2","1","667b366d0d0943e90dbee7d1","2","1","2025-07-23T07:49:57.262Z","","","","","","","","","","","MotivationQ","","50","","","","","","","","","","","","","","","","","","","","","","","","","","","","",""
"","","","","ctl-task-cpt","49","837854","0.0-5.0-0.8","182","1","2025-07-23 07:37:26","1f75c3e559b7213887762d5229550c2b","216.120.189.162","Mozilla/5.0 (Windows NT 10.0; Win64; x64) AppleWebKit/537.36 (KHTML, like Gecko) Chrome/138.0.0.0 Safari/537.36","WebKit","Chrome","138.0.0.0","Windows","10.0","https://app.prolific.com/","en-GB,en-US;q=0.9,en;q=0.8","667b366d0d0943e90dbee7d1","683db9eb0562dbf637994deb","688090e408502a0057d90025","2","1","667b366d0d0943e90dbee7d1","2","1","2025-07-23T07:50:22.212Z","","","","","","","","","","","","","","win-only","3","g1:SW,g2:NE","0.2","9","0","814130.8","4563.2","9566.4","21926.1","1","4","4","6","2","-4","-4","0","0","0","1580.6","3000","-2175","[""up"",""right""]","{""num_key_presses"":3,""num_perfect"":0,""num_errors"":0,""num_randdir"":3,""num_randdir_good_moves"":1,""num_whilered"":0,""num_whileblue"":0,""num_blue"":0,""num_good_moves"":1}","[416.57142857142856,414.6808016640799,0.3,416.57142857142856,414.6808016640799,102.3,416.57142857142856,414.6808016640799,202.6,416.57142857142856,414.6808016640799,303,416.57142857142856,414.6808016640799,403.2,416.57142857142856,414.6808016640799,503.4,416.57142857142856,414.6808016640799,609.2,412.07142857142856,419.1808016640799,714,713.5714285714286,141.68080166407992,818.2,740.5714285714286,125.18080166407994,918.2,740.5714285714286,125.18080166407994,1018.9,740.5714285714286,125.18080166407994,1130.4,740.5714285714286,123.68080166407994,1233.3,740.5714285714286,125.18080166407994,1338.5,740.5714285714286,125.18080166407994,1451.2,740.5714285714286,125.18080166407994,1552.3,740.5714285714286,125.18080166407994,1652.6,740.5714285714286,125.18080166407994,1752.7,740.5714285714286,125.18080166407994,1863.9,740.5714285714286,125.18080166407994,1968.2,740.5714285714286,125.18080166407994,2068.7,740.5714285714286,125.18080166407994,2174.6,740.5714285714286,125.18080166407994,2279.3,740.5714285714286,125.18080166407994,2384,740.5714285714286,125.18080166407994,2493.8,740.5714285714286,125.18080166407994,2597.8,740.5714285714286,125.18080166407994,2697.9,740.5714285714286,125.18080166407994,2799,740.5714285714286,125.18080166407994,2903.2,740.5714285714286,125.18080166407994,3009.6,740.5714285714286,125.18080166407994,3115.8,740.5714285714286,125.18080166407994,3218.3,740.5714285714286,125.18080166407994,3332.3,740.5714285714286,125.18080166407994,3432.8,740.5714285714286,125.18080166407994,3537.8,740.5714285714286,125.18080166407994,3643.3,740.5714285714286,125.18080166407994,3743.6,740.5714285714286,125.18080166407994,3848.3,740.5714285714286,125.18080166407994,3952.5,740.5714285714286,125.18080166407994,4066.3,740.5714285714286,125.18080166407994,4168.2,740.5714285714286,125.18080166407994,4273.2,740.5714285714286,125.18080166407994,4378.2,740.5714285714286,125.18080166407994,4478.2,740.5714285714286,125.18080166407994,4582.9,740.5714285714286,125.18080166407994,4699.4,740.5714285714286,125.18080166407994,4802.3,740.5714285714286,125.18080166407994,4903.2]","[1846.1,1846.1,1000,0,846.1,""oops"",""right"",""down"",""bad_move"",5259.8,3413.2,1822.9,1846.6,1590.4,""oops"",""up"",""right"",""good_move"",9025.1,3764.9,3281.7,5260.2,483.2,""oops"",""up"",""left"",""bad_move""]","",""
"5438","","<div style=""width:500px;"">
  <p>What determined the result of this run?</p>
  </div>","34","html-slider-response","50","843295","0.0-5.0-1.8","182","1","2025-07-23 07:37:26","1f75c3e559b7213887762d5229550c2b","216.120.189.162","Mozilla/5.0 (Windows NT 10.0; Win64; x64) AppleWebKit/537.36 (KHTML, like Gecko) Chrome/138.0.0.0 Safari/537.36","WebKit","Chrome","138.0.0.0","Windows","10.0","https://app.prolific.com/","en-GB,en-US;q=0.9,en;q=0.8","667b366d0d0943e90dbee7d1","683db9eb0562dbf637994deb","688090e408502a0057d90025","2","1","667b366d0d0943e90dbee7d1","2","1","2025-07-23T07:50:27.652Z","","","","","","","","","","","AttribQ","","50","","","","","","","","","","","","","","","","","","","","","","","","","","","","",""
"4808","","<div style=""width:500px;"">
  <p>How much control did you have over the ball?</p>
  </div>","11","html-slider-response","51","848105","0.0-5.0-2.8","182","1","2025-07-23 07:37:26","1f75c3e559b7213887762d5229550c2b","216.120.189.162","Mozilla/5.0 (Windows NT 10.0; Win64; x64) AppleWebKit/537.36 (KHTML, like Gecko) Chrome/138.0.0.0 Safari/537.36","WebKit","Chrome","138.0.0.0","Windows","10.0","https://app.prolific.com/","en-GB,en-US;q=0.9,en;q=0.8","667b366d0d0943e90dbee7d1","683db9eb0562dbf637994deb","688090e408502a0057d90025","2","1","667b366d0d0943e90dbee7d1","2","1","2025-07-23T07:50:32.463Z","","","","","","","","","","","ControlQ","","50","","","","","","","","","","","","","","","","","","","","","","","","","","","","",""
"4967","","<div style=""width:500px;"">
  <p>How would you describe your current emotional state?</p>
  </div>","50","html-slider-response","52","853074","0.0-5.0-3.8","182","1","2025-07-23 07:37:26","1f75c3e559b7213887762d5229550c2b","216.120.189.162","Mozilla/5.0 (Windows NT 10.0; Win64; x64) AppleWebKit/537.36 (KHTML, like Gecko) Chrome/138.0.0.0 Safari/537.36","WebKit","Chrome","138.0.0.0","Windows","10.0","https://app.prolific.com/","en-GB,en-US;q=0.9,en;q=0.8","667b366d0d0943e90dbee7d1","683db9eb0562dbf637994deb","688090e408502a0057d90025","2","1","667b366d0d0943e90dbee7d1","2","1","2025-07-23T07:50:37.431Z","","","","","","","","","","","StressQ","","50","","","","","","","","","","","","","","","","","","","","","","","","","","","","",""
"3809","","<div style=""width:500px;"">
  <p>What best describes how you currently feel?</p>
  </div>","50","html-slider-response","53","856884","0.0-5.0-4.8","182","1","2025-07-23 07:37:26","1f75c3e559b7213887762d5229550c2b","216.120.189.162","Mozilla/5.0 (Windows NT 10.0; Win64; x64) AppleWebKit/537.36 (KHTML, like Gecko) Chrome/138.0.0.0 Safari/537.36","WebKit","Chrome","138.0.0.0","Windows","10.0","https://app.prolific.com/","en-GB,en-US;q=0.9,en;q=0.8","667b366d0d0943e90dbee7d1","683db9eb0562dbf637994deb","688090e408502a0057d90025","2","1","667b366d0d0943e90dbee7d1","2","1","2025-07-23T07:50:41.241Z","","","","","","","","","","","MotivationQ","","50","","","","","","","","","","","","","","","","","","","","","","","","","","","","",""
"","","","","ctl-task-cpt","54","898011","0.0-5.0-0.9","182","1","2025-07-23 07:37:26","1f75c3e559b7213887762d5229550c2b","216.120.189.162","Mozilla/5.0 (Windows NT 10.0; Win64; x64) AppleWebKit/537.36 (KHTML, like Gecko) Chrome/138.0.0.0 Safari/537.36","WebKit","Chrome","138.0.0.0","Windows","10.0","https://app.prolific.com/","en-GB,en-US;q=0.9,en;q=0.8","667b366d0d0943e90dbee7d1","683db9eb0562dbf637994deb","688090e408502a0057d90025","2","1","667b366d0d0943e90dbee7d1","2","1","2025-07-23T07:51:22.368Z","","","","","","","","","","","","","","win-only","3","g1:SW,g2:NE","0.4","10","0","858109.4","3770.3","8770.8","38095.4","1","4","8","6","2","-8","-8","0","0","0","1626.2","3000","-2090","[""up"",""right""]","{""num_key_presses"":6,""num_perfect"":2,""num_errors"":0,""num_randdir"":4,""num_randdir_good_moves"":1,""num_whilered"":0,""num_whileblue"":0,""num_blue"":3,""num_good_moves"":2}","[416.57142857142856,425.1808016640799,0.2,416.57142857142856,425.1808016640799,100.3,416.57142857142856,425.1808016640799,210.4,416.57142857142856,425.1808016640799,312.6,416.57142857142856,425.1808016640799,428.3,416.57142857142856,425.1808016640799,532.8,707.5714285714286,68.18080166407994,634.7,788.5714285714286,30.680801664079937,735,788.5714285714286,30.680801664079937,836.3,787.0714285714286,30.680801664079937,950.4,776.5714285714286,56.18080166407994,1050.6,746.5714285714286,104.18080166407994,1166.6,746.5714285714286,102.68080166407994,1278,748.0714285714286,101.18080166407994,1379.9,748.0714285714286,101.18080166407994,1480.2,748.0714285714286,101.18080166407994,1591.9,748.0714285714286,101.18080166407994,1698.7,748.0714285714286,101.18080166407994,1804.1,748.0714285714286,101.18080166407994,1915.1,748.0714285714286,101.18080166407994,2015.5,748.0714285714286,101.18080166407994,2116.2,748.0714285714286,101.18080166407994,2233.9,748.0714285714286,101.18080166407994,2345.9,748.0714285714286,101.18080166407994,2451.2,748.0714285714286,101.18080166407994,2551.4,748.0714285714286,101.18080166407994,2656.6,748.0714285714286,101.18080166407994,2760.5,748.0714285714286,101.18080166407994,2865.6,748.0714285714286,101.18080166407994,2970.4,748.0714285714286,101.18080166407994,3071.6,748.0714285714286,101.18080166407994,3175.1,748.0714285714286,101.18080166407994,3280,748.0714285714286,101.18080166407994,3381,748.0714285714286,101.18080166407994,3502.1,748.0714285714286,101.18080166407994,3606.6,748.0714285714286,101.18080166407994,3710.6,748.0714285714286,101.18080166407994,3814.9,748.0714285714286,101.18080166407994,3915.2,748.0714285714286,101.18080166407994,4015.4,748.0714285714286,101.18080166407994,4121.4,748.0714285714286,101.18080166407994,4225.3,748.0714285714286,101.18080166407994,4326.5,748.0714285714286,101.18080166407994,4431,748.0714285714286,101.18080166407994,4547.8,748.0714285714286,101.18080166407994,4665.2,748.0714285714286,101.18080166407994,4768.7,748.0714285714286,101.18080166407994,4882.5,748.0714285714286,101.18080166407994,4998.8]","[8042,8042,2322.2,5270.9,448.9,""oops"",""up"",""left"",""bad_move"",11769,3726.5,3129.1,8042.5,597.4,""smooth"",""right"",""right"",""good_move"",14209.9,2440.4,1991,11769.5,449.4,""oops"",""right"",""left"",""bad_move"",17066.6,2856.3,2419.2,14210.3,437.1,""oops"",""right"",""left"",""bad_move"",22862.6,5795.9,2243.8,20080,538.8,""oops"",""left"",""up"",""good_move"",26014.3,3151.4,2498.5,22862.9,652.9,""smooth"",""left"",""down"",""bad_move""]","",""
"9986","","<div style=""width:500px;"">
  <p>What determined the result of this run?</p>
  </div>","34","html-slider-response","55","907999","0.0-5.0-1.9","182","1","2025-07-23 07:37:26","1f75c3e559b7213887762d5229550c2b","216.120.189.162","Mozilla/5.0 (Windows NT 10.0; Win64; x64) AppleWebKit/537.36 (KHTML, like Gecko) Chrome/138.0.0.0 Safari/537.36","WebKit","Chrome","138.0.0.0","Windows","10.0","https://app.prolific.com/","en-GB,en-US;q=0.9,en;q=0.8","667b366d0d0943e90dbee7d1","683db9eb0562dbf637994deb","688090e408502a0057d90025","2","1","667b366d0d0943e90dbee7d1","2","1","2025-07-23T07:51:32.356Z","","","","","","","","","","","AttribQ","","50","","","","","","","","","","","","","","","","","","","","","","","","","","","","",""
"5130","","<div style=""width:500px;"">
  <p>How much control did you have over the ball?</p>
  </div>","17","html-slider-response","56","913131","0.0-5.0-2.9","182","1","2025-07-23 07:37:26","1f75c3e559b7213887762d5229550c2b","216.120.189.162","Mozilla/5.0 (Windows NT 10.0; Win64; x64) AppleWebKit/537.36 (KHTML, like Gecko) Chrome/138.0.0.0 Safari/537.36","WebKit","Chrome","138.0.0.0","Windows","10.0","https://app.prolific.com/","en-GB,en-US;q=0.9,en;q=0.8","667b366d0d0943e90dbee7d1","683db9eb0562dbf637994deb","688090e408502a0057d90025","2","1","667b366d0d0943e90dbee7d1","2","1","2025-07-23T07:51:37.488Z","","","","","","","","","","","ControlQ","","50","","","","","","","","","","","","","","","","","","","","","","","","","","","","",""
"4124","","<div style=""width:500px;"">
  <p>How would you describe your current emotional state?</p>
  </div>","50","html-slider-response","57","917257","0.0-5.0-3.9","182","1","2025-07-23 07:37:26","1f75c3e559b7213887762d5229550c2b","216.120.189.162","Mozilla/5.0 (Windows NT 10.0; Win64; x64) AppleWebKit/537.36 (KHTML, like Gecko) Chrome/138.0.0.0 Safari/537.36","WebKit","Chrome","138.0.0.0","Windows","10.0","https://app.prolific.com/","en-GB,en-US;q=0.9,en;q=0.8","667b366d0d0943e90dbee7d1","683db9eb0562dbf637994deb","688090e408502a0057d90025","2","1","667b366d0d0943e90dbee7d1","2","1","2025-07-23T07:51:41.614Z","","","","","","","","","","","StressQ","","50","","","","","","","","","","","","","","","","","","","","","","","","","","","","",""
"4964","","<div style=""width:500px;"">
  <p>What best describes how you currently feel?</p>
  </div>","50","html-slider-response","58","922223","0.0-5.0-4.9","182","1","2025-07-23 07:37:26","1f75c3e559b7213887762d5229550c2b","216.120.189.162","Mozilla/5.0 (Windows NT 10.0; Win64; x64) AppleWebKit/537.36 (KHTML, like Gecko) Chrome/138.0.0.0 Safari/537.36","WebKit","Chrome","138.0.0.0","Windows","10.0","https://app.prolific.com/","en-GB,en-US;q=0.9,en;q=0.8","667b366d0d0943e90dbee7d1","683db9eb0562dbf637994deb","688090e408502a0057d90025","2","1","667b366d0d0943e90dbee7d1","2","1","2025-07-23T07:51:46.580Z","","","","","","","","","","","MotivationQ","","50","","","","","","","","","","","","","","","","","","","","","","","","","","","","",""
"","","","","ctl-task-cpt","59","958108","0.0-5.0-0.10","182","1","2025-07-23 07:37:26","1f75c3e559b7213887762d5229550c2b","216.120.189.162","Mozilla/5.0 (Windows NT 10.0; Win64; x64) AppleWebKit/537.36 (KHTML, like Gecko) Chrome/138.0.0.0 Safari/537.36","WebKit","Chrome","138.0.0.0","Windows","10.0","https://app.prolific.com/","en-GB,en-US;q=0.9,en;q=0.8","667b366d0d0943e90dbee7d1","683db9eb0562dbf637994deb","688090e408502a0057d90025","2","1","667b366d0d0943e90dbee7d1","2","1","2025-07-23T07:52:22.465Z","","","","","","","","","","","","","","win-only","0","g1:NW,g2:SE","0.5","11","0","923448.9","1958.2","6961.4","32864.9","1","4","8","6","2","8","7","7","0","0.05303030303030303","1908","3000","1360","[""down"",""right""]","{""num_key_presses"":6,""num_perfect"":5,""num_errors"":1,""num_randdir"":0,""num_randdir_good_moves"":0,""num_whilered"":0,""num_whileblue"":1,""num_blue"":4,""num_good_moves"":6}","[409.07142857142856,416.1808016640799,0.3,409.07142857142856,416.1808016640799,103,409.07142857142856,416.1808016640799,214.4,409.07142857142856,416.1808016640799,318,409.07142857142856,416.1808016640799,419.4,409.07142857142856,416.1808016640799,521.2,409.07142857142856,416.1808016640799,637.7,409.07142857142856,416.1808016640799,752.8,475.07142857142856,501.6808016640799,853.7,655.0714285714286,645.6808016640799,957.3,707.5714285714286,677.1808016640799,1058,707.5714285714286,677.1808016640799,1158.9,719.5714285714286,692.1808016640799,1262.1,736.0714285714286,716.1808016640799,1362.6,736.0714285714286,723.6808016640799,1474.5,736.0714285714286,732.6808016640799,1579.4,737.5714285714286,734.1808016640799,1684.1,737.5714285714286,734.1808016640799,1796,737.5714285714286,734.1808016640799,1898.6,737.5714285714286,734.1808016640799,2009.8,737.5714285714286,734.1808016640799,2115.9,737.5714285714286,734.1808016640799,2220.4,737.5714285714286,734.1808016640799,2331,737.5714285714286,734.1808016640799,2447.5,737.5714285714286,734.1808016640799,2557.2,737.5714285714286,734.1808016640799,2671.5,737.5714285714286,734.1808016640799,2771.7,737.5714285714286,734.1808016640799,2873.1,737.5714285714286,734.1808016640799,2985.7,737.5714285714286,734.1808016640799,3088.4,737.5714285714286,734.1808016640799,3192.2,737.5714285714286,734.1808016640799,3292.8,737.5714285714286,734.1808016640799,3392.9,737.5714285714286,734.1808016640799,3493,737.5714285714286,734.1808016640799,3593,737.5714285714286,734.1808016640799,3700.5,737.5714285714286,734.1808016640799,3804.9,737.5714285714286,734.1808016640799,3907.8,710.5714285714286,719.1808016640799,4008.2,640.0714285714286,680.1808016640799,4118.6,583.0714285714286,647.1808016640799,4222.1,530.5714285714286,609.6808016640799,4323.1,478.07142857142856,525.6808016640799,4436.4,416.57142857142856,467.1808016640799,4538.8,376.07142857142856,431.1808016640799,4641.7,370.07142857142856,425.1808016640799,4742.1,370.07142857142856,425.1808016640799,4842.9,370.07142857142856,425.1808016640799,4947.2]","[4852.9,4852.9,2408,2005,439.9,""smooth"",""down"",""down"",""good_move"",7481,2627.3,2020.8,4853.7,606.5,""smooth"",""down"",""down"",""good_move"",10087.2,2606,2145.1,7481.2,460.9,""smooth"",""down"",""down"",""good_move"",19502.3,9414.8,2455.1,16649.5,397.7,""while_blue"",""right"",""right"",""good_move"",22349,2846.2,2277.5,19502.8,568.7,""smooth"",""right"",""right"",""good_move"",25764.3,3415,2884.9,22349.3,530.1,""smooth"",""right"",""right"",""good_move""]","",""
"5489","","<div style=""width:500px;"">
  <p>What determined the result of this run?</p>
  </div>","50","html-slider-response","60","963599","0.0-5.0-1.10","182","1","2025-07-23 07:37:26","1f75c3e559b7213887762d5229550c2b","216.120.189.162","Mozilla/5.0 (Windows NT 10.0; Win64; x64) AppleWebKit/537.36 (KHTML, like Gecko) Chrome/138.0.0.0 Safari/537.36","WebKit","Chrome","138.0.0.0","Windows","10.0","https://app.prolific.com/","en-GB,en-US;q=0.9,en;q=0.8","667b366d0d0943e90dbee7d1","683db9eb0562dbf637994deb","688090e408502a0057d90025","2","1","667b366d0d0943e90dbee7d1","2","1","2025-07-23T07:52:27.956Z","","","","","","","","","","","AttribQ","","50","","","","","","","","","","","","","","","","","","","","","","","","","","","","",""
"5678","","<div style=""width:500px;"">
  <p>How much control did you have over the ball?</p>
  </div>","82","html-slider-response","61","969279","0.0-5.0-2.10","182","1","2025-07-23 07:37:26","1f75c3e559b7213887762d5229550c2b","216.120.189.162","Mozilla/5.0 (Windows NT 10.0; Win64; x64) AppleWebKit/537.36 (KHTML, like Gecko) Chrome/138.0.0.0 Safari/537.36","WebKit","Chrome","138.0.0.0","Windows","10.0","https://app.prolific.com/","en-GB,en-US;q=0.9,en;q=0.8","667b366d0d0943e90dbee7d1","683db9eb0562dbf637994deb","688090e408502a0057d90025","2","1","667b366d0d0943e90dbee7d1","2","1","2025-07-23T07:52:33.636Z","","","","","","","","","","","ControlQ","","50","","","","","","","","","","","","","","","","","","","","","","","","","","","","",""
"6657","","<div style=""width:500px;"">
  <p>How would you describe your current emotional state?</p>
  </div>","33","html-slider-response","62","975939","0.0-5.0-3.10","182","1","2025-07-23 07:37:26","1f75c3e559b7213887762d5229550c2b","216.120.189.162","Mozilla/5.0 (Windows NT 10.0; Win64; x64) AppleWebKit/537.36 (KHTML, like Gecko) Chrome/138.0.0.0 Safari/537.36","WebKit","Chrome","138.0.0.0","Windows","10.0","https://app.prolific.com/","en-GB,en-US;q=0.9,en;q=0.8","667b366d0d0943e90dbee7d1","683db9eb0562dbf637994deb","688090e408502a0057d90025","2","1","667b366d0d0943e90dbee7d1","2","1","2025-07-23T07:52:40.296Z","","","","","","","","","","","StressQ","","50","","","","","","","","","","","","","","","","","","","","","","","","","","","","",""
"11141","","<div style=""width:500px;"">
  <p>What best describes how you currently feel?</p>
  </div>","64","html-slider-response","63","987081","0.0-5.0-4.10","182","1","2025-07-23 07:37:26","1f75c3e559b7213887762d5229550c2b","216.120.189.162","Mozilla/5.0 (Windows NT 10.0; Win64; x64) AppleWebKit/537.36 (KHTML, like Gecko) Chrome/138.0.0.0 Safari/537.36","WebKit","Chrome","138.0.0.0","Windows","10.0","https://app.prolific.com/","en-GB,en-US;q=0.9,en;q=0.8","667b366d0d0943e90dbee7d1","683db9eb0562dbf637994deb","688090e408502a0057d90025","2","1","667b366d0d0943e90dbee7d1","2","1","2025-07-23T07:52:51.438Z","","","","","","","","","","","MotivationQ","","50","","","","","","","","","","","","","","","","","","","","","","","","","","","","",""
"","","","","ctl-task-cpt","64","1032353","0.0-5.0-0.11","182","1","2025-07-23 07:37:26","1f75c3e559b7213887762d5229550c2b","216.120.189.162","Mozilla/5.0 (Windows NT 10.0; Win64; x64) AppleWebKit/537.36 (KHTML, like Gecko) Chrome/138.0.0.0 Safari/537.36","WebKit","Chrome","138.0.0.0","Windows","10.0","https://app.prolific.com/","en-GB,en-US;q=0.9,en;q=0.8","667b366d0d0943e90dbee7d1","683db9eb0562dbf637994deb","688090e408502a0057d90025","2","1","667b366d0d0943e90dbee7d1","2","1","2025-07-23T07:53:36.710Z","","","","","","","","","","","","","","win-only","2","g1:SE,g2:NW","0.6","12","0","988307.5","2073.8","7074.5","42250.2","1","4","4","6","2","-4","-4","3","7","0.022727272727272728","1826.8","3000","-1820","[""left"",""up""]","{""num_key_presses"":8,""num_perfect"":5,""num_errors"":0,""num_randdir"":3,""num_randdir_good_moves"":0,""num_whilered"":0,""num_whileblue"":0,""num_blue"":2,""num_good_moves"":5}","[416.57142857142856,416.1808016640799,0.4,416.57142857142856,416.1808016640799,103.8,416.57142857142856,416.1808016640799,206.9,416.57142857142856,416.1808016640799,321.9,416.57142857142856,416.1808016640799,427,416.57142857142856,416.1808016640799,528,416.57142857142856,416.1808016640799,631.7,284.57142857142856,317.1808016640799,732.1,194.57142857142856,242.18080166407992,832.1,194.57142857142856,242.18080166407992,932.4,194.57142857142856,242.18080166407992,1056.4,104.57142857142857,84.68080166407994,1172.6,104.57142857142857,83.18080166407994,1285.8,89.57142857142857,54.68080166407994,1398.8,89.57142857142857,59.18080166407994,1499.5,89.57142857142857,65.18080166407994,1606.9,89.57142857142857,65.18080166407994,1709.1,89.57142857142857,65.18080166407994,1819.9,89.57142857142857,65.18080166407994,1935.8,89.57142857142857,65.18080166407994,2053.7,89.57142857142857,65.18080166407994,2156.8,89.57142857142857,65.18080166407994,2269.1,89.57142857142857,65.18080166407994,2370.2,89.57142857142857,65.18080166407994,2471.9,89.57142857142857,65.18080166407994,2592.5,89.57142857142857,65.18080166407994,2699.7,89.57142857142857,65.18080166407994,2808.8,89.57142857142857,65.18080166407994,2912.2,89.57142857142857,65.18080166407994,3012.7,89.57142857142857,65.18080166407994,3117.3,89.57142857142857,65.18080166407994,3217.3,89.57142857142857,65.18080166407994,3317.5,89.57142857142857,65.18080166407994,3418,89.57142857142857,65.18080166407994,3522.7,89.57142857142857,65.18080166407994,3627.1,89.57142857142857,65.18080166407994,3728,89.57142857142857,65.18080166407994,3828.2,89.57142857142857,65.18080166407994,3932.8,89.57142857142857,65.18080166407994,4034.9,89.57142857142857,65.18080166407994,4149.9,89.57142857142857,65.18080166407994,4252,89.57142857142857,65.18080166407994,4367.1,89.57142857142857,65.18080166407994,4471.9,89.57142857142857,65.18080166407994,4572.8,89.57142857142857,65.18080166407994,4677,89.57142857142857,65.18080166407994,4781.5,89.57142857142857,65.18080166407994,4884,89.57142857142857,65.18080166407994,4985.5]","[1500.6,1500.6,1000,0,500.6,""smooth"",""up"",""up"",""good_move"",4773.9,3272.4,2793.7,1501.5,478.7,""smooth"",""up"",""up"",""good_move"",8193.7,3419.5,2943.3,4774.3,476.2,""smooth"",""up"",""up"",""good_move"",14144.5,5950.5,2205.8,11447.6,491.1,""smooth"",""left"",""left"",""good_move"",17505.9,3361.2,2939.9,14144.8,421.2,""oops"",""left"",""right"",""bad_move"",20489.8,2983.4,2516.7,17506.4,466.7,""oops"",""left"",""down"",""bad_move"",23976.9,3486.5,3002.3,20490.4,484.2,""smooth"",""left"",""left"",""good_move"",30919.2,6941.9,2656.8,27796.5,465.9,""oops"",""left"",""right"",""bad_move""]","",""
"3888","","<div style=""width:500px;"">
  <p>What determined the result of this run?</p>
  </div>","50","html-slider-response","65","1036242","0.0-5.0-1.11","182","1","2025-07-23 07:37:26","1f75c3e559b7213887762d5229550c2b","216.120.189.162","Mozilla/5.0 (Windows NT 10.0; Win64; x64) AppleWebKit/537.36 (KHTML, like Gecko) Chrome/138.0.0.0 Safari/537.36","WebKit","Chrome","138.0.0.0","Windows","10.0","https://app.prolific.com/","en-GB,en-US;q=0.9,en;q=0.8","667b366d0d0943e90dbee7d1","683db9eb0562dbf637994deb","688090e408502a0057d90025","2","1","667b366d0d0943e90dbee7d1","2","1","2025-07-23T07:53:40.599Z","","","","","","","","","","","AttribQ","","50","","","","","","","","","","","","","","","","","","","","","","","","","","","","",""
"7087","","<div style=""width:500px;"">
  <p>How much control did you have over the ball?</p>
  </div>","50","html-slider-response","66","1043331","0.0-5.0-2.11","182","1","2025-07-23 07:37:26","1f75c3e559b7213887762d5229550c2b","216.120.189.162","Mozilla/5.0 (Windows NT 10.0; Win64; x64) AppleWebKit/537.36 (KHTML, like Gecko) Chrome/138.0.0.0 Safari/537.36","WebKit","Chrome","138.0.0.0","Windows","10.0","https://app.prolific.com/","en-GB,en-US;q=0.9,en;q=0.8","667b366d0d0943e90dbee7d1","683db9eb0562dbf637994deb","688090e408502a0057d90025","2","1","667b366d0d0943e90dbee7d1","2","1","2025-07-23T07:53:47.688Z","","","","","","","","","","","ControlQ","","50","","","","","","","","","","","","","","","","","","","","","","","","","","","","",""
"8834","","<div style=""width:500px;"">
  <p>How would you describe your current emotional state?</p>
  </div>","50","html-slider-response","67","1052167","0.0-5.0-3.11","182","1","2025-07-23 07:37:26","1f75c3e559b7213887762d5229550c2b","216.120.189.162","Mozilla/5.0 (Windows NT 10.0; Win64; x64) AppleWebKit/537.36 (KHTML, like Gecko) Chrome/138.0.0.0 Safari/537.36","WebKit","Chrome","138.0.0.0","Windows","10.0","https://app.prolific.com/","en-GB,en-US;q=0.9,en;q=0.8","667b366d0d0943e90dbee7d1","683db9eb0562dbf637994deb","688090e408502a0057d90025","2","1","667b366d0d0943e90dbee7d1","2","1","2025-07-23T07:53:56.524Z","","","","","","","","","","","StressQ","","50","","","","","","","","","","","","","","","","","","","","","","","","","","","","",""
"10629","","<div style=""width:500px;"">
  <p>What best describes how you currently feel?</p>
  </div>","50","html-slider-response","68","1062798","0.0-5.0-4.11","182","1","2025-07-23 07:37:26","1f75c3e559b7213887762d5229550c2b","216.120.189.162","Mozilla/5.0 (Windows NT 10.0; Win64; x64) AppleWebKit/537.36 (KHTML, like Gecko) Chrome/138.0.0.0 Safari/537.36","WebKit","Chrome","138.0.0.0","Windows","10.0","https://app.prolific.com/","en-GB,en-US;q=0.9,en;q=0.8","667b366d0d0943e90dbee7d1","683db9eb0562dbf637994deb","688090e408502a0057d90025","2","1","667b366d0d0943e90dbee7d1","2","1","2025-07-23T07:54:07.155Z","","","","","","","","","","","MotivationQ","","50","","","","","","","","","","","","","","","","","","","","","","","","","","","","",""
"","","","","ctl-task-cpt","69","1096925","0.0-5.0-0.12","182","1","2025-07-23 07:37:26","1f75c3e559b7213887762d5229550c2b","216.120.189.162","Mozilla/5.0 (Windows NT 10.0; Win64; x64) AppleWebKit/537.36 (KHTML, like Gecko) Chrome/138.0.0.0 Safari/537.36","WebKit","Chrome","138.0.0.0","Windows","10.0","https://app.prolific.com/","en-GB,en-US;q=0.9,en;q=0.8","667b366d0d0943e90dbee7d1","683db9eb0562dbf637994deb","688090e408502a0057d90025","2","1","667b366d0d0943e90dbee7d1","2","1","2025-07-23T07:54:41.282Z","","","","","","","","","","","","","","win-only","0","g1:NW,g2:SE","0.7","13","0","1064023.8","2102.5","7119","31107","1","4","8","6","2","-8","-8","0","3","0","1854.6","3000","-2560","[""down"",""right""]","{""num_key_presses"":7,""num_perfect"":5,""num_errors"":0,""num_randdir"":2,""num_randdir_good_moves"":0,""num_whilered"":0,""num_whileblue"":0,""num_blue"":0,""num_good_moves"":4}","[413.57142857142856,411.6808016640799,0.3,413.57142857142856,411.6808016640799,116.3,413.57142857142856,411.6808016640799,226.5,413.57142857142856,411.6808016640799,332.8,413.57142857142856,411.6808016640799,433.3,413.57142857142856,411.6808016640799,552.8,413.57142857142856,411.6808016640799,653.1,413.57142857142856,411.6808016640799,758.4,593.5714285714286,578.1808016640799,859.3,653.5714285714286,603.6808016640799,970.4,707.5714285714286,662.1808016640799,1089.2,707.5714285714286,683.1808016640799,1190,709.0714285714286,705.6808016640799,1291.2,712.0714285714286,710.1808016640799,1392.9,721.0714285714286,719.1808016640799,1494,731.5714285714286,725.1808016640799,1594.9,731.5714285714286,725.1808016640799,1698.3,731.5714285714286,725.1808016640799,1806.5,731.5714285714286,725.1808016640799,1931.5,731.5714285714286,725.1808016640799,2034.8,731.5714285714286,725.1808016640799,2138.6,731.5714285714286,725.1808016640799,2239.5,731.5714285714286,725.1808016640799,2349.1,731.5714285714286,725.1808016640799,2450.8,731.5714285714286,725.1808016640799,2557,731.5714285714286,725.1808016640799,2657.7,731.5714285714286,725.1808016640799,2759.4,731.5714285714286,725.1808016640799,2863.3,731.5714285714286,725.1808016640799,2963.4,731.5714285714286,725.1808016640799,3064.3,731.5714285714286,725.1808016640799,3187.9,731.5714285714286,725.1808016640799,3307.4,731.5714285714286,725.1808016640799,3422.9,731.5714285714286,725.1808016640799,3523,731.5714285714286,725.1808016640799,3623.4,731.5714285714286,725.1808016640799,3728,731.5714285714286,725.1808016640799,3829.1,731.5714285714286,725.1808016640799,3929.9,731.5714285714286,725.1808016640799,4033.8,731.5714285714286,725.1808016640799,4139.5,731.5714285714286,725.1808016640799,4240.3,731.5714285714286,725.1808016640799,4341,731.5714285714286,725.1808016640799,4441.6,731.5714285714286,725.1808016640799,4557.2,731.5714285714286,725.1808016640799,4657.8,731.5714285714286,725.1808016640799,4758,731.5714285714286,725.1808016640799,4858.9,731.5714285714286,725.1808016640799,4963.6]","[1472.9,1472.9,1000,0,472.9,""oops"",""down"",""left"",""bad_move"",4404.3,2930.8,2528,1473.5,402.8,""smooth"",""down"",""down"",""good_move"",8230.8,3826,3396.7,4404.9,429.3,""oops"",""down"",""left"",""bad_move"",10804.9,2573.6,1834.9,8231.3,738.7,""smooth"",""left"",""down"",""good_move"",13362.9,2557.8,2148.1,10805.1,409.7,""smooth"",""left"",""down"",""good_move"",16698.4,3335.2,2642.4,13363.2,692.8,""smooth"",""left"",""up"",""bad_move"",21045.7,4346.7,3634.9,16699.1,711.8,""smooth"",""down"",""down"",""good_move""]","",""
"11187","","<div style=""width:500px;"">
  <p>What determined the result of this run?</p>
  </div>","48","html-slider-response","70","1108113","0.0-5.0-1.12","182","1","2025-07-23 07:37:26","1f75c3e559b7213887762d5229550c2b","216.120.189.162","Mozilla/5.0 (Windows NT 10.0; Win64; x64) AppleWebKit/537.36 (KHTML, like Gecko) Chrome/138.0.0.0 Safari/537.36","WebKit","Chrome","138.0.0.0","Windows","10.0","https://app.prolific.com/","en-GB,en-US;q=0.9,en;q=0.8","667b366d0d0943e90dbee7d1","683db9eb0562dbf637994deb","688090e408502a0057d90025","2","1","667b366d0d0943e90dbee7d1","2","1","2025-07-23T07:54:52.470Z","","","","","","","","","","","AttribQ","","50","","","","","","","","","","","","","","","","","","","","","","","","","","","","",""
"1980","","<div style=""width:500px;"">
  <p>How much control did you have over the ball?</p>
  </div>","51","html-slider-response","71","1110094","0.0-5.0-2.12","182","1","2025-07-23 07:37:26","1f75c3e559b7213887762d5229550c2b","216.120.189.162","Mozilla/5.0 (Windows NT 10.0; Win64; x64) AppleWebKit/537.36 (KHTML, like Gecko) Chrome/138.0.0.0 Safari/537.36","WebKit","Chrome","138.0.0.0","Windows","10.0","https://app.prolific.com/","en-GB,en-US;q=0.9,en;q=0.8","667b366d0d0943e90dbee7d1","683db9eb0562dbf637994deb","688090e408502a0057d90025","2","1","667b366d0d0943e90dbee7d1","2","1","2025-07-23T07:54:54.451Z","","","","","","","","","","","ControlQ","","50","","","","","","","","","","","","","","","","","","","","","","","","","","","","",""
"2932","","<div style=""width:500px;"">
  <p>How would you describe your current emotional state?</p>
  </div>","50","html-slider-response","72","1113027","0.0-5.0-3.12","182","1","2025-07-23 07:37:26","1f75c3e559b7213887762d5229550c2b","216.120.189.162","Mozilla/5.0 (Windows NT 10.0; Win64; x64) AppleWebKit/537.36 (KHTML, like Gecko) Chrome/138.0.0.0 Safari/537.36","WebKit","Chrome","138.0.0.0","Windows","10.0","https://app.prolific.com/","en-GB,en-US;q=0.9,en;q=0.8","667b366d0d0943e90dbee7d1","683db9eb0562dbf637994deb","688090e408502a0057d90025","2","1","667b366d0d0943e90dbee7d1","2","1","2025-07-23T07:54:57.384Z","","","","","","","","","","","StressQ","","50","","","","","","","","","","","","","","","","","","","","","","","","","","","","",""
"1468","","<div style=""width:500px;"">
  <p>What best describes how you currently feel?</p>
  </div>","50","html-slider-response","73","1114496","0.0-5.0-4.12","182","1","2025-07-23 07:37:26","1f75c3e559b7213887762d5229550c2b","216.120.189.162","Mozilla/5.0 (Windows NT 10.0; Win64; x64) AppleWebKit/537.36 (KHTML, like Gecko) Chrome/138.0.0.0 Safari/537.36","WebKit","Chrome","138.0.0.0","Windows","10.0","https://app.prolific.com/","en-GB,en-US;q=0.9,en;q=0.8","667b366d0d0943e90dbee7d1","683db9eb0562dbf637994deb","688090e408502a0057d90025","2","1","667b366d0d0943e90dbee7d1","2","1","2025-07-23T07:54:58.854Z","","","","","","","","","","","MotivationQ","","50","","","","","","","","","","","","","","","","","","","","","","","","","","","","",""
"","","","","ctl-task-cpt","74","1151766","0.0-5.0-0.13","182","1","2025-07-23 07:37:26","1f75c3e559b7213887762d5229550c2b","216.120.189.162","Mozilla/5.0 (Windows NT 10.0; Win64; x64) AppleWebKit/537.36 (KHTML, like Gecko) Chrome/138.0.0.0 Safari/537.36","WebKit","Chrome","138.0.0.0","Windows","10.0","https://app.prolific.com/","en-GB,en-US;q=0.9,en;q=0.8","667b366d0d0943e90dbee7d1","683db9eb0562dbf637994deb","688090e408502a0057d90025","2","1","667b366d0d0943e90dbee7d1","2","1","2025-07-23T07:55:36.123Z","","","","","","","","","","","","","","win-only","3","g1:SW,g2:NE","0.8","14","0","1115721.6","4636.1","9642.9","34251.1","1","4","4","6","2","4","4","4","0","0.030303030303030304","1927.3","3000","1015","[""up"",""right""]","{""num_key_presses"":6,""num_perfect"":5,""num_errors"":0,""num_randdir"":1,""num_randdir_good_moves"":1,""num_whilered"":0,""num_whileblue"":0,""num_blue"":2,""num_good_moves"":6}","[412.07142857142856,416.1808016640799,0.4,412.07142857142856,416.1808016640799,111.8,412.07142857142856,416.1808016640799,212.1,412.07142857142856,416.1808016640799,325.6,412.07142857142856,416.1808016640799,426.3,412.07142857142856,416.1808016640799,526.8,412.07142857142856,416.1808016640799,629.7,412.07142857142856,416.1808016640799,744.4,412.07142857142856,416.1808016640799,844.7,533.5714285714286,243.68080166407992,946.3,625.0714285714286,141.68080166407992,1050.3,689.5714285714286,53.18080166407994,1151.4,697.0714285714286,41.18080166407994,1254.1,706.0714285714286,65.18080166407994,1356.1,737.5714285714286,93.68080166407994,1464.5,745.0714285714286,95.18080166407994,1566.4,746.5714285714286,95.18080166407994,1671,746.5714285714286,95.18080166407994,1776.1,746.5714285714286,95.18080166407994,1879.5,746.5714285714286,95.18080166407994,1990.5,746.5714285714286,95.18080166407994,2094.8,746.5714285714286,95.18080166407994,2210.4,746.5714285714286,95.18080166407994,2310.9,746.5714285714286,95.18080166407994,2424.9,746.5714285714286,95.18080166407994,2541.9,746.5714285714286,95.18080166407994,2644.8,746.5714285714286,95.18080166407994,2745.6,746.5714285714286,95.18080166407994,2850.7,746.5714285714286,95.18080166407994,2954.8,746.5714285714286,95.18080166407994,3054.9,746.5714285714286,95.18080166407994,3161.1,746.5714285714286,95.18080166407994,3261.7,746.5714285714286,95.18080166407994,3365.6,746.5714285714286,95.18080166407994,3469.5,746.5714285714286,95.18080166407994,3585.7,746.5714285714286,95.18080166407994,3690.6,746.5714285714286,95.18080166407994,3795,746.5714285714286,95.18080166407994,3895.5,746.5714285714286,95.18080166407994,4007.5,746.5714285714286,95.18080166407994,4110.8,746.5714285714286,95.18080166407994,4228.3,746.5714285714286,95.18080166407994,4330.2,746.5714285714286,95.18080166407994,4441.4,746.5714285714286,95.18080166407994,4545.7,746.5714285714286,95.18080166407994,4650.2,746.5714285714286,95.18080166407994,4755.5,746.5714285714286,95.18080166407994,4855.6,746.5714285714286,95.18080166407994,4960.8]","[2080.5,2080.5,1000,0,1080.5,""smooth"",""up"",""up"",""good_move"",5669.3,3588.1,2738.4,2081.4,849.5,""smooth"",""up"",""up"",""good_move"",8166.7,2497.2,2061.7,5669.5,435.6,""oops"",""up"",""right"",""good_move"",11173.1,3005.5,2599.2,8167.6,406.3,""smooth"",""up"",""up"",""good_move"",20303.1,9129.6,1917.4,17968.2,417.5,""smooth"",""right"",""right"",""good_move"",24431.4,4127.4,3678.5,20304,448.9,""smooth"",""right"",""right"",""good_move""]","",""
"4170","","<div style=""width:500px;"">
  <p>What determined the result of this run?</p>
  </div>","50","html-slider-response","75","1155939","0.0-5.0-1.13","182","1","2025-07-23 07:37:26","1f75c3e559b7213887762d5229550c2b","216.120.189.162","Mozilla/5.0 (Windows NT 10.0; Win64; x64) AppleWebKit/537.36 (KHTML, like Gecko) Chrome/138.0.0.0 Safari/537.36","WebKit","Chrome","138.0.0.0","Windows","10.0","https://app.prolific.com/","en-GB,en-US;q=0.9,en;q=0.8","667b366d0d0943e90dbee7d1","683db9eb0562dbf637994deb","688090e408502a0057d90025","2","1","667b366d0d0943e90dbee7d1","2","1","2025-07-23T07:55:40.296Z","","","","","","","","","","","AttribQ","","50","","","","","","","","","","","","","","","","","","","","","","","","","","","","",""
"4451","","<div style=""width:500px;"">
  <p>How much control did you have over the ball?</p>
  </div>","50","html-slider-response","76","1160392","0.0-5.0-2.13","182","1","2025-07-23 07:37:26","1f75c3e559b7213887762d5229550c2b","216.120.189.162","Mozilla/5.0 (Windows NT 10.0; Win64; x64) AppleWebKit/537.36 (KHTML, like Gecko) Chrome/138.0.0.0 Safari/537.36","WebKit","Chrome","138.0.0.0","Windows","10.0","https://app.prolific.com/","en-GB,en-US;q=0.9,en;q=0.8","667b366d0d0943e90dbee7d1","683db9eb0562dbf637994deb","688090e408502a0057d90025","2","1","667b366d0d0943e90dbee7d1","2","1","2025-07-23T07:55:44.749Z","","","","","","","","","","","ControlQ","","50","","","","","","","","","","","","","","","","","","","","","","","","","","","","",""
"2955","","<div style=""width:500px;"">
  <p>How would you describe your current emotional state?</p>
