"rt","response_timestamp","stimulus","response","trial_type","trial_index","time_elapsed","internal_node_id","run_id","condition","recorded_at","source_code_version","ip","user_agent","device","browser","browser_version","platform","platform_version","referer","accept_language","PROLIFIC_PID","STUDY_ID","SESSION_ID","WEEK","BATCH","prolific_id","week","batch","realtime","success","responses","item_order","radio_event_ids","radio_event_times","key_event_times","mouse_event_times","straightlining","zigzagging","honeypot","eventType","view_history","slider_start","which_type","canvas_config","goals_layout","control_level","trial_number","tutorial_trial_number","trial_start_time","phase1_start_time","phase2_start_time","phase3_start_time","goal_1_value","goal_1_distance","goal_2_value","goal_2_distance","goal_selected","outcome","outcome_total","participant_final_score","participant_initial_score","participant_final_score_prop","goal_choice_rt","allocated_time","allocated_time_remaining","goal_direction","counts","mouse_movements","key_presses","question_order","question_id"
"45754","1752653884978","<p style='font-size:40px;line-height:1.25'><strong>Welcome to the experiment!</strong></p><p style='font-size:1.1em;line-height:1.25'>Thank you for participanting in our experiment again! You will be asked to play the Dysfunctional Ball Game again. We will briefly recap the rules before we start.</p><p style='font-size:1.1em;line-height:1.25'>Press <strong>Next</strong> to continue.</p>","0","custom-html-button-response","0","45757","0.0-0.0","38","1","2025-07-16 08:17:15","1f75c3e559b7213887762d5229550c2b","154.117.143.238","Mozilla/5.0 (Windows NT 10.0; Win64; x64) AppleWebKit/537.36 (KHTML, like Gecko) Chrome/138.0.0.0 Safari/537.36","WebKit","Chrome","138.0.0.0","Windows","10.0","https://app.prolific.com/","en-US,en;q=0.9","60ad28c6d838565067ab1b6c","686e379bc37a29ffa5cdc956","68776003d8d80ea8c5336e3f","1","1","60ad28c6d838565067ab1b6c","1","1","2025-07-16T08:18:04.979Z","","","","","","","","","","","","","","","","","","","","","","","","","","","","","","","","","","","","","","","","","",""
"448547","","","","fullscreen","1","495321","0.0-1.0","38","1","2025-07-16 08:17:15","1f75c3e559b7213887762d5229550c2b","154.117.143.238","Mozilla/5.0 (Windows NT 10.0; Win64; x64) AppleWebKit/537.36 (KHTML, like Gecko) Chrome/138.0.0.0 Safari/537.36","WebKit","Chrome","138.0.0.0","Windows","10.0","https://app.prolific.com/","en-US,en;q=0.9","60ad28c6d838565067ab1b6c","686e379bc37a29ffa5cdc956","68776003d8d80ea8c5336e3f","1","1","60ad28c6d838565067ab1b6c","1","1","","true","","","","","","","","","","","","","","","","","","","","","","","","","","","","","","","","","","","","","","","","",""
"2597","1752654337141","<p style='font-size:1.1em;line-height:1.25'>In the following, we will ask you a few questions relating to your feelings in the last 24 hours.<br></p><p style='font-size:1.1em;line-height:1.25'>Press the <strong>Next</strong> button to continue.</p>","0","custom-html-button-response","2","497920","0.0-2.0-0.0","38","1","2025-07-16 08:17:15","1f75c3e559b7213887762d5229550c2b","154.117.143.238","Mozilla/5.0 (Windows NT 10.0; Win64; x64) AppleWebKit/537.36 (KHTML, like Gecko) Chrome/138.0.0.0 Safari/537.36","WebKit","Chrome","138.0.0.0","Windows","10.0","https://app.prolific.com/","en-US,en;q=0.9","60ad28c6d838565067ab1b6c","686e379bc37a29ffa5cdc956","68776003d8d80ea8c5336e3f","1","1","60ad28c6d838565067ab1b6c","1","1","2025-07-16T08:25:37.142Z","","","","","","","","","","","","","","","","","","","","","","","","","","","","","","","","","","","","","","","","","",""
"58864.09999999404","","","","survey-template","3","556791","0.0-2.0-1.0","38","1","2025-07-16 08:17:15","1f75c3e559b7213887762d5229550c2b","154.117.143.238","Mozilla/5.0 (Windows NT 10.0; Win64; x64) AppleWebKit/537.36 (KHTML, like Gecko) Chrome/138.0.0.0 Safari/537.36","WebKit","Chrome","138.0.0.0","Windows","10.0","https://app.prolific.com/","en-US,en;q=0.9","60ad28c6d838565067ab1b6c","686e379bc37a29ffa5cdc956","68776003d8d80ea8c5336e3f","1","1","60ad28c6d838565067ab1b6c","1","1","2025-07-16T08:26:36.013Z","","{""Q01"":""2"",""Q02"":""2"",""Q03"":""2"",""Q04"":""3"",""Q05"":""1"",""Q06"":""2"",""Q07"":""2"",""Q08"":""1"",""Q09"":""1"",""Q10"":""3"",""Q11"":""3"",""Q12"":""2"",""Q13"":""5"",""Q14"":""2"",""Q15"":""3"",""Q16"":""3"",""Q17"":""2"",""Q18"":""1"",""Q19"":""2"",""Q20"":""2"",""Q21"":""1"",""Q22"":""1""}","[0,1,2,3,4,5,6,7,8,9,10,11,12,13,14,15,16,17,18,19,20,21]","[""Q01"",""Q02"",""Q03"",""Q04"",""Q05"",""Q06"",""Q07"",""Q08"",""Q08"",""Q09"",""Q10"",""Q11"",""Q12"",""Q13"",""Q14"",""Q15"",""Q16"",""Q17"",""Q18"",""Q19"",""Q20"",""Q21"",""Q22""]","[10936.59999999404,12245.59999999404,13169.29999999702,14392.59999999404,16958.89999999106,18322.59999999404,20367,23067.89999999106,24233.79999999702,27692.79999999702,29805.5,31267.89999999106,32702.59999999404,35030,39207.70000000298,41720.09999999404,43855.29999999702,46963.89999999106,47936.20000000298,50710.79999999702,53914.70000000298,56261.79999999702,57772.20000000298]","[]","[0.09999999403953552,9947.20000000298,10244.09999999404,10936.59999999404,12245.59999999404,13169.29999999702,14392.59999999404,15613.79999999702,16958.89999999106,18322.59999999404,20367,23067.89999999106,24233.79999999702,27692.79999999702,29805.5,31267.89999999106,32702.59999999404,35030,39207.70000000298,41720.09999999404,43855.29999999702,46223.89999999106,46963.89999999106,47936.20000000298,50710.79999999702,53914.70000000298,56261.79999999702,57772.20000000298,58854.5]","0.45454545454545453","0.42857142857142855","0","drsp","","","","","","","","","","","","","","","","","","","","","","","","","","","","","","",""
"66988.39999999106","","","","survey-template","4","623781","0.0-2.0-2.0","38","1","2025-07-16 08:17:15","1f75c3e559b7213887762d5229550c2b","154.117.143.238","Mozilla/5.0 (Windows NT 10.0; Win64; x64) AppleWebKit/537.36 (KHTML, like Gecko) Chrome/138.0.0.0 Safari/537.36","WebKit","Chrome","138.0.0.0","Windows","10.0","https://app.prolific.com/","en-US,en;q=0.9","60ad28c6d838565067ab1b6c","686e379bc37a29ffa5cdc956","68776003d8d80ea8c5336e3f","1","1","60ad28c6d838565067ab1b6c","1","1","2025-07-16T08:27:43.003Z","","{""Q01"":""3"",""Q02"":""3"",""Q03"":""2""}","[0,1,2]","[""Q01"",""Q02"",""Q03""]","[61236,63196,65745.39999999106]","[]","[61236,63196,65745.39999999106,66986.39999999106]","0.6666666666666666","0.5","0","stress","","","","","","","","","","","","","","","","","","","","","","","","","","","","","","",""
"120733","","","","instructions","5","744516","0.0-3.0-0.0","38","1","2025-07-16 08:17:15","1f75c3e559b7213887762d5229550c2b","154.117.143.238","Mozilla/5.0 (Windows NT 10.0; Win64; x64) AppleWebKit/537.36 (KHTML, like Gecko) Chrome/138.0.0.0 Safari/537.36","WebKit","Chrome","138.0.0.0","Windows","10.0","https://app.prolific.com/","en-US,en;q=0.9","60ad28c6d838565067ab1b6c","686e379bc37a29ffa5cdc956","68776003d8d80ea8c5336e3f","1","1","60ad28c6d838565067ab1b6c","1","1","","","","","","","","","","","","","[{""page_index"":0,""viewing_time"":120731}]","","","","","","","","","","","","","","","","","","","","","","","","","","","","","",""
"6824","","<p>Before you start with this game please answer the following three questions yourself. </p>
  <p>Through this game, we measure several aspects of your cognitive performance, such as reaction times, multi-tasking capabilities </p>
  <p>and the ability to assess the situation you are in.</p>
  <p></p>
  <p><b>How good do you usually are in such tasks?</b></p>","89","html-slider-response","6","751343","0.0-4.0-0.0","38","1","2025-07-16 08:17:15","1f75c3e559b7213887762d5229550c2b","154.117.143.238","Mozilla/5.0 (Windows NT 10.0; Win64; x64) AppleWebKit/537.36 (KHTML, like Gecko) Chrome/138.0.0.0 Safari/537.36","WebKit","Chrome","138.0.0.0","Windows","10.0","https://app.prolific.com/","en-US,en;q=0.9","60ad28c6d838565067ab1b6c","686e379bc37a29ffa5cdc956","68776003d8d80ea8c5336e3f","1","1","60ad28c6d838565067ab1b6c","1","1","2025-07-16T08:29:50.565Z","","","","","","","","","","","PreSkillQ","","50","","","","","","","","","","","","","","","","","","","","","","","","","","","","",""
"3326","","<div style=""width:500px;"">
  <p>How well do you think you will perform in this task compared to other participants?</p>
  </div>","86","html-slider-response","7","754671","0.0-4.0-1.0","38","1","2025-07-16 08:17:15","1f75c3e559b7213887762d5229550c2b","154.117.143.238","Mozilla/5.0 (Windows NT 10.0; Win64; x64) AppleWebKit/537.36 (KHTML, like Gecko) Chrome/138.0.0.0 Safari/537.36","WebKit","Chrome","138.0.0.0","Windows","10.0","https://app.prolific.com/","en-US,en;q=0.9","60ad28c6d838565067ab1b6c","686e379bc37a29ffa5cdc956","68776003d8d80ea8c5336e3f","1","1","60ad28c6d838565067ab1b6c","1","1","2025-07-16T08:29:53.894Z","","","","","","","","","","","PrePerfQ","","50","","","","","","","","","","","","","","","","","","","","","","","","","","","","",""
"2959","","<div style=""width:500px;"">
  <p>What best describes how you currently feel?</p>
  </div>","78","html-slider-response","8","757632","0.0-4.0-2.0","38","1","2025-07-16 08:17:15","1f75c3e559b7213887762d5229550c2b","154.117.143.238","Mozilla/5.0 (Windows NT 10.0; Win64; x64) AppleWebKit/537.36 (KHTML, like Gecko) Chrome/138.0.0.0 Safari/537.36","WebKit","Chrome","138.0.0.0","Windows","10.0","https://app.prolific.com/","en-US,en;q=0.9","60ad28c6d838565067ab1b6c","686e379bc37a29ffa5cdc956","68776003d8d80ea8c5336e3f","1","1","60ad28c6d838565067ab1b6c","1","1","2025-07-16T08:29:56.855Z","","","","","","","","","","","PreMotivationQ","","50","","","","","","","","","","","","","","","","","","","","","","","","","","","","",""
"","","","","ctl-task-cpt","9","797705","0.0-5.0-0.0","38","1","2025-07-16 08:17:15","1f75c3e559b7213887762d5229550c2b","154.117.143.238","Mozilla/5.0 (Windows NT 10.0; Win64; x64) AppleWebKit/537.36 (KHTML, like Gecko) Chrome/138.0.0.0 Safari/537.36","WebKit","Chrome","138.0.0.0","Windows","10.0","https://app.prolific.com/","en-US,en;q=0.9","60ad28c6d838565067ab1b6c","686e379bc37a29ffa5cdc956","68776003d8d80ea8c5336e3f","1","1","60ad28c6d838565067ab1b6c","1","1","2025-07-16T08:30:36.927Z","","","","","","","","","","","","","","win-only","2","g1:SE,g2:NW","1","1","0","762791.8","7323.7","12325.8","37064.7","1","4","4","6","2","4","4","4","0","0.030303030303030304","1602.4","3000","10","[""left"",""up""]","{""num_key_presses"":6,""num_perfect"":6,""num_errors"":0,""num_randdir"":0,""num_randdir_good_moves"":0,""num_whilered"":0,""num_whileblue"":0,""num_blue"":3,""num_good_moves"":6}","[351.9642857142857,347.21428666796004,0.3,351.9642857142857,347.21428666796004,101.9,351.9642857142857,347.21428666796004,202.5,351.9642857142857,347.21428666796004,308.1,351.9642857142857,347.21428666796004,416.9,351.9642857142857,347.21428666796004,517.5,261.9642857142857,302.21428666796004,622.7,6.964285714285715,64.71428666796004,728.4,6.964285714285715,62.21428666796003,833.2,3.2142857142857153,54.71428666796003,935.8,31.964285714285715,52.21428666796003,1038,49.464285714285715,49.71428666796003,1138,51.964285714285715,52.21428666796003,1243.2,51.964285714285715,52.21428666796003,1349.9,51.964285714285715,52.21428666796003,1449.9,51.964285714285715,52.21428666796003,1550.2,51.964285714285715,52.21428666796003,1650.2,51.964285714285715,52.21428666796003,1752.7,51.964285714285715,52.21428666796003,1857.4,51.964285714285715,52.21428666796003,1958.2,51.964285714285715,52.21428666796003,2067.1,51.964285714285715,52.21428666796003,2172.5,51.964285714285715,52.21428666796003,2272.7,51.964285714285715,52.21428666796003,2383.5,51.964285714285715,52.21428666796003,2488,51.964285714285715,52.21428666796003,2592.6,51.964285714285715,52.21428666796003,2699.8,51.964285714285715,52.21428666796003,2802.1,51.964285714285715,52.21428666796003,2902.3,51.964285714285715,52.21428666796003,3007.9,51.964285714285715,52.21428666796003,3108,51.964285714285715,52.21428666796003,3216.8,51.964285714285715,52.21428666796003,3316.8,51.964285714285715,52.21428666796003,3416.9,51.964285714285715,52.21428666796003,3521.9,51.964285714285715,52.21428666796003,3633.5,51.964285714285715,52.21428666796003,3738,51.964285714285715,52.21428666796003,3842.7,51.964285714285715,52.21428666796003,3949.8,51.964285714285715,52.21428666796003,4049.9,51.964285714285715,52.21428666796003,4152.1,51.964285714285715,52.21428666796003,4252.7,51.964285714285715,52.21428666796003,4357.7,51.964285714285715,52.21428666796003,4457.7,51.964285714285715,52.21428666796003,4557.9,51.964285714285715,52.21428666796003,4666.7,51.964285714285715,52.21428666796003,4766.7,51.964285714285715,52.21428666796003,4866.7,51.964285714285715,52.21428666796003,4972.1]","[1815.2,1815.2,1000,0,815.2,""smooth"",""up"",""up"",""good_move"",4580.8,2765.2,1985,1815.8,780.1,""smooth"",""left"",""left"",""good_move"",13249.6,8668.1,2537.1,10350.4,362.1,""smooth"",""left"",""left"",""good_move"",15290.2,2040.4,1348.9,13249.8,691.5,""smooth"",""up"",""up"",""good_move"",22484.1,7193.7,2809,19341.6,333.5,""smooth"",""left"",""left"",""good_move"",24630.5,2146.1,1777.6,22484.4,368.5,""smooth"",""up"",""up"",""good_move""]","",""
"7609","","<div style=""width:500px;"">
  <p>What determined the result of this run?</p>
  </div>","76","html-slider-response","10","805316","0.0-5.0-1.0","38","1","2025-07-16 08:17:15","1f75c3e559b7213887762d5229550c2b","154.117.143.238","Mozilla/5.0 (Windows NT 10.0; Win64; x64) AppleWebKit/537.36 (KHTML, like Gecko) Chrome/138.0.0.0 Safari/537.36","WebKit","Chrome","138.0.0.0","Windows","10.0","https://app.prolific.com/","en-US,en;q=0.9","60ad28c6d838565067ab1b6c","686e379bc37a29ffa5cdc956","68776003d8d80ea8c5336e3f","1","1","60ad28c6d838565067ab1b6c","1","1","2025-07-16T08:30:44.538Z","","","","","","","","","","","AttribQ","","50","","","","","","","","","","","","","","","","","","","","","","","","","","","","",""
"37132","","<div style=""width:500px;"">
  <p>How much control did you have over the ball?</p>
  </div>","78","html-slider-response","11","842449","0.0-5.0-2.0","38","1","2025-07-16 08:17:15","1f75c3e559b7213887762d5229550c2b","154.117.143.238","Mozilla/5.0 (Windows NT 10.0; Win64; x64) AppleWebKit/537.36 (KHTML, like Gecko) Chrome/138.0.0.0 Safari/537.36","WebKit","Chrome","138.0.0.0","Windows","10.0","https://app.prolific.com/","en-US,en;q=0.9","60ad28c6d838565067ab1b6c","686e379bc37a29ffa5cdc956","68776003d8d80ea8c5336e3f","1","1","60ad28c6d838565067ab1b6c","1","1","2025-07-16T08:31:21.671Z","","","","","","","","","","","ControlQ","","50","","","","","","","","","","","","","","","","","","","","","","","","","","","","",""
"3329","","<div style=""width:500px;"">
  <p>How would you describe your current emotional state?</p>
  </div>","17","html-slider-response","12","845780","0.0-5.0-3.0","38","1","2025-07-16 08:17:15","1f75c3e559b7213887762d5229550c2b","154.117.143.238","Mozilla/5.0 (Windows NT 10.0; Win64; x64) AppleWebKit/537.36 (KHTML, like Gecko) Chrome/138.0.0.0 Safari/537.36","WebKit","Chrome","138.0.0.0","Windows","10.0","https://app.prolific.com/","en-US,en;q=0.9","60ad28c6d838565067ab1b6c","686e379bc37a29ffa5cdc956","68776003d8d80ea8c5336e3f","1","1","60ad28c6d838565067ab1b6c","1","1","2025-07-16T08:31:25.002Z","","","","","","","","","","","StressQ","","50","","","","","","","","","","","","","","","","","","","","","","","","","","","","",""
"2693","","<div style=""width:500px;"">
  <p>What best describes how you currently feel?</p>
  </div>","81","html-slider-response","13","848474","0.0-5.0-4.0","38","1","2025-07-16 08:17:15","1f75c3e559b7213887762d5229550c2b","154.117.143.238","Mozilla/5.0 (Windows NT 10.0; Win64; x64) AppleWebKit/537.36 (KHTML, like Gecko) Chrome/138.0.0.0 Safari/537.36","WebKit","Chrome","138.0.0.0","Windows","10.0","https://app.prolific.com/","en-US,en;q=0.9","60ad28c6d838565067ab1b6c","686e379bc37a29ffa5cdc956","68776003d8d80ea8c5336e3f","1","1","60ad28c6d838565067ab1b6c","1","1","2025-07-16T08:31:27.696Z","","","","","","","","","","","MotivationQ","","50","","","","","","","","","","","","","","","","","","","","","","","","","","","","",""
"","","","","ctl-task-cpt","14","871665","0.0-5.0-0.1","38","1","2025-07-16 08:17:15","1f75c3e559b7213887762d5229550c2b","154.117.143.238","Mozilla/5.0 (Windows NT 10.0; Win64; x64) AppleWebKit/537.36 (KHTML, like Gecko) Chrome/138.0.0.0 Safari/537.36","WebKit","Chrome","138.0.0.0","Windows","10.0","https://app.prolific.com/","en-US,en;q=0.9","60ad28c6d838565067ab1b6c","686e379bc37a29ffa5cdc956","68776003d8d80ea8c5336e3f","1","1","60ad28c6d838565067ab1b6c","1","1","2025-07-16T08:31:50.887Z","","","","","","","","","","","","","","win-only","0","g1:NW,g2:SE","0.9","2","0","853632","1346.4","6351.3","20181.9","1","4","8","6","1","1","1","5","4","0.03787878787878788","2051.7","3000","1400","[""left"",""up""]","{""num_key_presses"":4,""num_perfect"":4,""num_errors"":0,""num_randdir"":0,""num_randdir_good_moves"":0,""num_whilered"":0,""num_whileblue"":0,""num_blue"":1,""num_good_moves"":4}","[286.39285618918285,291.64285714285717,0.1,286.39285618918285,291.64285714285717,101.9,286.39285618918285,291.64285714285717,205.5,286.39285618918285,291.64285714285717,306.3,286.39285618918285,291.64285714285717,410.5,286.39285618918285,291.64285714285717,515.9,288.89285618918285,292.89285714285717,617,512.6428561891828,481.64285714285717,718.9,568.8928561891828,526.6428571428571,820,570.1428561891828,527.8928571428571,921.2,568.8928561891828,530.3928571428571,1025.3,568.8928561891828,530.3928571428571,1129.7,568.8928561891828,530.3928571428571,1234.3,568.8928561891828,530.3928571428571,1335.6,568.8928561891828,530.3928571428571,1440.3,338.89285618918285,267.89285714285717,1544.2,163.89285618918282,107.89285714285714,1644.6,143.89285618918282,90.39285714285714,1744.7,103.89285618918282,51.642857142857146,1845,63.89285618918283,37.892857142857146,1947.6,63.89285618918283,37.892857142857146,2049.5,63.89285618918283,37.892857142857146,2151.1,63.89285618918283,37.892857142857146,2254.6,63.89285618918283,37.892857142857146,2360,63.89285618918283,37.892857142857146,2464.8,63.89285618918283,37.892857142857146,2569.8,63.89285618918283,37.892857142857146,2674.7,63.89285618918283,37.892857142857146,2779.5,63.89285618918283,37.892857142857146,2880,63.89285618918283,37.892857142857146,2980.5,63.89285618918283,37.892857142857146,3084.1,63.89285618918283,37.892857142857146,3184.3,63.89285618918283,37.892857142857146,3284.3,63.89285618918283,37.892857142857146,3385.4,63.89285618918283,37.892857142857146,3490,63.89285618918283,37.892857142857146,3594.3,63.89285618918283,37.892857142857146,3694.9,63.89285618918283,37.892857142857146,3799.1,63.89285618918283,37.892857142857146,3899.2,63.89285618918283,37.892857142857146,4000.4,63.89285618918283,37.892857142857146,4101.5,63.89285618918283,37.892857142857146,4205.1,63.89285618918283,37.892857142857146,4309.8,63.89285618918283,37.892857142857146,4409.9,63.89285618918283,37.892857142857146,4514.8,63.89285618918283,37.892857142857146,4615.4,63.89285618918283,37.892857142857146,4715.4,63.89285618918283,37.892857142857146,4819.3,63.89285618918283,37.892857142857146,4919.9]","[4505.8,4505.8,2106.6,2010,389.2,""smooth"",""up"",""up"",""good_move"",7592.4,3086.2,2711.5,4506.2,374.7,""smooth"",""left"",""left"",""good_move"",10648.7,3055.9,2526.6,7592.8,529.3,""smooth"",""up"",""up"",""good_move"",13739.5,3090.6,2753.8,10648.9,336.8,""smooth"",""left"",""left"",""good_move""]","",""
"4051","","<div style=""width:500px;"">
  <p>What determined the result of this run?</p>
  </div>","79","html-slider-response","15","875718","0.0-5.0-1.1","38","1","2025-07-16 08:17:15","1f75c3e559b7213887762d5229550c2b","154.117.143.238","Mozilla/5.0 (Windows NT 10.0; Win64; x64) AppleWebKit/537.36 (KHTML, like Gecko) Chrome/138.0.0.0 Safari/537.36","WebKit","Chrome","138.0.0.0","Windows","10.0","https://app.prolific.com/","en-US,en;q=0.9","60ad28c6d838565067ab1b6c","686e379bc37a29ffa5cdc956","68776003d8d80ea8c5336e3f","1","1","60ad28c6d838565067ab1b6c","1","1","2025-07-16T08:31:54.940Z","","","","","","","","","","","AttribQ","","50","","","","","","","","","","","","","","","","","","","","","","","","","","","","",""
"2652","","<div style=""width:500px;"">
  <p>How much control did you have over the ball?</p>
  </div>","79","html-slider-response","16","878370","0.0-5.0-2.1","38","1","2025-07-16 08:17:15","1f75c3e559b7213887762d5229550c2b","154.117.143.238","Mozilla/5.0 (Windows NT 10.0; Win64; x64) AppleWebKit/537.36 (KHTML, like Gecko) Chrome/138.0.0.0 Safari/537.36","WebKit","Chrome","138.0.0.0","Windows","10.0","https://app.prolific.com/","en-US,en;q=0.9","60ad28c6d838565067ab1b6c","686e379bc37a29ffa5cdc956","68776003d8d80ea8c5336e3f","1","1","60ad28c6d838565067ab1b6c","1","1","2025-07-16T08:31:57.593Z","","","","","","","","","","","ControlQ","","50","","","","","","","","","","","","","","","","","","","","","","","","","","","","",""
"1894","","<div style=""width:500px;"">
  <p>How would you describe your current emotional state?</p>
  </div>","19","html-slider-response","17","880266","0.0-5.0-3.1","38","1","2025-07-16 08:17:15","1f75c3e559b7213887762d5229550c2b","154.117.143.238","Mozilla/5.0 (Windows NT 10.0; Win64; x64) AppleWebKit/537.36 (KHTML, like Gecko) Chrome/138.0.0.0 Safari/537.36","WebKit","Chrome","138.0.0.0","Windows","10.0","https://app.prolific.com/","en-US,en;q=0.9","60ad28c6d838565067ab1b6c","686e379bc37a29ffa5cdc956","68776003d8d80ea8c5336e3f","1","1","60ad28c6d838565067ab1b6c","1","1","2025-07-16T08:31:59.488Z","","","","","","","","","","","StressQ","","50","","","","","","","","","","","","","","","","","","","","","","","","","","","","",""
"1754","","<div style=""width:500px;"">
  <p>What best describes how you currently feel?</p>
  </div>","81","html-slider-response","18","882021","0.0-5.0-4.1","38","1","2025-07-16 08:17:15","1f75c3e559b7213887762d5229550c2b","154.117.143.238","Mozilla/5.0 (Windows NT 10.0; Win64; x64) AppleWebKit/537.36 (KHTML, like Gecko) Chrome/138.0.0.0 Safari/537.36","WebKit","Chrome","138.0.0.0","Windows","10.0","https://app.prolific.com/","en-US,en;q=0.9","60ad28c6d838565067ab1b6c","686e379bc37a29ffa5cdc956","68776003d8d80ea8c5336e3f","1","1","60ad28c6d838565067ab1b6c","1","1","2025-07-16T08:32:01.243Z","","","","","","","","","","","MotivationQ","","50","","","","","","","","","","","","","","","","","","","","","","","","","","","","",""
"","","","","ctl-task-cpt","19","910500","0.0-5.0-0.2","38","1","2025-07-16 08:17:15","1f75c3e559b7213887762d5229550c2b","154.117.143.238","Mozilla/5.0 (Windows NT 10.0; Win64; x64) AppleWebKit/537.36 (KHTML, like Gecko) Chrome/138.0.0.0 Safari/537.36","WebKit","Chrome","138.0.0.0","Windows","10.0","https://app.prolific.com/","en-US,en;q=0.9","60ad28c6d838565067ab1b6c","686e379bc37a29ffa5cdc956","68776003d8d80ea8c5336e3f","1","1","60ad28c6d838565067ab1b6c","1","1","2025-07-16T08:32:29.722Z","","","","","","","","","","","","","","win-only","1","g1:NE,g2:SW","0.8","3","0","887176.4","1154.9","6155.7","25461.1","1","4","4","6","2","4","3","8","5","0.06060606060606061","1602.5","3000","980","[""down"",""left""]","{""num_key_presses"":7,""num_perfect"":6,""num_errors"":1,""num_randdir"":0,""num_randdir_good_moves"":0,""num_whilered"":0,""num_whileblue"":0,""num_blue"":0,""num_good_moves"":6}","[286.39285618918285,284.14285714285717,0.2,286.39285618918285,284.14285714285717,100.4,286.39285618918285,284.14285714285717,200.5,286.39285618918285,284.14285714285717,300.6,286.39285618918285,284.14285714285717,406,286.39285618918285,284.14285714285717,506.4,286.39285618918285,284.14285714285717,611.7,286.39285618918285,284.14285714285717,716.4,286.39285618918285,284.14285714285717,816.6,83.89285618918282,455.39285714285717,916.6,41.39285618918283,490.39285714285717,1017.6,42.64285618918283,490.39285714285717,1120.9,46.39285618918283,490.39285714285717,1221.3,56.39285618918283,500.39285714285717,1321.6,57.64285618918283,505.39285714285717,1426.5,55.14285618918283,506.64285714285717,1533.8,55.14285618918283,506.64285714285717,1633.8,55.14285618918283,506.64285714285717,1736.6,55.14285618918283,506.64285714285717,1840.8,55.14285618918283,506.64285714285717,1950.1,55.14285618918283,506.64285714285717,2050.2,55.14285618918283,506.64285714285717,2150.2,55.14285618918283,506.64285714285717,2250.4,55.14285618918283,506.64285714285717,2356.2,55.14285618918283,506.64285714285717,2461.4,55.14285618918283,506.64285714285717,2567.8,152.64285618918282,351.64285714285717,2671.2,473.89285618918285,-79.60714285714286,2771.6,473.89285618918285,-79.60714285714286,2875.8,473.89285618918285,-79.60714285714286,2976,473.89285618918285,-79.60714285714286,3083.8,473.89285618918285,-79.60714285714286,3184.2,473.89285618918285,-79.60714285714286,3286.6,473.89285618918285,-79.60714285714286,3391.3,473.89285618918285,-79.60714285714286,3491.4,473.89285618918285,-79.60714285714286,3599.9,473.89285618918285,-79.60714285714286,3700.1,473.89285618918285,-79.60714285714286,3800.7,473.89285618918285,-79.60714285714286,3900.8,473.89285618918285,-79.60714285714286,4006.6,473.89285618918285,-79.60714285714286,4116.6,473.89285618918285,-79.60714285714286,4216.7,473.89285618918285,-79.60714285714286,4316.9,473.89285618918285,-79.60714285714286,4421,473.89285618918285,-79.60714285714286,4521.2,473.89285618918285,-79.60714285714286,4626.7,473.89285618918285,-79.60714285714286,4733.3,473.89285618918285,-79.60714285714286,4836.3,473.89285618918285,-79.60714285714286,4936.3]","[1399.1,1399.1,1000,0,399.1,""smooth"",""down"",""down"",""good_move"",4898.1,3498.6,3094.1,1399.5,404.5,""smooth"",""left"",""left"",""good_move"",6748.1,1849.7,2677.6,4898.4,-827.9,""error"",""-"",""-"",""no_move"",10932.9,4184.5,2812.9,7748.7,371.4,""smooth"",""down"",""down"",""good_move"",13464.7,2531.5,2142.2,10933.2,389.3,""smooth"",""left"",""left"",""good_move"",16081.8,2617,2229.1,13464.8,387.9,""smooth"",""down"",""down"",""good_move"",19202.6,3120.6,2774.7,16082,345.9,""smooth"",""left"",""left"",""good_move""]","",""
"24649","","<div style=""width:500px;"">
  <p>What determined the result of this run?</p>
  </div>","79","html-slider-response","20","935150","0.0-5.0-1.2","38","1","2025-07-16 08:17:15","1f75c3e559b7213887762d5229550c2b","154.117.143.238","Mozilla/5.0 (Windows NT 10.0; Win64; x64) AppleWebKit/537.36 (KHTML, like Gecko) Chrome/138.0.0.0 Safari/537.36","WebKit","Chrome","138.0.0.0","Windows","10.0","https://app.prolific.com/","en-US,en;q=0.9","60ad28c6d838565067ab1b6c","686e379bc37a29ffa5cdc956","68776003d8d80ea8c5336e3f","1","1","60ad28c6d838565067ab1b6c","1","1","2025-07-16T08:32:54.372Z","","","","","","","","","","","AttribQ","","50","","","","","","","","","","","","","","","","","","","","","","","","","","","","",""
"2331","","<div style=""width:500px;"">
  <p>How much control did you have over the ball?</p>
  </div>","82","html-slider-response","21","937483","0.0-5.0-2.2","38","1","2025-07-16 08:17:15","1f75c3e559b7213887762d5229550c2b","154.117.143.238","Mozilla/5.0 (Windows NT 10.0; Win64; x64) AppleWebKit/537.36 (KHTML, like Gecko) Chrome/138.0.0.0 Safari/537.36","WebKit","Chrome","138.0.0.0","Windows","10.0","https://app.prolific.com/","en-US,en;q=0.9","60ad28c6d838565067ab1b6c","686e379bc37a29ffa5cdc956","68776003d8d80ea8c5336e3f","1","1","60ad28c6d838565067ab1b6c","1","1","2025-07-16T08:32:56.705Z","","","","","","","","","","","ControlQ","","50","","","","","","","","","","","","","","","","","","","","","","","","","","","","",""
"2678","","<div style=""width:500px;"">
  <p>How would you describe your current emotional state?</p>
  </div>","13","html-slider-response","22","940162","0.0-5.0-3.2","38","1","2025-07-16 08:17:15","1f75c3e559b7213887762d5229550c2b","154.117.143.238","Mozilla/5.0 (Windows NT 10.0; Win64; x64) AppleWebKit/537.36 (KHTML, like Gecko) Chrome/138.0.0.0 Safari/537.36","WebKit","Chrome","138.0.0.0","Windows","10.0","https://app.prolific.com/","en-US,en;q=0.9","60ad28c6d838565067ab1b6c","686e379bc37a29ffa5cdc956","68776003d8d80ea8c5336e3f","1","1","60ad28c6d838565067ab1b6c","1","1","2025-07-16T08:32:59.384Z","","","","","","","","","","","StressQ","","50","","","","","","","","","","","","","","","","","","","","","","","","","","","","",""
"1881","","<div style=""width:500px;"">
  <p>What best describes how you currently feel?</p>
  </div>","84","html-slider-response","23","942045","0.0-5.0-4.2","38","1","2025-07-16 08:17:15","1f75c3e559b7213887762d5229550c2b","154.117.143.238","Mozilla/5.0 (Windows NT 10.0; Win64; x64) AppleWebKit/537.36 (KHTML, like Gecko) Chrome/138.0.0.0 Safari/537.36","WebKit","Chrome","138.0.0.0","Windows","10.0","https://app.prolific.com/","en-US,en;q=0.9","60ad28c6d838565067ab1b6c","686e379bc37a29ffa5cdc956","68776003d8d80ea8c5336e3f","1","1","60ad28c6d838565067ab1b6c","1","1","2025-07-16T08:33:01.267Z","","","","","","","","","","","MotivationQ","","50","","","","","","","","","","","","","","","","","","","","","","","","","","","","",""
"","","","","ctl-task-cpt","24","961528","0.0-5.0-0.3","38","1","2025-07-16 08:17:15","1f75c3e559b7213887762d5229550c2b","154.117.143.238","Mozilla/5.0 (Windows NT 10.0; Win64; x64) AppleWebKit/537.36 (KHTML, like Gecko) Chrome/138.0.0.0 Safari/537.36","WebKit","Chrome","138.0.0.0","Windows","10.0","https://app.prolific.com/","en-US,en;q=0.9","60ad28c6d838565067ab1b6c","686e379bc37a29ffa5cdc956","68776003d8d80ea8c5336e3f","1","1","60ad28c6d838565067ab1b6c","1","1","2025-07-16T08:33:20.750Z","","","","","","","","","","","","","","win-only","3","g1:SW,g2:NE","0.7","4","0","947202.7","1502.6","6514.5","16465.3","1","4","8","6","1","1","1","9","8","0.06818181818181818","2512.7","3000","1410","[""down"",""left""]","{""num_key_presses"":4,""num_perfect"":3,""num_errors"":0,""num_randdir"":1,""num_randdir_good_moves"":1,""num_whilered"":0,""num_whileblue"":0,""num_blue"":0,""num_good_moves"":4}","[288.89285618918285,286.64285714285717,0.4,288.89285618918285,286.64285714285717,103.3,288.89285618918285,286.64285714285717,203.8,288.89285618918285,286.64285714285717,312.4,288.89285618918285,286.64285714285717,413.4,288.89285618918285,286.64285714285717,517.8,288.89285618918285,286.64285714285717,618.1,288.89285618918285,286.64285714285717,726.2,288.89285618918285,286.64285714285717,828.4,288.89285618918285,286.64285714285717,928.7,288.89285618918285,286.64285714285717,1032.9,458.89285618918285,96.64285714285714,1133.5,616.3928561891828,29.142857142857146,1243.1,613.8928561891828,34.142857142857146,1343.3,588.8928561891828,41.642857142857146,1443.7,515.1428561891828,56.642857142857146,1543.8,512.6428561891828,52.892857142857146,1648.2,462.64285618918285,100.39285714285714,1748.2,158.89285618918282,412.89285714285717,1848.5,148.89285618918282,424.14285714285717,1948.5,148.89285618918282,424.14285714285717,2048.5,130.14285618918282,441.64285714285717,2148.6,93.89285618918282,471.64285714285717,2253.9,31.39285618918283,496.64285714285717,2360.2,31.39285618918283,496.64285714285717,2460.4,31.39285618918283,496.64285714285717,2562.9,31.39285618918283,496.64285714285717,2663.2,31.39285618918283,496.64285714285717,2764.1,55.14285618918283,461.64285714285717,2867.7,423.89285618918285,-23.357142857142854,2968.6,480.14285618918285,-63.357142857142854,3077.4,476.39285618918285,-65.85714285714286,3178.3,475.14285618918285,-78.35714285714286,3278.6,475.14285618918285,-78.35714285714286,3382.9,475.14285618918285,-78.35714285714286,3483.5,475.14285618918285,-78.35714285714286,3593.3,475.14285618918285,-78.35714285714286,3693.3,475.14285618918285,-78.35714285714286,3794.2,475.14285618918285,-78.35714285714286,3898.2,475.14285618918285,-78.35714285714286,3998.5,475.14285618918285,-78.35714285714286,4102.7,475.14285618918285,-78.35714285714286,4202.7,475.14285618918285,-78.35714285714286,4303.3,475.14285618918285,-78.35714285714286,4409.3,475.14285618918285,-78.35714285714286,4509.4,475.14285618918285,-78.35714285714286,4612.7,475.14285618918285,-78.35714285714286,4721.2,475.14285618918285,-78.35714285714286,4826.6,475.14285618918285,-78.35714285714286,4930]","[1435,1435,1000,0,435,""oops"",""down"",""left"",""good_move"",3851.3,2416,1996.1,1435.3,419.9,""smooth"",""down"",""down"",""good_move"",7496.3,3644.8,3252.4,3851.5,392.4,""smooth"",""left"",""left"",""good_move"",9845.7,2349.2,1797.1,7496.5,552.1,""smooth"",""down"",""down"",""good_move""]","",""
"7805","","<div style=""width:500px;"">
  <p>What determined the result of this run?</p>
  </div>","82","html-slider-response","25","969334","0.0-5.0-1.3","38","1","2025-07-16 08:17:15","1f75c3e559b7213887762d5229550c2b","154.117.143.238","Mozilla/5.0 (Windows NT 10.0; Win64; x64) AppleWebKit/537.36 (KHTML, like Gecko) Chrome/138.0.0.0 Safari/537.36","WebKit","Chrome","138.0.0.0","Windows","10.0","https://app.prolific.com/","en-US,en;q=0.9","60ad28c6d838565067ab1b6c","686e379bc37a29ffa5cdc956","68776003d8d80ea8c5336e3f","1","1","60ad28c6d838565067ab1b6c","1","1","2025-07-16T08:33:28.556Z","","","","","","","","","","","AttribQ","","50","","","","","","","","","","","","","","","","","","","","","","","","","","","","",""
"2338","","<div style=""width:500px;"">
  <p>How much control did you have over the ball?</p>
  </div>","81","html-slider-response","26","971673","0.0-5.0-2.3","38","1","2025-07-16 08:17:15","1f75c3e559b7213887762d5229550c2b","154.117.143.238","Mozilla/5.0 (Windows NT 10.0; Win64; x64) AppleWebKit/537.36 (KHTML, like Gecko) Chrome/138.0.0.0 Safari/537.36","WebKit","Chrome","138.0.0.0","Windows","10.0","https://app.prolific.com/","en-US,en;q=0.9","60ad28c6d838565067ab1b6c","686e379bc37a29ffa5cdc956","68776003d8d80ea8c5336e3f","1","1","60ad28c6d838565067ab1b6c","1","1","2025-07-16T08:33:30.895Z","","","","","","","","","","","ControlQ","","50","","","","","","","","","","","","","","","","","","","","","","","","","","","","",""
"2179","","<div style=""width:500px;"">
  <p>How would you describe your current emotional state?</p>
  </div>","12","html-slider-response","27","973854","0.0-5.0-3.3","38","1","2025-07-16 08:17:15","1f75c3e559b7213887762d5229550c2b","154.117.143.238","Mozilla/5.0 (Windows NT 10.0; Win64; x64) AppleWebKit/537.36 (KHTML, like Gecko) Chrome/138.0.0.0 Safari/537.36","WebKit","Chrome","138.0.0.0","Windows","10.0","https://app.prolific.com/","en-US,en;q=0.9","60ad28c6d838565067ab1b6c","686e379bc37a29ffa5cdc956","68776003d8d80ea8c5336e3f","1","1","60ad28c6d838565067ab1b6c","1","1","2025-07-16T08:33:33.076Z","","","","","","","","","","","StressQ","","50","","","","","","","","","","","","","","","","","","","","","","","","","","","","",""
"2274","","<div style=""width:500px;"">
  <p>What best describes how you currently feel?</p>
  </div>","81","html-slider-response","28","976130","0.0-5.0-4.3","38","1","2025-07-16 08:17:15","1f75c3e559b7213887762d5229550c2b","154.117.143.238","Mozilla/5.0 (Windows NT 10.0; Win64; x64) AppleWebKit/537.36 (KHTML, like Gecko) Chrome/138.0.0.0 Safari/537.36","WebKit","Chrome","138.0.0.0","Windows","10.0","https://app.prolific.com/","en-US,en;q=0.9","60ad28c6d838565067ab1b6c","686e379bc37a29ffa5cdc956","68776003d8d80ea8c5336e3f","1","1","60ad28c6d838565067ab1b6c","1","1","2025-07-16T08:33:35.352Z","","","","","","","","","","","MotivationQ","","50","","","","","","","","","","","","","","","","","","","","","","","","","","","","",""
"","","","","ctl-task-cpt","29","1011145","0.0-5.0-0.4","38","1","2025-07-16 08:17:15","1f75c3e559b7213887762d5229550c2b","154.117.143.238","Mozilla/5.0 (Windows NT 10.0; Win64; x64) AppleWebKit/537.36 (KHTML, like Gecko) Chrome/138.0.0.0 Safari/537.36","WebKit","Chrome","138.0.0.0","Windows","10.0","https://app.prolific.com/","en-US,en;q=0.9","60ad28c6d838565067ab1b6c","686e379bc37a29ffa5cdc956","68776003d8d80ea8c5336e3f","1","1","60ad28c6d838565067ab1b6c","1","1","2025-07-16T08:34:10.367Z","","","","","","","","","","","","","","win-only","3","g1:SW,g2:NE","0.6","5","0","981287.2","1394.1","6395.7","31994.2","1","4","4","6","2","4","4","13","9","0.09848484848484848","1101.5","3000","865","[""up"",""right""]","{""num_key_presses"":6,""num_perfect"":5,""num_errors"":0,""num_randdir"":1,""num_randdir_good_moves"":1,""num_whilered"":0,""num_whileblue"":0,""num_blue"":3,""num_good_moves"":6}","[283.89285618918285,279.14285714285717,0.2,283.89285618918285,279.14285714285717,101.5,283.89285618918285,279.14285714285717,206.4,283.89285618918285,279.14285714285717,311.2,396.39285618918285,139.14285714285714,412.2,463.89285618918285,70.39285714285714,516.7,471.39285618918285,70.39285714285714,617.6,503.89285618918285,56.642857142857146,721.5,523.8928561891828,46.642857142857146,822,537.6428561891828,44.142857142857146,927,542.6428561891828,42.892857142857146,1033.3,542.6428561891828,42.892857142857146,1134,542.6428561891828,42.892857142857146,1235.1,542.6428561891828,42.892857142857146,1337.2,546.3928561891828,17.892857142857146,1441.2,553.8928561891828,-62.107142857142854,1566.1,553.8928561891828,-62.107142857142854,1667.3,553.8928561891828,-62.107142857142854,1767.9,553.8928561891828,-62.107142857142854,1871.9,553.8928561891828,-62.107142857142854,1972.2,553.8928561891828,-62.107142857142854,2076.7,553.8928561891828,-62.107142857142854,2183.7,553.8928561891828,-62.107142857142854,2283.7,553.8928561891828,-62.107142857142854,2386.4,553.8928561891828,-62.107142857142854,2487.1,553.8928561891828,-62.107142857142854,2592.1,553.8928561891828,-62.107142857142854,2700.8,553.8928561891828,-62.107142857142854,2801.5,553.8928561891828,-62.107142857142854,2907,553.8928561891828,-62.107142857142854,3017.1,553.8928561891828,-62.107142857142854,3118.1,553.8928561891828,-62.107142857142854,3221.5,553.8928561891828,-62.107142857142854,3321.7,553.8928561891828,-62.107142857142854,3434.5,553.8928561891828,-62.107142857142854,3536.4,553.8928561891828,-62.107142857142854,3643.1,553.8928561891828,-62.107142857142854,3751.3,553.8928561891828,-62.107142857142854,3851.5,553.8928561891828,-62.107142857142854,3957,553.8928561891828,-62.107142857142854,4067.6,553.8928561891828,-62.107142857142854,4167.8,553.8928561891828,-62.107142857142854,4271.8,553.8928561891828,-62.107142857142854,4376.1,553.8928561891828,-62.107142857142854,4476.1,553.8928561891828,-62.107142857142854,4576.7,553.8928561891828,-62.107142857142854,4676.9,553.8928561891828,-62.107142857142854,4777.1,553.8928561891828,-62.107142857142854,4884.8,553.8928561891828,-62.107142857142854,4986.8]","[8031.9,8031.9,2208.6,5455.2,368.1,""smooth"",""right"",""right"",""good_move"",15647.2,7614.8,2538.2,12649.9,459.1,""smooth"",""up"",""up"",""good_move"",18398.8,2751.3,2346,15647.5,405.3,""smooth"",""right"",""right"",""good_move"",21331.4,2932.4,2525.5,18399,406.9,""smooth"",""up"",""up"",""good_move"",22916.7,1585.1,1150.6,21331.6,434.5,""oops"",""right"",""right"",""good_move"",25483,2566,2214.4,22917,351.6,""smooth"",""up"",""up"",""good_move""]","",""
"9927","","<div style=""width:500px;"">
  <p>What determined the result of this run?</p>
  </div>","82","html-slider-response","30","1021073","0.0-5.0-1.4","38","1","2025-07-16 08:17:15","1f75c3e559b7213887762d5229550c2b","154.117.143.238","Mozilla/5.0 (Windows NT 10.0; Win64; x64) AppleWebKit/537.36 (KHTML, like Gecko) Chrome/138.0.0.0 Safari/537.36","WebKit","Chrome","138.0.0.0","Windows","10.0","https://app.prolific.com/","en-US,en;q=0.9","60ad28c6d838565067ab1b6c","686e379bc37a29ffa5cdc956","68776003d8d80ea8c5336e3f","1","1","60ad28c6d838565067ab1b6c","1","1","2025-07-16T08:34:20.295Z","","","","","","","","","","","AttribQ","","50","","","","","","","","","","","","","","","","","","","","","","","","","","","","",""
"2438","","<div style=""width:500px;"">
  <p>How much control did you have over the ball?</p>
  </div>","86","html-slider-response","31","1023513","0.0-5.0-2.4","38","1","2025-07-16 08:17:15","1f75c3e559b7213887762d5229550c2b","154.117.143.238","Mozilla/5.0 (Windows NT 10.0; Win64; x64) AppleWebKit/537.36 (KHTML, like Gecko) Chrome/138.0.0.0 Safari/537.36","WebKit","Chrome","138.0.0.0","Windows","10.0","https://app.prolific.com/","en-US,en;q=0.9","60ad28c6d838565067ab1b6c","686e379bc37a29ffa5cdc956","68776003d8d80ea8c5336e3f","1","1","60ad28c6d838565067ab1b6c","1","1","2025-07-16T08:34:22.735Z","","","","","","","","","","","ControlQ","","50","","","","","","","","","","","","","","","","","","","","","","","","","","","","",""
"2557","","<div style=""width:500px;"">
  <p>How would you describe your current emotional state?</p>
  </div>","12","html-slider-response","32","1026071","0.0-5.0-3.4","38","1","2025-07-16 08:17:15","1f75c3e559b7213887762d5229550c2b","154.117.143.238","Mozilla/5.0 (Windows NT 10.0; Win64; x64) AppleWebKit/537.36 (KHTML, like Gecko) Chrome/138.0.0.0 Safari/537.36","WebKit","Chrome","138.0.0.0","Windows","10.0","https://app.prolific.com/","en-US,en;q=0.9","60ad28c6d838565067ab1b6c","686e379bc37a29ffa5cdc956","68776003d8d80ea8c5336e3f","1","1","60ad28c6d838565067ab1b6c","1","1","2025-07-16T08:34:25.294Z","","","","","","","","","","","StressQ","","50","","","","","","","","","","","","","","","","","","","","","","","","","","","","",""
"2598","","<div style=""width:500px;"">
  <p>What best describes how you currently feel?</p>
  </div>","83","html-slider-response","33","1028670","0.0-5.0-4.4","38","1","2025-07-16 08:17:15","1f75c3e559b7213887762d5229550c2b","154.117.143.238","Mozilla/5.0 (Windows NT 10.0; Win64; x64) AppleWebKit/537.36 (KHTML, like Gecko) Chrome/138.0.0.0 Safari/537.36","WebKit","Chrome","138.0.0.0","Windows","10.0","https://app.prolific.com/","en-US,en;q=0.9","60ad28c6d838565067ab1b6c","686e379bc37a29ffa5cdc956","68776003d8d80ea8c5336e3f","1","1","60ad28c6d838565067ab1b6c","1","1","2025-07-16T08:34:27.893Z","","","","","","","","","","","MotivationQ","","50","","","","","","","","","","","","","","","","","","","","","","","","","","","","",""
"","","","","ctl-task-cpt","34","1065666","0.0-5.0-0.5","38","1","2025-07-16 08:17:15","1f75c3e559b7213887762d5229550c2b","154.117.143.238","Mozilla/5.0 (Windows NT 10.0; Win64; x64) AppleWebKit/537.36 (KHTML, like Gecko) Chrome/138.0.0.0 Safari/537.36","WebKit","Chrome","138.0.0.0","Windows","10.0","https://app.prolific.com/","en-US,en;q=0.9","60ad28c6d838565067ab1b6c","686e379bc37a29ffa5cdc956","68776003d8d80ea8c5336e3f","1","1","60ad28c6d838565067ab1b6c","1","1","2025-07-16T08:35:04.888Z","","","","","","","","","","","","","","win-only","1","g1:NE,g2:SW","0.5","6","0","1033826.3","1370","6371.8","33980.6","1","4","8","6","1","-1","-1","12","13","0.09090909090909091","1783.8","3000","-2695","[""up"",""right""]","{""num_key_presses"":8,""num_perfect"":4,""num_errors"":0,""num_randdir"":4,""num_randdir_good_moves"":0,""num_whilered"":0,""num_whileblue"":0,""num_blue"":1,""num_good_moves"":4}","[291.39285618918285,286.64285714285717,0.2,291.39285618918285,286.64285714285717,101.6,291.39285618918285,286.64285714285717,202,291.39285618918285,286.64285714285717,305.4,453.89285618918285,-13.357142857142854,405.6,492.64285618918285,-79.60714285714286,505.6,492.64285618918285,-79.60714285714286,605.8,492.64285618918285,-79.60714285714286,710.8,492.64285618918285,-79.60714285714286,811.3,492.64285618918285,-79.60714285714286,919,492.64285618918285,-79.60714285714286,1022.2,492.64285618918285,-79.60714285714286,1125.7,492.64285618918285,-79.60714285714286,1225.9,492.64285618918285,-79.60714285714286,1326.6,523.8928561891828,-37.107142857142854,1435.6,525.1428561891828,24.142857142857146,1540.7,530.1428561891828,41.642857142857146,1640.8,531.3928561891828,46.642857142857146,1741.2,531.3928561891828,46.642857142857146,1845.9,531.3928561891828,46.642857142857146,1951.4,531.3928561891828,46.642857142857146,2051.6,545.1428561891828,-75.85714285714286,2153.1,545.1428561891828,-75.85714285714286,2256,545.1428561891828,-75.85714285714286,2356.3,545.1428561891828,-75.85714285714286,2460.5,545.1428561891828,-75.85714285714286,2560.9,545.1428561891828,-75.85714285714286,2661.4,545.1428561891828,-75.85714285714286,2768.7,545.1428561891828,-75.85714285714286,2870.6,545.1428561891828,-75.85714285714286,2970.6,545.1428561891828,-75.85714285714286,3071.6,545.1428561891828,-75.85714285714286,3175.4,545.1428561891828,-75.85714285714286,3276,545.1428561891828,-75.85714285714286,3385.4,545.1428561891828,-75.85714285714286,3486.1,545.1428561891828,-75.85714285714286,3591.2,545.1428561891828,-75.85714285714286,3696,545.1428561891828,-75.85714285714286,3796.2,545.1428561891828,-75.85714285714286,3904.3,545.1428561891828,-75.85714285714286,4005.9,545.1428561891828,-75.85714285714286,4106.2,545.1428561891828,-75.85714285714286,4211.2,545.1428561891828,-75.85714285714286,4317.9,545.1428561891828,-75.85714285714286,4420.5,545.1428561891828,-75.85714285714286,4521.3,545.1428561891828,-75.85714285714286,4622.6,545.1428561891828,-75.85714285714286,4727.1,545.1428561891828,-75.85714285714286,4834.3,545.1428561891828,-75.85714285714286,4934.9]","[1453.6,1453.6,1000,0,453.6,""smooth"",""up"",""up"",""good_move"",4054.4,2600.4,2183.7,1454,416.7,""oops"",""right"",""down"",""bad_move"",6986.7,2931.9,2566.4,4054.8,365.5,""smooth"",""right"",""right"",""good_move"",10248.7,3261.6,2895.2,6987.1,366.4,""oops"",""up"",""left"",""bad_move"",13101.7,2852.7,2495.9,10249,356.8,""smooth"",""up"",""up"",""good_move"",19181.3,6079.5,2401.3,16424.3,355.7,""oops"",""up"",""down"",""bad_move"",21965,2783.5,2343.7,19181.7,439.8,""oops"",""right"",""left"",""bad_move"",24673.7,2708.4,2332.1,21965.3,376.3,""smooth"",""up"",""up"",""good_move""]","",""
"2754","","<div style=""width:500px;"">
  <p>What determined the result of this run?</p>
  </div>","12","html-slider-response","35","1068421","0.0-5.0-1.5","38","1","2025-07-16 08:17:15","1f75c3e559b7213887762d5229550c2b","154.117.143.238","Mozilla/5.0 (Windows NT 10.0; Win64; x64) AppleWebKit/537.36 (KHTML, like Gecko) Chrome/138.0.0.0 Safari/537.36","WebKit","Chrome","138.0.0.0","Windows","10.0","https://app.prolific.com/","en-US,en;q=0.9","60ad28c6d838565067ab1b6c","686e379bc37a29ffa5cdc956","68776003d8d80ea8c5336e3f","1","1","60ad28c6d838565067ab1b6c","1","1","2025-07-16T08:35:07.644Z","","","","","","","","","","","AttribQ","","50","","","","","","","","","","","","","","","","","","","","","","","","","","","","",""
"3046","","<div style=""width:500px;"">
  <p>How much control did you have over the ball?</p>
  </div>","27","html-slider-response","36","1071469","0.0-5.0-2.5","38","1","2025-07-16 08:17:15","1f75c3e559b7213887762d5229550c2b","154.117.143.238","Mozilla/5.0 (Windows NT 10.0; Win64; x64) AppleWebKit/537.36 (KHTML, like Gecko) Chrome/138.0.0.0 Safari/537.36","WebKit","Chrome","138.0.0.0","Windows","10.0","https://app.prolific.com/","en-US,en;q=0.9","60ad28c6d838565067ab1b6c","686e379bc37a29ffa5cdc956","68776003d8d80ea8c5336e3f","1","1","60ad28c6d838565067ab1b6c","1","1","2025-07-16T08:35:10.691Z","","","","","","","","","","","ControlQ","","50","","","","","","","","","","","","","","","","","","","","","","","","","","","","",""
"2254","","<div style=""width:500px;"">
  <p>How would you describe your current emotional state?</p>
  </div>","16","html-slider-response","37","1073724","0.0-5.0-3.5","38","1","2025-07-16 08:17:15","1f75c3e559b7213887762d5229550c2b","154.117.143.238","Mozilla/5.0 (Windows NT 10.0; Win64; x64) AppleWebKit/537.36 (KHTML, like Gecko) Chrome/138.0.0.0 Safari/537.36","WebKit","Chrome","138.0.0.0","Windows","10.0","https://app.prolific.com/","en-US,en;q=0.9","60ad28c6d838565067ab1b6c","686e379bc37a29ffa5cdc956","68776003d8d80ea8c5336e3f","1","1","60ad28c6d838565067ab1b6c","1","1","2025-07-16T08:35:12.946Z","","","","","","","","","","","StressQ","","50","","","","","","","","","","","","","","","","","","","","","","","","","","","","",""
"2544","","<div style=""width:500px;"">
  <p>What best describes how you currently feel?</p>
  </div>","86","html-slider-response","38","1076269","0.0-5.0-4.5","38","1","2025-07-16 08:17:15","1f75c3e559b7213887762d5229550c2b","154.117.143.238","Mozilla/5.0 (Windows NT 10.0; Win64; x64) AppleWebKit/537.36 (KHTML, like Gecko) Chrome/138.0.0.0 Safari/537.36","WebKit","Chrome","138.0.0.0","Windows","10.0","https://app.prolific.com/","en-US,en;q=0.9","60ad28c6d838565067ab1b6c","686e379bc37a29ffa5cdc956","68776003d8d80ea8c5336e3f","1","1","60ad28c6d838565067ab1b6c","1","1","2025-07-16T08:35:15.491Z","","","","","","","","","","","MotivationQ","","50","","","","","","","","","","","","","","","","","","","","","","","","","","","","",""
"","","","","ctl-task-cpt","39","1117861","0.0-5.0-0.6","38","1","2025-07-16 08:17:15","1f75c3e559b7213887762d5229550c2b","154.117.143.238","Mozilla/5.0 (Windows NT 10.0; Win64; x64) AppleWebKit/537.36 (KHTML, like Gecko) Chrome/138.0.0.0 Safari/537.36","WebKit","Chrome","138.0.0.0","Windows","10.0","https://app.prolific.com/","en-US,en;q=0.9","60ad28c6d838565067ab1b6c","686e379bc37a29ffa5cdc956","68776003d8d80ea8c5336e3f","1","1","60ad28c6d838565067ab1b6c","1","1","2025-07-16T08:35:57.083Z","","","","","","","","","","","","","","win-only","0","g1:NW,g2:SE","0.4","7","0","1081424.9","1571.7","6573.7","38572.2","1","4","4","6","2","-4","-5","7","12","0.05303030303030303","2854.8","3000","-2595","[""down"",""right""]","{""num_key_presses"":9,""num_perfect"":4,""num_errors"":1,""num_randdir"":4,""num_randdir_good_moves"":3,""num_whilered"":0,""num_whileblue"":1,""num_blue"":2,""num_good_moves"":7}","[288.89285618918285,285.39285714285717,0.2,288.89285618918285,285.39285714285717,102.8,288.89285618918285,285.39285714285717,203.8,288.89285618918285,285.39285714285717,304.9,288.89285618918285,285.39285714285717,408.8,288.89285618918285,285.39285714285717,519,288.89285618918285,285.39285714285717,619.1,288.89285618918285,285.39285714285717,723.8,288.89285618918285,285.39285714285717,828.6,288.89285618918285,285.39285714285717,928.6,288.89285618918285,285.39285714285717,1029.1,288.89285618918285,285.39285714285717,1135,288.89285618918285,285.39285714285717,1235.4,288.89285618918285,285.39285714285717,1339.6,288.89285618918285,285.39285714285717,1451.8,288.89285618918285,285.39285714285717,1552.5,451.39285618918285,-17.107142857142854,1654.7,485.14285618918285,-58.357142857142854,1754.8,481.39285618918285,-45.857142857142854,1859,410.14285618918285,86.64285714285714,1959.1,401.39285618918285,110.39285714285714,2063.6,483.89285618918285,351.64285714285717,2167.7,508.89285618918285,372.89285714285717,2268,508.89285618918285,372.89285714285717,2368.1,538.8928561891828,459.14285714285717,2468.1,546.3928561891828,514.1428571428571,2568.4,541.3928561891828,516.6428571428571,2668.6,537.6428561891828,520.3928571428571,2773.8,537.6428561891828,520.3928571428571,2874.8,537.6428561891828,520.3928571428571,2985.4,537.6428561891828,520.3928571428571,3089,537.6428561891828,520.3928571428571,3202.7,540.1428561891828,77.89285714285714,3303.9,558.8928561891828,-53.357142857142854,3404.1,568.8928561891828,-79.60714285714286,3504.9,568.8928561891828,-79.60714285714286,3604.9,568.8928561891828,-79.60714285714286,3708.9,568.8928561891828,-79.60714285714286,3819.6,568.8928561891828,-79.60714285714286,3919.8,568.8928561891828,-79.60714285714286,4024,568.8928561891828,-79.60714285714286,4125.2,568.8928561891828,-79.60714285714286,4225.2,568.8928561891828,-79.60714285714286,4329.3,568.8928561891828,-79.60714285714286,4434.8,568.8928561891828,-79.60714285714286,4535,568.8928561891828,-79.60714285714286,4635.2,568.8928561891828,-79.60714285714286,4740.7,568.8928561891828,-79.60714285714286,4843.6,568.8928561891828,-79.60714285714286,4944.9]","[1498.2,1498.2,1000,0,498.2,""smooth"",""down"",""down"",""good_move"",3881.7,2383.2,1928.1,1498.5,455.1,""oops"",""right"",""right"",""good_move"",7298.9,3417,3028.5,3881.9,388.5,""smooth"",""down"",""down"",""good_move"",9990.6,2691.4,2276.6,7299.2,414.8,""oops"",""right"",""up"",""bad_move"",12186.5,2195.6,1744.5,9990.9,451.2,""oops"",""down"",""right"",""good_move"",15253.6,3066.8,2670.9,12186.8,395.9,""oops"",""right"",""down"",""good_move"",23414.4,8160.7,2790.3,20268.1,356,""smooth"",""right"",""right"",""good_move"",26713.8,3299.1,2992.2,23414.7,306.9,""while_blue"",""down"",""up"",""bad_move"",29130.4,2416.1,2036.7,26714.3,379.4,""smooth"",""down"",""down"",""good_move""]","",""
"8602","","<div style=""width:500px;"">
  <p>What determined the result of this run?</p>
  </div>","44","html-slider-response","40","1126464","0.0-5.0-1.6","38","1","2025-07-16 08:17:15","1f75c3e559b7213887762d5229550c2b","154.117.143.238","Mozilla/5.0 (Windows NT 10.0; Win64; x64) AppleWebKit/537.36 (KHTML, like Gecko) Chrome/138.0.0.0 Safari/537.36","WebKit","Chrome","138.0.0.0","Windows","10.0","https://app.prolific.com/","en-US,en;q=0.9","60ad28c6d838565067ab1b6c","686e379bc37a29ffa5cdc956","68776003d8d80ea8c5336e3f","1","1","60ad28c6d838565067ab1b6c","1","1","2025-07-16T08:36:05.686Z","","","","","","","","","","","AttribQ","","50","","","","","","","","","","","","","","","","","","","","","","","","","","","","",""
"4588","","<div style=""width:500px;"">
  <p>How much control did you have over the ball?</p>
  </div>","58","html-slider-response","41","1131053","0.0-5.0-2.6","38","1","2025-07-16 08:17:15","1f75c3e559b7213887762d5229550c2b","154.117.143.238","Mozilla/5.0 (Windows NT 10.0; Win64; x64) AppleWebKit/537.36 (KHTML, like Gecko) Chrome/138.0.0.0 Safari/537.36","WebKit","Chrome","138.0.0.0","Windows","10.0","https://app.prolific.com/","en-US,en;q=0.9","60ad28c6d838565067ab1b6c","686e379bc37a29ffa5cdc956","68776003d8d80ea8c5336e3f","1","1","60ad28c6d838565067ab1b6c","1","1","2025-07-16T08:36:10.275Z","","","","","","","","","","","ControlQ","","50","","","","","","","","","","","","","","","","","","","","","","","","","","","","",""
"2063","","<div style=""width:500px;"">
  <p>How would you describe your current emotional state?</p>
  </div>","14","html-slider-response","42","1133117","0.0-5.0-3.6","38","1","2025-07-16 08:17:15","1f75c3e559b7213887762d5229550c2b","154.117.143.238","Mozilla/5.0 (Windows NT 10.0; Win64; x64) AppleWebKit/537.36 (KHTML, like Gecko) Chrome/138.0.0.0 Safari/537.36","WebKit","Chrome","138.0.0.0","Windows","10.0","https://app.prolific.com/","en-US,en;q=0.9","60ad28c6d838565067ab1b6c","686e379bc37a29ffa5cdc956","68776003d8d80ea8c5336e3f","1","1","60ad28c6d838565067ab1b6c","1","1","2025-07-16T08:36:12.339Z","","","","","","","","","","","StressQ","","50","","","","","","","","","","","","","","","","","","","","","","","","","","","","",""
"2831","","<div style=""width:500px;"">
  <p>What best describes how you currently feel?</p>
  </div>","84","html-slider-response","43","1135949","0.0-5.0-4.6","38","1","2025-07-16 08:17:15","1f75c3e559b7213887762d5229550c2b","154.117.143.238","Mozilla/5.0 (Windows NT 10.0; Win64; x64) AppleWebKit/537.36 (KHTML, like Gecko) Chrome/138.0.0.0 Safari/537.36","WebKit","Chrome","138.0.0.0","Windows","10.0","https://app.prolific.com/","en-US,en;q=0.9","60ad28c6d838565067ab1b6c","686e379bc37a29ffa5cdc956","68776003d8d80ea8c5336e3f","1","1","60ad28c6d838565067ab1b6c","1","1","2025-07-16T08:36:15.171Z","","","","","","","","","","","MotivationQ","","50","","","","","","","","","","","","","","","","","","","","","","","","","","","","",""
"","","","","ctl-task-cpt","44","1163961","0.0-5.0-0.7","38","1","2025-07-16 08:17:15","1f75c3e559b7213887762d5229550c2b","154.117.143.238","Mozilla/5.0 (Windows NT 10.0; Win64; x64) AppleWebKit/537.36 (KHTML, like Gecko) Chrome/138.0.0.0 Safari/537.36","WebKit","Chrome","138.0.0.0","Windows","10.0","https://app.prolific.com/","en-US,en;q=0.9","60ad28c6d838565067ab1b6c","686e379bc37a29ffa5cdc956","68776003d8d80ea8c5336e3f","1","1","60ad28c6d838565067ab1b6c","1","1","2025-07-16T08:36:43.183Z","","","","","","","","","","","","","","win-only","2","g1:SE,g2:NW","0.3","8","0","1141105.7","1428.7","6431.2","24995.7","1","4","8","6","1","1","1","8","7","0.06060606060606061","2248.4","3000","840","[""down"",""right""]","{""num_key_presses"":6,""num_perfect"":3,""num_errors"":0,""num_randdir"":3,""num_randdir_good_moves"":2,""num_whilered"":0,""num_whileblue"":0,""num_blue"":1,""num_good_moves"":5}","[287.64285618918285,281.64285714285717,0.2,287.64285618918285,281.64285714285717,102.5,287.64285618918285,281.64285714285717,213.8,287.64285618918285,281.64285714285717,316.1,418.89285618918285,67.89285714285714,416.1,501.39285618918285,-43.357142857142854,518.3,492.64285618918285,-44.607142857142854,630.6,165.14285618918282,19.142857142857146,731.2,115.14285618918282,27.892857142857146,831.6,100.14285618918282,37.892857142857146,932.4,48.89285618918283,65.39285714285714,1032.5,47.64285618918283,64.14285714285714,1132.6,47.64285618918283,64.14285714285714,1237.6,47.64285618918283,64.14285714285714,1347,47.64285618918283,64.14285714285714,1448.5,407.64285618918285,366.64285714285717,1548.9,476.39285618918285,457.89285714285717,1652,476.39285618918285,465.39285714285717,1752,478.89285618918285,471.64285714285717,1853.3,481.39285618918285,477.89285714285717,1957,483.89285618918285,481.64285714285717,2064.8,483.89285618918285,481.64285714285717,2167.2,483.89285618918285,481.64285714285717,2267.4,483.89285618918285,481.64285714285717,2372.7,483.89285618918285,481.64285714285717,2481.4,483.89285618918285,481.64285714285717,2581.8,562.6428561891828,-60.857142857142854,2682.8,562.6428561891828,-60.857142857142854,2786.7,562.6428561891828,-60.857142857142854,2886.9,562.6428561891828,-60.857142857142854,2987,562.6428561891828,-60.857142857142854,3087.4,562.6428561891828,-60.857142857142854,3191.9,562.6428561891828,-60.857142857142854,3297.5,562.6428561891828,-60.857142857142854,3398,562.6428561891828,-60.857142857142854,3501.5,562.6428561891828,-60.857142857142854,3601.7,562.6428561891828,-60.857142857142854,3702.2,562.6428561891828,-60.857142857142854,3802.7,562.6428561891828,-60.857142857142854,3907.5,562.6428561891828,-60.857142857142854,4014.9,562.6428561891828,-60.857142857142854,4114.9,562.6428561891828,-60.857142857142854,4218,562.6428561891828,-60.857142857142854,4322.3,562.6428561891828,-60.857142857142854,4426.8,562.6428561891828,-60.857142857142854,4531.7,562.6428561891828,-60.857142857142854,4637.2,562.6428561891828,-60.857142857142854,4737.5,562.6428561891828,-60.857142857142854,4837.6,562.6428561891828,-60.857142857142854,4937.7]","[1414.7,1414.7,1000,0,414.7,""oops"",""down"",""right"",""good_move"",3531.5,2116.5,1589.7,1415,526.8,""oops"",""down"",""down"",""good_move"",5567.4,2035.7,1644.1,3531.7,391.6,""oops"",""down"",""up"",""bad_move"",8605.4,3037.8,2604.1,5567.6,433.7,""smooth"",""right"",""right"",""good_move"",14692.3,6086.3,2131,12229.7,331.6,""smooth"",""down"",""down"",""good_move"",18446.2,3753.6,3326.5,14692.6,427.1,""smooth"",""down"",""down"",""good_move""]","",""
"2741","","<div style=""width:500px;"">
  <p>What determined the result of this run?</p>
  </div>","82","html-slider-response","45","1166703","0.0-5.0-1.7","38","1","2025-07-16 08:17:15","1f75c3e559b7213887762d5229550c2b","154.117.143.238","Mozilla/5.0 (Windows NT 10.0; Win64; x64) AppleWebKit/537.36 (KHTML, like Gecko) Chrome/138.0.0.0 Safari/537.36","WebKit","Chrome","138.0.0.0","Windows","10.0","https://app.prolific.com/","en-US,en;q=0.9","60ad28c6d838565067ab1b6c","686e379bc37a29ffa5cdc956","68776003d8d80ea8c5336e3f","1","1","60ad28c6d838565067ab1b6c","1","1","2025-07-16T08:36:45.926Z","","","","","","","","","","","AttribQ","","50","","","","","","","","","","","","","","","","","","","","","","","","","","","","",""
"3049","","<div style=""width:500px;"">
  <p>How much control did you have over the ball?</p>
  </div>","71","html-slider-response","46","1169754","0.0-5.0-2.7","38","1","2025-07-16 08:17:15","1f75c3e559b7213887762d5229550c2b","154.117.143.238","Mozilla/5.0 (Windows NT 10.0; Win64; x64) AppleWebKit/537.36 (KHTML, like Gecko) Chrome/138.0.0.0 Safari/537.36","WebKit","Chrome","138.0.0.0","Windows","10.0","https://app.prolific.com/","en-US,en;q=0.9","60ad28c6d838565067ab1b6c","686e379bc37a29ffa5cdc956","68776003d8d80ea8c5336e3f","1","1","60ad28c6d838565067ab1b6c","1","1","2025-07-16T08:36:48.977Z","","","","","","","","","","","ControlQ","","50","","","","","","","","","","","","","","","","","","","","","","","","","","","","",""
"2434","","<div style=""width:500px;"">
  <p>How would you describe your current emotional state?</p>
  </div>","16","html-slider-response","47","1172190","0.0-5.0-3.7","38","1","2025-07-16 08:17:15","1f75c3e559b7213887762d5229550c2b","154.117.143.238","Mozilla/5.0 (Windows NT 10.0; Win64; x64) AppleWebKit/537.36 (KHTML, like Gecko) Chrome/138.0.0.0 Safari/537.36","WebKit","Chrome","138.0.0.0","Windows","10.0","https://app.prolific.com/","en-US,en;q=0.9","60ad28c6d838565067ab1b6c","686e379bc37a29ffa5cdc956","68776003d8d80ea8c5336e3f","1","1","60ad28c6d838565067ab1b6c","1","1","2025-07-16T08:36:51.412Z","","","","","","","","","","","StressQ","","50","","","","","","","","","","","","","","","","","","","","","","","","","","","","",""
"3046","","<div style=""width:500px;"">
  <p>What best describes how you currently feel?</p>
  </div>","80","html-slider-response","48","1175238","0.0-5.0-4.7","38","1","2025-07-16 08:17:15","1f75c3e559b7213887762d5229550c2b","154.117.143.238","Mozilla/5.0 (Windows NT 10.0; Win64; x64) AppleWebKit/537.36 (KHTML, like Gecko) Chrome/138.0.0.0 Safari/537.36","WebKit","Chrome","138.0.0.0","Windows","10.0","https://app.prolific.com/","en-US,en;q=0.9","60ad28c6d838565067ab1b6c","686e379bc37a29ffa5cdc956","68776003d8d80ea8c5336e3f","1","1","60ad28c6d838565067ab1b6c","1","1","2025-07-16T08:36:54.460Z","","","","","","","","","","","MotivationQ","","50","","","","","","","","","","","","","","","","","","","","","","","","","","","","",""
"","","","","ctl-task-cpt","49","1217796","0.0-5.0-0.8","38","1","2025-07-16 08:17:15","1f75c3e559b7213887762d5229550c2b","154.117.143.238","Mozilla/5.0 (Windows NT 10.0; Win64; x64) AppleWebKit/537.36 (KHTML, like Gecko) Chrome/138.0.0.0 Safari/537.36","WebKit","Chrome","138.0.0.0","Windows","10.0","https://app.prolific.com/","en-US,en;q=0.9","60ad28c6d838565067ab1b6c","686e379bc37a29ffa5cdc956","68776003d8d80ea8c5336e3f","1","1","60ad28c6d838565067ab1b6c","1","1","2025-07-16T08:37:37.018Z","","","","","","","","","","","","","","win-only","3","g1:SW,g2:NE","0.2","9","0","1180393.6","1417.5","6421.5","39537.7","1","4","8","6","2","-8","-10","0","8","0","1004.4","3000","-2470","[""up"",""right""]","{""num_key_presses"":12,""num_perfect"":2,""num_errors"":2,""num_randdir"":8,""num_randdir_good_moves"":4,""num_whilered"":0,""num_whileblue"":1,""num_blue"":1,""num_good_moves"":7}","[285.14285618918285,281.64285714285717,0.3,285.14285618918285,281.64285714285717,103.8,285.14285618918285,281.64285714285717,204.3,285.14285618918285,281.64285714285717,308.9,325.14285618918285,216.64285714285714,412.8,383.89285618918285,150.39285714285714,514.4,450.14285618918285,72.89285714285714,618.7,461.39285618918285,65.39285714285714,722.7,488.89285618918285,64.14285714285714,823.2,491.39285618918285,64.14285714285714,928.7,491.39285618918285,64.14285714285714,1038.5,491.39285618918285,64.14285714285714,1143.7,491.39285618918285,64.14285714285714,1243.8,502.64285618918285,26.642857142857146,1348.8,525.1428561891828,-78.35714285714286,1453.7,525.1428561891828,-78.35714285714286,1553.7,525.1428561891828,-78.35714285714286,1657.9,525.1428561891828,-78.35714285714286,1758.7,525.1428561891828,-78.35714285714286,1859.4,525.1428561891828,-78.35714285714286,1971.2,525.1428561891828,-78.35714285714286,2073.4,525.1428561891828,-78.35714285714286,2178.6,525.1428561891828,-78.35714285714286,2288.4,525.1428561891828,-78.35714285714286,2392.7,525.1428561891828,-78.35714285714286,2493.2,525.1428561891828,-78.35714285714286,2593.5,525.1428561891828,-78.35714285714286,2698.1,525.1428561891828,-78.35714285714286,2798.7,525.1428561891828,-78.35714285714286,2903.3,525.1428561891828,-78.35714285714286,3009.2,525.1428561891828,-78.35714285714286,3112.9,525.1428561891828,-78.35714285714286,3221.2,525.1428561891828,-78.35714285714286,3322.7,525.1428561891828,-78.35714285714286,3423.9,525.1428561891828,-78.35714285714286,3528.6,525.1428561891828,-78.35714285714286,3638.4,525.1428561891828,-78.35714285714286,3742.9,525.1428561891828,-78.35714285714286,3843.1,525.1428561891828,-78.35714285714286,3943.1,525.1428561891828,-78.35714285714286,4043.1,525.1428561891828,-78.35714285714286,4143.1,525.1428561891828,-78.35714285714286,4243.2,525.1428561891828,-78.35714285714286,4343.6,525.1428561891828,-78.35714285714286,4443.6,525.1428561891828,-78.35714285714286,4548,525.1428561891828,-78.35714285714286,4654.8,525.1428561891828,-78.35714285714286,4758.4,525.1428561891828,-78.35714285714286,4870.2,525.1428561891828,-78.35714285714286,4970.9]","[1464.4,1464.4,1000,0,464.4,""smooth"",""up"",""up"",""good_move"",4245.7,2780.8,2378.5,1464.9,402.3,""smooth"",""right"",""right"",""good_move"",6335.8,2089.6,1705.2,4246.2,384.4,""oops"",""up"",""left"",""bad_move"",8383.4,2047.2,1665.3,6336.2,381.9,""oops"",""up"",""right"",""good_move"",11339.5,2955.8,2598.9,8383.7,356.9,""oops"",""right"",""up"",""good_move"",14114.7,2774.8,2463.8,11339.9,311,""oops"",""right"",""left"",""bad_move"",16414.6,2299.4,1966,14115.2,333.4,""oops"",""up"",""right"",""good_move"",19263.9,2848.9,2546.6,16415,302.3,""oops"",""up"",""left"",""bad_move"",22132.4,2868.4,2610,19264.1,258.4,""while_blue"",""up"",""up"",""good_move"",24623.5,2490.6,2184.6,22132.9,306,""oops"",""right"",""right"",""good_move"",26914.8,2291.1,2024.8,24623.7,266.3,""oops"",""right"",""left"",""bad_move"",29048,2132.9,3154.5,26915.2,-1021.6,""error"",""-"",""-"",""no_move""]","",""
"2906","","<div style=""width:500px;"">
  <p>What determined the result of this run?</p>
  </div>","5","html-slider-response","50","1220703","0.0-5.0-1.8","38","1","2025-07-16 08:17:15","1f75c3e559b7213887762d5229550c2b","154.117.143.238","Mozilla/5.0 (Windows NT 10.0; Win64; x64) AppleWebKit/537.36 (KHTML, like Gecko) Chrome/138.0.0.0 Safari/537.36","WebKit","Chrome","138.0.0.0","Windows","10.0","https://app.prolific.com/","en-US,en;q=0.9","60ad28c6d838565067ab1b6c","686e379bc37a29ffa5cdc956","68776003d8d80ea8c5336e3f","1","1","60ad28c6d838565067ab1b6c","1","1","2025-07-16T08:37:39.925Z","","","","","","","","","","","AttribQ","","50","","","","","","","","","","","","","","","","","","","","","","","","","","","","",""
"2849","","<div style=""width:500px;"">
  <p>How much control did you have over the ball?</p>
  </div>","5","html-slider-response","51","1223553","0.0-5.0-2.8","38","1","2025-07-16 08:17:15","1f75c3e559b7213887762d5229550c2b","154.117.143.238","Mozilla/5.0 (Windows NT 10.0; Win64; x64) AppleWebKit/537.36 (KHTML, like Gecko) Chrome/138.0.0.0 Safari/537.36","WebKit","Chrome","138.0.0.0","Windows","10.0","https://app.prolific.com/","en-US,en;q=0.9","60ad28c6d838565067ab1b6c","686e379bc37a29ffa5cdc956","68776003d8d80ea8c5336e3f","1","1","60ad28c6d838565067ab1b6c","1","1","2025-07-16T08:37:42.775Z","","","","","","","","","","","ControlQ","","50","","","","","","","","","","","","","","","","","","","","","","","","","","","","",""
"2707","","<div style=""width:500px;"">
  <p>How would you describe your current emotional state?</p>
  </div>","65","html-slider-response","52","1226261","0.0-5.0-3.8","38","1","2025-07-16 08:17:15","1f75c3e559b7213887762d5229550c2b","154.117.143.238","Mozilla/5.0 (Windows NT 10.0; Win64; x64) AppleWebKit/537.36 (KHTML, like Gecko) Chrome/138.0.0.0 Safari/537.36","WebKit","Chrome","138.0.0.0","Windows","10.0","https://app.prolific.com/","en-US,en;q=0.9","60ad28c6d838565067ab1b6c","686e379bc37a29ffa5cdc956","68776003d8d80ea8c5336e3f","1","1","60ad28c6d838565067ab1b6c","1","1","2025-07-16T08:37:45.484Z","","","","","","","","","","","StressQ","","50","","","","","","","","","","","","","","","","","","","","","","","","","","","","",""
"2433","","<div style=""width:500px;"">
  <p>What best describes how you currently feel?</p>
  </div>","79","html-slider-response","53","1228695","0.0-5.0-4.8","38","1","2025-07-16 08:17:15","1f75c3e559b7213887762d5229550c2b","154.117.143.238","Mozilla/5.0 (Windows NT 10.0; Win64; x64) AppleWebKit/537.36 (KHTML, like Gecko) Chrome/138.0.0.0 Safari/537.36","WebKit","Chrome","138.0.0.0","Windows","10.0","https://app.prolific.com/","en-US,en;q=0.9","60ad28c6d838565067ab1b6c","686e379bc37a29ffa5cdc956","68776003d8d80ea8c5336e3f","1","1","60ad28c6d838565067ab1b6c","1","1","2025-07-16T08:37:47.917Z","","","","","","","","","","","MotivationQ","","50","","","","","","","","","","","","","","","","","","","","","","","","","","","","",""
"","","","","ctl-task-cpt","54","1270042","0.0-5.0-0.9","38","1","2025-07-16 08:17:15","1f75c3e559b7213887762d5229550c2b","154.117.143.238","Mozilla/5.0 (Windows NT 10.0; Win64; x64) AppleWebKit/537.36 (KHTML, like Gecko) Chrome/138.0.0.0 Safari/537.36","WebKit","Chrome","138.0.0.0","Windows","10.0","https://app.prolific.com/","en-US,en;q=0.9","60ad28c6d838565067ab1b6c","686e379bc37a29ffa5cdc956","68776003d8d80ea8c5336e3f","1","1","60ad28c6d838565067ab1b6c","1","1","2025-07-16T08:38:29.264Z","","","","","","","","","","","","","","win-only","2","g1:SE,g2:NW","0.4","10","0","1233850.8","1562.4","6565.2","38321.6","1","4","4","6","2","4","4","4","0","0.030303030303030304","1861.2","3000","1155","[""left"",""up""]","{""num_key_presses"":6,""num_perfect"":4,""num_errors"":0,""num_randdir"":2,""num_randdir_good_moves"":2,""num_whilered"":0,""num_whileblue"":0,""num_blue"":4,""num_good_moves"":6}","[286.39285618918285,280.39285714285717,0.2,286.39285618918285,280.39285714285717,101.8,286.39285618918285,280.39285714285717,202.1,286.39285618918285,280.39285714285717,302.8,286.39285618918285,280.39285714285717,403,286.39285618918285,280.39285714285717,504.1,203.89285618918282,251.64285714285714,608.8,-6.1071438108171705,57.892857142857146,718.7,-7.3571438108171705,54.142857142857146,823.9,-7.3571438108171705,54.142857142857146,929.1,-7.3571438108171705,54.142857142857146,1034.2,-7.3571438108171705,54.142857142857146,1137.8,-7.3571438108171705,54.142857142857146,1239.1,28.89285618918283,46.642857142857146,1343.1,30.14285618918283,45.392857142857146,1452.2,30.14285618918283,45.392857142857146,1552.4,30.14285618918283,45.392857142857146,1653,30.14285618918283,45.392857142857146,1753.6,30.14285618918283,45.392857142857146,1858.2,30.14285618918283,45.392857142857146,1968.4,30.14285618918283,45.392857142857146,2073.1,30.14285618918283,45.392857142857146,2178.8,30.14285618918283,45.392857142857146,2287.6,30.14285618918283,45.392857142857146,2388.4,30.14285618918283,45.392857142857146,2488.6,30.14285618918283,45.392857142857146,2593.7,30.14285618918283,45.392857142857146,2693.7,30.14285618918283,45.392857142857146,2802.7,30.14285618918283,45.392857142857146,2902.7,30.14285618918283,45.392857142857146,3002.9,30.14285618918283,45.392857142857146,3104.1,30.14285618918283,45.392857142857146,3208,30.14285618918283,45.392857142857146,3308.8,103.89285618918282,-77.10714285714286,3413.6,103.89285618918282,-77.10714285714286,3522.8,103.89285618918282,-77.10714285714286,3623.4,103.89285618918282,-77.10714285714286,3723.5,103.89285618918282,-77.10714285714286,3823.7,103.89285618918282,-77.10714285714286,3928.8,103.89285618918282,-77.10714285714286,4028.9,103.89285618918282,-77.10714285714286,4133,103.89285618918282,-77.10714285714286,4234.2,103.89285618918282,-77.10714285714286,4334.2,103.89285618918282,-77.10714285714286,4438.3,103.89285618918282,-77.10714285714286,4539,103.89285618918282,-77.10714285714286,4652.4,103.89285618918282,-77.10714285714286,4753.9,103.89285618918282,-77.10714285714286,4858.7,103.89285618918282,-77.10714285714286,4958.7]","[1424,1424,1000,0,424,""oops"",""up"",""left"",""good_move"",3969.4,2544.8,2127.1,1424.7,417.7,""smooth"",""up"",""up"",""good_move"",14877.9,10908.1,2747.4,11756.8,373.7,""smooth"",""left"",""left"",""good_move"",21722.3,6843.9,2917.1,18420,385.2,""oops"",""up"",""up"",""good_move"",29032.8,7310.2,3442.9,25226.1,363.8,""smooth"",""left"",""left"",""good_move"",31634,2601,2226.5,29033,374.5,""smooth"",""up"",""up"",""good_move""]","",""
"3136","","<div style=""width:500px;"">
  <p>What determined the result of this run?</p>
  </div>","79","html-slider-response","55","1273179","0.0-5.0-1.9","38","1","2025-07-16 08:17:15","1f75c3e559b7213887762d5229550c2b","154.117.143.238","Mozilla/5.0 (Windows NT 10.0; Win64; x64) AppleWebKit/537.36 (KHTML, like Gecko) Chrome/138.0.0.0 Safari/537.36","WebKit","Chrome","138.0.0.0","Windows","10.0","https://app.prolific.com/","en-US,en;q=0.9","60ad28c6d838565067ab1b6c","686e379bc37a29ffa5cdc956","68776003d8d80ea8c5336e3f","1","1","60ad28c6d838565067ab1b6c","1","1","2025-07-16T08:38:32.401Z","","","","","","","","","","","AttribQ","","50","","","","","","","","","","","","","","","","","","","","","","","","","","","","",""
"2287","","<div style=""width:500px;"">
  <p>How much control did you have over the ball?</p>
  </div>","78","html-slider-response","56","1275467","0.0-5.0-2.9","38","1","2025-07-16 08:17:15","1f75c3e559b7213887762d5229550c2b","154.117.143.238","Mozilla/5.0 (Windows NT 10.0; Win64; x64) AppleWebKit/537.36 (KHTML, like Gecko) Chrome/138.0.0.0 Safari/537.36","WebKit","Chrome","138.0.0.0","Windows","10.0","https://app.prolific.com/","en-US,en;q=0.9","60ad28c6d838565067ab1b6c","686e379bc37a29ffa5cdc956","68776003d8d80ea8c5336e3f","1","1","60ad28c6d838565067ab1b6c","1","1","2025-07-16T08:38:34.689Z","","","","","","","","","","","ControlQ","","50","","","","","","","","","","","","","","","","","","","","","","","","","","","","",""
"2016","","<div style=""width:500px;"">
  <p>How would you describe your current emotional state?</p>
  </div>","15","html-slider-response","57","1277483","0.0-5.0-3.9","38","1","2025-07-16 08:17:15","1f75c3e559b7213887762d5229550c2b","154.117.143.238","Mozilla/5.0 (Windows NT 10.0; Win64; x64) AppleWebKit/537.36 (KHTML, like Gecko) Chrome/138.0.0.0 Safari/537.36","WebKit","Chrome","138.0.0.0","Windows","10.0","https://app.prolific.com/","en-US,en;q=0.9","60ad28c6d838565067ab1b6c","686e379bc37a29ffa5cdc956","68776003d8d80ea8c5336e3f","1","1","60ad28c6d838565067ab1b6c","1","1","2025-07-16T08:38:36.706Z","","","","","","","","","","","StressQ","","50","","","","","","","","","","","","","","","","","","","","","","","","","","","","",""
"2676","","<div style=""width:500px;"">
  <p>What best describes how you currently feel?</p>
  </div>","81","html-slider-response","58","1280160","0.0-5.0-4.9","38","1","2025-07-16 08:17:15","1f75c3e559b7213887762d5229550c2b","154.117.143.238","Mozilla/5.0 (Windows NT 10.0; Win64; x64) AppleWebKit/537.36 (KHTML, like Gecko) Chrome/138.0.0.0 Safari/537.36","WebKit","Chrome","138.0.0.0","Windows","10.0","https://app.prolific.com/","en-US,en;q=0.9","60ad28c6d838565067ab1b6c","686e379bc37a29ffa5cdc956","68776003d8d80ea8c5336e3f","1","1","60ad28c6d838565067ab1b6c","1","1","2025-07-16T08:38:39.382Z","","","","","","","","","","","MotivationQ","","50","","","","","","","","","","","","","","","","","","","","","","","","","","","","",""
"","","","","ctl-task-cpt","59","1299063","0.0-5.0-0.10","38","1","2025-07-16 08:17:15","1f75c3e559b7213887762d5229550c2b","154.117.143.238","Mozilla/5.0 (Windows NT 10.0; Win64; x64) AppleWebKit/537.36 (KHTML, like Gecko) Chrome/138.0.0.0 Safari/537.36","WebKit","Chrome","138.0.0.0","Windows","10.0","https://app.prolific.com/","en-US,en;q=0.9","60ad28c6d838565067ab1b6c","686e379bc37a29ffa5cdc956","68776003d8d80ea8c5336e3f","1","1","60ad28c6d838565067ab1b6c","1","1","2025-07-16T08:38:58.285Z","","","","","","","","","","","","","","win-only","1","g1:NE,g2:SW","0.5","11","0","1285315.7","1283.3","6286","15880.9","1","4","4","6","1","1","1","5","4","0.03787878787878788","2483.9","3000","1820","[""up"",""right""]","{""num_key_presses"":4,""num_perfect"":2,""num_errors"":0,""num_randdir"":2,""num_randdir_good_moves"":2,""num_whilered"":0,""num_whileblue"":0,""num_blue"":0,""num_good_moves"":4}","[288.89285618918285,286.64285714285717,0.2,288.89285618918285,286.64285714285717,102.5,288.89285618918285,286.64285714285717,207.9,288.89285618918285,286.64285714285717,314.3,288.89285618918285,286.64285714285717,416,288.89285618918285,286.64285714285717,516.9,333.89285618918285,257.89285714285717,617.3,145.14285618918282,436.64285714285717,721.9,48.89285618918283,534.1428571428571,822.1,43.89285618918283,536.6428571428571,923,40.14285618918283,539.1428571428571,1034.3,33.89285618918283,544.1428571428571,1137.8,33.89285618918283,540.3928571428571,1237.9,33.89285618918283,536.6428571428571,1342.8,33.89285618918283,536.6428571428571,1447.6,35.14285618918283,534.1428571428571,1547.7,35.14285618918283,531.6428571428571,1649.4,35.14285618918283,531.6428571428571,1753.4,35.14285618918283,531.6428571428571,1866.3,293.89285618918285,237.89285714285714,1967.4,516.3928561891828,81.64285714285714,2067.5,528.8928561891828,80.39285714285714,2172.6,536.3928561891828,77.89285714285714,2272.9,558.8928561891828,65.39285714285714,2382.3,558.8928561891828,65.39285714285714,2482.3,558.8928561891828,65.39285714285714,2583.2,558.8928561891828,65.39285714285714,2687.5,558.8928561891828,65.39285714285714,2792.3,561.3928561891828,-37.107142857142854,2892.7,562.6428561891828,-69.60714285714286,2998.8,562.6428561891828,-69.60714285714286,3102.9,562.6428561891828,-69.60714285714286,3217.4,562.6428561891828,-69.60714285714286,3317.7,562.6428561891828,-69.60714285714286,3422,562.6428561891828,-69.60714285714286,3522.8,562.6428561891828,-69.60714285714286,3632,562.6428561891828,-69.60714285714286,3732.8,562.6428561891828,-69.60714285714286,3833.2,562.6428561891828,-69.60714285714286,3933.2,562.6428561891828,-69.60714285714286,4033.6,562.6428561891828,-69.60714285714286,4137.2,562.6428561891828,-69.60714285714286,4237.3,562.6428561891828,-69.60714285714286,4337.7,562.6428561891828,-69.60714285714286,4450.3,562.6428561891828,-69.60714285714286,4552.2,562.6428561891828,-69.60714285714286,4653,562.6428561891828,-69.60714285714286,4765.9,562.6428561891828,-69.60714285714286,4867.7,562.6428561891828,-69.60714285714286,4972.4]","[1397.7,1397.7,1000,0,397.7,""oops"",""up"",""up"",""good_move"",3989.9,2591.8,2219.3,1398.1,372.5,""smooth"",""right"",""right"",""good_move"",6312.3,2322,1931.5,3990.3,390.5,""smooth"",""up"",""up"",""good_move"",9494.3,3181.9,2854.3,6312.4,327.6,""oops"",""right"",""right"",""good_move""]","",""
"11956","","<div style=""width:500px;"">
  <p>What determined the result of this run?</p>
  </div>","81","html-slider-response","60","1311020","0.0-5.0-1.10","38","1","2025-07-16 08:17:15","1f75c3e559b7213887762d5229550c2b","154.117.143.238","Mozilla/5.0 (Windows NT 10.0; Win64; x64) AppleWebKit/537.36 (KHTML, like Gecko) Chrome/138.0.0.0 Safari/537.36","WebKit","Chrome","138.0.0.0","Windows","10.0","https://app.prolific.com/","en-US,en;q=0.9","60ad28c6d838565067ab1b6c","686e379bc37a29ffa5cdc956","68776003d8d80ea8c5336e3f","1","1","60ad28c6d838565067ab1b6c","1","1","2025-07-16T08:39:10.242Z","","","","","","","","","","","AttribQ","","50","","","","","","","","","","","","","","","","","","","","","","","","","","","","",""
"2056","","<div style=""width:500px;"">
  <p>How much control did you have over the ball?</p>
  </div>","81","html-slider-response","61","1313077","0.0-5.0-2.10","38","1","2025-07-16 08:17:15","1f75c3e559b7213887762d5229550c2b","154.117.143.238","Mozilla/5.0 (Windows NT 10.0; Win64; x64) AppleWebKit/537.36 (KHTML, like Gecko) Chrome/138.0.0.0 Safari/537.36","WebKit","Chrome","138.0.0.0","Windows","10.0","https://app.prolific.com/","en-US,en;q=0.9","60ad28c6d838565067ab1b6c","686e379bc37a29ffa5cdc956","68776003d8d80ea8c5336e3f","1","1","60ad28c6d838565067ab1b6c","1","1","2025-07-16T08:39:12.299Z","","","","","","","","","","","ControlQ","","50","","","","","","","","","","","","","","","","","","","","","","","","","","","","",""
"3154","","<div style=""width:500px;"">
  <p>How would you describe your current emotional state?</p>
  </div>","15","html-slider-response","62","1316232","0.0-5.0-3.10","38","1","2025-07-16 08:17:15","1f75c3e559b7213887762d5229550c2b","154.117.143.238","Mozilla/5.0 (Windows NT 10.0; Win64; x64) AppleWebKit/537.36 (KHTML, like Gecko) Chrome/138.0.0.0 Safari/537.36","WebKit","Chrome","138.0.0.0","Windows","10.0","https://app.prolific.com/","en-US,en;q=0.9","60ad28c6d838565067ab1b6c","686e379bc37a29ffa5cdc956","68776003d8d80ea8c5336e3f","1","1","60ad28c6d838565067ab1b6c","1","1","2025-07-16T08:39:15.454Z","","","","","","","","","","","StressQ","","50","","","","","","","","","","","","","","","","","","","","","","","","","","","","",""
"18684","","<div style=""width:500px;"">
  <p>What best describes how you currently feel?</p>
  </div>","80","html-slider-response","63","1334916","0.0-5.0-4.10","38","1","2025-07-16 08:17:15","1f75c3e559b7213887762d5229550c2b","154.117.143.238","Mozilla/5.0 (Windows NT 10.0; Win64; x64) AppleWebKit/537.36 (KHTML, like Gecko) Chrome/138.0.0.0 Safari/537.36","WebKit","Chrome","138.0.0.0","Windows","10.0","https://app.prolific.com/","en-US,en;q=0.9","60ad28c6d838565067ab1b6c","686e379bc37a29ffa5cdc956","68776003d8d80ea8c5336e3f","1","1","60ad28c6d838565067ab1b6c","1","1","2025-07-16T08:39:34.138Z","","","","","","","","","","","MotivationQ","","50","","","","","","","","","","","","","","","","","","","","","","","","","","","","",""
"","","","","ctl-task-cpt","64","1385327","0.0-5.0-0.11","38","1","2025-07-16 08:17:15","1f75c3e559b7213887762d5229550c2b","154.117.143.238","Mozilla/5.0 (Windows NT 10.0; Win64; x64) AppleWebKit/537.36 (KHTML, like Gecko) Chrome/138.0.0.0 Safari/537.36","WebKit","Chrome","138.0.0.0","Windows","10.0","https://app.prolific.com/","en-US,en;q=0.9","60ad28c6d838565067ab1b6c","686e379bc37a29ffa5cdc956","68776003d8d80ea8c5336e3f","1","1","60ad28c6d838565067ab1b6c","1","1","2025-07-16T08:40:24.549Z","","","","","","","","","","","","","","win-only","3","g1:SW,g2:NE","0.6","12","0","1340071.7","7040.9","12046.2","47390.9","1","4","8","6","2","-8","-8","0","5","0","1567.1","3000","-2385","[""up"",""right""]","{""num_key_presses"":10,""num_perfect"":6,""num_errors"":0,""num_randdir"":4,""num_randdir_good_moves"":1,""num_whilered"":0,""num_whileblue"":0,""num_blue"":2,""num_good_moves"":7}","[288.89285618918285,282.89285714285717,0.2,288.89285618918285,282.89285714285717,103.8,288.89285618918285,282.89285714285717,205.2,288.89285618918285,282.89285714285717,311.6,288.89285618918285,282.89285714285717,419.5,323.89285618918285,227.89285714285714,524.8,442.64285618918285,74.14285714285714,635.3,508.89285618918285,27.892857142857146,738,526.3928561891828,16.642857142857146,840.3,528.8928561891828,16.642857142857146,954.6,528.8928561891828,17.892857142857146,1054.7,527.6428561891828,26.642857142857146,1160.2,526.3928561891828,29.142857142857146,1267.9,526.3928561891828,31.642857142857146,1368.7,526.3928561891828,31.642857142857146,1468.7,526.3928561891828,31.642857142857146,1569.7,526.3928561891828,31.642857142857146,1670.2,526.3928561891828,31.642857142857146,1770.3,526.3928561891828,31.642857142857146,1885.8,551.3928561891828,-73.35714285714286,1990.4,551.3928561891828,-73.35714285714286,2090.4,551.3928561891828,-73.35714285714286,2203.1,551.3928561891828,-73.35714285714286,2303.8,551.3928561891828,-73.35714285714286,2404,551.3928561891828,-73.35714285714286,2504.3,551.3928561891828,-73.35714285714286,2605.1,551.3928561891828,-73.35714285714286,2719.4,551.3928561891828,-73.35714285714286,2820.1,551.3928561891828,-73.35714285714286,2924.4,551.3928561891828,-73.35714285714286,3024.9,551.3928561891828,-73.35714285714286,3124.9,551.3928561891828,-73.35714285714286,3236.4,551.3928561891828,-73.35714285714286,3339.9,551.3928561891828,-73.35714285714286,3440.2,551.3928561891828,-73.35714285714286,3547.3,551.3928561891828,-73.35714285714286,3654.1,551.3928561891828,-73.35714285714286,3755.5,551.3928561891828,-73.35714285714286,3860.4,551.3928561891828,-73.35714285714286,3966,551.3928561891828,-73.35714285714286,4069.5,551.3928561891828,-73.35714285714286,4174.5,551.3928561891828,-73.35714285714286,4287.9,551.3928561891828,-73.35714285714286,4389.9,551.3928561891828,-73.35714285714286,4490.4,551.3928561891828,-73.35714285714286,4603.3,551.3928561891828,-73.35714285714286,4704.8,551.3928561891828,-73.35714285714286,4820.6,551.3928561891828,-73.35714285714286,4925.2]","[1542.7,1542.7,1000,0,542.7,""oops"",""up"",""left"",""bad_move"",3918.7,2375.5,1980.2,1543.2,395.3,""smooth"",""up"",""up"",""good_move"",6561.4,2642.3,2267.7,3919.1,374.6,""smooth"",""up"",""up"",""good_move"",9511.7,2950,2553.9,6561.7,396.1,""smooth"",""right"",""right"",""good_move"",12595.6,3083.4,2761.2,9512.2,322.2,""smooth"",""up"",""up"",""good_move"",15752.7,3156.5,2798.2,12596.2,358.3,""oops"",""right"",""right"",""good_move"",24468,8715,1798,22297.7,372.3,""oops"",""right"",""left"",""bad_move"",27564.7,3096.3,2661,24468.4,435.3,""smooth"",""right"",""right"",""good_move"",29659.5,2094.5,1675.1,27565,419.5,""smooth"",""right"",""right"",""good_move"",32568.2,2908.3,2636.5,29659.9,271.8,""oops"",""right"",""down"",""bad_move""]","",""
"6042","","<div style=""width:500px;"">
  <p>What determined the result of this run?</p>
  </div>","17","html-slider-response","65","1391370","0.0-5.0-1.11","38","1","2025-07-16 08:17:15","1f75c3e559b7213887762d5229550c2b","154.117.143.238","Mozilla/5.0 (Windows NT 10.0; Win64; x64) AppleWebKit/537.36 (KHTML, like Gecko) Chrome/138.0.0.0 Safari/537.36","WebKit","Chrome","138.0.0.0","Windows","10.0","https://app.prolific.com/","en-US,en;q=0.9","60ad28c6d838565067ab1b6c","686e379bc37a29ffa5cdc956","68776003d8d80ea8c5336e3f","1","1","60ad28c6d838565067ab1b6c","1","1","2025-07-16T08:40:30.592Z","","","","","","","","","","","AttribQ","","50","","","","","","","","","","","","","","","","","","","","","","","","","","","","",""
"2296","","<div style=""width:500px;"">
  <p>How much control did you have over the ball?</p>
  </div>","19","html-slider-response","66","1393667","0.0-5.0-2.11","38","1","2025-07-16 08:17:15","1f75c3e559b7213887762d5229550c2b","154.117.143.238","Mozilla/5.0 (Windows NT 10.0; Win64; x64) AppleWebKit/537.36 (KHTML, like Gecko) Chrome/138.0.0.0 Safari/537.36","WebKit","Chrome","138.0.0.0","Windows","10.0","https://app.prolific.com/","en-US,en;q=0.9","60ad28c6d838565067ab1b6c","686e379bc37a29ffa5cdc956","68776003d8d80ea8c5336e3f","1","1","60ad28c6d838565067ab1b6c","1","1","2025-07-16T08:40:32.889Z","","","","","","","","","","","ControlQ","","50","","","","","","","","","","","","","","","","","","","","","","","","","","","","",""
"2109","","<div style=""width:500px;"">
  <p>How would you describe your current emotional state?</p>
  </div>","39","html-slider-response","67","1395776","0.0-5.0-3.11","38","1","2025-07-16 08:17:15","1f75c3e559b7213887762d5229550c2b","154.117.143.238","Mozilla/5.0 (Windows NT 10.0; Win64; x64) AppleWebKit/537.36 (KHTML, like Gecko) Chrome/138.0.0.0 Safari/537.36","WebKit","Chrome","138.0.0.0","Windows","10.0","https://app.prolific.com/","en-US,en;q=0.9","60ad28c6d838565067ab1b6c","686e379bc37a29ffa5cdc956","68776003d8d80ea8c5336e3f","1","1","60ad28c6d838565067ab1b6c","1","1","2025-07-16T08:40:34.999Z","","","","","","","","","","","StressQ","","50","","","","","","","","","","","","","","","","","","","","","","","","","","","","",""
"2368","","<div style=""width:500px;"">
  <p>What best describes how you currently feel?</p>
  </div>","83","html-slider-response","68","1398146","0.0-5.0-4.11","38","1","2025-07-16 08:17:15","1f75c3e559b7213887762d5229550c2b","154.117.143.238","Mozilla/5.0 (Windows NT 10.0; Win64; x64) AppleWebKit/537.36 (KHTML, like Gecko) Chrome/138.0.0.0 Safari/537.36","WebKit","Chrome","138.0.0.0","Windows","10.0","https://app.prolific.com/","en-US,en;q=0.9","60ad28c6d838565067ab1b6c","686e379bc37a29ffa5cdc956","68776003d8d80ea8c5336e3f","1","1","60ad28c6d838565067ab1b6c","1","1","2025-07-16T08:40:37.368Z","","","","","","","","","","","MotivationQ","","50","","","","","","","","","","","","","","","","","","","","","","","","","","","","",""
"","","","","ctl-task-cpt","69","1426743","0.0-5.0-0.12","38","1","2025-07-16 08:17:15","1f75c3e559b7213887762d5229550c2b","154.117.143.238","Mozilla/5.0 (Windows NT 10.0; Win64; x64) AppleWebKit/537.36 (KHTML, like Gecko) Chrome/138.0.0.0 Safari/537.36","WebKit","Chrome","138.0.0.0","Windows","10.0","https://app.prolific.com/","en-US,en;q=0.9","60ad28c6d838565067ab1b6c","686e379bc37a29ffa5cdc956","68776003d8d80ea8c5336e3f","1","1","60ad28c6d838565067ab1b6c","1","1","2025-07-16T08:41:05.965Z","","","","","","","","","","","","","","win-only","1","g1:NE,g2:SW","0.7","13","0","1403302.6","1555.9","6562.6","25566.6","1","4","8","6","2","8","8","8","0","0.06060606060606061","2488.2","3000","1365","[""down"",""left""]","{""num_key_presses"":6,""num_perfect"":5,""num_errors"":0,""num_randdir"":1,""num_randdir_good_moves"":1,""num_whilered"":0,""num_whileblue"":0,""num_blue"":1,""num_good_moves"":6}","[283.89285618918285,277.89285714285717,0.3,283.89285618918285,277.89285714285717,102.9,283.89285618918285,277.89285714285717,205.5,283.89285618918285,277.89285714285717,305.6,297.64285618918285,246.64285714285714,409.5,363.89285618918285,151.64285714285714,509.5,210.14285618918282,326.64285714285717,610.3,127.64285618918282,411.64285714285717,720.1,122.64285618918282,416.64285714285717,821.4,102.64285618918282,439.14285714285717,924.9,148.89285618918282,411.64285714285717,1025.2,308.89285618918285,322.89285714285717,1137.4,185.14285618918282,450.39285714285717,1237.7,122.64285618918282,499.14285714285717,1340.6,246.39285618918282,336.64285714285717,1444.5,306.39285618918285,306.64285714285717,1544.5,196.39285618918282,435.39285714285717,1645.1,101.39285618918282,535.3928571428571,1755.2,98.89285618918282,536.6428571428571,1859.6,98.89285618918282,535.3928571428571,1960.6,98.89285618918282,535.3928571428571,2072.2,98.89285618918282,535.3928571428571,2172.2,98.89285618918282,535.3928571428571,2275.8,52.64285618918283,527.8928571428571,2379.6,42.64285618918283,530.3928571428571,2487.8,42.64285618918283,530.3928571428571,2589.9,42.64285618918283,530.3928571428571,2694.3,42.64285618918283,530.3928571428571,2795.2,278.89285618918285,96.64285714285714,2902.3,433.89285618918285,-74.60714285714286,3007.7,433.89285618918285,-74.60714285714286,3108.1,433.89285618918285,-74.60714285714286,3209.9,433.89285618918285,-74.60714285714286,3322.3,433.89285618918285,-74.60714285714286,3424.6,433.89285618918285,-74.60714285714286,3529.7,433.89285618918285,-74.60714285714286,3639.5,433.89285618918285,-74.60714285714286,3740,433.89285618918285,-74.60714285714286,3845.1,433.89285618918285,-74.60714285714286,3959.4,433.89285618918285,-74.60714285714286,4068.1,433.89285618918285,-74.60714285714286,4170.3,433.89285618918285,-74.60714285714286,4271.4,433.89285618918285,-74.60714285714286,4373.1,433.89285618918285,-74.60714285714286,4475.3,433.89285618918285,-74.60714285714286,4588.7,433.89285618918285,-74.60714285714286,4689.3,433.89285618918285,-74.60714285714286,4790.5,433.89285618918285,-74.60714285714286,4894.4]","[1499.1,1499.1,1000,0,499.1,""smooth"",""down"",""down"",""good_move"",4630.8,3131.1,2753.7,1499.7,377.4,""oops"",""left"",""down"",""good_move"",7272.9,2641.7,2297.4,4631.2,344.3,""smooth"",""left"",""left"",""good_move"",13532.3,6259.1,2754.8,10418.3,359.2,""smooth"",""down"",""down"",""good_move"",16194.4,2661.7,2311.9,13532.7,349.8,""smooth"",""left"",""left"",""good_move"",18880.6,2685.8,2365.8,16194.8,320,""smooth"",""left"",""left"",""good_move""]","",""
"7090","","<div style=""width:500px;"">
  <p>What determined the result of this run?</p>
  </div>","7","html-slider-response","70","1433833","0.0-5.0-1.12","38","1","2025-07-16 08:17:15","1f75c3e559b7213887762d5229550c2b","154.117.143.238","Mozilla/5.0 (Windows NT 10.0; Win64; x64) AppleWebKit/537.36 (KHTML, like Gecko) Chrome/138.0.0.0 Safari/537.36","WebKit","Chrome","138.0.0.0","Windows","10.0","https://app.prolific.com/","en-US,en;q=0.9","60ad28c6d838565067ab1b6c","686e379bc37a29ffa5cdc956","68776003d8d80ea8c5336e3f","1","1","60ad28c6d838565067ab1b6c","1","1","2025-07-16T08:41:13.055Z","","","","","","","","","","","AttribQ","","50","","","","","","","","","","","","","","","","","","","","","","","","","","","","",""
"3914","","<div style=""width:500px;"">
  <p>How much control did you have over the ball?</p>
  </div>","77","html-slider-response","71","1437749","0.0-5.0-2.12","38","1","2025-07-16 08:17:15","1f75c3e559b7213887762d5229550c2b","154.117.143.238","Mozilla/5.0 (Windows NT 10.0; Win64; x64) AppleWebKit/537.36 (KHTML, like Gecko) Chrome/138.0.0.0 Safari/537.36","WebKit","Chrome","138.0.0.0","Windows","10.0","https://app.prolific.com/","en-US,en;q=0.9","60ad28c6d838565067ab1b6c","686e379bc37a29ffa5cdc956","68776003d8d80ea8c5336e3f","1","1","60ad28c6d838565067ab1b6c","1","1","2025-07-16T08:41:16.971Z","","","","","","","","","","","ControlQ","","50","","","","","","","","","","","","","","","","","","","","","","","","","","","","",""
"3414","","<div style=""width:500px;"">
  <p>How would you describe your current emotional state?</p>
  </div>","18","html-slider-response","72","1441164","0.0-5.0-3.12","38","1","2025-07-16 08:17:15","1f75c3e559b7213887762d5229550c2b","154.117.143.238","Mozilla/5.0 (Windows NT 10.0; Win64; x64) AppleWebKit/537.36 (KHTML, like Gecko) Chrome/138.0.0.0 Safari/537.36","WebKit","Chrome","138.0.0.0","Windows","10.0","https://app.prolific.com/","en-US,en;q=0.9","60ad28c6d838565067ab1b6c","686e379bc37a29ffa5cdc956","68776003d8d80ea8c5336e3f","1","1","60ad28c6d838565067ab1b6c","1","1","2025-07-16T08:41:20.386Z","","","","","","","","","","","StressQ","","50","","","","","","","","","","","","","","","","","","","","","","","","","","","","",""
"7134","","<div style=""width:500px;"">
  <p>What best describes how you currently feel?</p>
  </div>","80","html-slider-response","73","1448298","0.0-5.0-4.12","38","1","2025-07-16 08:17:15","1f75c3e559b7213887762d5229550c2b","154.117.143.238","Mozilla/5.0 (Windows NT 10.0; Win64; x64) AppleWebKit/537.36 (KHTML, like Gecko) Chrome/138.0.0.0 Safari/537.36","WebKit","Chrome","138.0.0.0","Windows","10.0","https://app.prolific.com/","en-US,en;q=0.9","60ad28c6d838565067ab1b6c","686e379bc37a29ffa5cdc956","68776003d8d80ea8c5336e3f","1","1","60ad28c6d838565067ab1b6c","1","1","2025-07-16T08:41:27.521Z","","","","","","","","","","","MotivationQ","","50","","","","","","","","","","","","","","","","","","","","","","","","","","","","",""
"","","","","ctl-task-cpt","74","1475040","0.0-5.0-0.13","38","1","2025-07-16 08:17:15","1f75c3e559b7213887762d5229550c2b","154.117.143.238","Mozilla/5.0 (Windows NT 10.0; Win64; x64) AppleWebKit/537.36 (KHTML, like Gecko) Chrome/138.0.0.0 Safari/537.36","WebKit","Chrome","138.0.0.0","Windows","10.0","https://app.prolific.com/","en-US,en;q=0.9","60ad28c6d838565067ab1b6c","686e379bc37a29ffa5cdc956","68776003d8d80ea8c5336e3f","1","1","60ad28c6d838565067ab1b6c","1","1","2025-07-16T08:41:54.262Z","","","","","","","","","","","","","","win-only","1","g1:NE,g2:SW","0.8","14","0","1453454.1","1979.5","6981.3","23720.9","1","4","4","6","1","1","1","9","8","0.06818181818181818","2802.8","3000","1600","[""up"",""right""]","{""num_key_presses"":4,""num_perfect"":3,""num_errors"":0,""num_randdir"":1,""num_randdir_good_moves"":1,""num_whilered"":0,""num_whileblue"":0,""num_blue"":2,""num_good_moves"":4}","[278.89285618918285,291.64285714285717,0.2,278.89285618918285,291.64285714285717,100.4,278.89285618918285,291.64285714285717,200.7,278.89285618918285,291.64285714285717,301.1,478.89285618918285,51.642857142857146,417.1,593.8928561891828,-57.107142857142854,518.6,595.1428561891828,-63.357142857142854,619.1,476.39285618918285,75.39285714285714,722.4,172.64285618918282,432.89285714285717,826.7,133.89285618918282,485.39285714285717,931.7,87.64285618918282,530.3928571428571,1031.7,68.89285618918282,547.8928571428571,1136.8,70.14285618918282,542.8928571428571,1251.6,68.89285618918282,541.6428571428571,1351.8,68.89285618918282,544.1428571428571,1457.5,68.89285618918282,544.1428571428571,1560.7,68.89285618918282,544.1428571428571,1660.7,68.89285618918282,544.1428571428571,1761.2,68.89285618918282,544.1428571428571,1861.7,68.89285618918282,544.1428571428571,1961.6,185.14285618918282,396.64285714285717,2066.1,432.64285618918285,216.64285714285714,2166.7,470.14285618918285,189.14285714285714,2279.5,483.89285618918285,172.89285714285714,2380.9,502.64285618918285,126.64285714285714,2486.6,511.39285618918285,85.39285714285714,2587,513.8928561891828,69.14285714285714,2692.6,513.8928561891828,69.14285714285714,2800.9,513.8928561891828,69.14285714285714,2901.4,513.8928561891828,69.14285714285714,3001.7,513.8928561891828,69.14285714285714,3113.2,533.8928561891828,-49.607142857142854,3215.8,538.8928561891828,-77.10714285714286,3318.1,538.8928561891828,-77.10714285714286,3421.7,538.8928561891828,-77.10714285714286,3523.3,538.8928561891828,-77.10714285714286,3627.7,538.8928561891828,-77.10714285714286,3733.7,538.8928561891828,-77.10714285714286,3837.1,538.8928561891828,-77.10714285714286,3943.1,538.8928561891828,-77.10714285714286,4043.7,538.8928561891828,-77.10714285714286,4145.9,538.8928561891828,-77.10714285714286,4250.1,538.8928561891828,-77.10714285714286,4351.7,538.8928561891828,-77.10714285714286,4456.5,538.8928561891828,-77.10714285714286,4556.8,538.8928561891828,-77.10714285714286,4665,538.8928561891828,-77.10714285714286,4765.1,538.8928561891828,-77.10714285714286,4866.3,538.8928561891828,-77.10714285714286,4966.5]","[1393.5,1393.6,1000,0,393.6,""smooth"",""up"",""up"",""good_move"",4130.3,2736.4,2373.7,1393.9,362.7,""smooth"",""right"",""right"",""good_move"",13772.8,9642,2320.5,11008.7,443.6,""oops"",""up"",""up"",""good_move"",16644,2870.9,2526.5,13773.2,344.3,""smooth"",""right"",""right"",""good_move""]","",""
"3002","","<div style=""width:500px;"">
  <p>What determined the result of this run?</p>
  </div>","78","html-slider-response","75","1478043","0.0-5.0-1.13","38","1","2025-07-16 08:17:15","1f75c3e559b7213887762d5229550c2b","154.117.143.238","Mozilla/5.0 (Windows NT 10.0; Win64; x64) AppleWebKit/537.36 (KHTML, like Gecko) Chrome/138.0.0.0 Safari/537.36","WebKit","Chrome","138.0.0.0","Windows","10.0","https://app.prolific.com/","en-US,en;q=0.9","60ad28c6d838565067ab1b6c","686e379bc37a29ffa5cdc956","68776003d8d80ea8c5336e3f","1","1","60ad28c6d838565067ab1b6c","1","1","2025-07-16T08:41:57.265Z","","","","","","","","","","","AttribQ","","50","","","","","","","","","","","","","","","","","","","","","","","","","","","","",""
"2156","","<div style=""width:500px;"">
  <p>How much control did you have over the ball?</p>
  </div>","77","html-slider-response","76","1480200","0.0-5.0-2.13","38","1","2025-07-16 08:17:15","1f75c3e559b7213887762d5229550c2b","154.117.143.238","Mozilla/5.0 (Windows NT 10.0; Win64; x64) AppleWebKit/537.36 (KHTML, like Gecko) Chrome/138.0.0.0 Safari/537.36","WebKit","Chrome","138.0.0.0","Windows","10.0","https://app.prolific.com/","en-US,en;q=0.9","60ad28c6d838565067ab1b6c","686e379bc37a29ffa5cdc956","68776003d8d80ea8c5336e3f","1","1","60ad28c6d838565067ab1b6c","1","1","2025-07-16T08:41:59.422Z","","","","","","","","","","","ControlQ","","50","","","","","","","","","","","","","","","","","","","","","","","","","","","","",""
"1984","","<div style=""width:500px;"">
  <p>How would you describe your current emotional state?</p>
