"rt","response_timestamp","stimulus","response","trial_type","trial_index","time_elapsed","internal_node_id","run_id","condition","recorded_at","source_code_version","ip","user_agent","device","browser","browser_version","platform","platform_version","referer","accept_language","PROLIFIC_PID","STUDY_ID","SESSION_ID","WEEK","prolific_id","week","realtime","success","responses","item_order","radio_event_ids","radio_event_times","key_event_times","mouse_event_times","straightlining","zigzagging","honeypot","eventType","view_history","slider_start","which_type","canvas_config","goals_layout","control_level","trial_number","tutorial_trial_number","trial_start_time","phase1_start_time","phase2_start_time","phase3_start_time","goal_1_value","goal_1_distance","goal_2_value","goal_2_distance","goal_selected","outcome","outcome_total","participant_final_score","participant_initial_score","participant_final_score_prop","goal_choice_rt","allocated_time","allocated_time_remaining","goal_direction","counts","mouse_movements","key_presses","question_order","question_id"
"8477","1752050295718","<p style='font-size:40px;line-height:1.25'><strong>Welcome to the experiment!</strong></p><p style='font-size:1.1em;line-height:1.25'>Thank you for participanting in our experiment again! You will be asked to play the Dysfunctional Ball Game again. We will briefly recap the rules before we start.</p><p style='font-size:1.1em;line-height:1.25'>Press <strong>Next</strong> to continue.</p>","0","custom-html-button-response","0","8479","0.0-0.0","1","1","2025-07-09 08:38:06","01610cd0009c79a99da7d0a3353eb402","93.108.112.26","Mozilla/5.0 (Windows NT 10.0; Win64; x64) AppleWebKit/537.36 (KHTML, like Gecko) Chrome/138.0.0.0 Safari/537.36","WebKit","Chrome","138.0.0.0","Windows","10.0","https://app.prolific.com/","en-US,en;q=0.9","6140ef8d27499e70e8740918","683db7602f5db6a34d12d064","686e2a63cfc3fe448ef090b1","1","6140ef8d27499e70e8740918","1","2025-07-09T08:38:15.719Z","","","","","","","","","","","","","","","","","","","","","","","","","","","","","","","","","","","","","","","","","",""
"6573","","","","fullscreen","1","16070","0.0-1.0","1","1","2025-07-09 08:38:06","01610cd0009c79a99da7d0a3353eb402","93.108.112.26","Mozilla/5.0 (Windows NT 10.0; Win64; x64) AppleWebKit/537.36 (KHTML, like Gecko) Chrome/138.0.0.0 Safari/537.36","WebKit","Chrome","138.0.0.0","Windows","10.0","https://app.prolific.com/","en-US,en;q=0.9","6140ef8d27499e70e8740918","683db7602f5db6a34d12d064","686e2a63cfc3fe448ef090b1","1","6140ef8d27499e70e8740918","1","","true","","","","","","","","","","","","","","","","","","","","","","","","","","","","","","","","","","","","","","","","",""
"3898","1752050307208","<p style='font-size:1.1em;line-height:1.25'>In the following, we will ask you a few questions relating to your feelings in the last 24 hours.<br></p><p style='font-size:1.1em;line-height:1.25'>Press the <strong>Next</strong> button to continue.</p>","0","custom-html-button-response","2","19969","0.0-2.0-0.0","1","1","2025-07-09 08:38:06","01610cd0009c79a99da7d0a3353eb402","93.108.112.26","Mozilla/5.0 (Windows NT 10.0; Win64; x64) AppleWebKit/537.36 (KHTML, like Gecko) Chrome/138.0.0.0 Safari/537.36","WebKit","Chrome","138.0.0.0","Windows","10.0","https://app.prolific.com/","en-US,en;q=0.9","6140ef8d27499e70e8740918","683db7602f5db6a34d12d064","686e2a63cfc3fe448ef090b1","1","6140ef8d27499e70e8740918","1","2025-07-09T08:38:27.208Z","","","","","","","","","","","","","","","","","","","","","","","","","","","","","","","","","","","","","","","","","",""
"73564.29999998212","","","","survey-template","3","93536","0.0-2.0-1.0","1","1","2025-07-09 08:38:06","01610cd0009c79a99da7d0a3353eb402","93.108.112.26","Mozilla/5.0 (Windows NT 10.0; Win64; x64) AppleWebKit/537.36 (KHTML, like Gecko) Chrome/138.0.0.0 Safari/537.36","WebKit","Chrome","138.0.0.0","Windows","10.0","https://app.prolific.com/","en-US,en;q=0.9","6140ef8d27499e70e8740918","683db7602f5db6a34d12d064","686e2a63cfc3fe448ef090b1","1","6140ef8d27499e70e8740918","1","2025-07-09T08:39:40.775Z","","{""Q01"":""2"",""Q02"":""1"",""Q03"":""2"",""Q04"":""3"",""Q05"":""3"",""Q06"":""3"",""Q07"":""0"",""Q08"":""0"",""Q09"":""2"",""Q10"":""2"",""Q11"":""3"",""Q12"":""0"",""Q13"":""5"",""Q14"":""1"",""Q15"":""2"",""Q16"":""2"",""Q17"":""3"",""Q18"":""1"",""Q19"":""0"",""Q20"":""1"",""Q21"":""1"",""Q22"":""0""}","[0,1,2,3,4,5,6,7,8,9,10,11,12,13,14,15,16,17,18,19,20,21]","[""Q01"",""Q02"",""Q03"",""Q04"",""Q05"",""Q06"",""Q07"",""Q08"",""Q09"",""Q10"",""Q11"",""Q12"",""Q13"",""Q14"",""Q15"",""Q16"",""Q17"",""Q18"",""Q19"",""Q20"",""Q20"",""Q21"",""Q22""]","[5561.4000000059605,6527.4000000059605,7614.299999982119,10129.40000000596,12564.40000000596,13436.299999982119,14606.299999982119,16161.199999988079,19310.29999998212,20380.29999998212,21838.5,23380.19999998808,24634.29999998212,26711.19999998808,30928.29999998212,34307.40000000596,36280.09999999404,37925.19999998808,39565.29999998212,56674.19999998808,68448.19999998808,71019.19999998808,72911.69999998808]","[]","[0,5561.4000000059605,6527.4000000059605,7614.299999982119,9078.59999999404,10129.40000000596,10968.40000000596,12564.40000000596,13436.299999982119,14606.299999982119,16161.199999988079,18003.19999998808,19310.29999998212,20380.29999998212,21838.5,23380.19999998808,24634.29999998212,26711.19999998808,30928.29999998212,34307.40000000596,36280.09999999404,37925.19999998808,39565.29999998212,56674.19999998808,68448.19999998808,71019.19999998808,72911.69999998808,73561.09999999404]","0.2727272727272727","0.47619047619047616","0","drsp","","","","","","","","","","","","","","","","","","","","","","","","","","","","","","",""
"14222","","","","survey-template","4","107773","0.0-2.0-2.0","1","1","2025-07-09 08:38:06","01610cd0009c79a99da7d0a3353eb402","93.108.112.26","Mozilla/5.0 (Windows NT 10.0; Win64; x64) AppleWebKit/537.36 (KHTML, like Gecko) Chrome/138.0.0.0 Safari/537.36","WebKit","Chrome","138.0.0.0","Windows","10.0","https://app.prolific.com/","en-US,en;q=0.9","6140ef8d27499e70e8740918","683db7602f5db6a34d12d064","686e2a63cfc3fe448ef090b1","1","6140ef8d27499e70e8740918","1","2025-07-09T08:39:55.012Z","","{""Q01"":""2"",""Q02"":""4"",""Q03"":""3""}","[0,1,2]","[""Q01"",""Q02"",""Q03""]","[4606.399999976158,9866.399999976158,13727.199999988079]","[]","[4606.399999976158,9866.399999976158,13727.199999988079,14221.399999976158]","0.3333333333333333","0.5","0","stress","","","","","","","","","","","","","","","","","","","","","","","","","","","","","","",""
"31093","","","","instructions","5","138868","0.0-3.0-0.0","1","1","2025-07-09 08:38:06","01610cd0009c79a99da7d0a3353eb402","93.108.112.26","Mozilla/5.0 (Windows NT 10.0; Win64; x64) AppleWebKit/537.36 (KHTML, like Gecko) Chrome/138.0.0.0 Safari/537.36","WebKit","Chrome","138.0.0.0","Windows","10.0","https://app.prolific.com/","en-US,en;q=0.9","6140ef8d27499e70e8740918","683db7602f5db6a34d12d064","686e2a63cfc3fe448ef090b1","1","6140ef8d27499e70e8740918","1","","","","","","","","","","","","","[{""page_index"":0,""viewing_time"":31093}]","","","","","","","","","","","","","","","","","","","","","","","","","","","","","",""
"13403","","<p>Before you start with this game please answer the following three questions yourself. </p>
  <p>Through this game, we measure several aspects of your cognitive performance, such as reaction times, multi-tasking capabilities </p>
  <p>and the ability to assess the situation you are in.</p>
  <p></p>
  <p><b>How good do you usually are in such tasks?</b></p>","61","html-slider-response","6","152286","0.0-4.0-0.0","1","1","2025-07-09 08:38:06","01610cd0009c79a99da7d0a3353eb402","93.108.112.26","Mozilla/5.0 (Windows NT 10.0; Win64; x64) AppleWebKit/537.36 (KHTML, like Gecko) Chrome/138.0.0.0 Safari/537.36","WebKit","Chrome","138.0.0.0","Windows","10.0","https://app.prolific.com/","en-US,en;q=0.9","6140ef8d27499e70e8740918","683db7602f5db6a34d12d064","686e2a63cfc3fe448ef090b1","1","6140ef8d27499e70e8740918","1","2025-07-09T08:40:39.525Z","","","","","","","","","","","PreSkillQ","","50","","","","","","","","","","","","","","","","","","","","","","","","","","","","",""
"3711","","<div style=""width:500px;"">
  <p>How well do you think you will perform in this task compared to other participants?</p>
  </div>","58","html-slider-response","7","155998","0.0-4.0-1.0","1","1","2025-07-09 08:38:06","01610cd0009c79a99da7d0a3353eb402","93.108.112.26","Mozilla/5.0 (Windows NT 10.0; Win64; x64) AppleWebKit/537.36 (KHTML, like Gecko) Chrome/138.0.0.0 Safari/537.36","WebKit","Chrome","138.0.0.0","Windows","10.0","https://app.prolific.com/","en-US,en;q=0.9","6140ef8d27499e70e8740918","683db7602f5db6a34d12d064","686e2a63cfc3fe448ef090b1","1","6140ef8d27499e70e8740918","1","2025-07-09T08:40:43.237Z","","","","","","","","","","","PrePerfQ","","50","","","","","","","","","","","","","","","","","","","","","","","","","","","","",""
"4098","","<div style=""width:500px;"">
  <p>What best describes how you currently feel?</p>
  </div>","54","html-slider-response","8","160097","0.0-4.0-2.0","1","1","2025-07-09 08:38:06","01610cd0009c79a99da7d0a3353eb402","93.108.112.26","Mozilla/5.0 (Windows NT 10.0; Win64; x64) AppleWebKit/537.36 (KHTML, like Gecko) Chrome/138.0.0.0 Safari/537.36","WebKit","Chrome","138.0.0.0","Windows","10.0","https://app.prolific.com/","en-US,en;q=0.9","6140ef8d27499e70e8740918","683db7602f5db6a34d12d064","686e2a63cfc3fe448ef090b1","1","6140ef8d27499e70e8740918","1","2025-07-09T08:40:47.336Z","","","","","","","","","","","PreMotivationQ","","50","","","","","","","","","","","","","","","","","","","","","","","","","","","","",""
"","","","","ctl-task-cpt","9","190105","0.0-5.0-0.0","1","1","2025-07-09 08:38:06","01610cd0009c79a99da7d0a3353eb402","93.108.112.26","Mozilla/5.0 (Windows NT 10.0; Win64; x64) AppleWebKit/537.36 (KHTML, like Gecko) Chrome/138.0.0.0 Safari/537.36","WebKit","Chrome","138.0.0.0","Windows","10.0","https://app.prolific.com/","en-US,en;q=0.9","6140ef8d27499e70e8740918","683db7602f5db6a34d12d064","686e2a63cfc3fe448ef090b1","1","6140ef8d27499e70e8740918","1","2025-07-09T08:41:17.344Z","","","","","","","","","","","","","","win-only","2","g1:SE,g2:NW","1","1","0","161385.4","4271.7","9275.5","26986.4","1","4","8","6","2","8","7","7","0","0.05303030303030303","705.4","3000","1135","[""left"",""up""]","{""num_key_presses"":7,""num_perfect"":6,""num_errors"":1,""num_randdir"":0,""num_randdir_good_moves"":0,""num_whilered"":0,""num_whileblue"":0,""num_blue"":0,""num_good_moves"":6}","[416.57142857142856,414.47767857142856,0.1,416.57142857142856,414.47767857142856,103.6,416.57142857142856,414.47767857142856,204.6,416.57142857142856,414.47767857142856,309,354.57142857142856,321.47767857142856,409,136.57142857142856,120.47767857142857,514,85.57142857142857,82.47767857142857,614.7,80.57142857142857,74.47767857142857,719.3,80.57142857142857,74.47767857142857,819.8,102.57142857142857,103.47767857142857,923.8,311.57142857142856,291.47767857142856,1023.8,601.5714285714286,476.47767857142856,1124.5,649.5714285714286,502.47767857142856,1225.2,656.5714285714286,515.4776785714286,1328.7,682.5714285714286,547.4776785714286,1433.8,690.5714285714286,554.4776785714286,1533.9,690.5714285714286,554.4776785714286,1638.8,690.5714285714286,554.4776785714286,1739,704.5714285714286,562.4776785714286,1839.2,718.5714285714286,568.4776785714286,1944.6,718.5714285714286,568.4776785714286,2048.9,718.5714285714286,568.4776785714286,2149.2,718.5714285714286,568.4776785714286,2253.7,718.5714285714286,568.4776785714286,2353.7,718.5714285714286,568.4776785714286,2458.9,718.5714285714286,568.4776785714286,2558.9,718.5714285714286,568.4776785714286,2659.3,718.5714285714286,568.4776785714286,2759.4,718.5714285714286,568.4776785714286,2859.4,718.5714285714286,568.4776785714286,2959.4,718.5714285714286,568.4776785714286,3063.7,718.5714285714286,568.4776785714286,3164.4,718.5714285714286,568.4776785714286,3268.9,718.5714285714286,568.4776785714286,3374.1,718.5714285714286,568.4776785714286,3479,718.5714285714286,568.4776785714286,3579,718.5714285714286,568.4776785714286,3683.7,718.5714285714286,568.4776785714286,3783.8,718.5714285714286,568.4776785714286,3884.9,718.5714285714286,568.4776785714286,3989.5,718.5714285714286,568.4776785714286,4094.8,718.5714285714286,568.4776785714286,4199.2,718.5714285714286,568.4776785714286,4304.4,718.5714285714286,568.4776785714286,4404.7,718.5714285714286,568.4776785714286,4509.5,718.5714285714286,568.4776785714286,4614.4,718.5714285714286,568.4776785714286,4719.1,718.5714285714286,568.4776785714286,4819.1,718.5714285714286,568.4776785714286,4923.4]","[256.3,256.3,1000,0,-743.7,""error"",""-"",""-"",""no_move"",3887.9,3631.5,2306,1260,321.9,""smooth"",""up"",""up"",""good_move"",6703.9,2815.7,2492.1,3888.2,323.6,""smooth"",""up"",""up"",""good_move"",9304,2599.9,2292.2,6704.1,307.7,""smooth"",""up"",""up"",""good_move"",12416,3111.8,2837.5,9304.2,274.3,""smooth"",""left"",""left"",""good_move"",15511.8,3095.6,2787.9,12416.2,307.7,""smooth"",""left"",""left"",""good_move"",17623.9,2112.1,1746.5,15511.9,365.6,""smooth"",""left"",""left"",""good_move""]","",""
"2890","","<div style=""width:500px;"">
  <p>What determined the result of this run?</p>
  </div>","100","html-slider-response","10","192996","0.0-5.0-1.0","1","1","2025-07-09 08:38:06","01610cd0009c79a99da7d0a3353eb402","93.108.112.26","Mozilla/5.0 (Windows NT 10.0; Win64; x64) AppleWebKit/537.36 (KHTML, like Gecko) Chrome/138.0.0.0 Safari/537.36","WebKit","Chrome","138.0.0.0","Windows","10.0","https://app.prolific.com/","en-US,en;q=0.9","6140ef8d27499e70e8740918","683db7602f5db6a34d12d064","686e2a63cfc3fe448ef090b1","1","6140ef8d27499e70e8740918","1","2025-07-09T08:41:20.235Z","","","","","","","","","","","AttribQ","","50","","","","","","","","","","","","","","","","","","","","","","","","","","","","",""
"1869","","<div style=""width:500px;"">
  <p>How much control did you have over the ball?</p>
  </div>","100","html-slider-response","11","194866","0.0-5.0-2.0","1","1","2025-07-09 08:38:06","01610cd0009c79a99da7d0a3353eb402","93.108.112.26","Mozilla/5.0 (Windows NT 10.0; Win64; x64) AppleWebKit/537.36 (KHTML, like Gecko) Chrome/138.0.0.0 Safari/537.36","WebKit","Chrome","138.0.0.0","Windows","10.0","https://app.prolific.com/","en-US,en;q=0.9","6140ef8d27499e70e8740918","683db7602f5db6a34d12d064","686e2a63cfc3fe448ef090b1","1","6140ef8d27499e70e8740918","1","2025-07-09T08:41:22.105Z","","","","","","","","","","","ControlQ","","50","","","","","","","","","","","","","","","","","","","","","","","","","","","","",""
"4886","","<div style=""width:500px;"">
  <p>How would you describe your current emotional state?</p>
  </div>","27","html-slider-response","12","199753","0.0-5.0-3.0","1","1","2025-07-09 08:38:06","01610cd0009c79a99da7d0a3353eb402","93.108.112.26","Mozilla/5.0 (Windows NT 10.0; Win64; x64) AppleWebKit/537.36 (KHTML, like Gecko) Chrome/138.0.0.0 Safari/537.36","WebKit","Chrome","138.0.0.0","Windows","10.0","https://app.prolific.com/","en-US,en;q=0.9","6140ef8d27499e70e8740918","683db7602f5db6a34d12d064","686e2a63cfc3fe448ef090b1","1","6140ef8d27499e70e8740918","1","2025-07-09T08:41:26.992Z","","","","","","","","","","","StressQ","","50","","","","","","","","","","","","","","","","","","","","","","","","","","","","",""
"4020","","<div style=""width:500px;"">
  <p>What best describes how you currently feel?</p>
  </div>","84","html-slider-response","13","203774","0.0-5.0-4.0","1","1","2025-07-09 08:38:06","01610cd0009c79a99da7d0a3353eb402","93.108.112.26","Mozilla/5.0 (Windows NT 10.0; Win64; x64) AppleWebKit/537.36 (KHTML, like Gecko) Chrome/138.0.0.0 Safari/537.36","WebKit","Chrome","138.0.0.0","Windows","10.0","https://app.prolific.com/","en-US,en;q=0.9","6140ef8d27499e70e8740918","683db7602f5db6a34d12d064","686e2a63cfc3fe448ef090b1","1","6140ef8d27499e70e8740918","1","2025-07-09T08:41:31.013Z","","","","","","","","","","","MotivationQ","","50","","","","","","","","","","","","","","","","","","","","","","","","","","","","",""
"","","","","ctl-task-cpt","14","251207","0.0-5.0-0.1","1","1","2025-07-09 08:38:06","01610cd0009c79a99da7d0a3353eb402","93.108.112.26","Mozilla/5.0 (Windows NT 10.0; Win64; x64) AppleWebKit/537.36 (KHTML, like Gecko) Chrome/138.0.0.0 Safari/537.36","WebKit","Chrome","138.0.0.0","Windows","10.0","https://app.prolific.com/","en-US,en;q=0.9","6140ef8d27499e70e8740918","683db7602f5db6a34d12d064","686e2a63cfc3fe448ef090b1","1","6140ef8d27499e70e8740918","1","2025-07-09T08:42:18.446Z","","","","","","","","","","","","","","win-only","2","g1:SE,g2:NW","0.9","2","0","205046.7","1603","6605.5","44425.4","1","4","4","6","2","-4","-5","2","7","0.015151515151515152","975.9","3000","-2995","[""left"",""up""]","{""num_key_presses"":9,""num_perfect"":7,""num_errors"":1,""num_randdir"":1,""num_randdir_good_moves"":0,""num_whilered"":0,""num_whileblue"":1,""num_blue"":4,""num_good_moves"":7}","[414.57142857142856,410.47767857142856,0.1,414.57142857142856,410.47767857142856,102.5,414.57142857142856,410.47767857142856,207.3,414.57142857142856,410.47767857142856,307.8,414.57142857142856,410.47767857142856,412.5,424.57142857142856,425.47767857142856,512.6,426.57142857142856,428.47767857142856,613.1,263.57142857142856,225.47767857142856,717.7,96.57142857142857,54.47767857142857,817.9,58.57142857142857,11.47767857142857,918,57.57142857142857,11.47767857142857,1023.3,58.57142857142857,19.47767857142857,1123.3,79.57142857142857,60.47767857142857,1223.6,317.57142857142856,364.47767857142856,1327.6,511.57142857142856,591.4776785714286,1427.6,637.5714285714286,682.4776785714286,1532.6,701.5714285714286,702.4776785714286,1637.3,702.5714285714286,702.4776785714286,1742.4,718.5714285714286,695.4776785714286,1843.2,719.5714285714286,694.4776785714286,1948.1,719.5714285714286,694.4776785714286,2052.4,756.5714285714286,695.4776785714286,2152.4,776.5714285714286,696.4776785714286,2252.5,776.5714285714286,696.4776785714286,2353,776.5714285714286,696.4776785714286,2458.2,776.5714285714286,696.4776785714286,2563,776.5714285714286,696.4776785714286,2663.2,776.5714285714286,696.4776785714286,2768.1,776.5714285714286,696.4776785714286,2873,776.5714285714286,696.4776785714286,2977.5,776.5714285714286,696.4776785714286,3082.2,776.5714285714286,696.4776785714286,3182.8,776.5714285714286,696.4776785714286,3287.7,776.5714285714286,696.4776785714286,3392.3,776.5714285714286,696.4776785714286,3492.3,776.5714285714286,696.4776785714286,3592.3,776.5714285714286,696.4776785714286,3692.3,776.5714285714286,696.4776785714286,3792.8,776.5714285714286,696.4776785714286,3897.9,776.5714285714286,696.4776785714286,4002.9,776.5714285714286,696.4776785714286,4107.2,776.5714285714286,696.4776785714286,4208.3,776.5714285714286,696.4776785714286,4312.9,776.5714285714286,696.4776785714286,4417.4,776.5714285714286,696.4776785714286,4517.6,776.5714285714286,696.4776785714286,4623.2,776.5714285714286,696.4776785714286,4727.4,776.5714285714286,696.4776785714286,4827.4,776.5714285714286,696.4776785714286,4932.2]","[1320.5,1320.5,1000,0,320.5,""smooth"",""up"",""up"",""good_move"",3896.4,2575.7,2313.3,1320.7,262.4,""smooth"",""up"",""up"",""good_move"",6624.6,2728.2,2468.8,3896.4,259.4,""while_blue"",""up"",""down"",""bad_move"",9208.2,2583.3,2036.5,6624.9,546.8,""oops"",""up"",""down"",""bad_move"",11328.2,2119.9,1779.3,9208.3,340.6,""smooth"",""up"",""up"",""good_move"",14208.2,2879.9,2545.1,11328.3,334.8,""smooth"",""up"",""up"",""good_move"",17456.3,3247.9,2871.6,14208.4,376.3,""smooth"",""up"",""up"",""good_move"",31056.1,13599.7,2247.2,28429.8,379.1,""smooth"",""left"",""left"",""good_move"",34488.1,3431.8,3165.6,31056.3,266.2,""smooth"",""left"",""left"",""good_move""]","",""
"5385","","<div style=""width:500px;"">
  <p>What determined the result of this run?</p>
  </div>","43","html-slider-response","15","256593","0.0-5.0-1.1","1","1","2025-07-09 08:38:06","01610cd0009c79a99da7d0a3353eb402","93.108.112.26","Mozilla/5.0 (Windows NT 10.0; Win64; x64) AppleWebKit/537.36 (KHTML, like Gecko) Chrome/138.0.0.0 Safari/537.36","WebKit","Chrome","138.0.0.0","Windows","10.0","https://app.prolific.com/","en-US,en;q=0.9","6140ef8d27499e70e8740918","683db7602f5db6a34d12d064","686e2a63cfc3fe448ef090b1","1","6140ef8d27499e70e8740918","1","2025-07-09T08:42:23.832Z","","","","","","","","","","","AttribQ","","50","","","","","","","","","","","","","","","","","","","","","","","","","","","","",""
"2368","","<div style=""width:500px;"">
  <p>How much control did you have over the ball?</p>
  </div>","58","html-slider-response","16","258962","0.0-5.0-2.1","1","1","2025-07-09 08:38:06","01610cd0009c79a99da7d0a3353eb402","93.108.112.26","Mozilla/5.0 (Windows NT 10.0; Win64; x64) AppleWebKit/537.36 (KHTML, like Gecko) Chrome/138.0.0.0 Safari/537.36","WebKit","Chrome","138.0.0.0","Windows","10.0","https://app.prolific.com/","en-US,en;q=0.9","6140ef8d27499e70e8740918","683db7602f5db6a34d12d064","686e2a63cfc3fe448ef090b1","1","6140ef8d27499e70e8740918","1","2025-07-09T08:42:26.201Z","","","","","","","","","","","ControlQ","","50","","","","","","","","","","","","","","","","","","","","","","","","","","","","",""
"3470","","<div style=""width:500px;"">
  <p>How would you describe your current emotional state?</p>
  </div>","43","html-slider-response","17","262433","0.0-5.0-3.1","1","1","2025-07-09 08:38:06","01610cd0009c79a99da7d0a3353eb402","93.108.112.26","Mozilla/5.0 (Windows NT 10.0; Win64; x64) AppleWebKit/537.36 (KHTML, like Gecko) Chrome/138.0.0.0 Safari/537.36","WebKit","Chrome","138.0.0.0","Windows","10.0","https://app.prolific.com/","en-US,en;q=0.9","6140ef8d27499e70e8740918","683db7602f5db6a34d12d064","686e2a63cfc3fe448ef090b1","1","6140ef8d27499e70e8740918","1","2025-07-09T08:42:29.672Z","","","","","","","","","","","StressQ","","50","","","","","","","","","","","","","","","","","","","","","","","","","","","","",""
"7375","","<div style=""width:500px;"">
  <p>What best describes how you currently feel?</p>
  </div>","80","html-slider-response","18","269809","0.0-5.0-4.1","1","1","2025-07-09 08:38:06","01610cd0009c79a99da7d0a3353eb402","93.108.112.26","Mozilla/5.0 (Windows NT 10.0; Win64; x64) AppleWebKit/537.36 (KHTML, like Gecko) Chrome/138.0.0.0 Safari/537.36","WebKit","Chrome","138.0.0.0","Windows","10.0","https://app.prolific.com/","en-US,en;q=0.9","6140ef8d27499e70e8740918","683db7602f5db6a34d12d064","686e2a63cfc3fe448ef090b1","1","6140ef8d27499e70e8740918","1","2025-07-09T08:42:37.048Z","","","","","","","","","","","MotivationQ","","50","","","","","","","","","","","","","","","","","","","","","","","","","","","","",""
"","","","","ctl-task-cpt","19","309087","0.0-5.0-0.2","1","1","2025-07-09 08:38:06","01610cd0009c79a99da7d0a3353eb402","93.108.112.26","Mozilla/5.0 (Windows NT 10.0; Win64; x64) AppleWebKit/537.36 (KHTML, like Gecko) Chrome/138.0.0.0 Safari/537.36","WebKit","Chrome","138.0.0.0","Windows","10.0","https://app.prolific.com/","en-US,en;q=0.9","6140ef8d27499e70e8740918","683db7602f5db6a34d12d064","686e2a63cfc3fe448ef090b1","1","6140ef8d27499e70e8740918","1","2025-07-09T08:43:16.326Z","","","","","","","","","","","","","","win-only","2","g1:SE,g2:NW","0.8","3","0","271080.7","15593.5","20595.4","36261","1","4","8","6","2","8","8","10","2","0.07575757575757576","999.9","3000","975","[""left"",""up""]","{""num_key_presses"":6,""num_perfect"":5,""num_errors"":0,""num_randdir"":1,""num_randdir_good_moves"":1,""num_whilered"":0,""num_whileblue"":0,""num_blue"":0,""num_good_moves"":6}","[415.57142857142856,412.47767857142856,0.1,415.57142857142856,412.47767857142856,103.4,415.57142857142856,412.47767857142856,206.8,460.57142857142856,460.47767857142856,307,466.57142857142856,503.47767857142856,412.3,466.57142857142856,503.47767857142856,517.6,240.57142857142856,347.47767857142856,622.8,33.57142857142857,193.47767857142856,726.9,36.57142857142857,152.47767857142856,827.6,80.57142857142857,100.47767857142857,927.6,94.57142857142857,74.47767857142857,1027.7,100.57142857142857,82.47767857142857,1132.5,369.57142857142856,210.47767857142856,1232.7,1082.5714285714287,393.47767857142856,1332.7,1170.5714285714287,400.47767857142856,1437,1170.5714285714287,400.47767857142856,1542.3,1170.5714285714287,400.47767857142856,1642.4,1170.5714285714287,400.47767857142856,1746.7,1170.5714285714287,400.47767857142856,1847.6,1170.5714285714287,400.47767857142856,1951.9,1170.5714285714287,400.47767857142856,2051.9,1170.5714285714287,400.47767857142856,2151.9,1170.5714285714287,400.47767857142856,2251.9,1170.5714285714287,400.47767857142856,2352,1170.5714285714287,400.47767857142856,2452,1170.5714285714287,400.47767857142856,2552,1170.5714285714287,400.47767857142856,2657.1,1170.5714285714287,400.47767857142856,2762.4,1170.5714285714287,400.47767857142856,2862.4,1170.5714285714287,400.47767857142856,2962.4,1170.5714285714287,400.47767857142856,3067.8,1170.5714285714287,400.47767857142856,3173.1,1170.5714285714287,400.47767857142856,3276.7,1170.5714285714287,400.47767857142856,3376.7,1170.5714285714287,400.47767857142856,3476.8,1170.5714285714287,400.47767857142856,3576.9,1170.5714285714287,400.47767857142856,3676.9,1170.5714285714287,400.47767857142856,3781.8,1170.5714285714287,400.47767857142856,3887.6,1170.5714285714287,400.47767857142856,3991.7,1170.5714285714287,400.47767857142856,4092.3,1170.5714285714287,400.47767857142856,4192.3,1170.5714285714287,400.47767857142856,4292.5,1170.5714285714287,400.47767857142856,4397.3,1170.5714285714287,400.47767857142856,4502.5,1170.5714285714287,400.47767857142856,4607.7,1170.5714285714287,400.47767857142856,4712.4,1170.5714285714287,400.47767857142856,4818,1170.5714285714287,400.47767857142856,4922.5]","[1335.9,1335.9,1000,0,335.9,""smooth"",""up"",""up"",""good_move"",4599.7,3263.5,2918.6,1336.2,344.9,""smooth"",""up"",""up"",""good_move"",7049.3,2449.4,2030.1,4599.9,419.3,""oops"",""up"",""up"",""good_move"",9591.8,2542.4,2215.5,7049.4,326.9,""smooth"",""left"",""left"",""good_move"",12856,3264,2953.9,9592,310.1,""smooth"",""left"",""left"",""good_move"",15575.8,2719.9,2400.7,12856,319.2,""smooth"",""left"",""left"",""good_move""]","",""
"2945","","<div style=""width:500px;"">
  <p>What determined the result of this run?</p>
  </div>","90","html-slider-response","20","312033","0.0-5.0-1.2","1","1","2025-07-09 08:38:06","01610cd0009c79a99da7d0a3353eb402","93.108.112.26","Mozilla/5.0 (Windows NT 10.0; Win64; x64) AppleWebKit/537.36 (KHTML, like Gecko) Chrome/138.0.0.0 Safari/537.36","WebKit","Chrome","138.0.0.0","Windows","10.0","https://app.prolific.com/","en-US,en;q=0.9","6140ef8d27499e70e8740918","683db7602f5db6a34d12d064","686e2a63cfc3fe448ef090b1","1","6140ef8d27499e70e8740918","1","2025-07-09T08:43:19.272Z","","","","","","","","","","","AttribQ","","50","","","","","","","","","","","","","","","","","","","","","","","","","","","","",""
"8361","","<div style=""width:500px;"">
  <p>How much control did you have over the ball?</p>
  </div>","85","html-slider-response","21","320394","0.0-5.0-2.2","1","1","2025-07-09 08:38:06","01610cd0009c79a99da7d0a3353eb402","93.108.112.26","Mozilla/5.0 (Windows NT 10.0; Win64; x64) AppleWebKit/537.36 (KHTML, like Gecko) Chrome/138.0.0.0 Safari/537.36","WebKit","Chrome","138.0.0.0","Windows","10.0","https://app.prolific.com/","en-US,en;q=0.9","6140ef8d27499e70e8740918","683db7602f5db6a34d12d064","686e2a63cfc3fe448ef090b1","1","6140ef8d27499e70e8740918","1","2025-07-09T08:43:27.633Z","","","","","","","","","","","ControlQ","","50","","","","","","","","","","","","","","","","","","","","","","","","","","","","",""
"8737","","<div style=""width:500px;"">
  <p>How would you describe your current emotional state?</p>
  </div>","21","html-slider-response","22","329132","0.0-5.0-3.2","1","1","2025-07-09 08:38:06","01610cd0009c79a99da7d0a3353eb402","93.108.112.26","Mozilla/5.0 (Windows NT 10.0; Win64; x64) AppleWebKit/537.36 (KHTML, like Gecko) Chrome/138.0.0.0 Safari/537.36","WebKit","Chrome","138.0.0.0","Windows","10.0","https://app.prolific.com/","en-US,en;q=0.9","6140ef8d27499e70e8740918","683db7602f5db6a34d12d064","686e2a63cfc3fe448ef090b1","1","6140ef8d27499e70e8740918","1","2025-07-09T08:43:36.371Z","","","","","","","","","","","StressQ","","50","","","","","","","","","","","","","","","","","","","","","","","","","","","","",""
"2206","","<div style=""width:500px;"">
  <p>What best describes how you currently feel?</p>
  </div>","93","html-slider-response","23","331339","0.0-5.0-4.2","1","1","2025-07-09 08:38:06","01610cd0009c79a99da7d0a3353eb402","93.108.112.26","Mozilla/5.0 (Windows NT 10.0; Win64; x64) AppleWebKit/537.36 (KHTML, like Gecko) Chrome/138.0.0.0 Safari/537.36","WebKit","Chrome","138.0.0.0","Windows","10.0","https://app.prolific.com/","en-US,en;q=0.9","6140ef8d27499e70e8740918","683db7602f5db6a34d12d064","686e2a63cfc3fe448ef090b1","1","6140ef8d27499e70e8740918","1","2025-07-09T08:43:38.578Z","","","","","","","","","","","MotivationQ","","50","","","","","","","","","","","","","","","","","","","","","","","","","","","","",""
"","","","","ctl-task-cpt","24","375288","0.0-5.0-0.3","1","1","2025-07-09 08:38:06","01610cd0009c79a99da7d0a3353eb402","93.108.112.26","Mozilla/5.0 (Windows NT 10.0; Win64; x64) AppleWebKit/537.36 (KHTML, like Gecko) Chrome/138.0.0.0 Safari/537.36","WebKit","Chrome","138.0.0.0","Windows","10.0","https://app.prolific.com/","en-US,en;q=0.9","6140ef8d27499e70e8740918","683db7602f5db6a34d12d064","686e2a63cfc3fe448ef090b1","1","6140ef8d27499e70e8740918","1","2025-07-09T08:44:22.527Z","","","","","","","","","","","","","","win-only","0","g1:NW,g2:SE","0.7","4","0","332609.9","1360.6","6360.8","40930.9","1","4","4","6","2","4","3","13","10","0.09848484848484848","820.6","3000","150","[""down"",""right""]","{""num_key_presses"":10,""num_perfect"":6,""num_errors"":1,""num_randdir"":3,""num_randdir_good_moves"":1,""num_whilered"":0,""num_whileblue"":1,""num_blue"":3,""num_good_moves"":8}","[425.57142857142856,422.47767857142856,0.2,425.57142857142856,424.47767857142856,100.2,434.57142857142856,427.47767857142856,200.3,436.57142857142856,408.47767857142856,305.1,387.57142857142856,344.47767857142856,410.5,504.57142857142856,485.47767857142856,515.2,744.5714285714286,685.4776785714286,620,792.5714285714286,731.4776785714286,720.2,781.5714285714286,746.4776785714286,820.3,799.5714285714286,746.4776785714286,924.8,1197.5714285714287,647.4776785714286,1031.5,1259.5714285714287,623.4776785714286,1136.1,1259.5714285714287,623.4776785714286,1240.4,1259.5714285714287,623.4776785714286,1340.4,1259.5714285714287,623.4776785714286,1445.4,1259.5714285714287,623.4776785714286,1545.5,1259.5714285714287,623.4776785714286,1650.1,1259.5714285714287,623.4776785714286,1750.2,1259.5714285714287,623.4776785714286,1855,1259.5714285714287,623.4776785714286,1960.2,1259.5714285714287,623.4776785714286,2060.8,1259.5714285714287,623.4776785714286,2165.6,1259.5714285714287,623.4776785714286,2269.5,1259.5714285714287,623.4776785714286,2370.4,1259.5714285714287,623.4776785714286,2470.5,1259.5714285714287,623.4776785714286,2570.7,1259.5714285714287,623.4776785714286,2675.5,1259.5714285714287,623.4776785714286,2780.5,1259.5714285714287,623.4776785714286,2885.8,1259.5714285714287,623.4776785714286,2990,1259.5714285714287,623.4776785714286,3090,1259.5714285714287,623.4776785714286,3190,1259.5714285714287,623.4776785714286,3290.5,1259.5714285714287,623.4776785714286,3394.6,1259.5714285714287,623.4776785714286,3494.6,1259.5714285714287,623.4776785714286,3595,1259.5714285714287,623.4776785714286,3700.3,1259.5714285714287,623.4776785714286,3800.4,1259.5714285714287,623.4776785714286,3905.4,1259.5714285714287,623.4776785714286,4010.5,1259.5714285714287,623.4776785714286,4114.6,1259.5714285714287,623.4776785714286,4214.6,1259.5714285714287,623.4776785714286,4314.8,1259.5714285714287,623.4776785714286,4415,1259.5714285714287,623.4776785714286,4515,1259.5714285714287,623.4776785714286,4615,1259.5714285714287,623.4776785714286,4715,1259.5714285714287,623.4776785714286,4815,1259.5714285714287,623.4776785714286,4915]","[1457.1,1457.2,1000,0,457.2,""smooth"",""down"",""down"",""good_move"",4257,2799.6,2452.5,1457.4,347.1,""smooth"",""down"",""down"",""good_move"",6928.7,2671.7,2305,4257.1,366.6,""oops"",""down"",""left"",""bad_move"",10016.7,3087.7,2817.1,6929,270.6,""oops"",""right"",""down"",""good_move"",17248.8,7231.9,2804.4,14175.1,269.3,""smooth"",""right"",""right"",""good_move"",20768.7,3519.8,3213.1,17248.9,306.7,""smooth"",""right"",""right"",""good_move"",23648.7,2879.8,2590.1,20768.9,289.7,""oops"",""right"",""left"",""bad_move"",26312.7,2663.7,2352.3,23649,311.5,""smooth"",""right"",""right"",""good_move"",28832.7,2519.8,2277.2,26312.9,242.6,""while_blue"",""right"",""right"",""good_move"",34480.8,5647.8,2286.6,31920.1,274.1,""smooth"",""right"",""right"",""good_move""]","",""
"2634","","<div style=""width:500px;"">
  <p>What determined the result of this run?</p>
  </div>","39","html-slider-response","25","377922","0.0-5.0-1.3","1","1","2025-07-09 08:38:06","01610cd0009c79a99da7d0a3353eb402","93.108.112.26","Mozilla/5.0 (Windows NT 10.0; Win64; x64) AppleWebKit/537.36 (KHTML, like Gecko) Chrome/138.0.0.0 Safari/537.36","WebKit","Chrome","138.0.0.0","Windows","10.0","https://app.prolific.com/","en-US,en;q=0.9","6140ef8d27499e70e8740918","683db7602f5db6a34d12d064","686e2a63cfc3fe448ef090b1","1","6140ef8d27499e70e8740918","1","2025-07-09T08:44:25.161Z","","","","","","","","","","","AttribQ","","50","","","","","","","","","","","","","","","","","","","","","","","","","","","","",""
"2858","","<div style=""width:500px;"">
  <p>How much control did you have over the ball?</p>
  </div>","41","html-slider-response","26","380781","0.0-5.0-2.3","1","1","2025-07-09 08:38:06","01610cd0009c79a99da7d0a3353eb402","93.108.112.26","Mozilla/5.0 (Windows NT 10.0; Win64; x64) AppleWebKit/537.36 (KHTML, like Gecko) Chrome/138.0.0.0 Safari/537.36","WebKit","Chrome","138.0.0.0","Windows","10.0","https://app.prolific.com/","en-US,en;q=0.9","6140ef8d27499e70e8740918","683db7602f5db6a34d12d064","686e2a63cfc3fe448ef090b1","1","6140ef8d27499e70e8740918","1","2025-07-09T08:44:28.020Z","","","","","","","","","","","ControlQ","","50","","","","","","","","","","","","","","","","","","","","","","","","","","","","",""
"2425","","<div style=""width:500px;"">
  <p>How would you describe your current emotional state?</p>
  </div>","37","html-slider-response","27","383207","0.0-5.0-3.3","1","1","2025-07-09 08:38:06","01610cd0009c79a99da7d0a3353eb402","93.108.112.26","Mozilla/5.0 (Windows NT 10.0; Win64; x64) AppleWebKit/537.36 (KHTML, like Gecko) Chrome/138.0.0.0 Safari/537.36","WebKit","Chrome","138.0.0.0","Windows","10.0","https://app.prolific.com/","en-US,en;q=0.9","6140ef8d27499e70e8740918","683db7602f5db6a34d12d064","686e2a63cfc3fe448ef090b1","1","6140ef8d27499e70e8740918","1","2025-07-09T08:44:30.446Z","","","","","","","","","","","StressQ","","50","","","","","","","","","","","","","","","","","","","","","","","","","","","","",""
"2018","","<div style=""width:500px;"">
  <p>What best describes how you currently feel?</p>
  </div>","87","html-slider-response","28","385226","0.0-5.0-4.3","1","1","2025-07-09 08:38:06","01610cd0009c79a99da7d0a3353eb402","93.108.112.26","Mozilla/5.0 (Windows NT 10.0; Win64; x64) AppleWebKit/537.36 (KHTML, like Gecko) Chrome/138.0.0.0 Safari/537.36","WebKit","Chrome","138.0.0.0","Windows","10.0","https://app.prolific.com/","en-US,en;q=0.9","6140ef8d27499e70e8740918","683db7602f5db6a34d12d064","686e2a63cfc3fe448ef090b1","1","6140ef8d27499e70e8740918","1","2025-07-09T08:44:32.465Z","","","","","","","","","","","MotivationQ","","50","","","","","","","","","","","","","","","","","","","","","","","","","","","","",""
"","","","","ctl-task-cpt","29","427704","0.0-5.0-0.4","1","1","2025-07-09 08:38:06","01610cd0009c79a99da7d0a3353eb402","93.108.112.26","Mozilla/5.0 (Windows NT 10.0; Win64; x64) AppleWebKit/537.36 (KHTML, like Gecko) Chrome/138.0.0.0 Safari/537.36","WebKit","Chrome","138.0.0.0","Windows","10.0","https://app.prolific.com/","en-US,en;q=0.9","6140ef8d27499e70e8740918","683db7602f5db6a34d12d064","686e2a63cfc3fe448ef090b1","1","6140ef8d27499e70e8740918","1","2025-07-09T08:45:14.944Z","","","","","","","","","","","","","","win-only","3","g1:SW,g2:NE","0.6","5","0","386496.1","1663.5","6665.5","39470.6","1","4","8","6","2","-8","-9","4","13","0.030303030303030304","973.2","3000","-3005","[""up"",""right""]","{""num_key_presses"":11,""num_perfect"":6,""num_errors"":1,""num_randdir"":4,""num_randdir_good_moves"":2,""num_whilered"":0,""num_whileblue"":1,""num_blue"":2,""num_good_moves"":8}","[414.57142857142856,418.47767857142856,0.1,414.57142857142856,418.47767857142856,102.3,414.57142857142856,418.47767857142856,202.5,414.57142857142856,418.47767857142856,302.6,414.57142857142856,418.47767857142856,406.9,414.57142857142856,418.47767857142856,506.9,414.57142857142856,420.47767857142856,607.1,574.5714285714286,328.47767857142856,707.2,728.5714285714286,189.47767857142856,807.7,771.5714285714286,92.47767857142857,912.6,778.5714285714286,85.47767857142857,1016.9,810.5714285714286,116.47767857142857,1117.5,1037.5714285714287,222.47767857142856,1222.1,1101.5714285714287,242.47767857142856,1322.6,1101.5714285714287,242.47767857142856,1427.3,1101.5714285714287,242.47767857142856,1532.6,1101.5714285714287,242.47767857142856,1637.4,1101.5714285714287,242.47767857142856,1737.5,1101.5714285714287,242.47767857142856,1841.9,1101.5714285714287,242.47767857142856,1947,1101.5714285714287,242.47767857142856,2047,1101.5714285714287,242.47767857142856,2147.2,1101.5714285714287,242.47767857142856,2247.5,1101.5714285714287,242.47767857142856,2351.7,1101.5714285714287,242.47767857142856,2452.3,1101.5714285714287,242.47767857142856,2556.7,1101.5714285714287,242.47767857142856,2656.9,1101.5714285714287,242.47767857142856,2757.1,1101.5714285714287,242.47767857142856,2857.2,1101.5714285714287,242.47767857142856,2963,1101.5714285714287,242.47767857142856,3067.2,1101.5714285714287,242.47767857142856,3171.7,1101.5714285714287,242.47767857142856,3271.7,1101.5714285714287,242.47767857142856,3371.9,1101.5714285714287,242.47767857142856,3476.6,1101.5714285714287,242.47767857142856,3577.4,1101.5714285714287,242.47767857142856,3677.5,1101.5714285714287,242.47767857142856,3777.5,1101.5714285714287,242.47767857142856,3881.8,1101.5714285714287,242.47767857142856,3981.9,1101.5714285714287,242.47767857142856,4081.9,1101.5714285714287,242.47767857142856,4182,1101.5714285714287,242.47767857142856,4286.9,1101.5714285714287,242.47767857142856,4387.4,1101.5714285714287,242.47767857142856,4491.7,1101.5714285714287,242.47767857142856,4591.8,1101.5714285714287,242.47767857142856,4691.8,1101.5714285714287,242.47767857142856,4793.2,1101.5714285714287,242.47767857142856,4896.6,1101.5714285714287,242.47767857142856,4996.8]","[1297.6,1297.6,1000,0,297.6,""smooth"",""up"",""up"",""good_move"",4249.5,2951.7,2685.2,1297.8,266.5,""oops"",""up"",""down"",""bad_move"",7025.6,2775.7,2500.3,4249.9,275.4,""oops"",""up"",""left"",""bad_move"",12281.5,5255.6,1948.2,9969.7,363.6,""smooth"",""up"",""up"",""good_move"",14449.7,2167.9,1872.3,12281.8,295.6,""smooth"",""up"",""up"",""good_move"",16873.5,2423.6,2161.1,14449.9,262.5,""smooth"",""up"",""up"",""good_move"",20081.4,3207.8,2971.7,16873.6,236.1,""while_blue"",""right"",""down"",""bad_move"",22585.7,2504,2175.1,20081.7,328.9,""smooth"",""right"",""right"",""good_move"",24857.4,2271.6,1970.9,22585.9,300.7,""oops"",""right"",""up"",""good_move"",27393.4,2535.8,2246.8,24857.6,289,""oops"",""right"",""right"",""good_move"",30401.3,3007.8,2760.5,27393.5,247.3,""smooth"",""right"",""right"",""good_move""]","",""
"5746","","<div style=""width:500px;"">
  <p>What determined the result of this run?</p>
  </div>","32","html-slider-response","30","433451","0.0-5.0-1.4","1","1","2025-07-09 08:38:06","01610cd0009c79a99da7d0a3353eb402","93.108.112.26","Mozilla/5.0 (Windows NT 10.0; Win64; x64) AppleWebKit/537.36 (KHTML, like Gecko) Chrome/138.0.0.0 Safari/537.36","WebKit","Chrome","138.0.0.0","Windows","10.0","https://app.prolific.com/","en-US,en;q=0.9","6140ef8d27499e70e8740918","683db7602f5db6a34d12d064","686e2a63cfc3fe448ef090b1","1","6140ef8d27499e70e8740918","1","2025-07-09T08:45:20.690Z","","","","","","","","","","","AttribQ","","50","","","","","","","","","","","","","","","","","","","","","","","","","","","","",""
"2290","","<div style=""width:500px;"">
  <p>How much control did you have over the ball?</p>
  </div>","36","html-slider-response","31","435742","0.0-5.0-2.4","1","1","2025-07-09 08:38:06","01610cd0009c79a99da7d0a3353eb402","93.108.112.26","Mozilla/5.0 (Windows NT 10.0; Win64; x64) AppleWebKit/537.36 (KHTML, like Gecko) Chrome/138.0.0.0 Safari/537.36","WebKit","Chrome","138.0.0.0","Windows","10.0","https://app.prolific.com/","en-US,en;q=0.9","6140ef8d27499e70e8740918","683db7602f5db6a34d12d064","686e2a63cfc3fe448ef090b1","1","6140ef8d27499e70e8740918","1","2025-07-09T08:45:22.981Z","","","","","","","","","","","ControlQ","","50","","","","","","","","","","","","","","","","","","","","","","","","","","","","",""
"2244","","<div style=""width:500px;"">
  <p>How would you describe your current emotional state?</p>
  </div>","38","html-slider-response","32","437987","0.0-5.0-3.4","1","1","2025-07-09 08:38:06","01610cd0009c79a99da7d0a3353eb402","93.108.112.26","Mozilla/5.0 (Windows NT 10.0; Win64; x64) AppleWebKit/537.36 (KHTML, like Gecko) Chrome/138.0.0.0 Safari/537.36","WebKit","Chrome","138.0.0.0","Windows","10.0","https://app.prolific.com/","en-US,en;q=0.9","6140ef8d27499e70e8740918","683db7602f5db6a34d12d064","686e2a63cfc3fe448ef090b1","1","6140ef8d27499e70e8740918","1","2025-07-09T08:45:25.226Z","","","","","","","","","","","StressQ","","50","","","","","","","","","","","","","","","","","","","","","","","","","","","","",""
"2806","","<div style=""width:500px;"">
  <p>What best describes how you currently feel?</p>
  </div>","83","html-slider-response","33","440794","0.0-5.0-4.4","1","1","2025-07-09 08:38:06","01610cd0009c79a99da7d0a3353eb402","93.108.112.26","Mozilla/5.0 (Windows NT 10.0; Win64; x64) AppleWebKit/537.36 (KHTML, like Gecko) Chrome/138.0.0.0 Safari/537.36","WebKit","Chrome","138.0.0.0","Windows","10.0","https://app.prolific.com/","en-US,en;q=0.9","6140ef8d27499e70e8740918","683db7602f5db6a34d12d064","686e2a63cfc3fe448ef090b1","1","6140ef8d27499e70e8740918","1","2025-07-09T08:45:28.033Z","","","","","","","","","","","MotivationQ","","50","","","","","","","","","","","","","","","","","","","","","","","","","","","","",""
"","","","","ctl-task-cpt","34","474048","0.0-5.0-0.5","1","1","2025-07-09 08:38:06","01610cd0009c79a99da7d0a3353eb402","93.108.112.26","Mozilla/5.0 (Windows NT 10.0; Win64; x64) AppleWebKit/537.36 (KHTML, like Gecko) Chrome/138.0.0.0 Safari/537.36","WebKit","Chrome","138.0.0.0","Windows","10.0","https://app.prolific.com/","en-US,en;q=0.9","6140ef8d27499e70e8740918","683db7602f5db6a34d12d064","686e2a63cfc3fe448ef090b1","1","6140ef8d27499e70e8740918","1","2025-07-09T08:46:01.287Z","","","","","","","","","","","","","","win-only","3","g1:SW,g2:NE","0.5","6","0","442063.8","1237.8","6240.7","30236","1","4","4","6","2","4","4","8","4","0.06060606060606061","1043","3000","525","[""up"",""right""]","{""num_key_presses"":8,""num_perfect"":4,""num_errors"":0,""num_randdir"":4,""num_randdir_good_moves"":3,""num_whilered"":0,""num_whileblue"":0,""num_blue"":1,""num_good_moves"":7}","[416.57142857142856,413.47767857142856,0.2,416.57142857142856,413.47767857142856,103,416.57142857142856,413.47767857142856,207.5,416.57142857142856,413.47767857142856,307.5,416.57142857142856,413.47767857142856,407.8,569.5714285714286,286.47767857142856,508.3,679.5714285714286,155.47767857142856,613,695.5714285714286,138.47767857142856,717.5,716.5714285714286,122.47767857142857,822.7,758.5714285714286,91.47767857142857,922.9,766.5714285714286,85.47767857142857,1023.6,766.5714285714286,85.47767857142857,1127.5,848.5714285714286,155.47767857142856,1227.6,1129.5714285714287,331.47767857142856,1328.3,1179.5714285714287,358.47767857142856,1433,1179.5714285714287,358.47767857142856,1533.2,1179.5714285714287,358.47767857142856,1638.1,1179.5714285714287,358.47767857142856,1738.2,1179.5714285714287,358.47767857142856,1838.2,1179.5714285714287,358.47767857142856,1942.6,1179.5714285714287,358.47767857142856,2043.3,1179.5714285714287,358.47767857142856,2148,1179.5714285714287,358.47767857142856,2248.1,1179.5714285714287,358.47767857142856,2352.9,1179.5714285714287,358.47767857142856,2453.2,1179.5714285714287,358.47767857142856,2558.3,1179.5714285714287,358.47767857142856,2662.6,1179.5714285714287,358.47767857142856,2767.9,1179.5714285714287,358.47767857142856,2867.9,1179.5714285714287,358.47767857142856,2968.3,1179.5714285714287,358.47767857142856,3073.1,1179.5714285714287,358.47767857142856,3173.1,1179.5714285714287,358.47767857142856,3277.4,1179.5714285714287,358.47767857142856,3377.5,1179.5714285714287,358.47767857142856,3477.5,1179.5714285714287,358.47767857142856,3577.5,1179.5714285714287,358.47767857142856,3677.7,1179.5714285714287,358.47767857142856,3783.2,1179.5714285714287,358.47767857142856,3883.4,1179.5714285714287,358.47767857142856,3988.1,1179.5714285714287,358.47767857142856,4092.4,1179.5714285714287,358.47767857142856,4192.4,1179.5714285714287,358.47767857142856,4293.1,1179.5714285714287,358.47767857142856,4397.7,1179.5714285714287,358.47767857142856,4498.1,1179.5714285714287,358.47767857142856,4602.4,1179.5714285714287,358.47767857142856,4703.2,1179.5714285714287,358.47767857142856,4808.2,1179.5714285714287,358.47767857142856,4908.2]","[1386.5,1386.5,1000,0,386.5,""smooth"",""up"",""up"",""good_move"",3930.4,2543.7,2232.9,1386.7,310.8,""smooth"",""up"",""up"",""good_move"",6298.5,2368,2053.7,3930.5,314.3,""oops"",""up"",""up"",""good_move"",8802.5,2503.9,2212.9,6298.6,291,""oops"",""right"",""right"",""good_move"",11650.2,2847.3,2535.3,8802.9,312,""oops"",""right"",""right"",""good_move"",15442.1,3791.7,3455.6,11650.4,336.1,""oops"",""right"",""left"",""bad_move"",18234.1,2791.7,2525.9,15442.4,265.8,""smooth"",""right"",""right"",""good_move"",23906.3,5672,2844.8,20760.2,301.3,""smooth"",""right"",""right"",""good_move""]","",""
"1821","","<div style=""width:500px;"">
  <p>What determined the result of this run?</p>
  </div>","74","html-slider-response","35","475870","0.0-5.0-1.5","1","1","2025-07-09 08:38:06","01610cd0009c79a99da7d0a3353eb402","93.108.112.26","Mozilla/5.0 (Windows NT 10.0; Win64; x64) AppleWebKit/537.36 (KHTML, like Gecko) Chrome/138.0.0.0 Safari/537.36","WebKit","Chrome","138.0.0.0","Windows","10.0","https://app.prolific.com/","en-US,en;q=0.9","6140ef8d27499e70e8740918","683db7602f5db6a34d12d064","686e2a63cfc3fe448ef090b1","1","6140ef8d27499e70e8740918","1","2025-07-09T08:46:03.109Z","","","","","","","","","","","AttribQ","","50","","","","","","","","","","","","","","","","","","","","","","","","","","","","",""
"2998","","<div style=""width:500px;"">
  <p>How much control did you have over the ball?</p>
  </div>","56","html-slider-response","36","478869","0.0-5.0-2.5","1","1","2025-07-09 08:38:06","01610cd0009c79a99da7d0a3353eb402","93.108.112.26","Mozilla/5.0 (Windows NT 10.0; Win64; x64) AppleWebKit/537.36 (KHTML, like Gecko) Chrome/138.0.0.0 Safari/537.36","WebKit","Chrome","138.0.0.0","Windows","10.0","https://app.prolific.com/","en-US,en;q=0.9","6140ef8d27499e70e8740918","683db7602f5db6a34d12d064","686e2a63cfc3fe448ef090b1","1","6140ef8d27499e70e8740918","1","2025-07-09T08:46:06.108Z","","","","","","","","","","","ControlQ","","50","","","","","","","","","","","","","","","","","","","","","","","","","","","","",""
"1947","","<div style=""width:500px;"">
  <p>How would you describe your current emotional state?</p>
  </div>","26","html-slider-response","37","480818","0.0-5.0-3.5","1","1","2025-07-09 08:38:06","01610cd0009c79a99da7d0a3353eb402","93.108.112.26","Mozilla/5.0 (Windows NT 10.0; Win64; x64) AppleWebKit/537.36 (KHTML, like Gecko) Chrome/138.0.0.0 Safari/537.36","WebKit","Chrome","138.0.0.0","Windows","10.0","https://app.prolific.com/","en-US,en;q=0.9","6140ef8d27499e70e8740918","683db7602f5db6a34d12d064","686e2a63cfc3fe448ef090b1","1","6140ef8d27499e70e8740918","1","2025-07-09T08:46:08.057Z","","","","","","","","","","","StressQ","","50","","","","","","","","","","","","","","","","","","","","","","","","","","","","",""
"1521","","<div style=""width:500px;"">
  <p>What best describes how you currently feel?</p>
  </div>","84","html-slider-response","38","482340","0.0-5.0-4.5","1","1","2025-07-09 08:38:06","01610cd0009c79a99da7d0a3353eb402","93.108.112.26","Mozilla/5.0 (Windows NT 10.0; Win64; x64) AppleWebKit/537.36 (KHTML, like Gecko) Chrome/138.0.0.0 Safari/537.36","WebKit","Chrome","138.0.0.0","Windows","10.0","https://app.prolific.com/","en-US,en;q=0.9","6140ef8d27499e70e8740918","683db7602f5db6a34d12d064","686e2a63cfc3fe448ef090b1","1","6140ef8d27499e70e8740918","1","2025-07-09T08:46:09.579Z","","","","","","","","","","","MotivationQ","","50","","","","","","","","","","","","","","","","","","","","","","","","","","","","",""
"","","","","ctl-task-cpt","39","528063","0.0-5.0-0.6","1","1","2025-07-09 08:38:06","01610cd0009c79a99da7d0a3353eb402","93.108.112.26","Mozilla/5.0 (Windows NT 10.0; Win64; x64) AppleWebKit/537.36 (KHTML, like Gecko) Chrome/138.0.0.0 Safari/537.36","WebKit","Chrome","138.0.0.0","Windows","10.0","https://app.prolific.com/","en-US,en;q=0.9","6140ef8d27499e70e8740918","683db7602f5db6a34d12d064","686e2a63cfc3fe448ef090b1","1","6140ef8d27499e70e8740918","1","2025-07-09T08:46:55.302Z","","","","","","","","","","","","","","win-only","1","g1:NE,g2:SW","0.4","7","0","483609","2248","7250.4","42705.2","1","4","4","6","2","-4","-4","4","8","0.030303030303030304","998.7","3000","-3015","[""down"",""left""]","{""num_key_presses"":8,""num_perfect"":4,""num_errors"":0,""num_randdir"":4,""num_randdir_good_moves"":2,""num_whilered"":0,""num_whileblue"":0,""num_blue"":3,""num_good_moves"":6}","[410.57142857142856,413.47767857142856,0.2,410.57142857142856,413.47767857142856,102.6,413.57142857142856,416.47767857142856,207.2,422.57142857142856,418.47767857142856,307.4,464.57142857142856,384.47767857142856,408.1,500.57142857142856,365.47767857142856,512.2,547.5714285714286,324.47767857142856,613.3,380.57142857142856,421.47767857142856,717.7,129.57142857142856,698.4776785714286,822.4,107.57142857142857,762.4776785714286,928.3,106.57142857142857,764.4776785714286,1028.4,353.57142857142856,716.4776785714286,1132.9,1007.5714285714286,500.47767857142856,1237.3,1069.5714285714287,475.47767857142856,1338.1,1069.5714285714287,475.47767857142856,1442.3,1069.5714285714287,475.47767857142856,1543.1,1069.5714285714287,475.47767857142856,1647.2,1069.5714285714287,475.47767857142856,1747.8,1069.5714285714287,475.47767857142856,1847.8,1069.5714285714287,475.47767857142856,1952.7,1069.5714285714287,475.47767857142856,2052.7,1069.5714285714287,475.47767857142856,2153,1069.5714285714287,475.47767857142856,2257.2,1069.5714285714287,475.47767857142856,2357.8,1069.5714285714287,475.47767857142856,2462.9,1069.5714285714287,475.47767857142856,2563.1,1069.5714285714287,475.47767857142856,2668.4,1069.5714285714287,475.47767857142856,2772.6,1069.5714285714287,475.47767857142856,2873,1069.5714285714287,475.47767857142856,2978.1,1069.5714285714287,475.47767857142856,3083,1069.5714285714287,475.47767857142856,3187.8,1069.5714285714287,475.47767857142856,3293,1069.5714285714287,475.47767857142856,3397.6,1069.5714285714287,475.47767857142856,3498.1,1069.5714285714287,475.47767857142856,3602.4,1069.5714285714287,475.47767857142856,3702.4,1069.5714285714287,475.47767857142856,3803.2,1069.5714285714287,475.47767857142856,3907.2,1069.5714285714287,475.47767857142856,4007.9,1069.5714285714287,475.47767857142856,4112.8,1069.5714285714287,475.47767857142856,4218.1,1069.5714285714287,475.47767857142856,4322.7,1069.5714285714287,475.47767857142856,4422.8,1069.5714285714287,475.47767857142856,4528.3,1069.5714285714287,475.47767857142856,4632,1069.5714285714287,475.47767857142856,4732.4,1069.5714285714287,475.47767857142856,4833.3,1069.5714285714287,475.47767857142856,4938.1]","[5079.1,5079.1,2788.3,2005.5,285.3,""smooth"",""down"",""down"",""good_move"",8191,3111.6,2761.9,5079.4,349.7,""oops"",""down"",""down"",""good_move"",11455,3263.9,2862,8191.1,401.9,""oops"",""down"",""down"",""good_move"",14127.1,2672,2331.6,11455.1,340.4,""smooth"",""left"",""left"",""good_move"",20191.1,6063.8,2412.7,17345.5,432.9,""oops"",""left"",""right"",""bad_move"",22190.9,1999.7,1644.4,20191.2,355.3,""smooth"",""left"",""left"",""good_move"",28790.8,6599.7,2486.8,25975.6,328.4,""oops"",""left"",""right"",""bad_move"",32094.9,3303.9,2958.1,28791,345.8,""smooth"",""left"",""left"",""good_move""]","",""
"2116","","<div style=""width:500px;"">
  <p>What determined the result of this run?</p>
  </div>","13","html-slider-response","40","530180","0.0-5.0-1.6","1","1","2025-07-09 08:38:06","01610cd0009c79a99da7d0a3353eb402","93.108.112.26","Mozilla/5.0 (Windows NT 10.0; Win64; x64) AppleWebKit/537.36 (KHTML, like Gecko) Chrome/138.0.0.0 Safari/537.36","WebKit","Chrome","138.0.0.0","Windows","10.0","https://app.prolific.com/","en-US,en;q=0.9","6140ef8d27499e70e8740918","683db7602f5db6a34d12d064","686e2a63cfc3fe448ef090b1","1","6140ef8d27499e70e8740918","1","2025-07-09T08:46:57.419Z","","","","","","","","","","","AttribQ","","50","","","","","","","","","","","","","","","","","","","","","","","","","","","","",""
"2039","","<div style=""width:500px;"">
  <p>How much control did you have over the ball?</p>
  </div>","13","html-slider-response","41","532220","0.0-5.0-2.6","1","1","2025-07-09 08:38:06","01610cd0009c79a99da7d0a3353eb402","93.108.112.26","Mozilla/5.0 (Windows NT 10.0; Win64; x64) AppleWebKit/537.36 (KHTML, like Gecko) Chrome/138.0.0.0 Safari/537.36","WebKit","Chrome","138.0.0.0","Windows","10.0","https://app.prolific.com/","en-US,en;q=0.9","6140ef8d27499e70e8740918","683db7602f5db6a34d12d064","686e2a63cfc3fe448ef090b1","1","6140ef8d27499e70e8740918","1","2025-07-09T08:46:59.459Z","","","","","","","","","","","ControlQ","","50","","","","","","","","","","","","","","","","","","","","","","","","","","","","",""
"2415","","<div style=""width:500px;"">
  <p>How would you describe your current emotional state?</p>
  </div>","56","html-slider-response","42","534636","0.0-5.0-3.6","1","1","2025-07-09 08:38:06","01610cd0009c79a99da7d0a3353eb402","93.108.112.26","Mozilla/5.0 (Windows NT 10.0; Win64; x64) AppleWebKit/537.36 (KHTML, like Gecko) Chrome/138.0.0.0 Safari/537.36","WebKit","Chrome","138.0.0.0","Windows","10.0","https://app.prolific.com/","en-US,en;q=0.9","6140ef8d27499e70e8740918","683db7602f5db6a34d12d064","686e2a63cfc3fe448ef090b1","1","6140ef8d27499e70e8740918","1","2025-07-09T08:47:01.875Z","","","","","","","","","","","StressQ","","50","","","","","","","","","","","","","","","","","","","","","","","","","","","","",""
"4654","","<div style=""width:500px;"">
  <p>What best describes how you currently feel?</p>
  </div>","54","html-slider-response","43","539291","0.0-5.0-4.6","1","1","2025-07-09 08:38:06","01610cd0009c79a99da7d0a3353eb402","93.108.112.26","Mozilla/5.0 (Windows NT 10.0; Win64; x64) AppleWebKit/537.36 (KHTML, like Gecko) Chrome/138.0.0.0 Safari/537.36","WebKit","Chrome","138.0.0.0","Windows","10.0","https://app.prolific.com/","en-US,en;q=0.9","6140ef8d27499e70e8740918","683db7602f5db6a34d12d064","686e2a63cfc3fe448ef090b1","1","6140ef8d27499e70e8740918","1","2025-07-09T08:47:06.530Z","","","","","","","","","","","MotivationQ","","50","","","","","","","","","","","","","","","","","","","","","","","","","","","","",""
"","","","","ctl-task-cpt","44","583384","0.0-5.0-0.7","1","1","2025-07-09 08:38:06","01610cd0009c79a99da7d0a3353eb402","93.108.112.26","Mozilla/5.0 (Windows NT 10.0; Win64; x64) AppleWebKit/537.36 (KHTML, like Gecko) Chrome/138.0.0.0 Safari/537.36","WebKit","Chrome","138.0.0.0","Windows","10.0","https://app.prolific.com/","en-US,en;q=0.9","6140ef8d27499e70e8740918","683db7602f5db6a34d12d064","686e2a63cfc3fe448ef090b1","1","6140ef8d27499e70e8740918","1","2025-07-09T08:47:50.623Z","","","","","","","","","","","","","","win-only","0","g1:NW,g2:SE","0.3","8","0","540559.8","3844.2","8845.3","41075.2","1","4","8","6","2","-8","-8","0","4","0","809.1","3000","-3015","[""down"",""right""]","{""num_key_presses"":9,""num_perfect"":2,""num_errors"":0,""num_randdir"":7,""num_randdir_good_moves"":3,""num_whilered"":0,""num_whileblue"":0,""num_blue"":1,""num_good_moves"":5}","[415.57142857142856,415.47767857142856,0.1,415.57142857142856,415.47767857142856,100.9,415.57142857142856,415.47767857142856,201,415.57142857142856,415.47767857142856,301.8,415.57142857142856,415.47767857142856,406,428.57142857142856,454.47767857142856,506.2,598.5714285714286,683.4776785714286,611.1,732.5714285714286,780.4776785714286,711.4,746.5714285714286,786.4776785714286,811.4,789.5714285714286,775.4776785714286,916.6,1113.5714285714287,640.4776785714286,1021.2,1232.5714285714287,585.4776785714286,1121.9,1232.5714285714287,585.4776785714286,1226.1,1232.5714285714287,585.4776785714286,1326.7,1232.5714285714287,585.4776785714286,1431,1232.5714285714287,585.4776785714286,1531.2,1232.5714285714287,585.4776785714286,1631.2,1232.5714285714287,585.4776785714286,1736.1,1232.5714285714287,585.4776785714286,1841.6,1232.5714285714287,585.4776785714286,1946.1,1232.5714285714287,585.4776785714286,2051.6,1232.5714285714287,585.4776785714286,2156.1,1232.5714285714287,585.4776785714286,2260.9,1232.5714285714287,585.4776785714286,2361.1,1232.5714285714287,585.4776785714286,2466.9,1232.5714285714287,585.4776785714286,2571.1,1232.5714285714287,585.4776785714286,2671.9,1232.5714285714287,585.4776785714286,2776.9,1232.5714285714287,585.4776785714286,2881.1,1232.5714285714287,585.4776785714286,2981.5,1232.5714285714287,585.4776785714286,3086,1232.5714285714287,585.4776785714286,3191.3,1232.5714285714287,585.4776785714286,3296.7,1232.5714285714287,585.4776785714286,3401.1,1232.5714285714287,585.4776785714286,3501.7,1232.5714285714287,585.4776785714286,3606.2,1232.5714285714287,585.4776785714286,3706.2,1232.5714285714287,585.4776785714286,3806.7,1232.5714285714287,585.4776785714286,3911,1232.5714285714287,585.4776785714286,4011.1,1232.5714285714287,585.4776785714286,4111.1,1232.5714285714287,585.4776785714286,4211.1,1232.5714285714287,585.4776785714286,4316.7,1232.5714285714287,585.4776785714286,4417.8,1232.5714285714287,585.4776785714286,4521.8,1232.5714285714287,585.4776785714286,4626.6,1232.5714285714287,585.4776785714286,4731.1,1232.5714285714287,585.4776785714286,4835.9,1232.5714285714287,585.4776785714286,4936.1]","[1324.9,1324.9,1000,0,324.9,""oops"",""down"",""down"",""good_move"",4277.2,2952,2637.3,1325.2,314.7,""oops"",""down"",""right"",""good_move"",7381.2,3103.7,2796.3,4277.5,307.4,""smooth"",""down"",""down"",""good_move"",10156.9,2775.4,2465.6,7381.5,309.8,""smooth"",""down"",""down"",""good_move"",12789.3,2632.3,2323.7,10157,308.6,""oops"",""right"",""up"",""bad_move"",16005.1,3215.7,2950.6,12789.4,265.1,""oops"",""right"",""up"",""bad_move"",23069.3,7064.1,2969.4,19785.9,314,""oops"",""right"",""left"",""bad_move"",26012.8,2943.2,2524.8,23069.6,418.4,""oops"",""down"",""up"",""bad_move"",29116.8,3103.8,2791.8,26013,312,""oops"",""right"",""down"",""good_move""]","",""
"1550","","<div style=""width:500px;"">
  <p>What determined the result of this run?</p>
  </div>","0","html-slider-response","45","584934","0.0-5.0-1.7","1","1","2025-07-09 08:38:06","01610cd0009c79a99da7d0a3353eb402","93.108.112.26","Mozilla/5.0 (Windows NT 10.0; Win64; x64) AppleWebKit/537.36 (KHTML, like Gecko) Chrome/138.0.0.0 Safari/537.36","WebKit","Chrome","138.0.0.0","Windows","10.0","https://app.prolific.com/","en-US,en;q=0.9","6140ef8d27499e70e8740918","683db7602f5db6a34d12d064","686e2a63cfc3fe448ef090b1","1","6140ef8d27499e70e8740918","1","2025-07-09T08:47:52.173Z","","","","","","","","","","","AttribQ","","50","","","","","","","","","","","","","","","","","","","","","","","","","","","","",""
"1394","","<div style=""width:500px;"">
  <p>How much control did you have over the ball?</p>
  </div>","0","html-slider-response","46","586329","0.0-5.0-2.7","1","1","2025-07-09 08:38:06","01610cd0009c79a99da7d0a3353eb402","93.108.112.26","Mozilla/5.0 (Windows NT 10.0; Win64; x64) AppleWebKit/537.36 (KHTML, like Gecko) Chrome/138.0.0.0 Safari/537.36","WebKit","Chrome","138.0.0.0","Windows","10.0","https://app.prolific.com/","en-US,en;q=0.9","6140ef8d27499e70e8740918","683db7602f5db6a34d12d064","686e2a63cfc3fe448ef090b1","1","6140ef8d27499e70e8740918","1","2025-07-09T08:47:53.568Z","","","","","","","","","","","ControlQ","","50","","","","","","","","","","","","","","","","","","","","","","","","","","","","",""
"1708","","<div style=""width:500px;"">
  <p>How would you describe your current emotional state?</p>
  </div>","74","html-slider-response","47","588038","0.0-5.0-3.7","1","1","2025-07-09 08:38:06","01610cd0009c79a99da7d0a3353eb402","93.108.112.26","Mozilla/5.0 (Windows NT 10.0; Win64; x64) AppleWebKit/537.36 (KHTML, like Gecko) Chrome/138.0.0.0 Safari/537.36","WebKit","Chrome","138.0.0.0","Windows","10.0","https://app.prolific.com/","en-US,en;q=0.9","6140ef8d27499e70e8740918","683db7602f5db6a34d12d064","686e2a63cfc3fe448ef090b1","1","6140ef8d27499e70e8740918","1","2025-07-09T08:47:55.277Z","","","","","","","","","","","StressQ","","50","","","","","","","","","","","","","","","","","","","","","","","","","","","","",""
"1638","","<div style=""width:500px;"">
  <p>What best describes how you currently feel?</p>
  </div>","66","html-slider-response","48","589677","0.0-5.0-4.7","1","1","2025-07-09 08:38:06","01610cd0009c79a99da7d0a3353eb402","93.108.112.26","Mozilla/5.0 (Windows NT 10.0; Win64; x64) AppleWebKit/537.36 (KHTML, like Gecko) Chrome/138.0.0.0 Safari/537.36","WebKit","Chrome","138.0.0.0","Windows","10.0","https://app.prolific.com/","en-US,en;q=0.9","6140ef8d27499e70e8740918","683db7602f5db6a34d12d064","686e2a63cfc3fe448ef090b1","1","6140ef8d27499e70e8740918","1","2025-07-09T08:47:56.916Z","","","","","","","","","","","MotivationQ","","50","","","","","","","","","","","","","","","","","","","","","","","","","","","","",""
"","","","","ctl-task-cpt","49","630975","0.0-5.0-0.8","1","1","2025-07-09 08:38:06","01610cd0009c79a99da7d0a3353eb402","93.108.112.26","Mozilla/5.0 (Windows NT 10.0; Win64; x64) AppleWebKit/537.36 (KHTML, like Gecko) Chrome/138.0.0.0 Safari/537.36","WebKit","Chrome","138.0.0.0","Windows","10.0","https://app.prolific.com/","en-US,en;q=0.9","6140ef8d27499e70e8740918","683db7602f5db6a34d12d064","686e2a63cfc3fe448ef090b1","1","6140ef8d27499e70e8740918","1","2025-07-09T08:48:38.214Z","","","","","","","","","","","","","","win-only","0","g1:NW,g2:SE","0.2","9","0","590945.8","779.1","5781.4","38280.5","1","4","8","6","2","-8","-8","0","0","0","851","3000","-3015","[""down"",""right""]","{""num_key_presses"":9,""num_perfect"":1,""num_errors"":0,""num_randdir"":8,""num_randdir_good_moves"":4,""num_whilered"":0,""num_whileblue"":0,""num_blue"":1,""num_good_moves"":5}","[418.57142857142856,415.47767857142856,0.1,422.57142857142856,422.47767857142856,101.2,428.57142857142856,434.47767857142856,201.6,428.57142857142856,435.47767857142856,306.5,389.57142857142856,400.47767857142856,412,423.57142857142856,446.47767857142856,516.7,474.57142857142856,517.4776785714286,621.5,655.5714285714286,684.4776785714286,727.1,712.5714285714286,757.4776785714286,831.4,717.5714285714286,761.4776785714286,931.5,915.5714285714286,716.4776785714286,1031.7,1275.5714285714287,588.4776785714286,1136.2,1278.5714285714287,587.4776785714286,1241.5,1278.5714285714287,587.4776785714286,1341.6,1278.5714285714287,587.4776785714286,1446.3,1278.5714285714287,587.4776785714286,1546.5,1278.5714285714287,587.4776785714286,1651.5,1278.5714285714287,587.4776785714286,1751.5,1278.5714285714287,587.4776785714286,1851.7,1278.5714285714287,587.4776785714286,1956.5,1278.5714285714287,587.4776785714286,2061.5,1278.5714285714287,587.4776785714286,2166.3,1278.5714285714287,587.4776785714286,2271.4,1278.5714285714287,587.4776785714286,2376.1,1278.5714285714287,587.4776785714286,2476.3,1278.5714285714287,587.4776785714286,2576.4,1278.5714285714287,587.4776785714286,2682.2,1278.5714285714287,587.4776785714286,2786.1,1278.5714285714287,587.4776785714286,2887.2,1278.5714285714287,587.4776785714286,2991.1,1278.5714285714287,587.4776785714286,3091.4,1278.5714285714287,587.4776785714286,3196.8,1278.5714285714287,587.4776785714286,3296.9,1278.5714285714287,587.4776785714286,3401.3,1278.5714285714287,587.4776785714286,3501.5,1278.5714285714287,587.4776785714286,3601.7,1278.5714285714287,587.4776785714286,3706.5,1278.5714285714287,587.4776785714286,3811.4,1278.5714285714287,587.4776785714286,3911.4,1278.5714285714287,587.4776785714286,4016.7,1278.5714285714287,587.4776785714286,4121.4,1278.5714285714287,587.4776785714286,4221.5,1278.5714285714287,587.4776785714286,4321.7,1278.5714285714287,587.4776785714286,4426.3,1278.5714285714287,587.4776785714286,4531,1278.5714285714287,587.4776785714286,4631.7,1278.5714285714287,587.4776785714286,4736.1,1278.5714285714287,587.4776785714286,4836.2,1278.5714285714287,587.4776785714286,4936.2]","[5122.5,5122.5,2742.6,2003.9,376,""oops"",""down"",""left"",""bad_move"",8586.5,3463.8,3098.5,5122.8,365.3,""oops"",""down"",""down"",""good_move"",11802.5,3215.7,2882.5,8586.8,333.2,""oops"",""down"",""down"",""good_move"",15298.6,3495.9,3180.6,11802.7,315.3,""oops"",""down"",""left"",""bad_move"",18130.7,2831.9,2477.5,15298.8,354.4,""smooth"",""down"",""down"",""good_move"",21747,3616.1,3353.4,18130.9,262.7,""oops"",""right"",""up"",""bad_move"",24602.4,2855,2540.6,21747.4,314.4,""oops"",""right"",""up"",""bad_move"",27162.6,2560,2210.2,24602.6,349.8,""oops"",""right"",""down"",""good_move"",29626.4,2463.6,2202.5,27162.8,261.1,""oops"",""right"",""right"",""good_move""]","",""
"2221","","<div style=""width:500px;"">
  <p>What determined the result of this run?</p>
  </div>","0","html-slider-response","50","633197","0.0-5.0-1.8","1","1","2025-07-09 08:38:06","01610cd0009c79a99da7d0a3353eb402","93.108.112.26","Mozilla/5.0 (Windows NT 10.0; Win64; x64) AppleWebKit/537.36 (KHTML, like Gecko) Chrome/138.0.0.0 Safari/537.36","WebKit","Chrome","138.0.0.0","Windows","10.0","https://app.prolific.com/","en-US,en;q=0.9","6140ef8d27499e70e8740918","683db7602f5db6a34d12d064","686e2a63cfc3fe448ef090b1","1","6140ef8d27499e70e8740918","1","2025-07-09T08:48:40.436Z","","","","","","","","","","","AttribQ","","50","","","","","","","","","","","","","","","","","","","","","","","","","","","","",""
"1472","","<div style=""width:500px;"">
  <p>How much control did you have over the ball?</p>
  </div>","0","html-slider-response","51","634670","0.0-5.0-2.8","1","1","2025-07-09 08:38:06","01610cd0009c79a99da7d0a3353eb402","93.108.112.26","Mozilla/5.0 (Windows NT 10.0; Win64; x64) AppleWebKit/537.36 (KHTML, like Gecko) Chrome/138.0.0.0 Safari/537.36","WebKit","Chrome","138.0.0.0","Windows","10.0","https://app.prolific.com/","en-US,en;q=0.9","6140ef8d27499e70e8740918","683db7602f5db6a34d12d064","686e2a63cfc3fe448ef090b1","1","6140ef8d27499e70e8740918","1","2025-07-09T08:48:41.909Z","","","","","","","","","","","ControlQ","","50","","","","","","","","","","","","","","","","","","","","","","","","","","","","",""
"2918","","<div style=""width:500px;"">
  <p>How would you describe your current emotional state?</p>
  </div>","73","html-slider-response","52","637589","0.0-5.0-3.8","1","1","2025-07-09 08:38:06","01610cd0009c79a99da7d0a3353eb402","93.108.112.26","Mozilla/5.0 (Windows NT 10.0; Win64; x64) AppleWebKit/537.36 (KHTML, like Gecko) Chrome/138.0.0.0 Safari/537.36","WebKit","Chrome","138.0.0.0","Windows","10.0","https://app.prolific.com/","en-US,en;q=0.9","6140ef8d27499e70e8740918","683db7602f5db6a34d12d064","686e2a63cfc3fe448ef090b1","1","6140ef8d27499e70e8740918","1","2025-07-09T08:48:44.828Z","","","","","","","","","","","StressQ","","50","","","","","","","","","","","","","","","","","","","","","","","","","","","","",""
"1478","","<div style=""width:500px;"">
  <p>What best describes how you currently feel?</p>
  </div>","81","html-slider-response","53","639068","0.0-5.0-4.8","1","1","2025-07-09 08:38:06","01610cd0009c79a99da7d0a3353eb402","93.108.112.26","Mozilla/5.0 (Windows NT 10.0; Win64; x64) AppleWebKit/537.36 (KHTML, like Gecko) Chrome/138.0.0.0 Safari/537.36","WebKit","Chrome","138.0.0.0","Windows","10.0","https://app.prolific.com/","en-US,en;q=0.9","6140ef8d27499e70e8740918","683db7602f5db6a34d12d064","686e2a63cfc3fe448ef090b1","1","6140ef8d27499e70e8740918","1","2025-07-09T08:48:46.307Z","","","","","","","","","","","MotivationQ","","50","","","","","","","","","","","","","","","","","","","","","","","","","","","","",""
"","","","","ctl-task-cpt","54","678086","0.0-5.0-0.9","1","1","2025-07-09 08:38:06","01610cd0009c79a99da7d0a3353eb402","93.108.112.26","Mozilla/5.0 (Windows NT 10.0; Win64; x64) AppleWebKit/537.36 (KHTML, like Gecko) Chrome/138.0.0.0 Safari/537.36","WebKit","Chrome","138.0.0.0","Windows","10.0","https://app.prolific.com/","en-US,en;q=0.9","6140ef8d27499e70e8740918","683db7602f5db6a34d12d064","686e2a63cfc3fe448ef090b1","1","6140ef8d27499e70e8740918","1","2025-07-09T08:49:25.325Z","","","","","","","","","","","","","","win-only","3","g1:SW,g2:NE","0.4","10","0","640336","2090.9","7095.6","36000.3","1","4","4","6","2","-4","-4","0","0","0","863.2","3000","-3015","[""up"",""right""]","{""num_key_presses"":9,""num_perfect"":4,""num_errors"":0,""num_randdir"":5,""num_randdir_good_moves"":3,""num_whilered"":0,""num_whileblue"":0,""num_blue"":1,""num_good_moves"":7}","[405.57142857142856,415.47767857142856,0.2,405.57142857142856,416.47767857142856,105,405.57142857142856,421.47767857142856,209.4,404.57142857142856,427.47767857142856,310.2,384.57142857142856,447.47767857142856,414.3,322.57142857142856,522.4776785714286,514.4,618.5714285714286,274.47767857142856,614.5,787.5714285714286,96.47767857142857,714.9,783.5714285714286,92.47767857142857,815.4,781.5714285714286,91.47767857142857,919.8,907.5714285714286,195.47767857142856,1019.8,1111.5714285714287,321.47767857142856,1119.8,1113.5714285714287,322.47767857142856,1224.4,1113.5714285714287,322.47767857142856,1326,1113.5714285714287,322.47767857142856,1429.9,1113.5714285714287,322.47767857142856,1535.3,1113.5714285714287,322.47767857142856,1639.2,1113.5714285714287,322.47767857142856,1739.5,1113.5714285714287,322.47767857142856,1839.5,1113.5714285714287,322.47767857142856,1939.9,1113.5714285714287,322.47767857142856,2044.6,1113.5714285714287,322.47767857142856,2145.3,1113.5714285714287,322.47767857142856,2249.7,1113.5714285714287,322.47767857142856,2349.7,1113.5714285714287,322.47767857142856,2450.2,1113.5714285714287,322.47767857142856,2554.5,1113.5714285714287,322.47767857142856,2654.5,1113.5714285714287,322.47767857142856,2754.5,1113.5714285714287,322.47767857142856,2859.3,1113.5714285714287,322.47767857142856,2959.6,1113.5714285714287,322.47767857142856,3059.8,1113.5714285714287,322.47767857142856,3164.4,1113.5714285714287,322.47767857142856,3264.4,1113.5714285714287,322.47767857142856,3364.6,1113.5714285714287,322.47767857142856,3465.2,1113.5714285714287,322.47767857142856,3569.7,1113.5714285714287,322.47767857142856,3669.7,1113.5714285714287,322.47767857142856,3775.3,1113.5714285714287,322.47767857142856,3875.6,1113.5714285714287,322.47767857142856,3979.8,1113.5714285714287,322.47767857142856,4080.1,1113.5714285714287,322.47767857142856,4184.5,1113.5714285714287,322.47767857142856,4289.4,1113.5714285714287,322.47767857142856,4389.9,1113.5714285714287,322.47767857142856,4490.1,1113.5714285714287,322.47767857142856,4594.8,1113.5714285714287,322.47767857142856,4694.9,1113.5714285714287,322.47767857142856,4799.2,1113.5714285714287,322.47767857142856,4900]","[1346,1346,1000,0,346,""oops"",""up"",""up"",""good_move"",3873.8,2527.4,2223.7,1346.4,303.7,""smooth"",""up"",""up"",""good_move"",6961.7,3087.8,2813.7,3873.9,274.1,""smooth"",""up"",""up"",""good_move"",9417.9,2456,2106.6,6961.9,349.4,""oops"",""right"",""right"",""good_move"",12977.8,3559.7,3247.8,9418.1,311.9,""smooth"",""right"",""right"",""good_move"",18321.9,5344,1741.2,16159.7,421,""oops"",""right"",""left"",""bad_move"",21241.7,2919.7,2574.4,18322,345.3,""oops"",""right"",""left"",""bad_move"",24113.8,2871.9,2607.3,21242,264.6,""smooth"",""right"",""right"",""good_move"",26809.8,2695.8,2423.9,24114,271.9,""oops"",""right"",""right"",""good_move""]","",""
"2308","","<div style=""width:500px;"">
  <p>What determined the result of this run?</p>
  </div>","13","html-slider-response","55","680394","0.0-5.0-1.9","1","1","2025-07-09 08:38:06","01610cd0009c79a99da7d0a3353eb402","93.108.112.26","Mozilla/5.0 (Windows NT 10.0; Win64; x64) AppleWebKit/537.36 (KHTML, like Gecko) Chrome/138.0.0.0 Safari/537.36","WebKit","Chrome","138.0.0.0","Windows","10.0","https://app.prolific.com/","en-US,en;q=0.9","6140ef8d27499e70e8740918","683db7602f5db6a34d12d064","686e2a63cfc3fe448ef090b1","1","6140ef8d27499e70e8740918","1","2025-07-09T08:49:27.633Z","","","","","","","","","","","AttribQ","","50","","","","","","","","","","","","","","","","","","","","","","","","","","","","",""
"2485","","<div style=""width:500px;"">
  <p>How much control did you have over the ball?</p>
  </div>","27","html-slider-response","56","682880","0.0-5.0-2.9","1","1","2025-07-09 08:38:06","01610cd0009c79a99da7d0a3353eb402","93.108.112.26","Mozilla/5.0 (Windows NT 10.0; Win64; x64) AppleWebKit/537.36 (KHTML, like Gecko) Chrome/138.0.0.0 Safari/537.36","WebKit","Chrome","138.0.0.0","Windows","10.0","https://app.prolific.com/","en-US,en;q=0.9","6140ef8d27499e70e8740918","683db7602f5db6a34d12d064","686e2a63cfc3fe448ef090b1","1","6140ef8d27499e70e8740918","1","2025-07-09T08:49:30.119Z","","","","","","","","","","","ControlQ","","50","","","","","","","","","","","","","","","","","","","","","","","","","","","","",""
"1288","","<div style=""width:500px;"">
  <p>How would you describe your current emotional state?</p>
  </div>","62","html-slider-response","57","684169","0.0-5.0-3.9","1","1","2025-07-09 08:38:06","01610cd0009c79a99da7d0a3353eb402","93.108.112.26","Mozilla/5.0 (Windows NT 10.0; Win64; x64) AppleWebKit/537.36 (KHTML, like Gecko) Chrome/138.0.0.0 Safari/537.36","WebKit","Chrome","138.0.0.0","Windows","10.0","https://app.prolific.com/","en-US,en;q=0.9","6140ef8d27499e70e8740918","683db7602f5db6a34d12d064","686e2a63cfc3fe448ef090b1","1","6140ef8d27499e70e8740918","1","2025-07-09T08:49:31.408Z","","","","","","","","","","","StressQ","","50","","","","","","","","","","","","","","","","","","","","","","","","","","","","",""
"1513","","<div style=""width:500px;"">
  <p>What best describes how you currently feel?</p>
  </div>","82","html-slider-response","58","685683","0.0-5.0-4.9","1","1","2025-07-09 08:38:06","01610cd0009c79a99da7d0a3353eb402","93.108.112.26","Mozilla/5.0 (Windows NT 10.0; Win64; x64) AppleWebKit/537.36 (KHTML, like Gecko) Chrome/138.0.0.0 Safari/537.36","WebKit","Chrome","138.0.0.0","Windows","10.0","https://app.prolific.com/","en-US,en;q=0.9","6140ef8d27499e70e8740918","683db7602f5db6a34d12d064","686e2a63cfc3fe448ef090b1","1","6140ef8d27499e70e8740918","1","2025-07-09T08:49:32.922Z","","","","","","","","","","","MotivationQ","","50","","","","","","","","","","","","","","","","","","","","","","","","","","","","",""
"","","","","ctl-task-cpt","59","718691","0.0-5.0-0.10","1","1","2025-07-09 08:38:06","01610cd0009c79a99da7d0a3353eb402","93.108.112.26","Mozilla/5.0 (Windows NT 10.0; Win64; x64) AppleWebKit/537.36 (KHTML, like Gecko) Chrome/138.0.0.0 Safari/537.36","WebKit","Chrome","138.0.0.0","Windows","10.0","https://app.prolific.com/","en-US,en;q=0.9","6140ef8d27499e70e8740918","683db7602f5db6a34d12d064","686e2a63cfc3fe448ef090b1","1","6140ef8d27499e70e8740918","1","2025-07-09T08:50:05.930Z","","","","","","","","","","","","","","win-only","0","g1:NW,g2:SE","0.5","11","0","686950.6","911.4","5915.5","29991.2","1","4","8","6","2","-8","-8","0","0","0","582.9","3000","-3015","[""down"",""right""]","{""num_key_presses"":9,""num_perfect"":4,""num_errors"":0,""num_randdir"":5,""num_randdir_good_moves"":3,""num_whilered"":0,""num_whileblue"":0,""num_blue"":0,""num_good_moves"":7}","[411.57142857142856,417.47767857142856,0.1,411.57142857142856,422.47767857142856,104.4,411.57142857142856,423.47767857142856,209.6,428.57142857142856,457.47767857142856,314,589.5714285714286,622.4776785714286,414.2,752.5714285714286,723.4776785714286,514.4,757.5714285714286,729.4776785714286,619.2,978.5714285714286,711.4776785714286,724,1262.5714285714287,577.4776785714286,824.3,1262.5714285714287,577.4776785714286,929,1262.5714285714287,577.4776785714286,1029.4,1262.5714285714287,577.4776785714286,1129.9,1262.5714285714287,577.4776785714286,1234.1,1262.5714285714287,577.4776785714286,1334.4,1262.5714285714287,577.4776785714286,1434.7,1262.5714285714287,577.4776785714286,1539,1262.5714285714287,577.4776785714286,1643.9,1262.5714285714287,577.4776785714286,1744,1262.5714285714287,577.4776785714286,1844.7,1262.5714285714287,577.4776785714286,1949.3,1262.5714285714287,577.4776785714286,2049.5,1262.5714285714287,577.4776785714286,2149.8,1262.5714285714287,577.4776785714286,2249.8,1262.5714285714287,577.4776785714286,2354.6,1262.5714285714287,577.4776785714286,2459.1,1262.5714285714287,577.4776785714286,2563.9,1262.5714285714287,577.4776785714286,2664.1,1262.5714285714287,577.4776785714286,2769.1,1262.5714285714287,577.4776785714286,2873.8,1262.5714285714287,577.4776785714286,2973.9,1262.5714285714287,577.4776785714286,3074,1262.5714285714287,577.4776785714286,3178.9,1262.5714285714287,577.4776785714286,3279.3,1262.5714285714287,577.4776785714286,3384,1262.5714285714287,577.4776785714286,3485.3,1262.5714285714287,577.4776785714286,3589.1,1262.5714285714287,577.4776785714286,3689.2,1262.5714285714287,577.4776785714286,3789.4,1262.5714285714287,577.4776785714286,3894,1262.5714285714287,577.4776785714286,3994.3,1262.5714285714287,577.4776785714286,4100,1262.5714285714287,577.4776785714286,4203.9,1262.5714285714287,577.4776785714286,4304.5,1262.5714285714287,577.4776785714286,4404.7,1262.5714285714287,577.4776785714286,4504.7,1262.5714285714287,577.4776785714286,4609.4,1262.5714285714287,577.4776785714286,4714.5,1262.5714285714287,577.4776785714286,4814.5,1262.5714285714287,577.4776785714286,4914.7]","[1383.4,1383.4,1000,0,383.4,""oops"",""down"",""down"",""good_move"",4478.9,3095.3,2765.4,1383.6,329.9,""oops"",""down"",""right"",""good_move"",6911.1,2432,2063.1,4479.1,368.9,""smooth"",""down"",""down"",""good_move"",9318.9,2407.5,2097.7,6911.4,309.8,""smooth"",""down"",""down"",""good_move"",11246.9,1927.9,1607,9319,320.9,""oops"",""right"",""up"",""bad_move"",13695.3,2448.2,2141.6,11247.1,306.6,""oops"",""down"",""left"",""bad_move"",16334.7,2639.2,2340.8,13695.5,298.4,""smooth"",""down"",""down"",""good_move"",19502.7,3167.7,2883.2,16335,284.5,""smooth"",""right"",""right"",""good_move"",21742.7,2239.8,1966.1,19502.9,273.7,""oops"",""right"",""right"",""good_move""]","",""
"3500","","<div style=""width:500px;"">
  <p>What determined the result of this run?</p>
  </div>","2","html-slider-response","60","722192","0.0-5.0-1.10","1","1","2025-07-09 08:38:06","01610cd0009c79a99da7d0a3353eb402","93.108.112.26","Mozilla/5.0 (Windows NT 10.0; Win64; x64) AppleWebKit/537.36 (KHTML, like Gecko) Chrome/138.0.0.0 Safari/537.36","WebKit","Chrome","138.0.0.0","Windows","10.0","https://app.prolific.com/","en-US,en;q=0.9","6140ef8d27499e70e8740918","683db7602f5db6a34d12d064","686e2a63cfc3fe448ef090b1","1","6140ef8d27499e70e8740918","1","2025-07-09T08:50:09.431Z","","","","","","","","","","","AttribQ","","50","","","","","","","","","","","","","","","","","","","","","","","","","","","","",""
"1516","","<div style=""width:500px;"">
  <p>How much control did you have over the ball?</p>
  </div>","26","html-slider-response","61","723708","0.0-5.0-2.10","1","1","2025-07-09 08:38:06","01610cd0009c79a99da7d0a3353eb402","93.108.112.26","Mozilla/5.0 (Windows NT 10.0; Win64; x64) AppleWebKit/537.36 (KHTML, like Gecko) Chrome/138.0.0.0 Safari/537.36","WebKit","Chrome","138.0.0.0","Windows","10.0","https://app.prolific.com/","en-US,en;q=0.9","6140ef8d27499e70e8740918","683db7602f5db6a34d12d064","686e2a63cfc3fe448ef090b1","1","6140ef8d27499e70e8740918","1","2025-07-09T08:50:10.947Z","","","","","","","","","","","ControlQ","","50","","","","","","","","","","","","","","","","","","","","","","","","","","","","",""
"1697","","<div style=""width:500px;"">
  <p>How would you describe your current emotional state?</p>
  </div>","60","html-slider-response","62","725406","0.0-5.0-3.10","1","1","2025-07-09 08:38:06","01610cd0009c79a99da7d0a3353eb402","93.108.112.26","Mozilla/5.0 (Windows NT 10.0; Win64; x64) AppleWebKit/537.36 (KHTML, like Gecko) Chrome/138.0.0.0 Safari/537.36","WebKit","Chrome","138.0.0.0","Windows","10.0","https://app.prolific.com/","en-US,en;q=0.9","6140ef8d27499e70e8740918","683db7602f5db6a34d12d064","686e2a63cfc3fe448ef090b1","1","6140ef8d27499e70e8740918","1","2025-07-09T08:50:12.645Z","","","","","","","","","","","StressQ","","50","","","","","","","","","","","","","","","","","","","","","","","","","","","","",""
"1878","","<div style=""width:500px;"">
  <p>What best describes how you currently feel?</p>
  </div>","71","html-slider-response","63","727285","0.0-5.0-4.10","1","1","2025-07-09 08:38:06","01610cd0009c79a99da7d0a3353eb402","93.108.112.26","Mozilla/5.0 (Windows NT 10.0; Win64; x64) AppleWebKit/537.36 (KHTML, like Gecko) Chrome/138.0.0.0 Safari/537.36","WebKit","Chrome","138.0.0.0","Windows","10.0","https://app.prolific.com/","en-US,en;q=0.9","6140ef8d27499e70e8740918","683db7602f5db6a34d12d064","686e2a63cfc3fe448ef090b1","1","6140ef8d27499e70e8740918","1","2025-07-09T08:50:14.524Z","","","","","","","","","","","MotivationQ","","50","","","","","","","","","","","","","","","","","","","","","","","","","","","","",""
"","","","","ctl-task-cpt","64","766957","0.0-5.0-0.11","1","1","2025-07-09 08:38:06","01610cd0009c79a99da7d0a3353eb402","93.108.112.26","Mozilla/5.0 (Windows NT 10.0; Win64; x64) AppleWebKit/537.36 (KHTML, like Gecko) Chrome/138.0.0.0 Safari/537.36","WebKit","Chrome","138.0.0.0","Windows","10.0","https://app.prolific.com/","en-US,en;q=0.9","6140ef8d27499e70e8740918","683db7602f5db6a34d12d064","686e2a63cfc3fe448ef090b1","1","6140ef8d27499e70e8740918","1","2025-07-09T08:50:54.196Z","","","","","","","","","","","","","","win-only","2","g1:SE,g2:NW","0.6","12","0","728552","891.9","5896.4","36655.5","1","4","4","6","2","-4","-4","0","0","0","914.8","3000","-3015","[""left"",""up""]","{""num_key_presses"":8,""num_perfect"":5,""num_errors"":0,""num_randdir"":3,""num_randdir_good_moves"":1,""num_whilered"":0,""num_whileblue"":0,""num_blue"":1,""num_good_moves"":6}","[413.57142857142856,411.47767857142856,0.1,417.57142857142856,418.47767857142856,103.5,422.57142857142856,425.47767857142856,203.6,422.57142857142856,425.47767857142856,304.3,430.57142857142856,437.47767857142856,408.3,494.57142857142856,506.47767857142856,508.7,541.5714285714286,543.4776785714286,608.8,163.57142857142856,192.47767857142856,713.7,71.57142857142857,95.47767857142857,818.6,71.57142857142857,78.47767857142857,918.7,109.57142857142857,98.47767857142857,1023.8,629.5714285714286,302.47767857142856,1129.5,1051.5714285714287,414.47767857142856,1229.6,1052.5714285714287,415.47767857142856,1333.3,1052.5714285714287,415.47767857142856,1433.5,1052.5714285714287,415.47767857142856,1533.8,1052.5714285714287,415.47767857142856,1638.4,1052.5714285714287,415.47767857142856,1738.4,1052.5714285714287,415.47767857142856,1838.7,1052.5714285714287,415.47767857142856,1944.2,1052.5714285714287,415.47767857142856,2049.1,1052.5714285714287,415.47767857142856,2154.1,1052.5714285714287,415.47767857142856,2258.7,1052.5714285714287,415.47767857142856,2363.6,1052.5714285714287,415.47767857142856,2468.6,1052.5714285714287,415.47767857142856,2569.2,1052.5714285714287,415.47767857142856,2674.1,1052.5714285714287,415.47767857142856,2774.1,1052.5714285714287,415.47767857142856,2878.3,1052.5714285714287,415.47767857142856,2978.9,1052.5714285714287,415.47767857142856,3079,1052.5714285714287,415.47767857142856,3183.4,1052.5714285714287,415.47767857142856,3288.5,1052.5714285714287,415.47767857142856,3388.5,1052.5714285714287,415.47767857142856,3494,1052.5714285714287,415.47767857142856,3594,1052.5714285714287,415.47767857142856,3699.1,1052.5714285714287,415.47767857142856,3804,1052.5714285714287,415.47767857142856,3904.3,1052.5714285714287,415.47767857142856,4008.5,1052.5714285714287,415.47767857142856,4108.5,1052.5714285714287,415.47767857142856,4213.3,1052.5714285714287,415.47767857142856,4313.3,1052.5714285714287,415.47767857142856,4413.3,1052.5714285714287,415.47767857142856,4514,1052.5714285714287,415.47767857142856,4619,1052.5714285714287,415.47767857142856,4723.6,1052.5714285714287,415.47767857142856,4828.6,1052.5714285714287,415.47767857142856,4929.1]","[1368.4,1368.4,1000,0,368.4,""oops"",""up"",""down"",""bad_move"",4712.5,3343.9,3003,1368.6,340.9,""smooth"",""up"",""up"",""good_move"",8008.8,3296,2971.1,4712.8,324.9,""oops"",""up"",""right"",""bad_move"",10864.3,2855.4,2480.8,8009,374.5,""smooth"",""up"",""up"",""good_move"",14024.5,3160.1,2817.1,10864.4,343,""smooth"",""up"",""up"",""good_move"",17432.2,3407.5,3054.6,14024.7,352.9,""smooth"",""up"",""up"",""good_move"",23832.1,6399.7,2779,20689,364.1,""oops"",""left"",""left"",""good_move"",27496.3,3664,3310,23832.3,354,""smooth"",""left"",""left"",""good_move""]","",""
"1910","","<div style=""width:500px;"">
  <p>What determined the result of this run?</p>
  </div>","13","html-slider-response","65","768868","0.0-5.0-1.11","1","1","2025-07-09 08:38:06","01610cd0009c79a99da7d0a3353eb402","93.108.112.26","Mozilla/5.0 (Windows NT 10.0; Win64; x64) AppleWebKit/537.36 (KHTML, like Gecko) Chrome/138.0.0.0 Safari/537.36","WebKit","Chrome","138.0.0.0","Windows","10.0","https://app.prolific.com/","en-US,en;q=0.9","6140ef8d27499e70e8740918","683db7602f5db6a34d12d064","686e2a63cfc3fe448ef090b1","1","6140ef8d27499e70e8740918","1","2025-07-09T08:50:56.107Z","","","","","","","","","","","AttribQ","","50","","","","","","","","","","","","","","","","","","","","","","","","","","","","",""
"1828","","<div style=""width:500px;"">
  <p>How much control did you have over the ball?</p>
  </div>","14","html-slider-response","66","770697","0.0-5.0-2.11","1","1","2025-07-09 08:38:06","01610cd0009c79a99da7d0a3353eb402","93.108.112.26","Mozilla/5.0 (Windows NT 10.0; Win64; x64) AppleWebKit/537.36 (KHTML, like Gecko) Chrome/138.0.0.0 Safari/537.36","WebKit","Chrome","138.0.0.0","Windows","10.0","https://app.prolific.com/","en-US,en;q=0.9","6140ef8d27499e70e8740918","683db7602f5db6a34d12d064","686e2a63cfc3fe448ef090b1","1","6140ef8d27499e70e8740918","1","2025-07-09T08:50:57.936Z","","","","","","","","","","","ControlQ","","50","","","","","","","","","","","","","","","","","","","","","","","","","","","","",""
"1783","","<div style=""width:500px;"">
  <p>How would you describe your current emotional state?</p>
  </div>","78","html-slider-response","67","772481","0.0-5.0-3.11","1","1","2025-07-09 08:38:06","01610cd0009c79a99da7d0a3353eb402","93.108.112.26","Mozilla/5.0 (Windows NT 10.0; Win64; x64) AppleWebKit/537.36 (KHTML, like Gecko) Chrome/138.0.0.0 Safari/537.36","WebKit","Chrome","138.0.0.0","Windows","10.0","https://app.prolific.com/","en-US,en;q=0.9","6140ef8d27499e70e8740918","683db7602f5db6a34d12d064","686e2a63cfc3fe448ef090b1","1","6140ef8d27499e70e8740918","1","2025-07-09T08:50:59.720Z","","","","","","","","","","","StressQ","","50","","","","","","","","","","","","","","","","","","","","","","","","","","","","",""
"1728","","<div style=""width:500px;"">
  <p>What best describes how you currently feel?</p>
  </div>","78","html-slider-response","68","774209","0.0-5.0-4.11","1","1","2025-07-09 08:38:06","01610cd0009c79a99da7d0a3353eb402","93.108.112.26","Mozilla/5.0 (Windows NT 10.0; Win64; x64) AppleWebKit/537.36 (KHTML, like Gecko) Chrome/138.0.0.0 Safari/537.36","WebKit","Chrome","138.0.0.0","Windows","10.0","https://app.prolific.com/","en-US,en;q=0.9","6140ef8d27499e70e8740918","683db7602f5db6a34d12d064","686e2a63cfc3fe448ef090b1","1","6140ef8d27499e70e8740918","1","2025-07-09T08:51:01.448Z","","","","","","","","","","","MotivationQ","","50","","","","","","","","","","","","","","","","","","","","","","","","","","","","",""
"","","","","ctl-task-cpt","69","800047","0.0-5.0-0.12","1","1","2025-07-09 08:38:06","01610cd0009c79a99da7d0a3353eb402","93.108.112.26","Mozilla/5.0 (Windows NT 10.0; Win64; x64) AppleWebKit/537.36 (KHTML, like Gecko) Chrome/138.0.0.0 Safari/537.36","WebKit","Chrome","138.0.0.0","Windows","10.0","https://app.prolific.com/","en-US,en;q=0.9","6140ef8d27499e70e8740918","683db7602f5db6a34d12d064","686e2a63cfc3fe448ef090b1","1","6140ef8d27499e70e8740918","1","2025-07-09T08:51:27.286Z","","","","","","","","","","","","","","win-only","0","g1:NW,g2:SE","0.7","13","0","775476","1484.9","6485.3","22820.1","1","4","4","6","2","4","4","4","0","0.030303030303030304","835","3000","1010","[""down"",""right""]","{""num_key_presses"":6,""num_perfect"":4,""num_errors"":0,""num_randdir"":2,""num_randdir_good_moves"":2,""num_whilered"":0,""num_whileblue"":0,""num_blue"":0,""num_good_moves"":6}","[410.57142857142856,410.47767857142856,0.1,410.57142857142856,410.47767857142856,100.8,410.57142857142856,410.47767857142856,205.8,410.57142857142856,410.47767857142856,306,404.57142857142856,410.47767857142856,410.6,374.57142857142856,379.47767857142856,516,564.5714285714286,571.4776785714286,620.3,757.5714285714286,719.4776785714286,721.4,767.5714285714286,735.4776785714286,825.5,785.5714285714286,739.4776785714286,925.5,1130.5714285714287,664.4776785714286,1025.5,1183.5714285714287,641.4776785714286,1130.8,1183.5714285714287,641.4776785714286,1231.6,1183.5714285714287,641.4776785714286,1335.7,1183.5714285714287,641.4776785714286,1435.7,1183.5714285714287,641.4776785714286,1540.5,1183.5714285714287,641.4776785714286,1640.7,1183.5714285714287,641.4776785714286,1740.8,1183.5714285714287,641.4776785714286,1841.3,1183.5714285714287,641.4776785714286,1946.5,1183.5714285714287,641.4776785714286,2051.4,1183.5714285714287,641.4776785714286,2155.7,1183.5714285714287,641.4776785714286,2256.2,1183.5714285714287,641.4776785714286,2356.2,1183.5714285714287,641.4776785714286,2461.7,1183.5714285714287,641.4776785714286,2565.7,1183.5714285714287,641.4776785714286,2665.9,1183.5714285714287,641.4776785714286,2770.6,1183.5714285714287,641.4776785714286,2870.8,1183.5714285714287,641.4776785714286,2970.8,1183.5714285714287,641.4776785714286,3075.6,1183.5714285714287,641.4776785714286,3175.6,1183.5714285714287,641.4776785714286,3276.1,1183.5714285714287,641.4776785714286,3380.7,1183.5714285714287,641.4776785714286,3481,1183.5714285714287,641.4776785714286,3586.1,1183.5714285714287,641.4776785714286,3690.7,1183.5714285714287,641.4776785714286,3790.7,1183.5714285714287,641.4776785714286,3892.3,1183.5714285714287,641.4776785714286,3995.9,1183.5714285714287,641.4776785714286,4100.6,1183.5714285714287,641.4776785714286,4205.9,1183.5714285714287,641.4776785714286,4305.9,1183.5714285714287,641.4776785714286,4411.2,1183.5714285714287,641.4776785714286,4515.6,1183.5714285714287,641.4776785714286,4615.6,1183.5714285714287,641.4776785714286,4715.9,1183.5714285714287,641.4776785714286,4820.7,1183.5714285714287,641.4776785714286,4925.4]","[1391.3,1391.4,1000,0,391.4,""oops"",""down"",""right"",""good_move"",3927,2535.4,2217.9,1391.6,317.5,""smooth"",""down"",""down"",""good_move"",6895.4,2968.2,2631.7,3927.2,336.5,""smooth"",""down"",""down"",""good_move"",9967,3071.4,2754.5,6895.6,316.9,""smooth"",""down"",""down"",""good_move"",12247.2,2280,1927.1,9967.2,352.9,""oops"",""right"",""right"",""good_move"",16247,3999.6,3703.9,12247.4,295.7,""smooth"",""right"",""right"",""good_move""]","",""
"2623","","<div style=""width:500px;"">
  <p>What determined the result of this run?</p>
  </div>","74","html-slider-response","70","802670","0.0-5.0-1.12","1","1","2025-07-09 08:38:06","01610cd0009c79a99da7d0a3353eb402","93.108.112.26","Mozilla/5.0 (Windows NT 10.0; Win64; x64) AppleWebKit/537.36 (KHTML, like Gecko) Chrome/138.0.0.0 Safari/537.36","WebKit","Chrome","138.0.0.0","Windows","10.0","https://app.prolific.com/","en-US,en;q=0.9","6140ef8d27499e70e8740918","683db7602f5db6a34d12d064","686e2a63cfc3fe448ef090b1","1","6140ef8d27499e70e8740918","1","2025-07-09T08:51:29.909Z","","","","","","","","","","","AttribQ","","50","","","","","","","","","","","","","","","","","","","","","","","","","","","","",""
"1626","","<div style=""width:500px;"">
  <p>How much control did you have over the ball?</p>
  </div>","59","html-slider-response","71","804297","0.0-5.0-2.12","1","1","2025-07-09 08:38:06","01610cd0009c79a99da7d0a3353eb402","93.108.112.26","Mozilla/5.0 (Windows NT 10.0; Win64; x64) AppleWebKit/537.36 (KHTML, like Gecko) Chrome/138.0.0.0 Safari/537.36","WebKit","Chrome","138.0.0.0","Windows","10.0","https://app.prolific.com/","en-US,en;q=0.9","6140ef8d27499e70e8740918","683db7602f5db6a34d12d064","686e2a63cfc3fe448ef090b1","1","6140ef8d27499e70e8740918","1","2025-07-09T08:51:31.536Z","","","","","","","","","","","ControlQ","","50","","","","","","","","","","","","","","","","","","","","","","","","","","","","",""
"2174","","<div style=""width:500px;"">
  <p>How would you describe your current emotional state?</p>
  </div>","53","html-slider-response","72","806472","0.0-5.0-3.12","1","1","2025-07-09 08:38:06","01610cd0009c79a99da7d0a3353eb402","93.108.112.26","Mozilla/5.0 (Windows NT 10.0; Win64; x64) AppleWebKit/537.36 (KHTML, like Gecko) Chrome/138.0.0.0 Safari/537.36","WebKit","Chrome","138.0.0.0","Windows","10.0","https://app.prolific.com/","en-US,en;q=0.9","6140ef8d27499e70e8740918","683db7602f5db6a34d12d064","686e2a63cfc3fe448ef090b1","1","6140ef8d27499e70e8740918","1","2025-07-09T08:51:33.711Z","","","","","","","","","","","StressQ","","50","","","","","","","","","","","","","","","","","","","","","","","","","","","","",""
"1801","","<div style=""width:500px;"">
  <p>What best describes how you currently feel?</p>
  </div>","72","html-slider-response","73","808273","0.0-5.0-4.12","1","1","2025-07-09 08:38:06","01610cd0009c79a99da7d0a3353eb402","93.108.112.26","Mozilla/5.0 (Windows NT 10.0; Win64; x64) AppleWebKit/537.36 (KHTML, like Gecko) Chrome/138.0.0.0 Safari/537.36","WebKit","Chrome","138.0.0.0","Windows","10.0","https://app.prolific.com/","en-US,en;q=0.9","6140ef8d27499e70e8740918","683db7602f5db6a34d12d064","686e2a63cfc3fe448ef090b1","1","6140ef8d27499e70e8740918","1","2025-07-09T08:51:35.512Z","","","","","","","","","","","MotivationQ","","50","","","","","","","","","","","","","","","","","","","","","","","","","","","","",""
"","","","","ctl-task-cpt","74","839618","0.0-5.0-0.13","1","1","2025-07-09 08:38:06","01610cd0009c79a99da7d0a3353eb402","93.108.112.26","Mozilla/5.0 (Windows NT 10.0; Win64; x64) AppleWebKit/537.36 (KHTML, like Gecko) Chrome/138.0.0.0 Safari/537.36","WebKit","Chrome","138.0.0.0","Windows","10.0","https://app.prolific.com/","en-US,en;q=0.9","6140ef8d27499e70e8740918","683db7602f5db6a34d12d064","686e2a63cfc3fe448ef090b1","1","6140ef8d27499e70e8740918","1","2025-07-09T08:52:06.857Z","","","","","","","","","","","","","","win-only","0","g1:NW,g2:SE","0.8","14","0","809540.2","693.7","5695.6","28325.9","1","4","8","6","2","8","8","12","4","0.09090909090909091","611.1","3000","935","[""down"",""right""]","{""num_key_presses"":6,""num_perfect"":6,""num_errors"":0,""num_randdir"":0,""num_randdir_good_moves"":0,""num_whilered"":0,""num_whileblue"":0,""num_blue"":2,""num_good_moves"":6}","[418.57142857142856,412.47767857142856,0.1,418.57142857142856,412.47767857142856,101.8,421.57142857142856,419.47767857142856,206.6,432.57142857142856,450.47767857142856,306.7,496.57142857142856,554.4776785714286,406.7,659.5714285714286,700.4776785714286,506.8,694.5714285714286,721.4776785714286,606.9,736.5714285714286,735.4776785714286,707,908.5714285714286,728.4776785714286,807,1241.5714285714287,643.4776785714286,911.8,1267.5714285714287,634.4776785714286,1012,1267.5714285714287,634.4776785714286,1112,1267.5714285714287,634.4776785714286,1216.7,1267.5714285714287,634.4776785714286,1316.8,1267.5714285714287,634.4776785714286,1416.8,1267.5714285714287,634.4776785714286,1521.4,1267.5714285714287,634.4776785714286,1621.4,1267.5714285714287,634.4776785714286,1721.8,1267.5714285714287,634.4776785714286,1827.5,1267.5714285714287,634.4776785714286,1932.1,1267.5714285714287,634.4776785714286,2037.5,1267.5714285714287,634.4776785714286,2141.9,1267.5714285714287,634.4776785714286,2247.3,1267.5714285714287,634.4776785714286,2351.6,1267.5714285714287,634.4776785714286,2451.7,1267.5714285714287,634.4776785714286,2552.1,1267.5714285714287,634.4776785714286,2657.1,1267.5714285714287,634.4776785714286,2761.6,1267.5714285714287,634.4776785714286,2861.7,1267.5714285714287,634.4776785714286,2962.6,1267.5714285714287,634.4776785714286,3067.3,1267.5714285714287,634.4776785714286,3171.7,1267.5714285714287,634.4776785714286,3271.8,1267.5714285714287,634.4776785714286,3371.9,1267.5714285714287,634.4776785714286,3477.3,1267.5714285714287,634.4776785714286,3581.7,1267.5714285714287,634.4776785714286,3682.4,1267.5714285714287,634.4776785714286,3787.1,1267.5714285714287,634.4776785714286,3888,1267.5714285714287,634.4776785714286,3992.1,1267.5714285714287,634.4776785714286,4096.4,1267.5714285714287,634.4776785714286,4197.3,1267.5714285714287,634.4776785714286,4302.1,1267.5714285714287,634.4776785714286,4407.2,1267.5714285714287,634.4776785714286,4507.7,1267.5714285714287,634.4776785714286,4612.2,1267.5714285714287,634.4776785714286,4716.4,1267.5714285714287,634.4776785714286,4817.3,1267.5714285714287,634.4776785714286,4917.5]","[1332.4,1332.4,1000,0,332.4,""smooth"",""down"",""down"",""good_move"",7116.3,5783.7,2461.6,4369.8,284.9,""smooth"",""down"",""down"",""good_move"",9884.3,2767.7,2417.1,7116.6,350.6,""smooth"",""right"",""right"",""good_move"",16404.9,6520.3,2323,13685.5,396.4,""smooth"",""down"",""down"",""good_move"",19460.3,3055.2,2676.9,16405.1,378.3,""smooth"",""right"",""right"",""good_move"",22540.3,3079.8,2728.4,19460.5,351.4,""smooth"",""right"",""right"",""good_move""]","",""
"1588","","<div style=""width:500px;"">
  <p>What determined the result of this run?</p>
  </div>","100","html-slider-response","75","841207","0.0-5.0-1.13","1","1","2025-07-09 08:38:06","01610cd0009c79a99da7d0a3353eb402","93.108.112.26","Mozilla/5.0 (Windows NT 10.0; Win64; x64) AppleWebKit/537.36 (KHTML, like Gecko) Chrome/138.0.0.0 Safari/537.36","WebKit","Chrome","138.0.0.0","Windows","10.0","https://app.prolific.com/","en-US,en;q=0.9","6140ef8d27499e70e8740918","683db7602f5db6a34d12d064","686e2a63cfc3fe448ef090b1","1","6140ef8d27499e70e8740918","1","2025-07-09T08:52:08.446Z","","","","","","","","","","","AttribQ","","50","","","","","","","","","","","","","","","","","","","","","","","","","","","","",""
"1482","","<div style=""width:500px;"">
  <p>How much control did you have over the ball?</p>
