"rt","response_timestamp","stimulus","response","trial_type","trial_index","time_elapsed","internal_node_id","run_id","condition","recorded_at","source_code_version","ip","user_agent","device","browser","browser_version","platform","platform_version","referer","accept_language","PROLIFIC_PID","STUDY_ID","SESSION_ID","WEEK","BATCH","prolific_id","week","batch","realtime","success","responses","item_order","radio_event_ids","radio_event_times","key_event_times","mouse_event_times","straightlining","zigzagging","honeypot","eventType","view_history","slider_start","which_type","canvas_config","goals_layout","control_level","trial_number","tutorial_trial_number","trial_start_time","phase1_start_time","phase2_start_time","phase3_start_time","goal_1_value","goal_1_distance","goal_2_value","goal_2_distance","goal_selected","outcome","outcome_total","participant_final_score","participant_initial_score","participant_final_score_prop","goal_choice_rt","allocated_time","allocated_time_remaining","goal_direction","counts","mouse_movements","key_presses","question_order","question_id"
"4816","1753256204818","<p style='font-size:40px;line-height:1.25'><strong>Welcome to the experiment!</strong></p><p style='font-size:1.1em;line-height:1.25'>Thank you for participanting in our experiment again! You will be asked to play the Dysfunctional Ball Game again. We will briefly recap the rules before we start.</p><p style='font-size:1.1em;line-height:1.25'>Press <strong>Next</strong> to continue.</p>","0","custom-html-button-response","0","4828","0.0-0.0","179","1","2025-07-23 07:34:47","1f75c3e559b7213887762d5229550c2b","49.206.12.249","Mozilla/5.0 (Windows NT 10.0; Win64; x64) AppleWebKit/537.36 (KHTML, like Gecko) Chrome/138.0.0.0 Safari/537.36","WebKit","Chrome","138.0.0.0","Windows","10.0","https://app.prolific.com/","en-GB,en-US;q=0.9,en;q=0.8,ta;q=0.7","66c5f76d9a214b469f6476c8","683db9eb0562dbf637994deb","68809050f24c993615578353","2","1","66c5f76d9a214b469f6476c8","2","1","2025-07-23T07:36:44.823Z","","","","","","","","","","","","","","","","","","","","","","","","","","","","","","","","","","","","","","","","","",""
"20034","","","","fullscreen","1","25880","0.0-1.0","179","1","2025-07-23 07:34:47","1f75c3e559b7213887762d5229550c2b","49.206.12.249","Mozilla/5.0 (Windows NT 10.0; Win64; x64) AppleWebKit/537.36 (KHTML, like Gecko) Chrome/138.0.0.0 Safari/537.36","WebKit","Chrome","138.0.0.0","Windows","10.0","https://app.prolific.com/","en-GB,en-US;q=0.9,en;q=0.8,ta;q=0.7","66c5f76d9a214b469f6476c8","683db9eb0562dbf637994deb","68809050f24c993615578353","2","1","66c5f76d9a214b469f6476c8","2","1","","true","","","","","","","","","","","","","","","","","","","","","","","","","","","","","","","","","","","","","","","","",""
"10120","1753256235999","<p style='font-size:1.1em;line-height:1.25'>In the following, we will ask you a few questions relating to your feelings in the last 24 hours.<br></p><p style='font-size:1.1em;line-height:1.25'>Press the <strong>Next</strong> button to continue.</p>","0","custom-html-button-response","2","36007","0.0-2.0-0.0","179","1","2025-07-23 07:34:47","1f75c3e559b7213887762d5229550c2b","49.206.12.249","Mozilla/5.0 (Windows NT 10.0; Win64; x64) AppleWebKit/537.36 (KHTML, like Gecko) Chrome/138.0.0.0 Safari/537.36","WebKit","Chrome","138.0.0.0","Windows","10.0","https://app.prolific.com/","en-GB,en-US;q=0.9,en;q=0.8,ta;q=0.7","66c5f76d9a214b469f6476c8","683db9eb0562dbf637994deb","68809050f24c993615578353","2","1","66c5f76d9a214b469f6476c8","2","1","2025-07-23T07:37:16.003Z","","","","","","","","","","","","","","","","","","","","","","","","","","","","","","","","","","","","","","","","","",""
"489902.8999999999","","","","survey-template","3","525946","0.0-2.0-1.0","179","1","2025-07-23 07:34:47","1f75c3e559b7213887762d5229550c2b","49.206.12.249","Mozilla/5.0 (Windows NT 10.0; Win64; x64) AppleWebKit/537.36 (KHTML, like Gecko) Chrome/138.0.0.0 Safari/537.36","WebKit","Chrome","138.0.0.0","Windows","10.0","https://app.prolific.com/","en-GB,en-US;q=0.9,en;q=0.8,ta;q=0.7","66c5f76d9a214b469f6476c8","683db9eb0562dbf637994deb","68809050f24c993615578353","2","1","66c5f76d9a214b469f6476c8","2","1","2025-07-23T07:45:25.942Z","","{""Q01"":""1"",""Q02"":""2"",""Q03"":""2"",""Q04"":""1"",""Q05"":""2"",""Q06"":""2"",""Q07"":""2"",""Q08"":""2"",""Q09"":""2"",""Q10"":""1"",""Q11"":""3"",""Q12"":""1"",""Q13"":""5"",""Q14"":""1"",""Q15"":""2"",""Q16"":""2"",""Q17"":""2"",""Q18"":""1"",""Q19"":""1"",""Q20"":""2"",""Q21"":""2"",""Q22"":""2""}","[0,1,2,3,4,5,6,7,8,9,10,11,12,13,14,15,16,17,18,19,20,21]","[""Q01"",""Q02"",""Q03"",""Q04"",""Q05"",""Q06"",""Q07"",""Q09"",""Q08"",""Q10"",""Q11"",""Q11"",""Q12"",""Q13"",""Q14"",""Q15"",""Q16"",""Q16"",""Q17"",""Q18"",""Q19"",""Q20"",""Q21"",""Q22""]","[17259.099999999977,18587.29999999993,19982.199999999953,33011.5,34649.19999999995,37716.29999999993,38364.89999999991,40891,41601.89999999991,61827.29999999993,76889.79999999993,447562,449182.69999999995,450839.5,455310.59999999986,457082.19999999995,460464.8999999999,478320.8999999999,479206.5,480503.30000000005,483118.3999999999,485998.59999999986,488120.19999999995,488622.5]","[]","[2.3999999999068677,17259.099999999977,18587.29999999993,19982.199999999953,33011.5,34649.19999999995,37716.29999999993,38364.89999999991,39659.89999999991,40891,41601.89999999991,61827.29999999993,76889.79999999993,447562,449182.69999999995,450839.5,455310.59999999986,457082.19999999995,460464.8999999999,478320.8999999999,479206.5,480503.30000000005,483118.3999999999,485998.59999999986,488120.19999999995,488622.5,489833.5]","0.5909090909090909","0.3333333333333333","0","drsp","","","","","","","","","","","","","","","","","","","","","","","","","","","","","","",""
"6450.199999999953","","","","survey-template","4","532405","0.0-2.0-2.0","179","1","2025-07-23 07:34:47","1f75c3e559b7213887762d5229550c2b","49.206.12.249","Mozilla/5.0 (Windows NT 10.0; Win64; x64) AppleWebKit/537.36 (KHTML, like Gecko) Chrome/138.0.0.0 Safari/537.36","WebKit","Chrome","138.0.0.0","Windows","10.0","https://app.prolific.com/","en-GB,en-US;q=0.9,en;q=0.8,ta;q=0.7","66c5f76d9a214b469f6476c8","683db9eb0562dbf637994deb","68809050f24c993615578353","2","1","66c5f76d9a214b469f6476c8","2","1","2025-07-23T07:45:32.400Z","","{""Q01"":""2"",""Q02"":""3"",""Q03"":""2""}","[0,1,2]","[""Q01"",""Q02"",""Q03""]","[3361.399999999907,4827.199999999953,5475.800000000047]","[]","[3361.399999999907,3857.1999999999534,4465,4827.199999999953,5475.800000000047,6449.300000000047]","1","0","0","stress","","","","","","","","","","","","","","","","","","","","","","","","","","","","","","",""
"10181","","","","instructions","5","542594","0.0-3.0-0.0","179","1","2025-07-23 07:34:47","1f75c3e559b7213887762d5229550c2b","49.206.12.249","Mozilla/5.0 (Windows NT 10.0; Win64; x64) AppleWebKit/537.36 (KHTML, like Gecko) Chrome/138.0.0.0 Safari/537.36","WebKit","Chrome","138.0.0.0","Windows","10.0","https://app.prolific.com/","en-GB,en-US;q=0.9,en;q=0.8,ta;q=0.7","66c5f76d9a214b469f6476c8","683db9eb0562dbf637994deb","68809050f24c993615578353","2","1","66c5f76d9a214b469f6476c8","2","1","","","","","","","","","","","","","[{""page_index"":0,""viewing_time"":10180}]","","","","","","","","","","","","","","","","","","","","","","","","","","","","","",""
"1829279","","<p>Before you start with this game please answer the following three questions yourself. </p>
  <p>Through this game, we measure several aspects of your cognitive performance, such as reaction times, multi-tasking capabilities </p>
  <p>and the ability to assess the situation you are in.</p>
  <p></p>
  <p><b>How good do you usually are in such tasks?</b></p>","83","html-slider-response","6","2371931","0.0-4.0-0.0","179","1","2025-07-23 07:34:47","1f75c3e559b7213887762d5229550c2b","49.206.12.249","Mozilla/5.0 (Windows NT 10.0; Win64; x64) AppleWebKit/537.36 (KHTML, like Gecko) Chrome/138.0.0.0 Safari/537.36","WebKit","Chrome","138.0.0.0","Windows","10.0","https://app.prolific.com/","en-GB,en-US;q=0.9,en;q=0.8,ta;q=0.7","66c5f76d9a214b469f6476c8","683db9eb0562dbf637994deb","68809050f24c993615578353","2","1","66c5f76d9a214b469f6476c8","2","1","2025-07-23T08:16:11.927Z","","","","","","","","","","","PreSkillQ","","50","","","","","","","","","","","","","","","","","","","","","","","","","","","","",""
"1735","","<div style=""width:500px;"">
  <p>How well do you think you will perform in this task compared to other participants?</p>
  </div>","83","html-slider-response","7","2373677","0.0-4.0-1.0","179","1","2025-07-23 07:34:47","1f75c3e559b7213887762d5229550c2b","49.206.12.249","Mozilla/5.0 (Windows NT 10.0; Win64; x64) AppleWebKit/537.36 (KHTML, like Gecko) Chrome/138.0.0.0 Safari/537.36","WebKit","Chrome","138.0.0.0","Windows","10.0","https://app.prolific.com/","en-GB,en-US;q=0.9,en;q=0.8,ta;q=0.7","66c5f76d9a214b469f6476c8","683db9eb0562dbf637994deb","68809050f24c993615578353","2","1","66c5f76d9a214b469f6476c8","2","1","2025-07-23T08:16:13.672Z","","","","","","","","","","","PrePerfQ","","50","","","","","","","","","","","","","","","","","","","","","","","","","","","","",""
"1360","","<div style=""width:500px;"">
  <p>What best describes how you currently feel?</p>
  </div>","82","html-slider-response","8","2375045","0.0-4.0-2.0","179","1","2025-07-23 07:34:47","1f75c3e559b7213887762d5229550c2b","49.206.12.249","Mozilla/5.0 (Windows NT 10.0; Win64; x64) AppleWebKit/537.36 (KHTML, like Gecko) Chrome/138.0.0.0 Safari/537.36","WebKit","Chrome","138.0.0.0","Windows","10.0","https://app.prolific.com/","en-GB,en-US;q=0.9,en;q=0.8,ta;q=0.7","66c5f76d9a214b469f6476c8","683db9eb0562dbf637994deb","68809050f24c993615578353","2","1","66c5f76d9a214b469f6476c8","2","1","2025-07-23T08:16:15.040Z","","","","","","","","","","","PreMotivationQ","","50","","","","","","","","","","","","","","","","","","","","","","","","","","","","",""
"","","","","ctl-task-cpt","9","2419821","0.0-5.0-0.0","179","1","2025-07-23 07:34:47","1f75c3e559b7213887762d5229550c2b","49.206.12.249","Mozilla/5.0 (Windows NT 10.0; Win64; x64) AppleWebKit/537.36 (KHTML, like Gecko) Chrome/138.0.0.0 Safari/537.36","WebKit","Chrome","138.0.0.0","Windows","10.0","https://app.prolific.com/","en-GB,en-US;q=0.9,en;q=0.8,ta;q=0.7","66c5f76d9a214b469f6476c8","683db9eb0562dbf637994deb","68809050f24c993615578353","2","1","66c5f76d9a214b469f6476c8","2","1","2025-07-23T08:16:59.816Z","","","","","","","","","","","","","","win-only","3","g1:SW,g2:NE","1","1","0","2387258.9","2295.5","7296.5","41759.9","1","4","8","6","2","-8","-9","0","0","0","1217.6","3000","-2565","[""up"",""right""]","{""num_key_presses"":6,""num_perfect"":5,""num_errors"":1,""num_randdir"":0,""num_randdir_good_moves"":0,""num_whilered"":0,""num_whileblue"":1,""num_blue"":5,""num_good_moves"":5}","[298.22232142857143,298.12857142857143,1,298.22232142857143,298.12857142857143,101.7,298.22232142857143,298.12857142857143,224.2,298.22232142857143,298.12857142857143,326.1,298.22232142857143,298.12857142857143,426.1,259.22232142857143,380.12857142857143,526.4,279.22232142857143,366.12857142857143,634.4,583.2223214285714,59.128571428571426,743.3,584.2223214285714,32.128571428571426,843.3,566.2223214285714,26.128571428571426,946.1,560.2223214285714,36.128571428571426,1050.5,560.2223214285714,36.128571428571426,1154.3,560.2223214285714,36.128571428571426,1257.6,560.2223214285714,36.128571428571426,1382.4,560.2223214285714,36.128571428571426,1483.5,560.2223214285714,36.128571428571426,1586.6,560.2223214285714,36.128571428571426,1686.6,560.2223214285714,36.128571428571426,1791.3,560.2223214285714,36.128571428571426,1891.4,560.2223214285714,36.128571428571426,2000,560.2223214285714,36.128571428571426,2100.8,560.2223214285714,36.128571428571426,2201.3,560.2223214285714,36.128571428571426,2306,560.2223214285714,36.128571428571426,2416.2,560.2223214285714,36.128571428571426,2516.3,560.2223214285714,36.128571428571426,2616.9,560.2223214285714,36.128571428571426,2718.6,560.2223214285714,36.128571428571426,2821.3,560.2223214285714,36.128571428571426,2931.4,560.2223214285714,36.128571428571426,3040.3,560.2223214285714,36.128571428571426,3140.9,560.2223214285714,36.128571428571426,3241.9,560.2223214285714,36.128571428571426,3348.4,560.2223214285714,36.128571428571426,3463.7,560.2223214285714,36.128571428571426,3572.4,560.2223214285714,36.128571428571426,3676.4,560.2223214285714,36.128571428571426,3784,560.2223214285714,36.128571428571426,3885.3,560.2223214285714,36.128571428571426,3986.4,560.2223214285714,36.128571428571426,4086.5,560.2223214285714,36.128571428571426,4191.2,560.2223214285714,36.128571428571426,4292,560.2223214285714,36.128571428571426,4398.7,560.2223214285714,36.128571428571426,4500.6,560.2223214285714,36.128571428571426,4601.5,560.2223214285714,36.128571428571426,4701.9,560.2223214285714,36.128571428571426,4805.9,560.2223214285714,36.128571428571426,4911]","[7941.6,7941.5,2069.2,5229.2,643.2,""smooth"",""right"",""right"",""good_move"",12168.6,4226.3,3806.5,7942.3,419.8,""smooth"",""right"",""right"",""good_move"",15518.6,3349.7,3000.7,12169,349,""while_blue"",""right"",""down"",""bad_move"",18538.3,3017.7,2431.8,15520.6,585.9,""smooth"",""right"",""right"",""good_move"",28021.9,9483.2,2763.8,24754.9,503.3,""smooth"",""up"",""up"",""good_move"",31557,3534.4,2348.5,28022.6,1185.9,""smooth"",""up"",""up"",""good_move""]","",""
"4294","","<div style=""width:500px;"">
  <p>What determined the result of this run?</p>
  </div>","16","html-slider-response","10","2424119","0.0-5.0-1.0","179","1","2025-07-23 07:34:47","1f75c3e559b7213887762d5229550c2b","49.206.12.249","Mozilla/5.0 (Windows NT 10.0; Win64; x64) AppleWebKit/537.36 (KHTML, like Gecko) Chrome/138.0.0.0 Safari/537.36","WebKit","Chrome","138.0.0.0","Windows","10.0","https://app.prolific.com/","en-GB,en-US;q=0.9,en;q=0.8,ta;q=0.7","66c5f76d9a214b469f6476c8","683db9eb0562dbf637994deb","68809050f24c993615578353","2","1","66c5f76d9a214b469f6476c8","2","1","2025-07-23T08:17:04.115Z","","","","","","","","","","","AttribQ","","50","","","","","","","","","","","","","","","","","","","","","","","","","","","","",""
"3520","","<div style=""width:500px;"">
  <p>How much control did you have over the ball?</p>
  </div>","37","html-slider-response","11","2427651","0.0-5.0-2.0","179","1","2025-07-23 07:34:47","1f75c3e559b7213887762d5229550c2b","49.206.12.249","Mozilla/5.0 (Windows NT 10.0; Win64; x64) AppleWebKit/537.36 (KHTML, like Gecko) Chrome/138.0.0.0 Safari/537.36","WebKit","Chrome","138.0.0.0","Windows","10.0","https://app.prolific.com/","en-GB,en-US;q=0.9,en;q=0.8,ta;q=0.7","66c5f76d9a214b469f6476c8","683db9eb0562dbf637994deb","68809050f24c993615578353","2","1","66c5f76d9a214b469f6476c8","2","1","2025-07-23T08:17:07.646Z","","","","","","","","","","","ControlQ","","50","","","","","","","","","","","","","","","","","","","","","","","","","","","","",""
"2096","","<div style=""width:500px;"">
  <p>How would you describe your current emotional state?</p>
  </div>","77","html-slider-response","12","2429749","0.0-5.0-3.0","179","1","2025-07-23 07:34:47","1f75c3e559b7213887762d5229550c2b","49.206.12.249","Mozilla/5.0 (Windows NT 10.0; Win64; x64) AppleWebKit/537.36 (KHTML, like Gecko) Chrome/138.0.0.0 Safari/537.36","WebKit","Chrome","138.0.0.0","Windows","10.0","https://app.prolific.com/","en-GB,en-US;q=0.9,en;q=0.8,ta;q=0.7","66c5f76d9a214b469f6476c8","683db9eb0562dbf637994deb","68809050f24c993615578353","2","1","66c5f76d9a214b469f6476c8","2","1","2025-07-23T08:17:09.745Z","","","","","","","","","","","StressQ","","50","","","","","","","","","","","","","","","","","","","","","","","","","","","","",""
"8551","","<div style=""width:500px;"">
  <p>What best describes how you currently feel?</p>
  </div>","35","html-slider-response","13","2438307","0.0-5.0-4.0","179","1","2025-07-23 07:34:47","1f75c3e559b7213887762d5229550c2b","49.206.12.249","Mozilla/5.0 (Windows NT 10.0; Win64; x64) AppleWebKit/537.36 (KHTML, like Gecko) Chrome/138.0.0.0 Safari/537.36","WebKit","Chrome","138.0.0.0","Windows","10.0","https://app.prolific.com/","en-GB,en-US;q=0.9,en;q=0.8,ta;q=0.7","66c5f76d9a214b469f6476c8","683db9eb0562dbf637994deb","68809050f24c993615578353","2","1","66c5f76d9a214b469f6476c8","2","1","2025-07-23T08:17:18.302Z","","","","","","","","","","","MotivationQ","","50","","","","","","","","","","","","","","","","","","","","","","","","","","","","",""
"","","","","ctl-task-cpt","14","2476279","0.0-5.0-0.1","179","1","2025-07-23 07:34:47","1f75c3e559b7213887762d5229550c2b","49.206.12.249","Mozilla/5.0 (Windows NT 10.0; Win64; x64) AppleWebKit/537.36 (KHTML, like Gecko) Chrome/138.0.0.0 Safari/537.36","WebKit","Chrome","138.0.0.0","Windows","10.0","https://app.prolific.com/","en-GB,en-US;q=0.9,en;q=0.8,ta;q=0.7","66c5f76d9a214b469f6476c8","683db9eb0562dbf637994deb","68809050f24c993615578353","2","1","66c5f76d9a214b469f6476c8","2","1","2025-07-23T08:17:56.274Z","","","","","","","","","","","","","","win-only","1","g1:NE,g2:SW","0.9","2","0","2450513.7","1413.1","6417","34962.3","1","4","4","6","2","4","4","4","0","0.030303030303030304","902.9","3000","80","[""down"",""left""]","{""num_key_presses"":8,""num_perfect"":7,""num_errors"":0,""num_randdir"":1,""num_randdir_good_moves"":0,""num_whilered"":0,""num_whileblue"":0,""num_blue"":2,""num_good_moves"":7}","[303.22232142857143,296.12857142857143,0.6,303.22232142857143,296.12857142857143,103.5,303.22232142857143,296.12857142857143,204,303.22232142857143,296.12857142857143,307.9,303.22232142857143,296.12857142857143,412.5,226.22232142857143,347.12857142857143,513,52.222321428571426,519.1285714285714,617.2,47.222321428571426,536.1285714285714,721.3,53.222321428571426,536.1285714285714,829.3,53.222321428571426,536.1285714285714,931,53.222321428571426,536.1285714285714,1034.5,150.22232142857143,482.12857142857143,1143.7,771.2223214285714,186.12857142857143,1251.6,791.2223214285714,176.12857142857143,1363.7,791.2223214285714,176.12857142857143,1468.7,791.2223214285714,176.12857142857143,1581.3,791.2223214285714,176.12857142857143,1684.5,791.2223214285714,176.12857142857143,1788.8,791.2223214285714,176.12857142857143,1889.1,791.2223214285714,176.12857142857143,1989.1,791.2223214285714,176.12857142857143,2097.1,791.2223214285714,176.12857142857143,2198.5,791.2223214285714,176.12857142857143,2298.7,791.2223214285714,176.12857142857143,2403.2,791.2223214285714,176.12857142857143,2504.1,791.2223214285714,176.12857142857143,2610.3,791.2223214285714,176.12857142857143,2712.1,791.2223214285714,176.12857142857143,2814.2,791.2223214285714,176.12857142857143,2918.3,791.2223214285714,176.12857142857143,3018.4,791.2223214285714,176.12857142857143,3123.8,791.2223214285714,176.12857142857143,3228.2,791.2223214285714,176.12857142857143,3334.5,791.2223214285714,176.12857142857143,3438,791.2223214285714,176.12857142857143,3538.1,791.2223214285714,176.12857142857143,3638.2,791.2223214285714,176.12857142857143,3738.3,791.2223214285714,176.12857142857143,3838.3,791.2223214285714,176.12857142857143,3938.4,791.2223214285714,176.12857142857143,4038.7,791.2223214285714,176.12857142857143,4144.2,791.2223214285714,176.12857142857143,4245.1,791.2223214285714,176.12857142857143,4349,791.2223214285714,176.12857142857143,4451.4,791.2223214285714,176.12857142857143,4553.7,791.2223214285714,176.12857142857143,4660.5,791.2223214285714,176.12857142857143,4762.8,791.2223214285714,176.12857142857143,4864.5,791.2223214285714,176.12857142857143,4968.3]","[1532.7,1532.7,1000,0,532.7,""smooth"",""down"",""down"",""good_move"",5050.1,3517,3049.3,1533.1,467.7,""smooth"",""down"",""down"",""good_move"",7895.7,2845.3,2452.2,5050.4,393.1,""smooth"",""left"",""left"",""good_move"",10356.5,2459.5,2013.6,7897,445.9,""smooth"",""left"",""left"",""good_move"",12832.1,2474.4,2049.9,10357.8,424.5,""smooth"",""left"",""left"",""good_move"",15618.8,2786,2293.6,12832.8,492.4,""oops"",""down"",""right"",""bad_move"",18143.9,2524.7,2039.6,15619.2,485.1,""smooth"",""down"",""down"",""good_move"",28432.5,10288.2,2629.7,25343.8,459,""smooth"",""left"",""left"",""good_move""]","",""
"3243","","<div style=""width:500px;"">
  <p>What determined the result of this run?</p>
  </div>","86","html-slider-response","15","2479527","0.0-5.0-1.1","179","1","2025-07-23 07:34:47","1f75c3e559b7213887762d5229550c2b","49.206.12.249","Mozilla/5.0 (Windows NT 10.0; Win64; x64) AppleWebKit/537.36 (KHTML, like Gecko) Chrome/138.0.0.0 Safari/537.36","WebKit","Chrome","138.0.0.0","Windows","10.0","https://app.prolific.com/","en-GB,en-US;q=0.9,en;q=0.8,ta;q=0.7","66c5f76d9a214b469f6476c8","683db9eb0562dbf637994deb","68809050f24c993615578353","2","1","66c5f76d9a214b469f6476c8","2","1","2025-07-23T08:17:59.522Z","","","","","","","","","","","AttribQ","","50","","","","","","","","","","","","","","","","","","","","","","","","","","","","",""
"2073","","<div style=""width:500px;"">
  <p>How much control did you have over the ball?</p>
  </div>","87","html-slider-response","16","2481607","0.0-5.0-2.1","179","1","2025-07-23 07:34:47","1f75c3e559b7213887762d5229550c2b","49.206.12.249","Mozilla/5.0 (Windows NT 10.0; Win64; x64) AppleWebKit/537.36 (KHTML, like Gecko) Chrome/138.0.0.0 Safari/537.36","WebKit","Chrome","138.0.0.0","Windows","10.0","https://app.prolific.com/","en-GB,en-US;q=0.9,en;q=0.8,ta;q=0.7","66c5f76d9a214b469f6476c8","683db9eb0562dbf637994deb","68809050f24c993615578353","2","1","66c5f76d9a214b469f6476c8","2","1","2025-07-23T08:18:01.602Z","","","","","","","","","","","ControlQ","","50","","","","","","","","","","","","","","","","","","","","","","","","","","","","",""
"2060","","<div style=""width:500px;"">
  <p>How would you describe your current emotional state?</p>
  </div>","15","html-slider-response","17","2483671","0.0-5.0-3.1","179","1","2025-07-23 07:34:47","1f75c3e559b7213887762d5229550c2b","49.206.12.249","Mozilla/5.0 (Windows NT 10.0; Win64; x64) AppleWebKit/537.36 (KHTML, like Gecko) Chrome/138.0.0.0 Safari/537.36","WebKit","Chrome","138.0.0.0","Windows","10.0","https://app.prolific.com/","en-GB,en-US;q=0.9,en;q=0.8,ta;q=0.7","66c5f76d9a214b469f6476c8","683db9eb0562dbf637994deb","68809050f24c993615578353","2","1","66c5f76d9a214b469f6476c8","2","1","2025-07-23T08:18:03.666Z","","","","","","","","","","","StressQ","","50","","","","","","","","","","","","","","","","","","","","","","","","","","","","",""
"3832","","<div style=""width:500px;"">
  <p>What best describes how you currently feel?</p>
  </div>","85","html-slider-response","18","2487509","0.0-5.0-4.1","179","1","2025-07-23 07:34:47","1f75c3e559b7213887762d5229550c2b","49.206.12.249","Mozilla/5.0 (Windows NT 10.0; Win64; x64) AppleWebKit/537.36 (KHTML, like Gecko) Chrome/138.0.0.0 Safari/537.36","WebKit","Chrome","138.0.0.0","Windows","10.0","https://app.prolific.com/","en-GB,en-US;q=0.9,en;q=0.8,ta;q=0.7","66c5f76d9a214b469f6476c8","683db9eb0562dbf637994deb","68809050f24c993615578353","2","1","66c5f76d9a214b469f6476c8","2","1","2025-07-23T08:18:07.504Z","","","","","","","","","","","MotivationQ","","50","","","","","","","","","","","","","","","","","","","","","","","","","","","","",""
"","","","","ctl-task-cpt","19","2529797","0.0-5.0-0.2","179","1","2025-07-23 07:34:47","1f75c3e559b7213887762d5229550c2b","49.206.12.249","Mozilla/5.0 (Windows NT 10.0; Win64; x64) AppleWebKit/537.36 (KHTML, like Gecko) Chrome/138.0.0.0 Safari/537.36","WebKit","Chrome","138.0.0.0","Windows","10.0","https://app.prolific.com/","en-GB,en-US;q=0.9,en;q=0.8,ta;q=0.7","66c5f76d9a214b469f6476c8","683db9eb0562dbf637994deb","68809050f24c993615578353","2","1","66c5f76d9a214b469f6476c8","2","1","2025-07-23T08:18:49.792Z","","","","","","","","","","","","","","win-only","1","g1:NE,g2:SW","0.8","3","0","2499720.6","1375.5","6377.1","39266","1","4","8","6","2","8","8","12","4","0.09090909090909091","910.1","3000","1130","[""down"",""left""]","{""num_key_presses"":6,""num_perfect"":5,""num_errors"":0,""num_randdir"":1,""num_randdir_good_moves"":1,""num_whilered"":0,""num_whileblue"":0,""num_blue"":5,""num_good_moves"":6}","[294.22232142857143,301.12857142857143,0.7,294.22232142857143,301.12857142857143,119.4,294.22232142857143,301.12857142857143,223.3,294.22232142857143,301.12857142857143,334.5,198.22232142857143,403.12857142857143,441.1,84.22232142857143,503.12857142857143,551.2,62.222321428571426,526.1285714285714,652.7,55.222321428571426,533.1285714285714,762.1,55.222321428571426,533.1285714285714,864.1,69.22232142857143,531.1285714285714,969.5,70.22232142857143,530.1285714285714,1082.7,70.22232142857143,530.1285714285714,1184.3,70.22232142857143,530.1285714285714,1289.4,188.22232142857143,434.12857142857143,1390.8,887.2223214285714,77.12857142857143,1492.9,978.2223214285714,-17.871428571428574,1597,978.2223214285714,-17.871428571428574,1702.2,978.2223214285714,-17.871428571428574,1802.7,978.2223214285714,-17.871428571428574,1903.8,978.2223214285714,-17.871428571428574,2006.1,978.2223214285714,-17.871428571428574,2108.6,978.2223214285714,-17.871428571428574,2219.4,978.2223214285714,-17.871428571428574,2321.4,978.2223214285714,-17.871428571428574,2431.3,978.2223214285714,-17.871428571428574,2533.5,978.2223214285714,-17.871428571428574,2635.4,978.2223214285714,-17.871428571428574,2735.5,978.2223214285714,-17.871428571428574,2836.1,978.2223214285714,-17.871428571428574,2938.4,978.2223214285714,-17.871428571428574,3043.2,978.2223214285714,-17.871428571428574,3144.7,978.2223214285714,-17.871428571428574,3246,978.2223214285714,-17.871428571428574,3346.1,978.2223214285714,-17.871428571428574,3448.1,978.2223214285714,-17.871428571428574,3551.9,978.2223214285714,-17.871428571428574,3657.3,978.2223214285714,-17.871428571428574,3762.7,978.2223214285714,-17.871428571428574,3867.3,978.2223214285714,-17.871428571428574,3967.9,978.2223214285714,-17.871428571428574,4068.9,978.2223214285714,-17.871428571428574,4171.2,978.2223214285714,-17.871428571428574,4287.8,978.2223214285714,-17.871428571428574,4395.4,978.2223214285714,-17.871428571428574,4498.8,978.2223214285714,-17.871428571428574,4602.7,978.2223214285714,-17.871428571428574,4706.8,978.2223214285714,-17.871428571428574,4814.7,978.2223214285714,-17.871428571428574,4918.1]","[8631.3,8631.3,2346.8,5764.2,520.3,""smooth"",""down"",""down"",""good_move"",17897.8,9265.6,2063.6,15335.3,498.9,""oops"",""down"",""down"",""good_move"",20379.7,2481.1,2077.2,17898.6,403.9,""smooth"",""left"",""left"",""good_move"",23358.1,2977,2496.4,20381.1,480.6,""smooth"",""left"",""left"",""good_move"",26341,2982.5,2517.8,23358.5,464.7,""smooth"",""left"",""left"",""good_move"",32737.4,6396.1,2698.6,29632.7,406.1,""smooth"",""down"",""down"",""good_move""]","",""
"2937","","<div style=""width:500px;"">
  <p>What determined the result of this run?</p>
  </div>","91","html-slider-response","20","2532741","0.0-5.0-1.2","179","1","2025-07-23 07:34:47","1f75c3e559b7213887762d5229550c2b","49.206.12.249","Mozilla/5.0 (Windows NT 10.0; Win64; x64) AppleWebKit/537.36 (KHTML, like Gecko) Chrome/138.0.0.0 Safari/537.36","WebKit","Chrome","138.0.0.0","Windows","10.0","https://app.prolific.com/","en-GB,en-US;q=0.9,en;q=0.8,ta;q=0.7","66c5f76d9a214b469f6476c8","683db9eb0562dbf637994deb","68809050f24c993615578353","2","1","66c5f76d9a214b469f6476c8","2","1","2025-07-23T08:18:52.737Z","","","","","","","","","","","AttribQ","","50","","","","","","","","","","","","","","","","","","","","","","","","","","","","",""
"1506","","<div style=""width:500px;"">
  <p>How much control did you have over the ball?</p>
  </div>","83","html-slider-response","21","2534256","0.0-5.0-2.2","179","1","2025-07-23 07:34:47","1f75c3e559b7213887762d5229550c2b","49.206.12.249","Mozilla/5.0 (Windows NT 10.0; Win64; x64) AppleWebKit/537.36 (KHTML, like Gecko) Chrome/138.0.0.0 Safari/537.36","WebKit","Chrome","138.0.0.0","Windows","10.0","https://app.prolific.com/","en-GB,en-US;q=0.9,en;q=0.8,ta;q=0.7","66c5f76d9a214b469f6476c8","683db9eb0562dbf637994deb","68809050f24c993615578353","2","1","66c5f76d9a214b469f6476c8","2","1","2025-07-23T08:18:54.251Z","","","","","","","","","","","ControlQ","","50","","","","","","","","","","","","","","","","","","","","","","","","","","","","",""
"1983","","<div style=""width:500px;"">
  <p>How would you describe your current emotional state?</p>
  </div>","12","html-slider-response","22","2536247","0.0-5.0-3.2","179","1","2025-07-23 07:34:47","1f75c3e559b7213887762d5229550c2b","49.206.12.249","Mozilla/5.0 (Windows NT 10.0; Win64; x64) AppleWebKit/537.36 (KHTML, like Gecko) Chrome/138.0.0.0 Safari/537.36","WebKit","Chrome","138.0.0.0","Windows","10.0","https://app.prolific.com/","en-GB,en-US;q=0.9,en;q=0.8,ta;q=0.7","66c5f76d9a214b469f6476c8","683db9eb0562dbf637994deb","68809050f24c993615578353","2","1","66c5f76d9a214b469f6476c8","2","1","2025-07-23T08:18:56.242Z","","","","","","","","","","","StressQ","","50","","","","","","","","","","","","","","","","","","","","","","","","","","","","",""
"2040","","<div style=""width:500px;"">
  <p>What best describes how you currently feel?</p>
  </div>","86","html-slider-response","23","2538293","0.0-5.0-4.2","179","1","2025-07-23 07:34:47","1f75c3e559b7213887762d5229550c2b","49.206.12.249","Mozilla/5.0 (Windows NT 10.0; Win64; x64) AppleWebKit/537.36 (KHTML, like Gecko) Chrome/138.0.0.0 Safari/537.36","WebKit","Chrome","138.0.0.0","Windows","10.0","https://app.prolific.com/","en-GB,en-US;q=0.9,en;q=0.8,ta;q=0.7","66c5f76d9a214b469f6476c8","683db9eb0562dbf637994deb","68809050f24c993615578353","2","1","66c5f76d9a214b469f6476c8","2","1","2025-07-23T08:18:58.288Z","","","","","","","","","","","MotivationQ","","50","","","","","","","","","","","","","","","","","","","","","","","","","","","","",""
"","","","","ctl-task-cpt","24","2574194","0.0-5.0-0.3","179","1","2025-07-23 07:34:47","1f75c3e559b7213887762d5229550c2b","49.206.12.249","Mozilla/5.0 (Windows NT 10.0; Win64; x64) AppleWebKit/537.36 (KHTML, like Gecko) Chrome/138.0.0.0 Safari/537.36","WebKit","Chrome","138.0.0.0","Windows","10.0","https://app.prolific.com/","en-GB,en-US;q=0.9,en;q=0.8,ta;q=0.7","66c5f76d9a214b469f6476c8","683db9eb0562dbf637994deb","68809050f24c993615578353","2","1","66c5f76d9a214b469f6476c8","2","1","2025-07-23T08:19:34.189Z","","","","","","","","","","","","","","win-only","2","g1:SE,g2:NW","0.7","4","0","2550500.2","1093.9","6097.2","32885.1","1","4","4","6","2","4","4","16","12","0.12121212121212122","1100.6","3000","850","[""left"",""up""]","{""num_key_presses"":6,""num_perfect"":5,""num_errors"":0,""num_randdir"":1,""num_randdir_good_moves"":1,""num_whilered"":0,""num_whileblue"":0,""num_blue"":3,""num_good_moves"":6}","[297.22232142857143,297.12857142857143,0.7,297.22232142857143,297.12857142857143,103.3,297.22232142857143,297.12857142857143,206.6,296.22232142857143,298.12857142857143,307.7,336.22232142857143,342.12857142857143,410.6,424.22232142857143,443.12857142857143,523.1,321.22232142857143,331.12857142857143,624.6,103.22232142857143,128.12857142857143,732.7,90.22232142857143,101.12857142857143,839,65.22232142857143,84.12857142857143,945.5,52.222321428571426,75.12857142857143,1059.9,52.222321428571426,75.12857142857143,1171.7,52.222321428571426,75.12857142857143,1276.3,52.222321428571426,75.12857142857143,1378.9,51.222321428571426,75.12857142857143,1491,51.222321428571426,75.12857142857143,1591.4,51.222321428571426,75.12857142857143,1696.8,51.222321428571426,75.12857142857143,1806.7,51.222321428571426,75.12857142857143,1912.7,51.222321428571426,75.12857142857143,2021.6,51.222321428571426,75.12857142857143,2130.6,51.222321428571426,75.12857142857143,2238.9,51.222321428571426,75.12857142857143,2341.4,51.222321428571426,75.12857142857143,2448.4,261.22232142857143,89.12857142857143,2563,497.22232142857143,89.12857142857143,2670.2,500.22232142857143,89.12857142857143,2774.6,500.22232142857143,89.12857142857143,2880,500.22232142857143,89.12857142857143,2987.7,500.22232142857143,89.12857142857143,3089.1,500.22232142857143,89.12857142857143,3192.1,500.22232142857143,89.12857142857143,3297.7,500.22232142857143,89.12857142857143,3404.2,500.22232142857143,89.12857142857143,3505.8,500.22232142857143,89.12857142857143,3607.1,500.22232142857143,89.12857142857143,3711.6,500.22232142857143,89.12857142857143,3812.7,500.22232142857143,89.12857142857143,3918,500.22232142857143,89.12857142857143,4022.6,500.22232142857143,89.12857142857143,4137.3,500.22232142857143,89.12857142857143,4255.6,500.22232142857143,89.12857142857143,4366.4,500.22232142857143,89.12857142857143,4469.4,500.22232142857143,89.12857142857143,4572.1,500.22232142857143,89.12857142857143,4679,500.22232142857143,89.12857142857143,4793.2,500.22232142857143,89.12857142857143,4905]","[1454.1,1454.1,1000,0,454.1,""smooth"",""left"",""left"",""good_move"",4229.9,2775.1,2363.1,1454.8,412,""smooth"",""left"",""left"",""good_move"",13669.2,9438.9,1516.9,11690.8,461.6,""smooth"",""left"",""left"",""good_move"",16865,3195,1797.3,13670,1397.7,""smooth"",""up"",""up"",""good_move"",23821.2,6954.9,2433.4,20950.9,436.9,""oops"",""up"",""up"",""good_move"",26614.8,2793,2334.1,23821.9,458.9,""smooth"",""up"",""up"",""good_move""]","",""
"12617","","<div style=""width:500px;"">
  <p>What determined the result of this run?</p>
  </div>","82","html-slider-response","25","2586816","0.0-5.0-1.3","179","1","2025-07-23 07:34:47","1f75c3e559b7213887762d5229550c2b","49.206.12.249","Mozilla/5.0 (Windows NT 10.0; Win64; x64) AppleWebKit/537.36 (KHTML, like Gecko) Chrome/138.0.0.0 Safari/537.36","WebKit","Chrome","138.0.0.0","Windows","10.0","https://app.prolific.com/","en-GB,en-US;q=0.9,en;q=0.8,ta;q=0.7","66c5f76d9a214b469f6476c8","683db9eb0562dbf637994deb","68809050f24c993615578353","2","1","66c5f76d9a214b469f6476c8","2","1","2025-07-23T08:19:46.811Z","","","","","","","","","","","AttribQ","","50","","","","","","","","","","","","","","","","","","","","","","","","","","","","",""
"2269","","<div style=""width:500px;"">
  <p>How much control did you have over the ball?</p>
  </div>","86","html-slider-response","26","2589094","0.0-5.0-2.3","179","1","2025-07-23 07:34:47","1f75c3e559b7213887762d5229550c2b","49.206.12.249","Mozilla/5.0 (Windows NT 10.0; Win64; x64) AppleWebKit/537.36 (KHTML, like Gecko) Chrome/138.0.0.0 Safari/537.36","WebKit","Chrome","138.0.0.0","Windows","10.0","https://app.prolific.com/","en-GB,en-US;q=0.9,en;q=0.8,ta;q=0.7","66c5f76d9a214b469f6476c8","683db9eb0562dbf637994deb","68809050f24c993615578353","2","1","66c5f76d9a214b469f6476c8","2","1","2025-07-23T08:19:49.089Z","","","","","","","","","","","ControlQ","","50","","","","","","","","","","","","","","","","","","","","","","","","","","","","",""
"3186","","<div style=""width:500px;"">
  <p>How would you describe your current emotional state?</p>
  </div>","18","html-slider-response","27","2592287","0.0-5.0-3.3","179","1","2025-07-23 07:34:47","1f75c3e559b7213887762d5229550c2b","49.206.12.249","Mozilla/5.0 (Windows NT 10.0; Win64; x64) AppleWebKit/537.36 (KHTML, like Gecko) Chrome/138.0.0.0 Safari/537.36","WebKit","Chrome","138.0.0.0","Windows","10.0","https://app.prolific.com/","en-GB,en-US;q=0.9,en;q=0.8,ta;q=0.7","66c5f76d9a214b469f6476c8","683db9eb0562dbf637994deb","68809050f24c993615578353","2","1","66c5f76d9a214b469f6476c8","2","1","2025-07-23T08:19:52.283Z","","","","","","","","","","","StressQ","","50","","","","","","","","","","","","","","","","","","","","","","","","","","","","",""
"1976","","<div style=""width:500px;"">
  <p>What best describes how you currently feel?</p>
  </div>","92","html-slider-response","28","2594269","0.0-5.0-4.3","179","1","2025-07-23 07:34:47","1f75c3e559b7213887762d5229550c2b","49.206.12.249","Mozilla/5.0 (Windows NT 10.0; Win64; x64) AppleWebKit/537.36 (KHTML, like Gecko) Chrome/138.0.0.0 Safari/537.36","WebKit","Chrome","138.0.0.0","Windows","10.0","https://app.prolific.com/","en-GB,en-US;q=0.9,en;q=0.8,ta;q=0.7","66c5f76d9a214b469f6476c8","683db9eb0562dbf637994deb","68809050f24c993615578353","2","1","66c5f76d9a214b469f6476c8","2","1","2025-07-23T08:19:54.265Z","","","","","","","","","","","MotivationQ","","50","","","","","","","","","","","","","","","","","","","","","","","","","","","","",""
"","","","","ctl-task-cpt","29","2650219","0.0-5.0-0.4","179","1","2025-07-23 07:34:47","1f75c3e559b7213887762d5229550c2b","49.206.12.249","Mozilla/5.0 (Windows NT 10.0; Win64; x64) AppleWebKit/537.36 (KHTML, like Gecko) Chrome/138.0.0.0 Safari/537.36","WebKit","Chrome","138.0.0.0","Windows","10.0","https://app.prolific.com/","en-GB,en-US;q=0.9,en;q=0.8,ta;q=0.7","66c5f76d9a214b469f6476c8","683db9eb0562dbf637994deb","68809050f24c993615578353","2","1","66c5f76d9a214b469f6476c8","2","1","2025-07-23T08:20:50.214Z","","","","","","","","","","","","","","win-only","3","g1:SW,g2:NE","0.6","5","0","2606487.8","962.6","5967.8","52906.3","1","4","8","6","2","-8","-8","8","16","0.06060606060606061","980","3000","-1835","[""up"",""right""]","{""num_key_presses"":13,""num_perfect"":8,""num_errors"":0,""num_randdir"":5,""num_randdir_good_moves"":1,""num_whilered"":0,""num_whileblue"":0,""num_blue"":2,""num_good_moves"":9}","[292.22232142857143,302.12857142857143,0.3,292.22232142857143,302.12857142857143,103.4,292.22232142857143,302.12857142857143,205.6,292.22232142857143,302.12857142857143,309,292.22232142857143,302.12857142857143,418,292.22232142857143,302.12857142857143,526.1,422.22232142857143,123.12857142857143,627.9,495.22232142857143,82.12857142857143,735.2,509.22232142857143,73.12857142857143,839.6,544.2223214285714,64.12857142857143,943.7,544.2223214285714,64.12857142857143,1048.4,544.2223214285714,64.12857142857143,1149.1,546.2223214285714,64.12857142857143,1249.8,685.2223214285714,64.12857142857143,1352.1,850.2223214285714,62.128571428571426,1454.3,879.2223214285714,56.128571428571426,1579.1,879.2223214285714,56.128571428571426,1680.5,879.2223214285714,56.128571428571426,1784.1,879.2223214285714,56.128571428571426,1889.8,879.2223214285714,56.128571428571426,1996.6,879.2223214285714,56.128571428571426,2099.6,879.2223214285714,56.128571428571426,2206.6,879.2223214285714,56.128571428571426,2317.2,879.2223214285714,56.128571428571426,2425.4,879.2223214285714,56.128571428571426,2537.2,879.2223214285714,56.128571428571426,2643.1,879.2223214285714,56.128571428571426,2753,879.2223214285714,56.128571428571426,2863.3,879.2223214285714,56.128571428571426,2964.8,879.2223214285714,56.128571428571426,3074.5,879.2223214285714,56.128571428571426,3177.5,879.2223214285714,56.128571428571426,3280.3,879.2223214285714,56.128571428571426,3383.7,879.2223214285714,56.128571428571426,3485,879.2223214285714,56.128571428571426,3588.4,879.2223214285714,56.128571428571426,3695,879.2223214285714,56.128571428571426,3798.8,879.2223214285714,56.128571428571426,3899.3,879.2223214285714,56.128571428571426,4000.2,879.2223214285714,56.128571428571426,4104.8,879.2223214285714,56.128571428571426,4210.8,879.2223214285714,56.128571428571426,4322.8,879.2223214285714,56.128571428571426,4429.2,879.2223214285714,56.128571428571426,4529.8,879.2223214285714,56.128571428571426,4634.4,879.2223214285714,56.128571428571426,4734.5,879.2223214285714,56.128571428571426,4845.7,879.2223214285714,56.128571428571426,4949.7]","[5476.7,5476.7,3024.3,2019.3,433.1,""smooth"",""right"",""right"",""good_move"",8425.8,2947.6,2504.4,5478.2,443.2,""oops"",""right"",""left"",""bad_move"",11012.4,2585.8,2151.6,8426.7,434.1,""smooth"",""right"",""right"",""good_move"",13387.1,2374.2,1969.6,11013,404.6,""smooth"",""right"",""right"",""good_move"",17195.7,3807.8,3439.8,13388,368,""smooth"",""right"",""right"",""good_move"",20157.1,2960.8,2493.7,17196.4,467,""smooth"",""up"",""up"",""good_move"",22509.9,2352.3,1646,20157.6,706.3,""oops"",""up"",""down"",""bad_move"",25291.1,2780.7,2368,22510.4,412.8,""oops"",""up"",""up"",""good_move"",28358.6,3066.9,2401,25291.8,665.8,""smooth"",""up"",""up"",""good_move"",31708.1,3348.5,2920.1,28359.6,428.4,""oops"",""up"",""down"",""bad_move"",38210.9,6502,2114.6,35631.5,464.8,""smooth"",""up"",""up"",""good_move"",41305.7,3094,2599.2,38211.8,494.7,""oops"",""up"",""down"",""bad_move"",44076.2,2769.8,2233.1,41306.4,536.7,""smooth"",""up"",""up"",""good_move""]","",""
"3216","","<div style=""width:500px;"">
  <p>What determined the result of this run?</p>
  </div>","17","html-slider-response","30","2653439","0.0-5.0-1.4","179","1","2025-07-23 07:34:47","1f75c3e559b7213887762d5229550c2b","49.206.12.249","Mozilla/5.0 (Windows NT 10.0; Win64; x64) AppleWebKit/537.36 (KHTML, like Gecko) Chrome/138.0.0.0 Safari/537.36","WebKit","Chrome","138.0.0.0","Windows","10.0","https://app.prolific.com/","en-GB,en-US;q=0.9,en;q=0.8,ta;q=0.7","66c5f76d9a214b469f6476c8","683db9eb0562dbf637994deb","68809050f24c993615578353","2","1","66c5f76d9a214b469f6476c8","2","1","2025-07-23T08:20:53.435Z","","","","","","","","","","","AttribQ","","50","","","","","","","","","","","","","","","","","","","","","","","","","","","","",""
"1551","","<div style=""width:500px;"">
  <p>How much control did you have over the ball?</p>
  </div>","15","html-slider-response","31","2654996","0.0-5.0-2.4","179","1","2025-07-23 07:34:47","1f75c3e559b7213887762d5229550c2b","49.206.12.249","Mozilla/5.0 (Windows NT 10.0; Win64; x64) AppleWebKit/537.36 (KHTML, like Gecko) Chrome/138.0.0.0 Safari/537.36","WebKit","Chrome","138.0.0.0","Windows","10.0","https://app.prolific.com/","en-GB,en-US;q=0.9,en;q=0.8,ta;q=0.7","66c5f76d9a214b469f6476c8","683db9eb0562dbf637994deb","68809050f24c993615578353","2","1","66c5f76d9a214b469f6476c8","2","1","2025-07-23T08:20:54.992Z","","","","","","","","","","","ControlQ","","50","","","","","","","","","","","","","","","","","","","","","","","","","","","","",""
"1955","","<div style=""width:500px;"">
  <p>How would you describe your current emotional state?</p>
  </div>","91","html-slider-response","32","2656960","0.0-5.0-3.4","179","1","2025-07-23 07:34:47","1f75c3e559b7213887762d5229550c2b","49.206.12.249","Mozilla/5.0 (Windows NT 10.0; Win64; x64) AppleWebKit/537.36 (KHTML, like Gecko) Chrome/138.0.0.0 Safari/537.36","WebKit","Chrome","138.0.0.0","Windows","10.0","https://app.prolific.com/","en-GB,en-US;q=0.9,en;q=0.8,ta;q=0.7","66c5f76d9a214b469f6476c8","683db9eb0562dbf637994deb","68809050f24c993615578353","2","1","66c5f76d9a214b469f6476c8","2","1","2025-07-23T08:20:56.956Z","","","","","","","","","","","StressQ","","50","","","","","","","","","","","","","","","","","","","","","","","","","","","","",""
"1417","","<div style=""width:500px;"">
  <p>What best describes how you currently feel?</p>
  </div>","14","html-slider-response","33","2658385","0.0-5.0-4.4","179","1","2025-07-23 07:34:47","1f75c3e559b7213887762d5229550c2b","49.206.12.249","Mozilla/5.0 (Windows NT 10.0; Win64; x64) AppleWebKit/537.36 (KHTML, like Gecko) Chrome/138.0.0.0 Safari/537.36","WebKit","Chrome","138.0.0.0","Windows","10.0","https://app.prolific.com/","en-GB,en-US;q=0.9,en;q=0.8,ta;q=0.7","66c5f76d9a214b469f6476c8","683db9eb0562dbf637994deb","68809050f24c993615578353","2","1","66c5f76d9a214b469f6476c8","2","1","2025-07-23T08:20:58.380Z","","","","","","","","","","","MotivationQ","","50","","","","","","","","","","","","","","","","","","","","","","","","","","","","",""
"","","","","ctl-task-cpt","34","2723617","0.0-5.0-0.5","179","1","2025-07-23 07:34:47","1f75c3e559b7213887762d5229550c2b","49.206.12.249","Mozilla/5.0 (Windows NT 10.0; Win64; x64) AppleWebKit/537.36 (KHTML, like Gecko) Chrome/138.0.0.0 Safari/537.36","WebKit","Chrome","138.0.0.0","Windows","10.0","https://app.prolific.com/","en-GB,en-US;q=0.9,en;q=0.8,ta;q=0.7","66c5f76d9a214b469f6476c8","683db9eb0562dbf637994deb","68809050f24c993615578353","2","1","66c5f76d9a214b469f6476c8","2","1","2025-07-23T08:22:03.613Z","","","","","","","","","","","","","","win-only","0","g1:NW,g2:SE","0.5","6","0","2670601.7","947.9","5954.6","62197.3","1","4","4","6","2","4","4","12","8","0.09090909090909091","947.9","3000","1260","[""down"",""right""]","{""num_key_presses"":12,""num_perfect"":7,""num_errors"":0,""num_randdir"":5,""num_randdir_good_moves"":2,""num_whilered"":0,""num_whileblue"":0,""num_blue"":4,""num_good_moves"":9}","[300.22232142857143,299.12857142857143,0.5,300.22232142857143,299.12857142857143,109,298.22232142857143,299.12857142857143,224.2,282.22232142857143,298.12857142857143,326.7,250.22232142857143,297.12857142857143,444.7,546.2223214285714,504.12857142857143,552.6,584.2223214285714,549.1285714285714,667.2,580.2223214285714,563.1285714285714,773.7,561.2223214285714,559.1285714285714,882.7,561.2223214285714,559.1285714285714,987.4,567.2223214285714,548.1285714285714,1096.4,924.2223214285714,267.12857142857143,1203.9,978.2223214285714,149.12857142857143,1315.1,978.2223214285714,149.12857142857143,1417.4,978.2223214285714,149.12857142857143,1535.7,978.2223214285714,149.12857142857143,1642.5,978.2223214285714,149.12857142857143,1744.4,978.2223214285714,149.12857142857143,1854.1,978.2223214285714,149.12857142857143,1954.9,978.2223214285714,149.12857142857143,2069.1,978.2223214285714,149.12857142857143,2182.4,978.2223214285714,149.12857142857143,2291.2,978.2223214285714,149.12857142857143,2394.3,978.2223214285714,149.12857142857143,2502.9,978.2223214285714,149.12857142857143,2604.3,978.2223214285714,149.12857142857143,2714.1,978.2223214285714,149.12857142857143,2821,978.2223214285714,149.12857142857143,2924.4,978.2223214285714,149.12857142857143,3036.4,978.2223214285714,149.12857142857143,3148.9,978.2223214285714,149.12857142857143,3254.3,978.2223214285714,149.12857142857143,3358.4,978.2223214285714,149.12857142857143,3470.9,978.2223214285714,149.12857142857143,3587.1,978.2223214285714,149.12857142857143,3690.9,978.2223214285714,149.12857142857143,3794.3,978.2223214285714,149.12857142857143,3908.8,978.2223214285714,149.12857142857143,4010.8,978.2223214285714,149.12857142857143,4120.2,978.2223214285714,149.12857142857143,4231.9,978.2223214285714,149.12857142857143,4334.2,978.2223214285714,149.12857142857143,4440.6,978.2223214285714,149.12857142857143,4548.1,978.2223214285714,149.12857142857143,4649,978.2223214285714,149.12857142857143,4749.8,978.2223214285714,149.12857142857143,4851.4,978.2223214285714,149.12857142857143,4958.9]","[1448.2,1448.2,1000,0,448.2,""smooth"",""down"",""down"",""good_move"",4870.8,3421.6,3062.2,1449.2,359.4,""oops"",""right"",""left"",""bad_move"",8019.3,3147.7,2039.9,4871.8,1107.7,""oops"",""right"",""right"",""good_move"",14586.5,6566.1,2885.1,11305.2,396.2,""smooth"",""right"",""right"",""good_move"",17754.9,3167.5,2672.9,14587.4,494.6,""smooth"",""right"",""right"",""good_move"",32649,14893.7,3004.1,29056.6,588.4,""oops"",""down"",""up"",""bad_move"",38198.4,5548.9,2549,32649.6,2999.9,""oops"",""down"",""left"",""bad_move"",43345.1,5145.5,2637.8,38199.6,2507.7,""smooth"",""down"",""down"",""good_move"",46205.6,2859.8,2493.2,43345.8,366.7,""smooth"",""right"",""right"",""good_move"",49694.4,3487.4,2811.9,46207.1,675.4,""oops"",""down"",""down"",""good_move"",53022.1,3326.5,2948.3,49695.6,378.2,""smooth"",""right"",""right"",""good_move"",56027.9,3004.3,2628.9,53023.7,375.4,""smooth"",""down"",""down"",""good_move""]","",""
"2723","","<div style=""width:500px;"">
  <p>What determined the result of this run?</p>
  </div>","92","html-slider-response","35","2726346","0.0-5.0-1.5","179","1","2025-07-23 07:34:47","1f75c3e559b7213887762d5229550c2b","49.206.12.249","Mozilla/5.0 (Windows NT 10.0; Win64; x64) AppleWebKit/537.36 (KHTML, like Gecko) Chrome/138.0.0.0 Safari/537.36","WebKit","Chrome","138.0.0.0","Windows","10.0","https://app.prolific.com/","en-GB,en-US;q=0.9,en;q=0.8,ta;q=0.7","66c5f76d9a214b469f6476c8","683db9eb0562dbf637994deb","68809050f24c993615578353","2","1","66c5f76d9a214b469f6476c8","2","1","2025-07-23T08:22:06.342Z","","","","","","","","","","","AttribQ","","50","","","","","","","","","","","","","","","","","","","","","","","","","","","","",""
"3055","","<div style=""width:500px;"">
  <p>How much control did you have over the ball?</p>
  </div>","73","html-slider-response","36","2729415","0.0-5.0-2.5","179","1","2025-07-23 07:34:47","1f75c3e559b7213887762d5229550c2b","49.206.12.249","Mozilla/5.0 (Windows NT 10.0; Win64; x64) AppleWebKit/537.36 (KHTML, like Gecko) Chrome/138.0.0.0 Safari/537.36","WebKit","Chrome","138.0.0.0","Windows","10.0","https://app.prolific.com/","en-GB,en-US;q=0.9,en;q=0.8,ta;q=0.7","66c5f76d9a214b469f6476c8","683db9eb0562dbf637994deb","68809050f24c993615578353","2","1","66c5f76d9a214b469f6476c8","2","1","2025-07-23T08:22:09.410Z","","","","","","","","","","","ControlQ","","50","","","","","","","","","","","","","","","","","","","","","","","","","","","","",""
"2707","","<div style=""width:500px;"">
  <p>How would you describe your current emotional state?</p>
  </div>","36","html-slider-response","37","2732127","0.0-5.0-3.5","179","1","2025-07-23 07:34:47","1f75c3e559b7213887762d5229550c2b","49.206.12.249","Mozilla/5.0 (Windows NT 10.0; Win64; x64) AppleWebKit/537.36 (KHTML, like Gecko) Chrome/138.0.0.0 Safari/537.36","WebKit","Chrome","138.0.0.0","Windows","10.0","https://app.prolific.com/","en-GB,en-US;q=0.9,en;q=0.8,ta;q=0.7","66c5f76d9a214b469f6476c8","683db9eb0562dbf637994deb","68809050f24c993615578353","2","1","66c5f76d9a214b469f6476c8","2","1","2025-07-23T08:22:12.123Z","","","","","","","","","","","StressQ","","50","","","","","","","","","","","","","","","","","","","","","","","","","","","","",""
"2849","","<div style=""width:500px;"">
  <p>What best describes how you currently feel?</p>
  </div>","78","html-slider-response","38","2734984","0.0-5.0-4.5","179","1","2025-07-23 07:34:47","1f75c3e559b7213887762d5229550c2b","49.206.12.249","Mozilla/5.0 (Windows NT 10.0; Win64; x64) AppleWebKit/537.36 (KHTML, like Gecko) Chrome/138.0.0.0 Safari/537.36","WebKit","Chrome","138.0.0.0","Windows","10.0","https://app.prolific.com/","en-GB,en-US;q=0.9,en;q=0.8,ta;q=0.7","66c5f76d9a214b469f6476c8","683db9eb0562dbf637994deb","68809050f24c993615578353","2","1","66c5f76d9a214b469f6476c8","2","1","2025-07-23T08:22:14.979Z","","","","","","","","","","","MotivationQ","","50","","","","","","","","","","","","","","","","","","","","","","","","","","","","",""
"","","","","ctl-task-cpt","39","2788861","0.0-5.0-0.6","179","1","2025-07-23 07:34:47","1f75c3e559b7213887762d5229550c2b","49.206.12.249","Mozilla/5.0 (Windows NT 10.0; Win64; x64) AppleWebKit/537.36 (KHTML, like Gecko) Chrome/138.0.0.0 Safari/537.36","WebKit","Chrome","138.0.0.0","Windows","10.0","https://app.prolific.com/","en-GB,en-US;q=0.9,en;q=0.8,ta;q=0.7","66c5f76d9a214b469f6476c8","683db9eb0562dbf637994deb","68809050f24c993615578353","2","1","66c5f76d9a214b469f6476c8","2","1","2025-07-23T08:23:08.856Z","","","","","","","","","","","","","","win-only","2","g1:SE,g2:NW","0.4","7","0","2747201.8","1214.4","6239.6","50847","1","4","4","6","2","4","4","16","12","0.12121212121212122","822.5","3000","355","[""left"",""up""]","{""num_key_presses"":14,""num_perfect"":6,""num_errors"":0,""num_randdir"":8,""num_randdir_good_moves"":4,""num_whilered"":0,""num_whileblue"":0,""num_blue"":1,""num_good_moves"":10}","[293.22232142857143,303.12857142857143,0.6,293.22232142857143,303.12857142857143,108.1,293.22232142857143,303.12857142857143,213.4,293.22232142857143,303.12857142857143,322.2,200.22232142857143,181.12857142857143,428,125.22232142857143,119.12857142857143,532.5,109.22232142857143,104.12857142857143,645.8,65.22232142857143,71.12857142857143,748.8,65.22232142857143,71.12857142857143,852.6,65.22232142857143,71.12857142857143,988.9,165.22232142857143,71.12857142857143,1089,691.2223214285714,135.12857142857143,1194,871.2223214285714,155.12857142857143,1307,871.2223214285714,155.12857142857143,1421.5,871.2223214285714,155.12857142857143,1521.5,871.2223214285714,155.12857142857143,1628.5,871.2223214285714,155.12857142857143,1733,871.2223214285714,155.12857142857143,1840.3,871.2223214285714,155.12857142857143,1942.7,871.2223214285714,155.12857142857143,2063.7,871.2223214285714,155.12857142857143,2171,871.2223214285714,155.12857142857143,2287.5,871.2223214285714,155.12857142857143,2391.7,871.2223214285714,155.12857142857143,2495.7,871.2223214285714,155.12857142857143,2605.1,871.2223214285714,155.12857142857143,2712.9,871.2223214285714,155.12857142857143,2823.9,871.2223214285714,155.12857142857143,2936.1,871.2223214285714,155.12857142857143,3046.5,871.2223214285714,155.12857142857143,3154.7,871.2223214285714,155.12857142857143,3258.4,871.2223214285714,155.12857142857143,3362.5,871.2223214285714,155.12857142857143,3471.2,871.2223214285714,155.12857142857143,3572.7,871.2223214285714,155.12857142857143,3673.1,871.2223214285714,155.12857142857143,3778,871.2223214285714,155.12857142857143,3937.4,871.2223214285714,155.12857142857143,4039.3,871.2223214285714,155.12857142857143,4145.7,871.2223214285714,155.12857142857143,4261.3,871.2223214285714,155.12857142857143,4363.3,871.2223214285714,155.12857142857143,4466.4,871.2223214285714,155.12857142857143,4569.6,871.2223214285714,155.12857142857143,4673.5,871.2223214285714,155.12857142857143,4776.6,871.2223214285714,155.12857142857143,4895.6,871.2223214285714,155.12857142857143,4997.6]","[1444.3,1444.3,1000,0,444.3,""smooth"",""left"",""left"",""good_move"",4855.9,3411,3023.1,1444.9,387.9,""smooth"",""left"",""left"",""good_move"",7689.2,2831.8,2412.3,4857.4,419.5,""oops"",""left"",""right"",""bad_move"",10799.4,3109.9,2677.4,7689.6,432.5,""oops"",""left"",""right"",""bad_move"",13033.4,2232.7,1702.6,10800.7,530.1,""oops"",""left"",""left"",""good_move"",16147.3,3112.5,2716.5,13034.9,395.9,""oops"",""left"",""down"",""bad_move"",19605.6,3457.6,2986.2,16148,471.4,""smooth"",""left"",""left"",""good_move"",26986.1,7380,2864.1,23714,408.1,""oops"",""left"",""left"",""good_move"",29522.3,2535.4,1677.2,26986.9,858.2,""smooth"",""up"",""up"",""good_move"",32486.7,2963.6,2526.7,29523.2,436.8,""oops"",""up"",""down"",""bad_move"",35440.2,2952.4,2424.3,32487.8,528.1,""smooth"",""up"",""up"",""good_move"",38711.6,3270.1,2820.1,35441.5,450,""oops"",""up"",""up"",""good_move"",41599.8,2887.4,2349.3,38712.4,538.1,""oops"",""up"",""up"",""good_move"",44357.4,2756.8,1947.7,41600.7,809.1,""smooth"",""up"",""up"",""good_move""]","",""
"3105","","<div style=""width:500px;"">
  <p>What determined the result of this run?</p>
  </div>","88","html-slider-response","40","2791969","0.0-5.0-1.6","179","1","2025-07-23 07:34:47","1f75c3e559b7213887762d5229550c2b","49.206.12.249","Mozilla/5.0 (Windows NT 10.0; Win64; x64) AppleWebKit/537.36 (KHTML, like Gecko) Chrome/138.0.0.0 Safari/537.36","WebKit","Chrome","138.0.0.0","Windows","10.0","https://app.prolific.com/","en-GB,en-US;q=0.9,en;q=0.8,ta;q=0.7","66c5f76d9a214b469f6476c8","683db9eb0562dbf637994deb","68809050f24c993615578353","2","1","66c5f76d9a214b469f6476c8","2","1","2025-07-23T08:23:11.964Z","","","","","","","","","","","AttribQ","","50","","","","","","","","","","","","","","","","","","","","","","","","","","","","",""
"2103","","<div style=""width:500px;"">
  <p>How much control did you have over the ball?</p>
  </div>","83","html-slider-response","41","2794080","0.0-5.0-2.6","179","1","2025-07-23 07:34:47","1f75c3e559b7213887762d5229550c2b","49.206.12.249","Mozilla/5.0 (Windows NT 10.0; Win64; x64) AppleWebKit/537.36 (KHTML, like Gecko) Chrome/138.0.0.0 Safari/537.36","WebKit","Chrome","138.0.0.0","Windows","10.0","https://app.prolific.com/","en-GB,en-US;q=0.9,en;q=0.8,ta;q=0.7","66c5f76d9a214b469f6476c8","683db9eb0562dbf637994deb","68809050f24c993615578353","2","1","66c5f76d9a214b469f6476c8","2","1","2025-07-23T08:23:14.075Z","","","","","","","","","","","ControlQ","","50","","","","","","","","","","","","","","","","","","","","","","","","","","","","",""
"3846","","<div style=""width:500px;"">
  <p>How would you describe your current emotional state?</p>
  </div>","16","html-slider-response","42","2797934","0.0-5.0-3.6","179","1","2025-07-23 07:34:47","1f75c3e559b7213887762d5229550c2b","49.206.12.249","Mozilla/5.0 (Windows NT 10.0; Win64; x64) AppleWebKit/537.36 (KHTML, like Gecko) Chrome/138.0.0.0 Safari/537.36","WebKit","Chrome","138.0.0.0","Windows","10.0","https://app.prolific.com/","en-GB,en-US;q=0.9,en;q=0.8,ta;q=0.7","66c5f76d9a214b469f6476c8","683db9eb0562dbf637994deb","68809050f24c993615578353","2","1","66c5f76d9a214b469f6476c8","2","1","2025-07-23T08:23:17.929Z","","","","","","","","","","","StressQ","","50","","","","","","","","","","","","","","","","","","","","","","","","","","","","",""
"2480","","<div style=""width:500px;"">
  <p>What best describes how you currently feel?</p>
  </div>","84","html-slider-response","43","2800422","0.0-5.0-4.6","179","1","2025-07-23 07:34:47","1f75c3e559b7213887762d5229550c2b","49.206.12.249","Mozilla/5.0 (Windows NT 10.0; Win64; x64) AppleWebKit/537.36 (KHTML, like Gecko) Chrome/138.0.0.0 Safari/537.36","WebKit","Chrome","138.0.0.0","Windows","10.0","https://app.prolific.com/","en-GB,en-US;q=0.9,en;q=0.8,ta;q=0.7","66c5f76d9a214b469f6476c8","683db9eb0562dbf637994deb","68809050f24c993615578353","2","1","66c5f76d9a214b469f6476c8","2","1","2025-07-23T08:23:20.417Z","","","","","","","","","","","MotivationQ","","50","","","","","","","","","","","","","","","","","","","","","","","","","","","","",""
"","","","","ctl-task-cpt","44","2895477","0.0-5.0-0.7","179","1","2025-07-23 07:34:47","1f75c3e559b7213887762d5229550c2b","49.206.12.249","Mozilla/5.0 (Windows NT 10.0; Win64; x64) AppleWebKit/537.36 (KHTML, like Gecko) Chrome/138.0.0.0 Safari/537.36","WebKit","Chrome","138.0.0.0","Windows","10.0","https://app.prolific.com/","en-GB,en-US;q=0.9,en;q=0.8,ta;q=0.7","66c5f76d9a214b469f6476c8","683db9eb0562dbf637994deb","68809050f24c993615578353","2","1","66c5f76d9a214b469f6476c8","2","1","2025-07-23T08:24:55.472Z","","","","","","","","","","","","","","win-only","0","g1:NW,g2:SE","0.3","8","0","2812634.7","1116.9","6123.1","92016","1","4","8","6","2","-8","-9","7","16","0.05303030303030303","1158.1","3000","-1260","[""down"",""right""]","{""num_key_presses"":20,""num_perfect"":6,""num_errors"":1,""num_randdir"":13,""num_randdir_good_moves"":5,""num_whilered"":0,""num_whileblue"":1,""num_blue"":7,""num_good_moves"":11}","[292.22232142857143,296.12857142857143,1.4,292.22232142857143,296.12857142857143,115.9,292.22232142857143,296.12857142857143,218.3,292.22232142857143,296.12857142857143,342.9,286.22232142857143,296.12857142857143,450.2,254.22232142857143,288.12857142857143,560.5,565.2223214285714,488.12857142857143,660.9,607.2223214285714,529.1285714285714,771.4,613.2223214285714,544.1285714285714,872.1,596.2223214285714,546.1285714285714,978.3,557.2223214285714,535.1285714285714,1080,557.2223214285714,535.1285714285714,1185.6,557.2223214285714,535.1285714285714,1303.6,564.2223214285714,523.1285714285714,1410.9,760.2223214285714,393.12857142857143,1529.3,896.2223214285714,307.12857142857143,1630,896.2223214285714,307.12857142857143,1735.7,896.2223214285714,307.12857142857143,1849.5,896.2223214285714,307.12857142857143,1955.3,896.2223214285714,307.12857142857143,2056.7,896.2223214285714,307.12857142857143,2160.3,896.2223214285714,307.12857142857143,2261.5,896.2223214285714,307.12857142857143,2369.6,896.2223214285714,307.12857142857143,2478.6,896.2223214285714,307.12857142857143,2581.9,896.2223214285714,307.12857142857143,2686.5,896.2223214285714,307.12857142857143,2788.1,896.2223214285714,307.12857142857143,2893.6,896.2223214285714,307.12857142857143,3006.4,896.2223214285714,307.12857142857143,3113.2,896.2223214285714,307.12857142857143,3214.1,896.2223214285714,307.12857142857143,3321.4,896.2223214285714,307.12857142857143,3425.6,896.2223214285714,307.12857142857143,3526.6,896.2223214285714,307.12857142857143,3626.7,896.2223214285714,307.12857142857143,3736.6,896.2223214285714,307.12857142857143,3842.4,896.2223214285714,307.12857142857143,3952.8,896.2223214285714,307.12857142857143,4064.2,896.2223214285714,307.12857142857143,4165.8,896.2223214285714,307.12857142857143,4269,896.2223214285714,307.12857142857143,4374.9,896.2223214285714,307.12857142857143,4486.1,896.2223214285714,307.12857142857143,4592.5,896.2223214285714,307.12857142857143,4696.7,896.2223214285714,307.12857142857143,4799.3,896.2223214285714,307.12857142857143,4901.1]","[4994.8,4994.8,2589.4,2019,386.4,""oops"",""right"",""left"",""bad_move"",7708.9,2712.8,2160.9,4996.1,551.9,""oops"",""right"",""up"",""bad_move"",12859.4,5150.1,1566.9,10879.7,412.8,""oops"",""right"",""up"",""bad_move"",16322.3,3461.4,2973,12861,488.4,""oops"",""down"",""right"",""good_move"",22498.8,6175.8,2581.3,19529.1,388.4,""smooth"",""right"",""right"",""good_move"",25440.5,2940.9,2204.3,22499.6,736.6,""oops"",""down"",""down"",""good_move"",27882.7,2439.9,1873.9,25442.8,566,""oops"",""down"",""right"",""good_move"",30366.2,2482.7,2074.7,27883.5,408,""smooth"",""down"",""down"",""good_move"",33662.9,3296,2848.4,30366.9,447.7,""smooth"",""down"",""down"",""good_move"",36835.7,3171.6,2724.5,33664.2,447.1,""oops"",""right"",""left"",""bad_move"",39751.1,2914.7,1557.3,36836.5,1357.3,""oops"",""right"",""right"",""good_move"",43169.2,3417.2,3012.5,39752.2,404.6,""oops"",""right"",""right"",""good_move"",46187.8,3017.7,2634.9,43170.1,382.8,""smooth"",""down"",""down"",""good_move"",53045.2,6856.4,1892.4,50709,443.9,""oops"",""down"",""up"",""bad_move"",56907.9,3862.2,2147.2,53045.7,1715,""oops"",""down"",""left"",""bad_move"",64391.3,7483.1,2584.4,61348.9,458,""smooth"",""down"",""down"",""good_move"",67574.3,3182.5,2790.1,64391.8,392.4,""oops"",""right"",""up"",""bad_move"",71403.1,3828.3,3430.3,67574.8,398,""while_blue"",""down"",""left"",""bad_move"",75032.3,3627.4,3114.8,71404.9,512.7,""smooth"",""right"",""right"",""good_move"",82340.3,7306.7,2809.5,78922.1,608.7,""oops"",""down"",""left"",""bad_move""]","",""
"2103","","<div style=""width:500px;"">
  <p>What determined the result of this run?</p>
  </div>","13","html-slider-response","45","2897582","0.0-5.0-1.7","179","1","2025-07-23 07:34:47","1f75c3e559b7213887762d5229550c2b","49.206.12.249","Mozilla/5.0 (Windows NT 10.0; Win64; x64) AppleWebKit/537.36 (KHTML, like Gecko) Chrome/138.0.0.0 Safari/537.36","WebKit","Chrome","138.0.0.0","Windows","10.0","https://app.prolific.com/","en-GB,en-US;q=0.9,en;q=0.8,ta;q=0.7","66c5f76d9a214b469f6476c8","683db9eb0562dbf637994deb","68809050f24c993615578353","2","1","66c5f76d9a214b469f6476c8","2","1","2025-07-23T08:24:57.577Z","","","","","","","","","","","AttribQ","","50","","","","","","","","","","","","","","","","","","","","","","","","","","","","",""
"2622","","<div style=""width:500px;"">
  <p>How much control did you have over the ball?</p>
  </div>","3","html-slider-response","46","2900207","0.0-5.0-2.7","179","1","2025-07-23 07:34:47","1f75c3e559b7213887762d5229550c2b","49.206.12.249","Mozilla/5.0 (Windows NT 10.0; Win64; x64) AppleWebKit/537.36 (KHTML, like Gecko) Chrome/138.0.0.0 Safari/537.36","WebKit","Chrome","138.0.0.0","Windows","10.0","https://app.prolific.com/","en-GB,en-US;q=0.9,en;q=0.8,ta;q=0.7","66c5f76d9a214b469f6476c8","683db9eb0562dbf637994deb","68809050f24c993615578353","2","1","66c5f76d9a214b469f6476c8","2","1","2025-07-23T08:25:00.202Z","","","","","","","","","","","ControlQ","","50","","","","","","","","","","","","","","","","","","","","","","","","","","","","",""
"2239","","<div style=""width:500px;"">
  <p>How would you describe your current emotional state?</p>
  </div>","97","html-slider-response","47","2902455","0.0-5.0-3.7","179","1","2025-07-23 07:34:47","1f75c3e559b7213887762d5229550c2b","49.206.12.249","Mozilla/5.0 (Windows NT 10.0; Win64; x64) AppleWebKit/537.36 (KHTML, like Gecko) Chrome/138.0.0.0 Safari/537.36","WebKit","Chrome","138.0.0.0","Windows","10.0","https://app.prolific.com/","en-GB,en-US;q=0.9,en;q=0.8,ta;q=0.7","66c5f76d9a214b469f6476c8","683db9eb0562dbf637994deb","68809050f24c993615578353","2","1","66c5f76d9a214b469f6476c8","2","1","2025-07-23T08:25:02.450Z","","","","","","","","","","","StressQ","","50","","","","","","","","","","","","","","","","","","","","","","","","","","","","",""
"2120","","<div style=""width:500px;"">
  <p>What best describes how you currently feel?</p>
  </div>","7","html-slider-response","48","2904583","0.0-5.0-4.7","179","1","2025-07-23 07:34:47","1f75c3e559b7213887762d5229550c2b","49.206.12.249","Mozilla/5.0 (Windows NT 10.0; Win64; x64) AppleWebKit/537.36 (KHTML, like Gecko) Chrome/138.0.0.0 Safari/537.36","WebKit","Chrome","138.0.0.0","Windows","10.0","https://app.prolific.com/","en-GB,en-US;q=0.9,en;q=0.8,ta;q=0.7","66c5f76d9a214b469f6476c8","683db9eb0562dbf637994deb","68809050f24c993615578353","2","1","66c5f76d9a214b469f6476c8","2","1","2025-07-23T08:25:04.578Z","","","","","","","","","","","MotivationQ","","50","","","","","","","","","","","","","","","","","","","","","","","","","","","","",""
"","","","","ctl-task-cpt","49","2939855","0.0-5.0-0.8","179","1","2025-07-23 07:34:47","1f75c3e559b7213887762d5229550c2b","49.206.12.249","Mozilla/5.0 (Windows NT 10.0; Win64; x64) AppleWebKit/537.36 (KHTML, like Gecko) Chrome/138.0.0.0 Safari/537.36","WebKit","Chrome","138.0.0.0","Windows","10.0","https://app.prolific.com/","en-GB,en-US;q=0.9,en;q=0.8,ta;q=0.7","66c5f76d9a214b469f6476c8","683db9eb0562dbf637994deb","68809050f24c993615578353","2","1","66c5f76d9a214b469f6476c8","2","1","2025-07-23T08:25:39.850Z","","","","","","","","","","","","","","win-only","0","g1:NW,g2:SE","0.2","9","0","2916808.9","2038","7054","32214.1","1","4","8","6","2","8","8","15","7","0.11363636363636363","986.7","3000","2525","[""down"",""right""]","{""num_key_presses"":6,""num_perfect"":2,""num_errors"":0,""num_randdir"":4,""num_randdir_good_moves"":4,""num_whilered"":0,""num_whileblue"":0,""num_blue"":2,""num_good_moves"":6}","[293.22232142857143,303.12857142857143,0.8,293.22232142857143,303.12857142857143,126.2,293.22232142857143,303.12857142857143,250.1,293.22232142857143,303.12857142857143,367.9,263.22232142857143,261.12857142857143,471.4,414.22232142857143,304.12857142857143,596.2,553.2223214285714,481.12857142857143,712,561.2223214285714,514.1285714285714,815.2,532.2223214285714,525.1285714285714,943.5,532.2223214285714,525.1285714285714,1071.7,541.2223214285714,523.1285714285714,1173.2,768.2223214285714,395.12857142857143,1285.8,813.2223214285714,371.12857142857143,1394.6,813.2223214285714,371.12857142857143,1504.5,813.2223214285714,371.12857142857143,1618.8,813.2223214285714,371.12857142857143,1737.1,813.2223214285714,371.12857142857143,1841.3,813.2223214285714,371.12857142857143,1959.5,813.2223214285714,371.12857142857143,2065,813.2223214285714,371.12857142857143,2180.4,813.2223214285714,371.12857142857143,2290.9,813.2223214285714,371.12857142857143,2393.4,813.2223214285714,371.12857142857143,2506.4,813.2223214285714,371.12857142857143,2620.8,813.2223214285714,371.12857142857143,2723.1,813.2223214285714,371.12857142857143,2833.1,813.2223214285714,371.12857142857143,2946.2,813.2223214285714,371.12857142857143,3062,813.2223214285714,371.12857142857143,3165.5,813.2223214285714,371.12857142857143,3294.9,813.2223214285714,371.12857142857143,3398.3,813.2223214285714,371.12857142857143,3516.4,813.2223214285714,371.12857142857143,3621.4,813.2223214285714,371.12857142857143,3728,813.2223214285714,371.12857142857143,3828.6,813.2223214285714,371.12857142857143,3944,813.2223214285714,371.12857142857143,4049.8,813.2223214285714,371.12857142857143,4161.6,813.2223214285714,371.12857142857143,4271.9,813.2223214285714,371.12857142857143,4384.4,813.2223214285714,371.12857142857143,4495.2,813.2223214285714,371.12857142857143,4607.1,813.2223214285714,371.12857142857143,4721.9,813.2223214285714,371.12857142857143,4824.6,813.2223214285714,371.12857142857143,4927.1]","[1464.9,1464.9,1000,0,464.9,""oops"",""right"",""down"",""good_move"",7354.6,5889.5,2469.5,4484.4,400.7,""smooth"",""right"",""right"",""good_move"",14544.3,7189.1,2823.9,11247.1,473.3,""smooth"",""right"",""right"",""good_move"",17747.7,3202.5,2621.4,14545.2,581.2,""oops"",""right"",""right"",""good_move"",21063.7,3315.1,2761.4,17748.6,553.7,""oops"",""down"",""down"",""good_move"",24476.4,3411.7,2922,21064.7,489.7,""oops"",""down"",""down"",""good_move""]","",""
"2828","","<div style=""width:500px;"">
  <p>What determined the result of this run?</p>
  </div>","92","html-slider-response","50","2942687","0.0-5.0-1.8","179","1","2025-07-23 07:34:47","1f75c3e559b7213887762d5229550c2b","49.206.12.249","Mozilla/5.0 (Windows NT 10.0; Win64; x64) AppleWebKit/537.36 (KHTML, like Gecko) Chrome/138.0.0.0 Safari/537.36","WebKit","Chrome","138.0.0.0","Windows","10.0","https://app.prolific.com/","en-GB,en-US;q=0.9,en;q=0.8,ta;q=0.7","66c5f76d9a214b469f6476c8","683db9eb0562dbf637994deb","68809050f24c993615578353","2","1","66c5f76d9a214b469f6476c8","2","1","2025-07-23T08:25:42.682Z","","","","","","","","","","","AttribQ","","50","","","","","","","","","","","","","","","","","","","","","","","","","","","","",""
"2772","","<div style=""width:500px;"">
  <p>How much control did you have over the ball?</p>
  </div>","86","html-slider-response","51","2945463","0.0-5.0-2.8","179","1","2025-07-23 07:34:47","1f75c3e559b7213887762d5229550c2b","49.206.12.249","Mozilla/5.0 (Windows NT 10.0; Win64; x64) AppleWebKit/537.36 (KHTML, like Gecko) Chrome/138.0.0.0 Safari/537.36","WebKit","Chrome","138.0.0.0","Windows","10.0","https://app.prolific.com/","en-GB,en-US;q=0.9,en;q=0.8,ta;q=0.7","66c5f76d9a214b469f6476c8","683db9eb0562dbf637994deb","68809050f24c993615578353","2","1","66c5f76d9a214b469f6476c8","2","1","2025-07-23T08:25:45.459Z","","","","","","","","","","","ControlQ","","50","","","","","","","","","","","","","","","","","","","","","","","","","","","","",""
"2065","","<div style=""width:500px;"">
  <p>How would you describe your current emotional state?</p>
  </div>","14","html-slider-response","52","2947536","0.0-5.0-3.8","179","1","2025-07-23 07:34:47","1f75c3e559b7213887762d5229550c2b","49.206.12.249","Mozilla/5.0 (Windows NT 10.0; Win64; x64) AppleWebKit/537.36 (KHTML, like Gecko) Chrome/138.0.0.0 Safari/537.36","WebKit","Chrome","138.0.0.0","Windows","10.0","https://app.prolific.com/","en-GB,en-US;q=0.9,en;q=0.8,ta;q=0.7","66c5f76d9a214b469f6476c8","683db9eb0562dbf637994deb","68809050f24c993615578353","2","1","66c5f76d9a214b469f6476c8","2","1","2025-07-23T08:25:47.531Z","","","","","","","","","","","StressQ","","50","","","","","","","","","","","","","","","","","","","","","","","","","","","","",""
"2096","","<div style=""width:500px;"">
  <p>What best describes how you currently feel?</p>
  </div>","86","html-slider-response","53","2949638","0.0-5.0-4.8","179","1","2025-07-23 07:34:47","1f75c3e559b7213887762d5229550c2b","49.206.12.249","Mozilla/5.0 (Windows NT 10.0; Win64; x64) AppleWebKit/537.36 (KHTML, like Gecko) Chrome/138.0.0.0 Safari/537.36","WebKit","Chrome","138.0.0.0","Windows","10.0","https://app.prolific.com/","en-GB,en-US;q=0.9,en;q=0.8,ta;q=0.7","66c5f76d9a214b469f6476c8","683db9eb0562dbf637994deb","68809050f24c993615578353","2","1","66c5f76d9a214b469f6476c8","2","1","2025-07-23T08:25:49.633Z","","","","","","","","","","","MotivationQ","","50","","","","","","","","","","","","","","","","","","","","","","","","","","","","",""
"","","","","ctl-task-cpt","54","3041598","0.0-5.0-0.9","179","1","2025-07-23 07:34:47","1f75c3e559b7213887762d5229550c2b","49.206.12.249","Mozilla/5.0 (Windows NT 10.0; Win64; x64) AppleWebKit/537.36 (KHTML, like Gecko) Chrome/138.0.0.0 Safari/537.36","WebKit","Chrome","138.0.0.0","Windows","10.0","https://app.prolific.com/","en-GB,en-US;q=0.9,en;q=0.8,ta;q=0.7","66c5f76d9a214b469f6476c8","683db9eb0562dbf637994deb","68809050f24c993615578353","2","1","66c5f76d9a214b469f6476c8","2","1","2025-07-23T08:27:21.593Z","","","","","","","","","","","","","","win-only","1","g1:NE,g2:SW","0.4","10","0","2961850.9","1236.1","6244.5","88915.3","1","4","4","6","2","-4","-4","11","15","0.08333333333333333","872","3000","-795","[""down"",""left""]","{""num_key_presses"":20,""num_perfect"":8,""num_errors"":0,""num_randdir"":12,""num_randdir_good_moves"":3,""num_whilered"":0,""num_whileblue"":0,""num_blue"":4,""num_good_moves"":11}","[299.22232142857143,295.12857142857143,0.8,299.22232142857143,295.12857142857143,101.3,299.22232142857143,295.12857142857143,210.9,299.22232142857143,295.12857142857143,312.8,277.22232142857143,311.12857142857143,413.9,30.222321428571426,502.12857142857143,519.7,13.222321428571426,530.1285714285714,633.2,13.222321428571426,530.1285714285714,744.7,57.222321428571426,532.1285714285714,854.2,57.222321428571426,532.1285714285714,964.8,184.22232142857143,474.12857142857143,1068,978.2223214285714,142.12857142857143,1179.5,978.2223214285714,132.12857142857143,1289,978.2223214285714,132.12857142857143,1405.6,978.2223214285714,132.12857142857143,1519.7,978.2223214285714,132.12857142857143,1632.6,978.2223214285714,132.12857142857143,1737.9,978.2223214285714,132.12857142857143,1852,978.2223214285714,132.12857142857143,1954.3,978.2223214285714,132.12857142857143,2073.4,978.2223214285714,132.12857142857143,2182.9,978.2223214285714,132.12857142857143,2289.7,978.2223214285714,132.12857142857143,2399.8,978.2223214285714,132.12857142857143,2507.3,978.2223214285714,132.12857142857143,2622.3,978.2223214285714,132.12857142857143,2731.5,978.2223214285714,132.12857142857143,2832.7,978.2223214285714,132.12857142857143,2933.6,978.2223214285714,132.12857142857143,3036.7,978.2223214285714,132.12857142857143,3140.4,978.2223214285714,132.12857142857143,3249.9,978.2223214285714,132.12857142857143,3357.2,978.2223214285714,132.12857142857143,3472.5,978.2223214285714,132.12857142857143,3573.6,978.2223214285714,132.12857142857143,3687.4,978.2223214285714,132.12857142857143,3797.1,978.2223214285714,132.12857142857143,3901.4,978.2223214285714,132.12857142857143,4003.6,978.2223214285714,132.12857142857143,4109.3,978.2223214285714,132.12857142857143,4221.2,978.2223214285714,132.12857142857143,4328.4,978.2223214285714,132.12857142857143,4437.7,978.2223214285714,132.12857142857143,4544,978.2223214285714,132.12857142857143,4653.7,978.2223214285714,132.12857142857143,4759.3,978.2223214285714,132.12857142857143,4863.7,978.2223214285714,132.12857142857143,4971.9]","[5291.9,5291.9,2839.1,2022.1,430.7,""smooth"",""down"",""down"",""good_move"",7785.5,2492.9,2037.8,5292.7,455.1,""oops"",""down"",""right"",""bad_move"",10378.9,2592.6,1968.5,7786.4,624.1,""smooth"",""down"",""down"",""good_move"",14076.9,3697.2,3219.7,10379.7,477.5,""oops"",""left"",""right"",""bad_move"",16944.9,2867.2,2471.8,14077.7,395.4,""oops"",""down"",""up"",""bad_move"",21538.6,4593.1,2293.1,16945.6,2300,""oops"",""down"",""down"",""good_move"",24778.9,3240,2831.4,21538.9,408.7,""smooth"",""down"",""down"",""good_move"",29844.1,5064.3,1772.9,27595.7,475.5,""smooth"",""left"",""left"",""good_move"",33358.5,3513.1,2959.7,29845.5,553.4,""oops"",""left"",""left"",""good_move"",36588.9,3229,2614.8,33359.9,614.2,""oops"",""left"",""right"",""bad_move"",39640.4,3050.3,2620.1,36590.2,430.1,""oops"",""left"",""right"",""bad_move"",46135.1,6494,2795.7,42867.1,472.4,""smooth"",""left"",""left"",""good_move"",50681.5,4545.3,2575,46136.2,1970.3,""smooth"",""left"",""left"",""good_move"",55040.4,4357.9,2220.1,50682.5,2137.9,""oops"",""left"",""left"",""good_move"",58957.2,3915.5,2590,55041.7,1325.6,""oops"",""left"",""right"",""bad_move"",62204.4,3246.4,2725.3,58958,521.1,""smooth"",""left"",""left"",""good_move"",64840.2,2634.1,1900.4,62206.1,733.7,""smooth"",""left"",""left"",""good_move"",67849.4,3008,2142.1,64841.5,865.9,""oops"",""left"",""right"",""bad_move"",70732.2,2882.2,2463.7,67850,418.5,""oops"",""left"",""right"",""bad_move"",77329.9,6596.6,2710.1,74147.6,472.2,""oops"",""left"",""up"",""bad_move""]","",""
"11626","","<div style=""width:500px;"">
  <p>What determined the result of this run?</p>
  </div>","85","html-slider-response","55","3053231","0.0-5.0-1.9","179","1","2025-07-23 07:34:47","1f75c3e559b7213887762d5229550c2b","49.206.12.249","Mozilla/5.0 (Windows NT 10.0; Win64; x64) AppleWebKit/537.36 (KHTML, like Gecko) Chrome/138.0.0.0 Safari/537.36","WebKit","Chrome","138.0.0.0","Windows","10.0","https://app.prolific.com/","en-GB,en-US;q=0.9,en;q=0.8,ta;q=0.7","66c5f76d9a214b469f6476c8","683db9eb0562dbf637994deb","68809050f24c993615578353","2","1","66c5f76d9a214b469f6476c8","2","1","2025-07-23T08:27:33.226Z","","","","","","","","","","","AttribQ","","50","","","","","","","","","","","","","","","","","","","","","","","","","","","","",""
"3402","","<div style=""width:500px;"">
  <p>How much control did you have over the ball?</p>
  </div>","29","html-slider-response","56","3056641","0.0-5.0-2.9","179","1","2025-07-23 07:34:47","1f75c3e559b7213887762d5229550c2b","49.206.12.249","Mozilla/5.0 (Windows NT 10.0; Win64; x64) AppleWebKit/537.36 (KHTML, like Gecko) Chrome/138.0.0.0 Safari/537.36","WebKit","Chrome","138.0.0.0","Windows","10.0","https://app.prolific.com/","en-GB,en-US;q=0.9,en;q=0.8,ta;q=0.7","66c5f76d9a214b469f6476c8","683db9eb0562dbf637994deb","68809050f24c993615578353","2","1","66c5f76d9a214b469f6476c8","2","1","2025-07-23T08:27:36.636Z","","","","","","","","","","","ControlQ","","50","","","","","","","","","","","","","","","","","","","","","","","","","","","","",""
"7817","","<div style=""width:500px;"">
  <p>How would you describe your current emotional state?</p>
  </div>","75","html-slider-response","57","3064464","0.0-5.0-3.9","179","1","2025-07-23 07:34:47","1f75c3e559b7213887762d5229550c2b","49.206.12.249","Mozilla/5.0 (Windows NT 10.0; Win64; x64) AppleWebKit/537.36 (KHTML, like Gecko) Chrome/138.0.0.0 Safari/537.36","WebKit","Chrome","138.0.0.0","Windows","10.0","https://app.prolific.com/","en-GB,en-US;q=0.9,en;q=0.8,ta;q=0.7","66c5f76d9a214b469f6476c8","683db9eb0562dbf637994deb","68809050f24c993615578353","2","1","66c5f76d9a214b469f6476c8","2","1","2025-07-23T08:27:44.459Z","","","","","","","","","","","StressQ","","50","","","","","","","","","","","","","","","","","","","","","","","","","","","","",""
"5107","","<div style=""width:500px;"">
  <p>What best describes how you currently feel?</p>
  </div>","27","html-slider-response","58","3069584","0.0-5.0-4.9","179","1","2025-07-23 07:34:47","1f75c3e559b7213887762d5229550c2b","49.206.12.249","Mozilla/5.0 (Windows NT 10.0; Win64; x64) AppleWebKit/537.36 (KHTML, like Gecko) Chrome/138.0.0.0 Safari/537.36","WebKit","Chrome","138.0.0.0","Windows","10.0","https://app.prolific.com/","en-GB,en-US;q=0.9,en;q=0.8,ta;q=0.7","66c5f76d9a214b469f6476c8","683db9eb0562dbf637994deb","68809050f24c993615578353","2","1","66c5f76d9a214b469f6476c8","2","1","2025-07-23T08:27:49.579Z","","","","","","","","","","","MotivationQ","","50","","","","","","","","","","","","","","","","","","","","","","","","","","","","",""
"","","","","ctl-task-cpt","59","3142069","0.0-5.0-0.10","179","1","2025-07-23 07:34:47","1f75c3e559b7213887762d5229550c2b","49.206.12.249","Mozilla/5.0 (Windows NT 10.0; Win64; x64) AppleWebKit/537.36 (KHTML, like Gecko) Chrome/138.0.0.0 Safari/537.36","WebKit","Chrome","138.0.0.0","Windows","10.0","https://app.prolific.com/","en-GB,en-US;q=0.9,en;q=0.8,ta;q=0.7","66c5f76d9a214b469f6476c8","683db9eb0562dbf637994deb","68809050f24c993615578353","2","1","66c5f76d9a214b469f6476c8","2","1","2025-07-23T08:29:02.065Z","","","","","","","","","","","","","","win-only","1","g1:NE,g2:SW","0.5","11","0","3081794.9","1556.6","6576.8","69442","1","4","4","6","2","4","4","15","11","0.11363636363636363","866","3000","405","[""down"",""left""]","{""num_key_presses"":18,""num_perfect"":8,""num_errors"":0,""num_randdir"":10,""num_randdir_good_moves"":4,""num_whilered"":0,""num_whileblue"":0,""num_blue"":2,""num_good_moves"":12}","[298.22232142857143,303.12857142857143,1.2,298.22232142857143,303.12857142857143,108.9,298.22232142857143,303.12857142857143,210.7,298.22232142857143,303.12857142857143,319.9,298.22232142857143,303.12857142857143,425.3,148.22232142857143,500.12857142857143,540,101.22232142857143,516.1285714285714,643.8,82.22232142857143,513.1285714285714,758.5,76.22232142857143,514.1285714285714,870.4,76.22232142857143,514.1285714285714,976.7,76.22232142857143,514.1285714285714,1091.8,594.2223214285714,373.12857142857143,1208.1,978.2223214285714,187.12857142857143,1329.3,978.2223214285714,185.12857142857143,1442.3,978.2223214285714,185.12857142857143,1555.1,978.2223214285714,185.12857142857143,1663.1,978.2223214285714,185.12857142857143,1766.2,978.2223214285714,185.12857142857143,1874,978.2223214285714,185.12857142857143,1988.5,978.2223214285714,185.12857142857143,2101.9,978.2223214285714,185.12857142857143,2207.6,978.2223214285714,185.12857142857143,2324.6,978.2223214285714,185.12857142857143,2425.3,978.2223214285714,185.12857142857143,2539.3,978.2223214285714,185.12857142857143,2651.3,978.2223214285714,185.12857142857143,2756.7,978.2223214285714,185.12857142857143,2856.7,978.2223214285714,185.12857142857143,2965.7,978.2223214285714,185.12857142857143,3076.3,978.2223214285714,185.12857142857143,3186,978.2223214285714,185.12857142857143,3304.6,978.2223214285714,185.12857142857143,3410.8,978.2223214285714,185.12857142857143,3529.6,978.2223214285714,185.12857142857143,3638.1,978.2223214285714,185.12857142857143,3752.6,978.2223214285714,185.12857142857143,3868.9,978.2223214285714,185.12857142857143,3991.5,978.2223214285714,185.12857142857143,4102.3,978.2223214285714,185.12857142857143,4203.7,978.2223214285714,185.12857142857143,4308.9,978.2223214285714,185.12857142857143,4411.2,978.2223214285714,185.12857142857143,4515.6,978.2223214285714,185.12857142857143,4639.7,978.2223214285714,185.12857142857143,4746.2,978.2223214285714,185.12857142857143,4868.5,978.2223214285714,185.12857142857143,4982.5]","[4804.1,4804.1,2202.7,2008.2,593.2,""oops"",""down"",""left"",""good_move"",8543,3738.5,1739.8,4804.5,1998.7,""smooth"",""down"",""down"",""good_move"",10815.1,2270.2,1843.1,8545,427.1,""oops"",""down"",""left"",""good_move"",14129,3312.6,2347.8,10816.4,964.8,""smooth"",""down"",""down"",""good_move"",20678,6548.2,2510.4,17719.4,448.3,""oops"",""down"",""right"",""bad_move"",24007.3,3328.4,2847.5,20678.9,480.9,""oops"",""down"",""up"",""bad_move"",27894.5,3886.4,2562.8,24008.1,1323.6,""smooth"",""down"",""down"",""good_move"",30459.8,2564.9,2160.7,27894.9,404.2,""smooth"",""down"",""down"",""good_move"",33291,2830,2355.8,30461,474.2,""oops"",""left"",""up"",""bad_move"",36990.7,3698.5,3063.7,33292.2,634.8,""smooth"",""down"",""down"",""good_move"",39660.1,2668.2,2314.9,36992,353.3,""oops"",""left"",""right"",""bad_move"",42162.7,2501.4,2104.9,39661.3,396.5,""oops"",""left"",""left"",""good_move"",45737.8,3574.1,2570.7,42163.7,1003.4,""oops"",""left"",""up"",""bad_move"",49012.1,3273.8,2596.5,45738.3,677.3,""oops"",""down"",""right"",""bad_move"",51788.9,2776,2298.2,49012.9,477.8,""smooth"",""down"",""down"",""good_move"",55484.1,3693.9,3249.7,51790.3,444.2,""oops"",""left"",""left"",""good_move"",58641.4,3155.5,2048.4,55485.9,1107.1,""smooth"",""left"",""left"",""good_move"",62471.7,3829,2299.7,58642.7,1529.3,""smooth"",""left"",""left"",""good_move""]","",""
"4394","","<div style=""width:500px;"">
  <p>What determined the result of this run?</p>
  </div>","84","html-slider-response","60","3146469","0.0-5.0-1.10","179","1","2025-07-23 07:34:47","1f75c3e559b7213887762d5229550c2b","49.206.12.249","Mozilla/5.0 (Windows NT 10.0; Win64; x64) AppleWebKit/537.36 (KHTML, like Gecko) Chrome/138.0.0.0 Safari/537.36","WebKit","Chrome","138.0.0.0","Windows","10.0","https://app.prolific.com/","en-GB,en-US;q=0.9,en;q=0.8,ta;q=0.7","66c5f76d9a214b469f6476c8","683db9eb0562dbf637994deb","68809050f24c993615578353","2","1","66c5f76d9a214b469f6476c8","2","1","2025-07-23T08:29:06.465Z","","","","","","","","","","","AttribQ","","50","","","","","","","","","","","","","","","","","","","","","","","","","","","","",""
"5739","","<div style=""width:500px;"">
  <p>How much control did you have over the ball?</p>
  </div>","73","html-slider-response","61","3152214","0.0-5.0-2.10","179","1","2025-07-23 07:34:47","1f75c3e559b7213887762d5229550c2b","49.206.12.249","Mozilla/5.0 (Windows NT 10.0; Win64; x64) AppleWebKit/537.36 (KHTML, like Gecko) Chrome/138.0.0.0 Safari/537.36","WebKit","Chrome","138.0.0.0","Windows","10.0","https://app.prolific.com/","en-GB,en-US;q=0.9,en;q=0.8,ta;q=0.7","66c5f76d9a214b469f6476c8","683db9eb0562dbf637994deb","68809050f24c993615578353","2","1","66c5f76d9a214b469f6476c8","2","1","2025-07-23T08:29:12.210Z","","","","","","","","","","","ControlQ","","50","","","","","","","","","","","","","","","","","","","","","","","","","","","","",""
"2249","","<div style=""width:500px;"">
  <p>How would you describe your current emotional state?</p>
  </div>","30","html-slider-response","62","3154470","0.0-5.0-3.10","179","1","2025-07-23 07:34:47","1f75c3e559b7213887762d5229550c2b","49.206.12.249","Mozilla/5.0 (Windows NT 10.0; Win64; x64) AppleWebKit/537.36 (KHTML, like Gecko) Chrome/138.0.0.0 Safari/537.36","WebKit","Chrome","138.0.0.0","Windows","10.0","https://app.prolific.com/","en-GB,en-US;q=0.9,en;q=0.8,ta;q=0.7","66c5f76d9a214b469f6476c8","683db9eb0562dbf637994deb","68809050f24c993615578353","2","1","66c5f76d9a214b469f6476c8","2","1","2025-07-23T08:29:14.466Z","","","","","","","","","","","StressQ","","50","","","","","","","","","","","","","","","","","","","","","","","","","","","","",""
"1897","","<div style=""width:500px;"">
  <p>What best describes how you currently feel?</p>
  </div>","85","html-slider-response","63","3156375","0.0-5.0-4.10","179","1","2025-07-23 07:34:47","1f75c3e559b7213887762d5229550c2b","49.206.12.249","Mozilla/5.0 (Windows NT 10.0; Win64; x64) AppleWebKit/537.36 (KHTML, like Gecko) Chrome/138.0.0.0 Safari/537.36","WebKit","Chrome","138.0.0.0","Windows","10.0","https://app.prolific.com/","en-GB,en-US;q=0.9,en;q=0.8,ta;q=0.7","66c5f76d9a214b469f6476c8","683db9eb0562dbf637994deb","68809050f24c993615578353","2","1","66c5f76d9a214b469f6476c8","2","1","2025-07-23T08:29:16.370Z","","","","","","","","","","","MotivationQ","","50","","","","","","","","","","","","","","","","","","","","","","","","","","","","",""
"","","","","ctl-task-cpt","64","3216778","0.0-5.0-0.11","179","1","2025-07-23 07:34:47","1f75c3e559b7213887762d5229550c2b","49.206.12.249","Mozilla/5.0 (Windows NT 10.0; Win64; x64) AppleWebKit/537.36 (KHTML, like Gecko) Chrome/138.0.0.0 Safari/537.36","WebKit","Chrome","138.0.0.0","Windows","10.0","https://app.prolific.com/","en-GB,en-US;q=0.9,en;q=0.8,ta;q=0.7","66c5f76d9a214b469f6476c8","683db9eb0562dbf637994deb","68809050f24c993615578353","2","1","66c5f76d9a214b469f6476c8","2","1","2025-07-23T08:30:16.774Z","","","","","","","","","","","","","","win-only","2","g1:SE,g2:NW","0.6","12","0","3168589.6","956.1","5976.7","57359.4","1","4","8","6","2","8","8","23","15","0.17424242424242425","840.4","3000","1815","[""left"",""up""]","{""num_key_presses"":10,""num_perfect"":6,""num_errors"":0,""num_randdir"":4,""num_randdir_good_moves"":2,""num_whilered"":0,""num_whileblue"":0,""num_blue"":4,""num_good_moves"":8}","[297.22232142857143,299.12857142857143,0.4,297.22232142857143,299.12857142857143,115.6,297.22232142857143,299.12857142857143,227.6,279.22232142857143,304.12857142857143,349.7,127.22232142857143,135.12857142857143,470.9,97.22232142857143,98.12857142857143,581.4,93.22232142857143,93.12857142857143,685.3,74.22232142857143,76.12857142857143,789.1,72.22232142857143,74.12857142857143,910.2,72.22232142857143,74.12857142857143,1041.6,232.22232142857143,101.12857142857143,1145.7,595.2223214285714,160.12857142857143,1248.1,629.2223214285714,173.12857142857143,1375.2,629.2223214285714,173.12857142857143,1489.5,629.2223214285714,173.12857142857143,1592.9,629.2223214285714,173.12857142857143,1705.5,629.2223214285714,173.12857142857143,1811.4,629.2223214285714,173.12857142857143,1916.6,629.2223214285714,173.12857142857143,2024.8,629.2223214285714,173.12857142857143,2127.7,629.2223214285714,173.12857142857143,2231.3,629.2223214285714,173.12857142857143,2340,629.2223214285714,173.12857142857143,2453.9,629.2223214285714,173.12857142857143,2566.4,629.2223214285714,173.12857142857143,2676,629.2223214285714,173.12857142857143,2779.2,629.2223214285714,173.12857142857143,2893.2,629.2223214285714,173.12857142857143,3006.4,629.2223214285714,173.12857142857143,3108.6,629.2223214285714,173.12857142857143,3211.3,629.2223214285714,173.12857142857143,3323.2,629.2223214285714,173.12857142857143,3438.9,629.2223214285714,173.12857142857143,3544.3,629.2223214285714,173.12857142857143,3647.6,629.2223214285714,173.12857142857143,3764.7,629.2223214285714,173.12857142857143,3870.9,629.2223214285714,173.12857142857143,3977,629.2223214285714,173.12857142857143,4083.3,629.2223214285714,173.12857142857143,4195.2,629.2223214285714,173.12857142857143,4298.1,629.2223214285714,173.12857142857143,4399.1,629.2223214285714,173.12857142857143,4515.7,629.2223214285714,173.12857142857143,4631.5,629.2223214285714,173.12857142857143,4738.1,629.2223214285714,173.12857142857143,4844.5,629.2223214285714,173.12857142857143,4947.6]","[1494.1,1494.2,1000,0,494.2,""oops"",""left"",""left"",""good_move"",5534.8,4039.6,1525.8,1495.2,2513.8,""oops"",""left"",""down"",""bad_move"",8006.2,2470,2041,5536.3,428.9,""oops"",""left"",""up"",""good_move"",11691.1,3683.8,1999.3,8007.4,1684.4,""smooth"",""left"",""left"",""good_move"",18927.1,7235.3,2483.4,16029.7,414.1,""smooth"",""left"",""left"",""good_move"",23206.6,4279,1765.5,18927.8,2513.4,""oops"",""up"",""right"",""bad_move"",25964.4,2756.7,2269.1,23207.8,487.5,""smooth"",""left"",""left"",""good_move"",30714.3,4749.1,2835.3,25965.2,1913.8,""smooth"",""up"",""up"",""good_move"",47023.5,16308.9,1960,44287.5,776,""smooth"",""up"",""up"",""good_move"",51066.1,4041.6,2394.8,47024.6,1646.8,""smooth"",""up"",""up"",""good_move""]","",""
"3806","","<div style=""width:500px;"">
  <p>What determined the result of this run?</p>
  </div>","87","html-slider-response","65","3220591","0.0-5.0-1.11","179","1","2025-07-23 07:34:47","1f75c3e559b7213887762d5229550c2b","49.206.12.249","Mozilla/5.0 (Windows NT 10.0; Win64; x64) AppleWebKit/537.36 (KHTML, like Gecko) Chrome/138.0.0.0 Safari/537.36","WebKit","Chrome","138.0.0.0","Windows","10.0","https://app.prolific.com/","en-GB,en-US;q=0.9,en;q=0.8,ta;q=0.7","66c5f76d9a214b469f6476c8","683db9eb0562dbf637994deb","68809050f24c993615578353","2","1","66c5f76d9a214b469f6476c8","2","1","2025-07-23T08:30:20.586Z","","","","","","","","","","","AttribQ","","50","","","","","","","","","","","","","","","","","","","","","","","","","","","","",""
"1890","","<div style=""width:500px;"">
  <p>How much control did you have over the ball?</p>
  </div>","87","html-slider-response","66","3222489","0.0-5.0-2.11","179","1","2025-07-23 07:34:47","1f75c3e559b7213887762d5229550c2b","49.206.12.249","Mozilla/5.0 (Windows NT 10.0; Win64; x64) AppleWebKit/537.36 (KHTML, like Gecko) Chrome/138.0.0.0 Safari/537.36","WebKit","Chrome","138.0.0.0","Windows","10.0","https://app.prolific.com/","en-GB,en-US;q=0.9,en;q=0.8,ta;q=0.7","66c5f76d9a214b469f6476c8","683db9eb0562dbf637994deb","68809050f24c993615578353","2","1","66c5f76d9a214b469f6476c8","2","1","2025-07-23T08:30:22.484Z","","","","","","","","","","","ControlQ","","50","","","","","","","","","","","","","","","","","","","","","","","","","","","","",""
"1674","","<div style=""width:500px;"">
  <p>How would you describe your current emotional state?</p>
  </div>","35","html-slider-response","67","3224168","0.0-5.0-3.11","179","1","2025-07-23 07:34:47","1f75c3e559b7213887762d5229550c2b","49.206.12.249","Mozilla/5.0 (Windows NT 10.0; Win64; x64) AppleWebKit/537.36 (KHTML, like Gecko) Chrome/138.0.0.0 Safari/537.36","WebKit","Chrome","138.0.0.0","Windows","10.0","https://app.prolific.com/","en-GB,en-US;q=0.9,en;q=0.8,ta;q=0.7","66c5f76d9a214b469f6476c8","683db9eb0562dbf637994deb","68809050f24c993615578353","2","1","66c5f76d9a214b469f6476c8","2","1","2025-07-23T08:30:24.163Z","","","","","","","","","","","StressQ","","50","","","","","","","","","","","","","","","","","","","","","","","","","","","","",""
"1440","","<div style=""width:500px;"">
  <p>What best describes how you currently feel?</p>
  </div>","72","html-slider-response","68","3225615","0.0-5.0-4.11","179","1","2025-07-23 07:34:47","1f75c3e559b7213887762d5229550c2b","49.206.12.249","Mozilla/5.0 (Windows NT 10.0; Win64; x64) AppleWebKit/537.36 (KHTML, like Gecko) Chrome/138.0.0.0 Safari/537.36","WebKit","Chrome","138.0.0.0","Windows","10.0","https://app.prolific.com/","en-GB,en-US;q=0.9,en;q=0.8,ta;q=0.7","66c5f76d9a214b469f6476c8","683db9eb0562dbf637994deb","68809050f24c993615578353","2","1","66c5f76d9a214b469f6476c8","2","1","2025-07-23T08:30:25.610Z","","","","","","","","","","","MotivationQ","","50","","","","","","","","","","","","","","","","","","","","","","","","","","","","",""
"","","","","ctl-task-cpt","69","3301513","0.0-5.0-0.12","179","1","2025-07-23 07:34:47","1f75c3e559b7213887762d5229550c2b","49.206.12.249","Mozilla/5.0 (Windows NT 10.0; Win64; x64) AppleWebKit/537.36 (KHTML, like Gecko) Chrome/138.0.0.0 Safari/537.36","WebKit","Chrome","138.0.0.0","Windows","10.0","https://app.prolific.com/","en-GB,en-US;q=0.9,en;q=0.8,ta;q=0.7","66c5f76d9a214b469f6476c8","683db9eb0562dbf637994deb","68809050f24c993615578353","2","1","66c5f76d9a214b469f6476c8","2","1","2025-07-23T08:31:41.509Z","","","","","","","","","","","","","","win-only","2","g1:SE,g2:NW","0.7","13","0","3237835.3","2068.3","7090.8","72857.8","1","4","4","6","2","4","3","26","23","0.19696969696969696","873.3","3000","2355","[""left"",""up""]","{""num_key_presses"":10,""num_perfect"":6,""num_errors"":1,""num_randdir"":3,""num_randdir_good_moves"":1,""num_whilered"":0,""num_whileblue"":1,""num_blue"":5,""num_good_moves"":8}","[293.22232142857143,293.12857142857143,1.2,293.22232142857143,293.12857142857143,112.9,293.22232142857143,293.12857142857143,227.4,293.22232142857143,293.12857142857143,335.5,293.22232142857143,293.12857142857143,444.2,218.22232142857143,195.12857142857143,566.6,88.22232142857143,85.12857142857143,674.5,88.22232142857143,84.12857142857143,782.7,88.22232142857143,84.12857142857143,896.1,88.22232142857143,84.12857142857143,1013.8,120.22232142857143,89.12857142857143,1123.3,978.2223214285714,315.12857142857143,1251.2,978.2223214285714,374.12857142857143,1370.4,978.2223214285714,374.12857142857143,1493.1,978.2223214285714,374.12857142857143,1606.3,978.2223214285714,374.12857142857143,1712.9,978.2223214285714,374.12857142857143,1836.8,978.2223214285714,374.12857142857143,1954.9,978.2223214285714,374.12857142857143,2087.2,978.2223214285714,374.12857142857143,2188.6,978.2223214285714,374.12857142857143,2301.7,978.2223214285714,374.12857142857143,2429.8,978.2223214285714,374.12857142857143,2541.9,978.2223214285714,374.12857142857143,2667.2,978.2223214285714,374.12857142857143,2786.1,978.2223214285714,374.12857142857143,2904.4,978.2223214285714,374.12857142857143,3011.6,978.2223214285714,374.12857142857143,3116.7,978.2223214285714,374.12857142857143,3225.3,978.2223214285714,374.12857142857143,3348.3,978.2223214285714,374.12857142857143,3467.4,978.2223214285714,374.12857142857143,3569.3,978.2223214285714,374.12857142857143,3689,978.2223214285714,374.12857142857143,3801.5,978.2223214285714,374.12857142857143,3909.8,978.2223214285714,374.12857142857143,4018.3,978.2223214285714,374.12857142857143,4131.7,978.2223214285714,374.12857142857143,4235.2,978.2223214285714,374.12857142857143,4341.3,978.2223214285714,374.12857142857143,4457.5,978.2223214285714,374.12857142857143,4572.6,978.2223214285714,374.12857142857143,4697.4,978.2223214285714,374.12857142857143,4805.8,978.2223214285714,374.12857142857143,4923.4]","[5018.5,5018.5,2563.5,2009.6,445.4,""smooth"",""left"",""left"",""good_move"",10965.6,5946.2,2247.9,5019.4,3698.3,""smooth"",""left"",""left"",""good_move"",16695.4,5729.5,2808.2,10965.9,2921.3,""oops"",""left"",""right"",""bad_move"",19609.1,2913.5,2461.8,16695.7,451.8,""oops"",""left"",""left"",""good_move"",26169.2,6559.3,6100.1,19609.9,459.3,""while_blue"",""left"",""left"",""good_move"",34588.3,8417.6,2639.4,26170.8,5778.2,""oops"",""up"",""down"",""bad_move"",37304.4,2714.7,1971.7,34589.7,743,""smooth"",""up"",""up"",""good_move"",47100.4,9795,2735.9,43884.7,479.9,""smooth"",""up"",""up"",""good_move"",58994.5,11893,2210.9,56257.6,526,""smooth"",""up"",""up"",""good_move"",65353.6,6358.6,2728.4,58995,3630.3,""smooth"",""up"",""up"",""good_move""]","",""
"2825","","<div style=""width:500px;"">
  <p>What determined the result of this run?</p>
  </div>","81","html-slider-response","70","3304343","0.0-5.0-1.12","179","1","2025-07-23 07:34:47","1f75c3e559b7213887762d5229550c2b","49.206.12.249","Mozilla/5.0 (Windows NT 10.0; Win64; x64) AppleWebKit/537.36 (KHTML, like Gecko) Chrome/138.0.0.0 Safari/537.36","WebKit","Chrome","138.0.0.0","Windows","10.0","https://app.prolific.com/","en-GB,en-US;q=0.9,en;q=0.8,ta;q=0.7","66c5f76d9a214b469f6476c8","683db9eb0562dbf637994deb","68809050f24c993615578353","2","1","66c5f76d9a214b469f6476c8","2","1","2025-07-23T08:31:44.339Z","","","","","","","","","","","AttribQ","","50","","","","","","","","","","","","","","","","","","","","","","","","","","","","",""
"2057","","<div style=""width:500px;"">
  <p>How much control did you have over the ball?</p>
  </div>","84","html-slider-response","71","3306408","0.0-5.0-2.12","179","1","2025-07-23 07:34:47","1f75c3e559b7213887762d5229550c2b","49.206.12.249","Mozilla/5.0 (Windows NT 10.0; Win64; x64) AppleWebKit/537.36 (KHTML, like Gecko) Chrome/138.0.0.0 Safari/537.36","WebKit","Chrome","138.0.0.0","Windows","10.0","https://app.prolific.com/","en-GB,en-US;q=0.9,en;q=0.8,ta;q=0.7","66c5f76d9a214b469f6476c8","683db9eb0562dbf637994deb","68809050f24c993615578353","2","1","66c5f76d9a214b469f6476c8","2","1","2025-07-23T08:31:46.403Z","","","","","","","","","","","ControlQ","","50","","","","","","","","","","","","","","","","","","","","","","","","","","","","",""
"2490","","<div style=""width:500px;"">
  <p>How would you describe your current emotional state?</p>
  </div>","20","html-slider-response","72","3308905","0.0-5.0-3.12","179","1","2025-07-23 07:34:47","1f75c3e559b7213887762d5229550c2b","49.206.12.249","Mozilla/5.0 (Windows NT 10.0; Win64; x64) AppleWebKit/537.36 (KHTML, like Gecko) Chrome/138.0.0.0 Safari/537.36","WebKit","Chrome","138.0.0.0","Windows","10.0","https://app.prolific.com/","en-GB,en-US;q=0.9,en;q=0.8,ta;q=0.7","66c5f76d9a214b469f6476c8","683db9eb0562dbf637994deb","68809050f24c993615578353","2","1","66c5f76d9a214b469f6476c8","2","1","2025-07-23T08:31:48.901Z","","","","","","","","","","","StressQ","","50","","","","","","","","","","","","","","","","","","","","","","","","","","","","",""
"1383","","<div style=""width:500px;"">
  <p>What best describes how you currently feel?</p>
  </div>","85","html-slider-response","73","3310296","0.0-5.0-4.12","179","1","2025-07-23 07:34:47","1f75c3e559b7213887762d5229550c2b","49.206.12.249","Mozilla/5.0 (Windows NT 10.0; Win64; x64) AppleWebKit/537.36 (KHTML, like Gecko) Chrome/138.0.0.0 Safari/537.36","WebKit","Chrome","138.0.0.0","Windows","10.0","https://app.prolific.com/","en-GB,en-US;q=0.9,en;q=0.8,ta;q=0.7","66c5f76d9a214b469f6476c8","683db9eb0562dbf637994deb","68809050f24c993615578353","2","1","66c5f76d9a214b469f6476c8","2","1","2025-07-23T08:31:50.292Z","","","","","","","","","","","MotivationQ","","50","","","","","","","","","","","","","","","","","","","","","","","","","","","","",""
