"rt","response_timestamp","stimulus","response","trial_type","trial_index","time_elapsed","internal_node_id","run_id","condition","recorded_at","source_code_version","ip","user_agent","device","browser","browser_version","platform","platform_version","referer","accept_language","PROLIFIC_PID","STUDY_ID","SESSION_ID","WEEK","BATCH","prolific_id","week","batch","realtime","success","responses","item_order","radio_event_ids","radio_event_times","key_event_times","mouse_event_times","straightlining","zigzagging","honeypot","eventType","view_history","slider_start","which_type","canvas_config","goals_layout","control_level","trial_number","tutorial_trial_number","trial_start_time","phase1_start_time","phase2_start_time","phase3_start_time","goal_1_value","goal_1_distance","goal_2_value","goal_2_distance","goal_selected","outcome","outcome_total","participant_final_score","participant_initial_score","participant_final_score_prop","goal_choice_rt","allocated_time","allocated_time_remaining","goal_direction","counts","mouse_movements","key_presses","question_order","question_id"
"13132","1753864745656","<p style='font-size:40px;line-height:1.25'><strong>Welcome to the experiment!</strong></p><p style='font-size:1.1em;line-height:1.25'>Thank you for participanting in our experiment again! You will be asked to play the Dysfunctional Ball Game again. We will briefly recap the rules before we start.</p><p style='font-size:1.1em;line-height:1.25'>Press <strong>Next</strong> to continue.</p>","0","custom-html-button-response","0","13138","0.0-0.0","257","1","2025-07-30 08:38:45","1f75c3e559b7213887762d5229550c2b","102.182.58.72","Mozilla/5.0 (Windows NT 10.0; Win64; x64) AppleWebKit/537.36 (KHTML, like Gecko) Chrome/138.0.0.0 Safari/537.36 Edg/138.0.0.0","WebKit","Edge","138.0.0.0","Windows","10.0","https://app.prolific.com/","en-US,en;q=0.9","60c8a4ece55be5a30e0ccc5c","6877631c9844ddd5501205fc","6889d9ed2705065916d8fbdd","3","1","60c8a4ece55be5a30e0ccc5c","3","1","2025-07-30T08:39:05.661Z","","","","","","","","","","","","","","","","","","","","","","","","","","","","","","","","","","","","","","","","","",""
"6173","","","","fullscreen","1","20330","0.0-1.0","257","1","2025-07-30 08:38:45","1f75c3e559b7213887762d5229550c2b","102.182.58.72","Mozilla/5.0 (Windows NT 10.0; Win64; x64) AppleWebKit/537.36 (KHTML, like Gecko) Chrome/138.0.0.0 Safari/537.36 Edg/138.0.0.0","WebKit","Edge","138.0.0.0","Windows","10.0","https://app.prolific.com/","en-US,en;q=0.9","60c8a4ece55be5a30e0ccc5c","6877631c9844ddd5501205fc","6889d9ed2705065916d8fbdd","3","1","60c8a4ece55be5a30e0ccc5c","3","1","","true","","","","","","","","","","","","","","","","","","","","","","","","","","","","","","","","","","","","","","","","",""
"3598","1753864756451","<p style='font-size:1.1em;line-height:1.25'>In the following, we will ask you a few questions relating to your feelings in the last 24 hours.<br></p><p style='font-size:1.1em;line-height:1.25'>Press the <strong>Next</strong> button to continue.</p>","0","custom-html-button-response","2","23931","0.0-2.0-0.0","257","1","2025-07-30 08:38:45","1f75c3e559b7213887762d5229550c2b","102.182.58.72","Mozilla/5.0 (Windows NT 10.0; Win64; x64) AppleWebKit/537.36 (KHTML, like Gecko) Chrome/138.0.0.0 Safari/537.36 Edg/138.0.0.0","WebKit","Edge","138.0.0.0","Windows","10.0","https://app.prolific.com/","en-US,en;q=0.9","60c8a4ece55be5a30e0ccc5c","6877631c9844ddd5501205fc","6889d9ed2705065916d8fbdd","3","1","60c8a4ece55be5a30e0ccc5c","3","1","2025-07-30T08:39:16.453Z","","","","","","","","","","","","","","","","","","","","","","","","","","","","","","","","","","","","","","","","","",""
"67892.10000014305","","","","survey-template","3","91844","0.0-2.0-1.0","257","1","2025-07-30 08:38:45","1f75c3e559b7213887762d5229550c2b","102.182.58.72","Mozilla/5.0 (Windows NT 10.0; Win64; x64) AppleWebKit/537.36 (KHTML, like Gecko) Chrome/138.0.0.0 Safari/537.36 Edg/138.0.0.0","WebKit","Edge","138.0.0.0","Windows","10.0","https://app.prolific.com/","en-US,en;q=0.9","60c8a4ece55be5a30e0ccc5c","6877631c9844ddd5501205fc","6889d9ed2705065916d8fbdd","3","1","60c8a4ece55be5a30e0ccc5c","3","1","2025-07-30T08:40:24.366Z","","{""Q01"":""1"",""Q02"":""0"",""Q03"":""0"",""Q04"":""1"",""Q05"":""1"",""Q06"":""1"",""Q07"":""0"",""Q08"":""0"",""Q09"":""0"",""Q10"":""1"",""Q11"":""2"",""Q12"":""1"",""Q13"":""5"",""Q14"":""2"",""Q15"":""0"",""Q16"":""0"",""Q17"":""1"",""Q18"":""0"",""Q19"":""1"",""Q20"":""0"",""Q21"":""0"",""Q22"":""0""}","[0,1,2,3,4,5,6,7,8,9,10,11,12,13,14,15,16,17,18,19,20,21]","[""Q01"",""Q02"",""Q03"",""Q04"",""Q05"",""Q06"",""Q07"",""Q08"",""Q09"",""Q10"",""Q11"",""Q12"",""Q13"",""Q14"",""Q15"",""Q16"",""Q17"",""Q18"",""Q19"",""Q20"",""Q21"",""Q22""]","[4428.300000190735,7486.700000047684,8884,10491.400000095367,13077.600000143051,15218.400000095367,17328.10000014305,18679.900000095367,25196.10000014305,28746.200000047684,30406,32040.900000095367,33840,39387.40000009537,41218.5,44135.800000190735,45705.800000190735,48865.5,57134.300000190735,59078.200000047684,61661.10000014305,66423.30000019073]","[]","[0.3000001907348633,4428.300000190735,5801.300000190735,7486.700000047684,8884,10491.400000095367,13077.600000143051,15218.400000095367,17328.10000014305,18679.900000095367,24200.800000190735,25196.10000014305,27643.5,28746.200000047684,30406,32040.900000095367,33840,39387.40000009537,41218.5,43201.60000014305,44135.800000190735,45705.800000190735,48865.5,57134.300000190735,59078.200000047684,60448.300000190735,61661.10000014305,64843.5,66423.30000019073,67877.5]","0.5","0.47619047619047616","0","drsp","","","","","","","","","","","","","","","","","","","","","","","","","","","","","","",""
"15518.900000095367","","","","survey-template","4","107368","0.0-2.0-2.0","257","1","2025-07-30 08:38:45","1f75c3e559b7213887762d5229550c2b","102.182.58.72","Mozilla/5.0 (Windows NT 10.0; Win64; x64) AppleWebKit/537.36 (KHTML, like Gecko) Chrome/138.0.0.0 Safari/537.36 Edg/138.0.0.0","WebKit","Edge","138.0.0.0","Windows","10.0","https://app.prolific.com/","en-US,en;q=0.9","60c8a4ece55be5a30e0ccc5c","6877631c9844ddd5501205fc","6889d9ed2705065916d8fbdd","3","1","60c8a4ece55be5a30e0ccc5c","3","1","2025-07-30T08:40:39.891Z","","{""Q01"":""1"",""Q02"":""2"",""Q03"":""1""}","[0,1,2]","[""Q01"",""Q02"",""Q02"",""Q03""]","[4288.100000143051,6705.100000143051,9202.400000095367,13852.400000095367]","[]","[3188.7000000476837,4288.100000143051,6705.100000143051,9202.400000095367,13852.400000095367,15515.800000190735]","0.6666666666666666","0","0","stress","","","","","","","","","","","","","","","","","","","","","","","","","","","","","","",""
"3025","","","","instructions","5","110396","0.0-3.0-0.0","257","1","2025-07-30 08:38:45","1f75c3e559b7213887762d5229550c2b","102.182.58.72","Mozilla/5.0 (Windows NT 10.0; Win64; x64) AppleWebKit/537.36 (KHTML, like Gecko) Chrome/138.0.0.0 Safari/537.36 Edg/138.0.0.0","WebKit","Edge","138.0.0.0","Windows","10.0","https://app.prolific.com/","en-US,en;q=0.9","60c8a4ece55be5a30e0ccc5c","6877631c9844ddd5501205fc","6889d9ed2705065916d8fbdd","3","1","60c8a4ece55be5a30e0ccc5c","3","1","","","","","","","","","","","","","[{""page_index"":0,""viewing_time"":3024}]","","","","","","","","","","","","","","","","","","","","","","","","","","","","","",""
"25089","","<p>Before you start with this game please answer the following three questions yourself. </p>
  <p>Through this game, we measure several aspects of your cognitive performance, such as reaction times, multi-tasking capabilities </p>
  <p>and the ability to assess the situation you are in.</p>
  <p></p>
  <p><b>How good do you usually are in such tasks?</b></p>","89","html-slider-response","6","135489","0.0-4.0-0.0","257","1","2025-07-30 08:38:45","1f75c3e559b7213887762d5229550c2b","102.182.58.72","Mozilla/5.0 (Windows NT 10.0; Win64; x64) AppleWebKit/537.36 (KHTML, like Gecko) Chrome/138.0.0.0 Safari/537.36 Edg/138.0.0.0","WebKit","Edge","138.0.0.0","Windows","10.0","https://app.prolific.com/","en-US,en;q=0.9","60c8a4ece55be5a30e0ccc5c","6877631c9844ddd5501205fc","6889d9ed2705065916d8fbdd","3","1","60c8a4ece55be5a30e0ccc5c","3","1","2025-07-30T08:41:08.012Z","","","","","","","","","","","PreSkillQ","","50","","","","","","","","","","","","","","","","","","","","","","","","","","","","",""
"3477","","<div style=""width:500px;"">
  <p>How well do you think you will perform in this task compared to other participants?</p>
  </div>","90","html-slider-response","7","138970","0.0-4.0-1.0","257","1","2025-07-30 08:38:45","1f75c3e559b7213887762d5229550c2b","102.182.58.72","Mozilla/5.0 (Windows NT 10.0; Win64; x64) AppleWebKit/537.36 (KHTML, like Gecko) Chrome/138.0.0.0 Safari/537.36 Edg/138.0.0.0","WebKit","Edge","138.0.0.0","Windows","10.0","https://app.prolific.com/","en-US,en;q=0.9","60c8a4ece55be5a30e0ccc5c","6877631c9844ddd5501205fc","6889d9ed2705065916d8fbdd","3","1","60c8a4ece55be5a30e0ccc5c","3","1","2025-07-30T08:41:11.492Z","","","","","","","","","","","PrePerfQ","","50","","","","","","","","","","","","","","","","","","","","","","","","","","","","",""
"4437","","<div style=""width:500px;"">
  <p>What best describes how you currently feel?</p>
  </div>","97","html-slider-response","8","143410","0.0-4.0-2.0","257","1","2025-07-30 08:38:45","1f75c3e559b7213887762d5229550c2b","102.182.58.72","Mozilla/5.0 (Windows NT 10.0; Win64; x64) AppleWebKit/537.36 (KHTML, like Gecko) Chrome/138.0.0.0 Safari/537.36 Edg/138.0.0.0","WebKit","Edge","138.0.0.0","Windows","10.0","https://app.prolific.com/","en-US,en;q=0.9","60c8a4ece55be5a30e0ccc5c","6877631c9844ddd5501205fc","6889d9ed2705065916d8fbdd","3","1","60c8a4ece55be5a30e0ccc5c","3","1","2025-07-30T08:41:15.933Z","","","","","","","","","","","PreMotivationQ","","50","","","","","","","","","","","","","","","","","","","","","","","","","","","","",""
"","","","","ctl-task-cpt","9","175722","0.0-5.0-0.0","257","1","2025-07-30 08:38:45","1f75c3e559b7213887762d5229550c2b","102.182.58.72","Mozilla/5.0 (Windows NT 10.0; Win64; x64) AppleWebKit/537.36 (KHTML, like Gecko) Chrome/138.0.0.0 Safari/537.36 Edg/138.0.0.0","WebKit","Edge","138.0.0.0","Windows","10.0","https://app.prolific.com/","en-US,en;q=0.9","60c8a4ece55be5a30e0ccc5c","6877631c9844ddd5501205fc","6889d9ed2705065916d8fbdd","3","1","60c8a4ece55be5a30e0ccc5c","3","1","2025-07-30T08:41:48.245Z","","","","","","","","","","","","","","win-only","2","g1:SE,g2:NW","1","1","0","153802.2","1802.1","6807.6","29294.4","1","4","4","6","1","1","1","1","0","0.007575757575757576","1516.5","3000","1470","[""down"",""right""]","{""num_key_presses"":4,""num_perfect"":4,""num_errors"":0,""num_randdir"":0,""num_randdir_good_moves"":0,""num_whilered"":0,""num_whileblue"":0,""num_blue"":3,""num_good_moves"":4}","[293.22232142857143,300.12857142857143,0.6,293.22232142857143,300.12857142857143,105.5,293.22232142857143,300.12857142857143,208.1,293.22232142857143,300.12857142857143,311.8,293.22232142857143,300.12857142857143,413.2,293.22232142857143,300.12857142857143,524.5,293.22232142857143,300.12857142857143,630.3,293.22232142857143,300.12857142857143,739.7,429.22232142857143,399.12857142857143,843.6,457.22232142857143,457.12857142857143,950.3,469.22232142857143,474.12857142857143,1058.2,477.22232142857143,480.12857142857143,1160.7,520.2223214285714,497.12857142857143,1265,524.2223214285714,505.12857142857143,1375.2,524.2223214285714,505.12857142857143,1484.2,524.2223214285714,505.12857142857143,1588.8,524.2223214285714,505.12857142857143,1694.3,524.2223214285714,505.12857142857143,1802.8,524.2223214285714,505.12857142857143,1902.8,524.2223214285714,505.12857142857143,2005.2,524.2223214285714,505.12857142857143,2108.7,524.2223214285714,505.12857142857143,2213.4,524.2223214285714,505.12857142857143,2315.2,447.22232142857143,517.1285714285714,2418.9,305.22232142857143,537.1285714285714,2524.1,237.22232142857143,554.1285714285714,2625,237.22232142857143,554.1285714285714,2732.9,237.22232142857143,554.1285714285714,2833.9,237.22232142857143,554.1285714285714,2941.4,237.22232142857143,554.1285714285714,3043,237.22232142857143,554.1285714285714,3152.3,237.22232142857143,554.1285714285714,3255.5,237.22232142857143,554.1285714285714,3363.3,237.22232142857143,554.1285714285714,3472.5,237.22232142857143,554.1285714285714,3575.5,237.22232142857143,554.1285714285714,3678.7,237.22232142857143,554.1285714285714,3780.1,237.22232142857143,554.1285714285714,3888.4,237.22232142857143,554.1285714285714,3989.9,237.22232142857143,554.1285714285714,4102.2,237.22232142857143,554.1285714285714,4203.9,237.22232142857143,554.1285714285714,4308.4,237.22232142857143,554.1285714285714,4411.2,237.22232142857143,554.1285714285714,4523.6,237.22232142857143,554.1285714285714,4624.2,237.22232142857143,554.1285714285714,4733.1,237.22232142857143,554.1285714285714,4837.7,237.22232142857143,554.1285714285714,4941.8]","[10122.7,10122.7,2997.1,5748.2,1377.5,""smooth"",""right"",""right"",""good_move"",12702,2577.3,2133.2,10124.7,444.1,""smooth"",""right"",""right"",""good_move"",15287.3,2584.8,1768.9,12702.5,816,""smooth"",""down"",""down"",""good_move"",22330.1,7041.5,2827.9,18659.2,843,""smooth"",""down"",""down"",""good_move""]","",""
"3227","","<div style=""width:500px;"">
  <p>What determined the result of this run?</p>
  </div>","99","html-slider-response","10","178953","0.0-5.0-1.0","257","1","2025-07-30 08:38:45","1f75c3e559b7213887762d5229550c2b","102.182.58.72","Mozilla/5.0 (Windows NT 10.0; Win64; x64) AppleWebKit/537.36 (KHTML, like Gecko) Chrome/138.0.0.0 Safari/537.36 Edg/138.0.0.0","WebKit","Edge","138.0.0.0","Windows","10.0","https://app.prolific.com/","en-US,en;q=0.9","60c8a4ece55be5a30e0ccc5c","6877631c9844ddd5501205fc","6889d9ed2705065916d8fbdd","3","1","60c8a4ece55be5a30e0ccc5c","3","1","2025-07-30T08:41:51.475Z","","","","","","","","","","","AttribQ","","50","","","","","","","","","","","","","","","","","","","","","","","","","","","","",""
"3114","","<div style=""width:500px;"">
  <p>How much control did you have over the ball?</p>
  </div>","96","html-slider-response","11","182070","0.0-5.0-2.0","257","1","2025-07-30 08:38:45","1f75c3e559b7213887762d5229550c2b","102.182.58.72","Mozilla/5.0 (Windows NT 10.0; Win64; x64) AppleWebKit/537.36 (KHTML, like Gecko) Chrome/138.0.0.0 Safari/537.36 Edg/138.0.0.0","WebKit","Edge","138.0.0.0","Windows","10.0","https://app.prolific.com/","en-US,en;q=0.9","60c8a4ece55be5a30e0ccc5c","6877631c9844ddd5501205fc","6889d9ed2705065916d8fbdd","3","1","60c8a4ece55be5a30e0ccc5c","3","1","2025-07-30T08:41:54.593Z","","","","","","","","","","","ControlQ","","50","","","","","","","","","","","","","","","","","","","","","","","","","","","","",""
"3655","","<div style=""width:500px;"">
  <p>How would you describe your current emotional state?</p>
  </div>","9","html-slider-response","12","185729","0.0-5.0-3.0","257","1","2025-07-30 08:38:45","1f75c3e559b7213887762d5229550c2b","102.182.58.72","Mozilla/5.0 (Windows NT 10.0; Win64; x64) AppleWebKit/537.36 (KHTML, like Gecko) Chrome/138.0.0.0 Safari/537.36 Edg/138.0.0.0","WebKit","Edge","138.0.0.0","Windows","10.0","https://app.prolific.com/","en-US,en;q=0.9","60c8a4ece55be5a30e0ccc5c","6877631c9844ddd5501205fc","6889d9ed2705065916d8fbdd","3","1","60c8a4ece55be5a30e0ccc5c","3","1","2025-07-30T08:41:58.251Z","","","","","","","","","","","StressQ","","50","","","","","","","","","","","","","","","","","","","","","","","","","","","","",""
"3747","","<div style=""width:500px;"">
  <p>What best describes how you currently feel?</p>
  </div>","96","html-slider-response","13","189482","0.0-5.0-4.0","257","1","2025-07-30 08:38:45","1f75c3e559b7213887762d5229550c2b","102.182.58.72","Mozilla/5.0 (Windows NT 10.0; Win64; x64) AppleWebKit/537.36 (KHTML, like Gecko) Chrome/138.0.0.0 Safari/537.36 Edg/138.0.0.0","WebKit","Edge","138.0.0.0","Windows","10.0","https://app.prolific.com/","en-US,en;q=0.9","60c8a4ece55be5a30e0ccc5c","6877631c9844ddd5501205fc","6889d9ed2705065916d8fbdd","3","1","60c8a4ece55be5a30e0ccc5c","3","1","2025-07-30T08:42:02.005Z","","","","","","","","","","","MotivationQ","","50","","","","","","","","","","","","","","","","","","","","","","","","","","","","",""
"","","","","ctl-task-cpt","14","212725","0.0-5.0-0.1","257","1","2025-07-30 08:38:45","1f75c3e559b7213887762d5229550c2b","102.182.58.72","Mozilla/5.0 (Windows NT 10.0; Win64; x64) AppleWebKit/537.36 (KHTML, like Gecko) Chrome/138.0.0.0 Safari/537.36 Edg/138.0.0.0","WebKit","Edge","138.0.0.0","Windows","10.0","https://app.prolific.com/","en-US,en;q=0.9","60c8a4ece55be5a30e0ccc5c","6877631c9844ddd5501205fc","6889d9ed2705065916d8fbdd","3","1","60c8a4ece55be5a30e0ccc5c","3","1","2025-07-30T08:42:25.248Z","","","","","","","","","","","","","","win-only","1","g1:NE,g2:SW","0.9","2","0","199866.7","1074.5","6080.8","20223","1","4","8","6","1","1","1","2","1","0.015151515151515152","1316.5","3000","1475","[""up"",""right""]","{""num_key_presses"":4,""num_perfect"":4,""num_errors"":0,""num_randdir"":0,""num_randdir_good_moves"":0,""num_whilered"":0,""num_whileblue"":0,""num_blue"":1,""num_good_moves"":4}","[294.22232142857143,300.12857142857143,0.2,294.22232142857143,300.12857142857143,101.8,294.22232142857143,300.12857142857143,201.9,294.22232142857143,300.12857142857143,316.5,294.22232142857143,300.12857142857143,419.2,294.22232142857143,300.12857142857143,519.6,328.22232142857143,256.12857142857143,630.5,466.22232142857143,129.12857142857143,732.9,512.2223214285714,106.12857142857143,841.9,519.2223214285714,101.12857142857143,947.3,525.2223214285714,93.12857142857143,1048.2,533.2223214285714,70.12857142857143,1151.8,533.2223214285714,70.12857142857143,1254.8,533.2223214285714,70.12857142857143,1358,533.2223214285714,70.12857142857143,1468.9,533.2223214285714,70.12857142857143,1569.8,533.2223214285714,70.12857142857143,1672.4,533.2223214285714,70.12857142857143,1784.6,533.2223214285714,70.12857142857143,1892.8,533.2223214285714,70.12857142857143,1998.8,524.2223214285714,89.12857142857143,2102.5,470.22232142857143,234.12857142857143,2204.1,458.22232142857143,296.12857142857143,2318.2,458.22232142857143,296.12857142857143,2419.8,458.22232142857143,296.12857142857143,2522.8,458.22232142857143,296.12857142857143,2628.6,458.22232142857143,296.12857142857143,2734.6,458.22232142857143,296.12857142857143,2837.7,458.22232142857143,296.12857142857143,2942.7,458.22232142857143,296.12857142857143,3047.6,458.22232142857143,296.12857142857143,3147.6,458.22232142857143,296.12857142857143,3248.6,458.22232142857143,296.12857142857143,3350.7,458.22232142857143,296.12857142857143,3450.9,458.22232142857143,296.12857142857143,3551.4,458.22232142857143,296.12857142857143,3661.2,458.22232142857143,296.12857142857143,3767.9,458.22232142857143,296.12857142857143,3872.4,458.22232142857143,296.12857142857143,3977.6,458.22232142857143,296.12857142857143,4084.2,458.22232142857143,296.12857142857143,4184.3,458.22232142857143,296.12857142857143,4293.6,458.22232142857143,296.12857142857143,4394,458.22232142857143,296.12857142857143,4500,458.22232142857143,296.12857142857143,4604.7,458.22232142857143,296.12857142857143,4715.3,458.22232142857143,296.12857142857143,4817.2,458.22232142857143,296.12857142857143,4917.3]","[1564.5,1564.6,1000,0,564.7,""smooth"",""right"",""right"",""good_move"",5236.3,3670.6,3162.3,1565.7,508.3,""smooth"",""right"",""right"",""good_move"",11397.7,6161,2598.9,8160.4,638.4,""smooth"",""up"",""up"",""good_move"",14012.6,2614.2,2146.8,11398.5,467.3,""smooth"",""up"",""up"",""good_move""]","",""
"3495","","<div style=""width:500px;"">
  <p>What determined the result of this run?</p>
  </div>","98","html-slider-response","15","216223","0.0-5.0-1.1","257","1","2025-07-30 08:38:45","1f75c3e559b7213887762d5229550c2b","102.182.58.72","Mozilla/5.0 (Windows NT 10.0; Win64; x64) AppleWebKit/537.36 (KHTML, like Gecko) Chrome/138.0.0.0 Safari/537.36 Edg/138.0.0.0","WebKit","Edge","138.0.0.0","Windows","10.0","https://app.prolific.com/","en-US,en;q=0.9","60c8a4ece55be5a30e0ccc5c","6877631c9844ddd5501205fc","6889d9ed2705065916d8fbdd","3","1","60c8a4ece55be5a30e0ccc5c","3","1","2025-07-30T08:42:28.746Z","","","","","","","","","","","AttribQ","","50","","","","","","","","","","","","","","","","","","","","","","","","","","","","",""
"3465","","<div style=""width:500px;"">
  <p>How much control did you have over the ball?</p>
  </div>","96","html-slider-response","16","219692","0.0-5.0-2.1","257","1","2025-07-30 08:38:45","1f75c3e559b7213887762d5229550c2b","102.182.58.72","Mozilla/5.0 (Windows NT 10.0; Win64; x64) AppleWebKit/537.36 (KHTML, like Gecko) Chrome/138.0.0.0 Safari/537.36 Edg/138.0.0.0","WebKit","Edge","138.0.0.0","Windows","10.0","https://app.prolific.com/","en-US,en;q=0.9","60c8a4ece55be5a30e0ccc5c","6877631c9844ddd5501205fc","6889d9ed2705065916d8fbdd","3","1","60c8a4ece55be5a30e0ccc5c","3","1","2025-07-30T08:42:32.214Z","","","","","","","","","","","ControlQ","","50","","","","","","","","","","","","","","","","","","","","","","","","","","","","",""
"3611","","<div style=""width:500px;"">
  <p>How would you describe your current emotional state?</p>
  </div>","6","html-slider-response","17","223305","0.0-5.0-3.1","257","1","2025-07-30 08:38:45","1f75c3e559b7213887762d5229550c2b","102.182.58.72","Mozilla/5.0 (Windows NT 10.0; Win64; x64) AppleWebKit/537.36 (KHTML, like Gecko) Chrome/138.0.0.0 Safari/537.36 Edg/138.0.0.0","WebKit","Edge","138.0.0.0","Windows","10.0","https://app.prolific.com/","en-US,en;q=0.9","60c8a4ece55be5a30e0ccc5c","6877631c9844ddd5501205fc","6889d9ed2705065916d8fbdd","3","1","60c8a4ece55be5a30e0ccc5c","3","1","2025-07-30T08:42:35.828Z","","","","","","","","","","","StressQ","","50","","","","","","","","","","","","","","","","","","","","","","","","","","","","",""
"3454","","<div style=""width:500px;"">
  <p>What best describes how you currently feel?</p>
  </div>","96","html-slider-response","18","226763","0.0-5.0-4.1","257","1","2025-07-30 08:38:45","1f75c3e559b7213887762d5229550c2b","102.182.58.72","Mozilla/5.0 (Windows NT 10.0; Win64; x64) AppleWebKit/537.36 (KHTML, like Gecko) Chrome/138.0.0.0 Safari/537.36 Edg/138.0.0.0","WebKit","Edge","138.0.0.0","Windows","10.0","https://app.prolific.com/","en-US,en;q=0.9","60c8a4ece55be5a30e0ccc5c","6877631c9844ddd5501205fc","6889d9ed2705065916d8fbdd","3","1","60c8a4ece55be5a30e0ccc5c","3","1","2025-07-30T08:42:39.285Z","","","","","","","","","","","MotivationQ","","50","","","","","","","","","","","","","","","","","","","","","","","","","","","","",""
"","","","","ctl-task-cpt","19","257001","0.0-5.0-0.2","257","1","2025-07-30 08:38:45","1f75c3e559b7213887762d5229550c2b","102.182.58.72","Mozilla/5.0 (Windows NT 10.0; Win64; x64) AppleWebKit/537.36 (KHTML, like Gecko) Chrome/138.0.0.0 Safari/537.36 Edg/138.0.0.0","WebKit","Edge","138.0.0.0","Windows","10.0","https://app.prolific.com/","en-US,en;q=0.9","60c8a4ece55be5a30e0ccc5c","6877631c9844ddd5501205fc","6889d9ed2705065916d8fbdd","3","1","60c8a4ece55be5a30e0ccc5c","3","1","2025-07-30T08:43:09.523Z","","","","","","","","","","","","","","win-only","1","g1:NE,g2:SW","0.8","3","0","237153.7","1078.3","6079","27220.9","1","4","4","6","1","1","1","3","2","0.022727272727272728","1334.5","3000","370","[""up"",""right""]","{""num_key_presses"":8,""num_perfect"":6,""num_errors"":0,""num_randdir"":2,""num_randdir_good_moves"":0,""num_whilered"":0,""num_whileblue"":0,""num_blue"":0,""num_good_moves"":6}","[298.22232142857143,296.12857142857143,0.5,298.22232142857143,296.12857142857143,106.3,298.22232142857143,296.12857142857143,213.2,298.22232142857143,296.12857142857143,314.1,298.22232142857143,296.12857142857143,415.7,644.2223214285714,-9.871428571428574,517.8,693.2223214285714,-64.87142857142857,620.3,692.2223214285714,-69.87142857142857,720.4,678.2223214285714,-63.871428571428574,832.9,609.2223214285714,13.128571428571426,938.4,565.2223214285714,40.128571428571426,1038.4,562.2223214285714,40.128571428571426,1147.4,562.2223214285714,40.128571428571426,1248,562.2223214285714,40.128571428571426,1351.4,562.2223214285714,40.128571428571426,1454.7,562.2223214285714,40.128571428571426,1556.5,562.2223214285714,40.128571428571426,1658.2,562.2223214285714,40.128571428571426,1758.6,562.2223214285714,40.128571428571426,1864,562.2223214285714,40.128571428571426,1967.5,525.2223214285714,136.12857142857143,2072.2,490.22232142857143,241.12857142857143,2179.1,476.22232142857143,288.12857142857143,2280.7,476.22232142857143,288.12857142857143,2380.7,476.22232142857143,288.12857142857143,2487.5,476.22232142857143,288.12857142857143,2588.3,476.22232142857143,288.12857142857143,2689.2,476.22232142857143,288.12857142857143,2797.4,476.22232142857143,288.12857142857143,2903.9,476.22232142857143,288.12857142857143,3004.5,476.22232142857143,288.12857142857143,3108,476.22232142857143,288.12857142857143,3210.2,476.22232142857143,288.12857142857143,3315.1,476.22232142857143,288.12857142857143,3415.4,476.22232142857143,288.12857142857143,3518,476.22232142857143,288.12857142857143,3619.6,476.22232142857143,288.12857142857143,3722.7,476.22232142857143,288.12857142857143,3831.1,476.22232142857143,288.12857142857143,3931.3,476.22232142857143,288.12857142857143,4032.6,476.22232142857143,288.12857142857143,4139.6,476.22232142857143,288.12857142857143,4244.5,476.22232142857143,288.12857142857143,4348.1,476.22232142857143,288.12857142857143,4460.1,476.22232142857143,288.12857142857143,4564.6,476.22232142857143,288.12857142857143,4667,476.22232142857143,288.12857142857143,4769.8,476.22232142857143,288.12857142857143,4882.3,476.22232142857143,288.12857142857143,4985.1]","[1710.5,1710.6,1000,0,710.6,""smooth"",""right"",""right"",""good_move"",4222,2509,2162,1713,347,""oops"",""up"",""down"",""bad_move"",6853.3,2630.5,2225.5,4222.9,404.9,""smooth"",""right"",""right"",""good_move"",9963.4,3109.4,2602,6854,507.4,""smooth"",""up"",""up"",""good_move"",12538,2573.8,2161.1,9964.3,412.7,""smooth"",""up"",""up"",""good_move"",15052.2,2511.1,2116.2,12541.1,394.9,""oops"",""up"",""down"",""bad_move"",17648.4,2595.2,2243.6,15053.2,351.6,""smooth"",""up"",""up"",""good_move"",21020.4,3371.4,2694.6,17649,676.8,""smooth"",""up"",""up"",""good_move""]","",""
"3619","","<div style=""width:500px;"">
  <p>What determined the result of this run?</p>
  </div>","99","html-slider-response","20","260625","0.0-5.0-1.2","257","1","2025-07-30 08:38:45","1f75c3e559b7213887762d5229550c2b","102.182.58.72","Mozilla/5.0 (Windows NT 10.0; Win64; x64) AppleWebKit/537.36 (KHTML, like Gecko) Chrome/138.0.0.0 Safari/537.36 Edg/138.0.0.0","WebKit","Edge","138.0.0.0","Windows","10.0","https://app.prolific.com/","en-US,en;q=0.9","60c8a4ece55be5a30e0ccc5c","6877631c9844ddd5501205fc","6889d9ed2705065916d8fbdd","3","1","60c8a4ece55be5a30e0ccc5c","3","1","2025-07-30T08:43:13.148Z","","","","","","","","","","","AttribQ","","50","","","","","","","","","","","","","","","","","","","","","","","","","","","","",""
"3651","","<div style=""width:500px;"">
  <p>How much control did you have over the ball?</p>
  </div>","96","html-slider-response","21","264280","0.0-5.0-2.2","257","1","2025-07-30 08:38:45","1f75c3e559b7213887762d5229550c2b","102.182.58.72","Mozilla/5.0 (Windows NT 10.0; Win64; x64) AppleWebKit/537.36 (KHTML, like Gecko) Chrome/138.0.0.0 Safari/537.36 Edg/138.0.0.0","WebKit","Edge","138.0.0.0","Windows","10.0","https://app.prolific.com/","en-US,en;q=0.9","60c8a4ece55be5a30e0ccc5c","6877631c9844ddd5501205fc","6889d9ed2705065916d8fbdd","3","1","60c8a4ece55be5a30e0ccc5c","3","1","2025-07-30T08:43:16.802Z","","","","","","","","","","","ControlQ","","50","","","","","","","","","","","","","","","","","","","","","","","","","","","","",""
"3480","","<div style=""width:500px;"">
  <p>How would you describe your current emotional state?</p>
  </div>","9","html-slider-response","22","267764","0.0-5.0-3.2","257","1","2025-07-30 08:38:45","1f75c3e559b7213887762d5229550c2b","102.182.58.72","Mozilla/5.0 (Windows NT 10.0; Win64; x64) AppleWebKit/537.36 (KHTML, like Gecko) Chrome/138.0.0.0 Safari/537.36 Edg/138.0.0.0","WebKit","Edge","138.0.0.0","Windows","10.0","https://app.prolific.com/","en-US,en;q=0.9","60c8a4ece55be5a30e0ccc5c","6877631c9844ddd5501205fc","6889d9ed2705065916d8fbdd","3","1","60c8a4ece55be5a30e0ccc5c","3","1","2025-07-30T08:43:20.287Z","","","","","","","","","","","StressQ","","50","","","","","","","","","","","","","","","","","","","","","","","","","","","","",""
"3489","","<div style=""width:500px;"">
  <p>What best describes how you currently feel?</p>
  </div>","88","html-slider-response","23","271261","0.0-5.0-4.2","257","1","2025-07-30 08:38:45","1f75c3e559b7213887762d5229550c2b","102.182.58.72","Mozilla/5.0 (Windows NT 10.0; Win64; x64) AppleWebKit/537.36 (KHTML, like Gecko) Chrome/138.0.0.0 Safari/537.36 Edg/138.0.0.0","WebKit","Edge","138.0.0.0","Windows","10.0","https://app.prolific.com/","en-US,en;q=0.9","60c8a4ece55be5a30e0ccc5c","6877631c9844ddd5501205fc","6889d9ed2705065916d8fbdd","3","1","60c8a4ece55be5a30e0ccc5c","3","1","2025-07-30T08:43:23.783Z","","","","","","","","","","","MotivationQ","","50","","","","","","","","","","","","","","","","","","","","","","","","","","","","",""
"","","","","ctl-task-cpt","24","298557","0.0-5.0-0.3","257","1","2025-07-30 08:38:45","1f75c3e559b7213887762d5229550c2b","102.182.58.72","Mozilla/5.0 (Windows NT 10.0; Win64; x64) AppleWebKit/537.36 (KHTML, like Gecko) Chrome/138.0.0.0 Safari/537.36 Edg/138.0.0.0","WebKit","Edge","138.0.0.0","Windows","10.0","https://app.prolific.com/","en-US,en;q=0.9","60c8a4ece55be5a30e0ccc5c","6877631c9844ddd5501205fc","6889d9ed2705065916d8fbdd","3","1","60c8a4ece55be5a30e0ccc5c","3","1","2025-07-30T08:43:51.079Z","","","","","","","","","","","","","","win-only","3","g1:SW,g2:NE","0.7","4","0","281653.6","1131","6132.1","24263","1","4","8","6","1","1","1","4","3","0.030303030303030304","1285.3","3000","1190","[""down"",""left""]","{""num_key_presses"":6,""num_perfect"":4,""num_errors"":0,""num_randdir"":2,""num_randdir_good_moves"":1,""num_whilered"":0,""num_whileblue"":0,""num_blue"":1,""num_good_moves"":5}","[301.22232142857143,295.12857142857143,0.1,301.22232142857143,295.12857142857143,111.3,301.22232142857143,295.12857142857143,213.6,301.22232142857143,295.12857142857143,316.4,301.22232142857143,295.12857142857143,417.3,142.22232142857143,448.12857142857143,524.9,11.222321428571426,558.1285714285714,625,11.222321428571426,559.1285714285714,727.7,11.222321428571426,559.1285714285714,839.9,11.222321428571426,559.1285714285714,941.8,37.222321428571426,559.1285714285714,1047.2,41.222321428571426,559.1285714285714,1160.7,41.222321428571426,559.1285714285714,1264.7,41.222321428571426,559.1285714285714,1368.3,41.222321428571426,559.1285714285714,1472.9,41.222321428571426,559.1285714285714,1572.9,41.222321428571426,559.1285714285714,1676.6,41.222321428571426,559.1285714285714,1780.2,41.222321428571426,559.1285714285714,1880.3,69.22232142857143,558.1285714285714,1982.4,327.22232142857143,571.1285714285714,2085,624.2223214285714,612.1285714285714,2198,624.2223214285714,612.1285714285714,2298.6,624.2223214285714,612.1285714285714,2409.8,624.2223214285714,612.1285714285714,2510.3,624.2223214285714,612.1285714285714,2616.8,624.2223214285714,612.1285714285714,2720.8,624.2223214285714,612.1285714285714,2821.1,624.2223214285714,612.1285714285714,2927.3,624.2223214285714,612.1285714285714,3031.8,624.2223214285714,612.1285714285714,3138.3,624.2223214285714,612.1285714285714,3240.4,624.2223214285714,612.1285714285714,3344.1,624.2223214285714,612.1285714285714,3451.3,624.2223214285714,612.1285714285714,3560.7,624.2223214285714,612.1285714285714,3669.3,624.2223214285714,612.1285714285714,3775.6,624.2223214285714,612.1285714285714,3877.3,624.2223214285714,612.1285714285714,3985.5,624.2223214285714,612.1285714285714,4093.2,624.2223214285714,612.1285714285714,4198.4,624.2223214285714,612.1285714285714,4303.1,624.2223214285714,612.1285714285714,4405.9,624.2223214285714,612.1285714285714,4512.7,624.2223214285714,612.1285714285714,4614.4,624.2223214285714,612.1285714285714,4719.9,624.2223214285714,612.1285714285714,4821,624.2223214285714,612.1285714285714,4923]","[4444.5,4444.5,1992.9,2015.3,436.3,""smooth"",""left"",""left"",""good_move"",7801.6,3354.7,2984.9,4446.9,369.8,""smooth"",""left"",""left"",""good_move"",10622.2,2820.2,2369.9,7802,450.3,""oops"",""down"",""down"",""good_move"",13961.6,3338.8,2813.2,10622.9,525.5,""oops"",""down"",""up"",""bad_move"",16338.2,2375.8,1981.2,13962.4,394.6,""smooth"",""down"",""down"",""good_move"",17998.3,1657.4,1220.7,16341,436.6,""smooth"",""down"",""down"",""good_move""]","",""
"3298","","<div style=""width:500px;"">
  <p>What determined the result of this run?</p>
  </div>","89","html-slider-response","25","301858","0.0-5.0-1.3","257","1","2025-07-30 08:38:45","1f75c3e559b7213887762d5229550c2b","102.182.58.72","Mozilla/5.0 (Windows NT 10.0; Win64; x64) AppleWebKit/537.36 (KHTML, like Gecko) Chrome/138.0.0.0 Safari/537.36 Edg/138.0.0.0","WebKit","Edge","138.0.0.0","Windows","10.0","https://app.prolific.com/","en-US,en;q=0.9","60c8a4ece55be5a30e0ccc5c","6877631c9844ddd5501205fc","6889d9ed2705065916d8fbdd","3","1","60c8a4ece55be5a30e0ccc5c","3","1","2025-07-30T08:43:54.380Z","","","","","","","","","","","AttribQ","","50","","","","","","","","","","","","","","","","","","","","","","","","","","","","",""
"3828","","<div style=""width:500px;"">
  <p>How much control did you have over the ball?</p>
  </div>","71","html-slider-response","26","305688","0.0-5.0-2.3","257","1","2025-07-30 08:38:45","1f75c3e559b7213887762d5229550c2b","102.182.58.72","Mozilla/5.0 (Windows NT 10.0; Win64; x64) AppleWebKit/537.36 (KHTML, like Gecko) Chrome/138.0.0.0 Safari/537.36 Edg/138.0.0.0","WebKit","Edge","138.0.0.0","Windows","10.0","https://app.prolific.com/","en-US,en;q=0.9","60c8a4ece55be5a30e0ccc5c","6877631c9844ddd5501205fc","6889d9ed2705065916d8fbdd","3","1","60c8a4ece55be5a30e0ccc5c","3","1","2025-07-30T08:43:58.211Z","","","","","","","","","","","ControlQ","","50","","","","","","","","","","","","","","","","","","","","","","","","","","","","",""
"3264","","<div style=""width:500px;"">
  <p>How would you describe your current emotional state?</p>
  </div>","31","html-slider-response","27","308956","0.0-5.0-3.3","257","1","2025-07-30 08:38:45","1f75c3e559b7213887762d5229550c2b","102.182.58.72","Mozilla/5.0 (Windows NT 10.0; Win64; x64) AppleWebKit/537.36 (KHTML, like Gecko) Chrome/138.0.0.0 Safari/537.36 Edg/138.0.0.0","WebKit","Edge","138.0.0.0","Windows","10.0","https://app.prolific.com/","en-US,en;q=0.9","60c8a4ece55be5a30e0ccc5c","6877631c9844ddd5501205fc","6889d9ed2705065916d8fbdd","3","1","60c8a4ece55be5a30e0ccc5c","3","1","2025-07-30T08:44:01.478Z","","","","","","","","","","","StressQ","","50","","","","","","","","","","","","","","","","","","","","","","","","","","","","",""
"2823","","<div style=""width:500px;"">
  <p>What best describes how you currently feel?</p>
  </div>","72","html-slider-response","28","311781","0.0-5.0-4.3","257","1","2025-07-30 08:38:45","1f75c3e559b7213887762d5229550c2b","102.182.58.72","Mozilla/5.0 (Windows NT 10.0; Win64; x64) AppleWebKit/537.36 (KHTML, like Gecko) Chrome/138.0.0.0 Safari/537.36 Edg/138.0.0.0","WebKit","Edge","138.0.0.0","Windows","10.0","https://app.prolific.com/","en-US,en;q=0.9","60c8a4ece55be5a30e0ccc5c","6877631c9844ddd5501205fc","6889d9ed2705065916d8fbdd","3","1","60c8a4ece55be5a30e0ccc5c","3","1","2025-07-30T08:44:04.303Z","","","","","","","","","","","MotivationQ","","50","","","","","","","","","","","","","","","","","","","","","","","","","","","","",""
"","","","","ctl-task-cpt","29","353603","0.0-5.0-0.4","257","1","2025-07-30 08:38:45","1f75c3e559b7213887762d5229550c2b","102.182.58.72","Mozilla/5.0 (Windows NT 10.0; Win64; x64) AppleWebKit/537.36 (KHTML, like Gecko) Chrome/138.0.0.0 Safari/537.36 Edg/138.0.0.0","WebKit","Edge","138.0.0.0","Windows","10.0","https://app.prolific.com/","en-US,en;q=0.9","60c8a4ece55be5a30e0ccc5c","6877631c9844ddd5501205fc","6889d9ed2705065916d8fbdd","3","1","60c8a4ece55be5a30e0ccc5c","3","1","2025-07-30T08:44:46.125Z","","","","","","","","","","","","","","win-only","1","g1:NE,g2:SW","0.6","5","0","322173","3362.3","8366.4","38792.8","1","4","8","6","1","-1","-1","3","4","0.022727272727272728","990.5","3000","-2160","[""up"",""right""]","{""num_key_presses"":8,""num_perfect"":4,""num_errors"":0,""num_randdir"":4,""num_randdir_good_moves"":0,""num_whilered"":0,""num_whileblue"":0,""num_blue"":2,""num_good_moves"":4}","[301.22232142857143,292.12857142857143,0.9,301.22232142857143,292.12857142857143,108.7,301.22232142857143,292.12857142857143,210.5,301.22232142857143,292.12857142857143,316.3,301.22232142857143,292.12857142857143,419.1,495.22232142857143,73.12857142857143,528.7,526.2223214285714,45.128571428571426,635.5,532.2223214285714,38.128571428571426,739.9,532.2223214285714,37.128571428571426,843.8,532.2223214285714,37.128571428571426,944.1,532.2223214285714,37.128571428571426,1045.5,532.2223214285714,37.128571428571426,1148.3,532.2223214285714,37.128571428571426,1248.8,532.2223214285714,37.128571428571426,1354.3,532.2223214285714,37.128571428571426,1461,532.2223214285714,37.128571428571426,1565.5,532.2223214285714,37.128571428571426,1668.2,532.2223214285714,37.128571428571426,1769.3,435.22232142857143,161.12857142857143,1877.7,278.22232142857143,317.12857142857143,1978,231.22232142857143,354.12857142857143,2086.1,231.22232142857143,354.12857142857143,2195.2,231.22232142857143,354.12857142857143,2304,231.22232142857143,354.12857142857143,2410.9,231.22232142857143,354.12857142857143,2514.8,231.22232142857143,354.12857142857143,2615.9,231.22232142857143,354.12857142857143,2718.4,231.22232142857143,354.12857142857143,2826.4,231.22232142857143,354.12857142857143,2934.3,231.22232142857143,354.12857142857143,3037.5,231.22232142857143,354.12857142857143,3142.2,231.22232142857143,354.12857142857143,3249.6,231.22232142857143,354.12857142857143,3352.4,231.22232142857143,354.12857142857143,3453.6,231.22232142857143,354.12857142857143,3560,231.22232142857143,354.12857142857143,3667.6,231.22232142857143,354.12857142857143,3769.3,231.22232142857143,354.12857142857143,3872,231.22232142857143,354.12857142857143,3975.7,231.22232142857143,354.12857142857143,4082.1,231.22232142857143,354.12857142857143,4184.3,231.22232142857143,354.12857142857143,4284.9,231.22232142857143,354.12857142857143,4393.8,231.22232142857143,354.12857142857143,4497.5,231.22232142857143,354.12857142857143,4597.8,231.22232142857143,354.12857142857143,4698.5,231.22232142857143,354.12857142857143,4803,231.22232142857143,354.12857142857143,4909]","[1460,1460,1000,0,460,""smooth"",""right"",""right"",""good_move"",3773.5,2312.6,1874.7,1460.9,437.9,""oops"",""right"",""left"",""bad_move"",6563.1,2788.8,2439.6,3774.3,349.2,""smooth"",""right"",""right"",""good_move"",9592.5,3028.5,2533.7,6564,494.8,""smooth"",""right"",""right"",""good_move"",12181.3,2588.7,2227.2,9592.6,361.6,""smooth"",""up"",""up"",""good_move"",18074.7,5889.1,1975.2,15495.5,604,""oops"",""up"",""down"",""bad_move"",20922.1,2846.7,2243.9,18075.4,602.8,""oops"",""up"",""down"",""bad_move"",27921.5,6998.8,2540.3,24752.7,628.5,""oops"",""up"",""left"",""bad_move""]","",""
"5551","","<div style=""width:500px;"">
  <p>What determined the result of this run?</p>
  </div>","33","html-slider-response","30","359157","0.0-5.0-1.4","257","1","2025-07-30 08:38:45","1f75c3e559b7213887762d5229550c2b","102.182.58.72","Mozilla/5.0 (Windows NT 10.0; Win64; x64) AppleWebKit/537.36 (KHTML, like Gecko) Chrome/138.0.0.0 Safari/537.36 Edg/138.0.0.0","WebKit","Edge","138.0.0.0","Windows","10.0","https://app.prolific.com/","en-US,en;q=0.9","60c8a4ece55be5a30e0ccc5c","6877631c9844ddd5501205fc","6889d9ed2705065916d8fbdd","3","1","60c8a4ece55be5a30e0ccc5c","3","1","2025-07-30T08:44:51.679Z","","","","","","","","","","","AttribQ","","50","","","","","","","","","","","","","","","","","","","","","","","","","","","","",""
"3252","","<div style=""width:500px;"">
  <p>How much control did you have over the ball?</p>
  </div>","30","html-slider-response","31","362411","0.0-5.0-2.4","257","1","2025-07-30 08:38:45","1f75c3e559b7213887762d5229550c2b","102.182.58.72","Mozilla/5.0 (Windows NT 10.0; Win64; x64) AppleWebKit/537.36 (KHTML, like Gecko) Chrome/138.0.0.0 Safari/537.36 Edg/138.0.0.0","WebKit","Edge","138.0.0.0","Windows","10.0","https://app.prolific.com/","en-US,en;q=0.9","60c8a4ece55be5a30e0ccc5c","6877631c9844ddd5501205fc","6889d9ed2705065916d8fbdd","3","1","60c8a4ece55be5a30e0ccc5c","3","1","2025-07-30T08:44:54.933Z","","","","","","","","","","","ControlQ","","50","","","","","","","","","","","","","","","","","","","","","","","","","","","","",""
"3204","","<div style=""width:500px;"">
  <p>How would you describe your current emotional state?</p>
  </div>","55","html-slider-response","32","365619","0.0-5.0-3.4","257","1","2025-07-30 08:38:45","1f75c3e559b7213887762d5229550c2b","102.182.58.72","Mozilla/5.0 (Windows NT 10.0; Win64; x64) AppleWebKit/537.36 (KHTML, like Gecko) Chrome/138.0.0.0 Safari/537.36 Edg/138.0.0.0","WebKit","Edge","138.0.0.0","Windows","10.0","https://app.prolific.com/","en-US,en;q=0.9","60c8a4ece55be5a30e0ccc5c","6877631c9844ddd5501205fc","6889d9ed2705065916d8fbdd","3","1","60c8a4ece55be5a30e0ccc5c","3","1","2025-07-30T08:44:58.142Z","","","","","","","","","","","StressQ","","50","","","","","","","","","","","","","","","","","","","","","","","","","","","","",""
"4041","","<div style=""width:500px;"">
  <p>What best describes how you currently feel?</p>
  </div>","43","html-slider-response","33","369665","0.0-5.0-4.4","257","1","2025-07-30 08:38:45","1f75c3e559b7213887762d5229550c2b","102.182.58.72","Mozilla/5.0 (Windows NT 10.0; Win64; x64) AppleWebKit/537.36 (KHTML, like Gecko) Chrome/138.0.0.0 Safari/537.36 Edg/138.0.0.0","WebKit","Edge","138.0.0.0","Windows","10.0","https://app.prolific.com/","en-US,en;q=0.9","60c8a4ece55be5a30e0ccc5c","6877631c9844ddd5501205fc","6889d9ed2705065916d8fbdd","3","1","60c8a4ece55be5a30e0ccc5c","3","1","2025-07-30T08:45:02.187Z","","","","","","","","","","","MotivationQ","","50","","","","","","","","","","","","","","","","","","","","","","","","","","","","",""
"","","","","ctl-task-cpt","34","412120","0.0-5.0-0.5","257","1","2025-07-30 08:38:45","1f75c3e559b7213887762d5229550c2b","102.182.58.72","Mozilla/5.0 (Windows NT 10.0; Win64; x64) AppleWebKit/537.36 (KHTML, like Gecko) Chrome/138.0.0.0 Safari/537.36 Edg/138.0.0.0","WebKit","Edge","138.0.0.0","Windows","10.0","https://app.prolific.com/","en-US,en;q=0.9","60c8a4ece55be5a30e0ccc5c","6877631c9844ddd5501205fc","6889d9ed2705065916d8fbdd","3","1","60c8a4ece55be5a30e0ccc5c","3","1","2025-07-30T08:45:44.642Z","","","","","","","","","","","","","","win-only","0","g1:NW,g2:SE","0.5","6","0","380049.9","2520.1","7530.3","39436.2","1","4","4","6","1","-1","-1","2","3","0.015151515151515152","1262.6","3000","-2125","[""left"",""up""]","{""num_key_presses"":7,""num_perfect"":3,""num_errors"":0,""num_randdir"":4,""num_randdir_good_moves"":1,""num_whilered"":0,""num_whileblue"":0,""num_blue"":2,""num_good_moves"":4}","[294.22232142857143,296.12857142857143,0.3,294.22232142857143,296.12857142857143,103.4,294.22232142857143,296.12857142857143,204.8,294.22232142857143,296.12857142857143,309.5,294.22232142857143,296.12857142857143,411.9,294.22232142857143,296.12857142857143,513.3,178.22232142857143,231.12857142857143,616,126.22232142857143,142.12857142857143,720.3,98.22232142857143,106.12857142857143,824.5,80.22232142857143,94.12857142857143,928.3,66.22232142857143,81.12857142857143,1031.4,60.222321428571426,71.12857142857143,1136.2,60.222321428571426,71.12857142857143,1243.7,60.222321428571426,71.12857142857143,1345.5,60.222321428571426,71.12857142857143,1448.6,60.222321428571426,71.12857142857143,1548.7,60.222321428571426,71.12857142857143,1652.7,60.222321428571426,71.12857142857143,1753.6,60.222321428571426,71.12857142857143,1858.3,60.222321428571426,71.12857142857143,1960.7,60.222321428571426,71.12857142857143,2063.5,60.222321428571426,71.12857142857143,2165.7,82.22232142857143,105.12857142857143,2278.4,129.22232142857143,216.12857142857143,2382.9,156.22232142857143,286.12857142857143,2488.4,156.22232142857143,286.12857142857143,2591.2,156.22232142857143,286.12857142857143,2695.8,156.22232142857143,286.12857142857143,2805,156.22232142857143,286.12857142857143,2911.6,156.22232142857143,286.12857142857143,3012.9,156.22232142857143,286.12857142857143,3116.5,156.22232142857143,286.12857142857143,3220.2,156.22232142857143,286.12857142857143,3330.6,156.22232142857143,286.12857142857143,3431.4,156.22232142857143,286.12857142857143,3532,156.22232142857143,286.12857142857143,3632.8,156.22232142857143,286.12857142857143,3736.3,156.22232142857143,286.12857142857143,3836.5,156.22232142857143,286.12857142857143,3937.7,156.22232142857143,286.12857142857143,4044.3,156.22232142857143,286.12857142857143,4146.3,156.22232142857143,286.12857142857143,4251.7,156.22232142857143,286.12857142857143,4354.8,156.22232142857143,286.12857142857143,4460.1,156.22232142857143,286.12857142857143,4562.1,156.22232142857143,286.12857142857143,4662.1,156.22232142857143,286.12857142857143,4771.7,156.22232142857143,286.12857142857143,4874.5,156.22232142857143,286.12857142857143,4976.4]","[2193.9,2193.9,1000,0,1193.9,""smooth"",""left"",""left"",""good_move"",4876.8,2682.3,2327.6,2194.6,354.7,""oops"",""left"",""right"",""bad_move"",11880.9,7003.2,2530.4,8917.4,433.1,""smooth"",""left"",""left"",""good_move"",15744.6,3863.5,3159.8,11881.1,703.7,""oops"",""up"",""right"",""bad_move"",19136.1,3391.1,2976.5,15745,414.6,""oops"",""left"",""right"",""bad_move"",25780.3,6643.7,2769.7,22585.2,425.4,""smooth"",""up"",""up"",""good_move"",29191.2,3409.7,3034.6,25781.5,375.1,""oops"",""up"",""left"",""good_move""]","",""
"4227","","<div style=""width:500px;"">
  <p>What determined the result of this run?</p>
  </div>","37","html-slider-response","35","416349","0.0-5.0-1.5","257","1","2025-07-30 08:38:45","1f75c3e559b7213887762d5229550c2b","102.182.58.72","Mozilla/5.0 (Windows NT 10.0; Win64; x64) AppleWebKit/537.36 (KHTML, like Gecko) Chrome/138.0.0.0 Safari/537.36 Edg/138.0.0.0","WebKit","Edge","138.0.0.0","Windows","10.0","https://app.prolific.com/","en-US,en;q=0.9","60c8a4ece55be5a30e0ccc5c","6877631c9844ddd5501205fc","6889d9ed2705065916d8fbdd","3","1","60c8a4ece55be5a30e0ccc5c","3","1","2025-07-30T08:45:48.871Z","","","","","","","","","","","AttribQ","","50","","","","","","","","","","","","","","","","","","","","","","","","","","","","",""
"3503","","<div style=""width:500px;"">
  <p>How much control did you have over the ball?</p>
  </div>","23","html-slider-response","36","419854","0.0-5.0-2.5","257","1","2025-07-30 08:38:45","1f75c3e559b7213887762d5229550c2b","102.182.58.72","Mozilla/5.0 (Windows NT 10.0; Win64; x64) AppleWebKit/537.36 (KHTML, like Gecko) Chrome/138.0.0.0 Safari/537.36 Edg/138.0.0.0","WebKit","Edge","138.0.0.0","Windows","10.0","https://app.prolific.com/","en-US,en;q=0.9","60c8a4ece55be5a30e0ccc5c","6877631c9844ddd5501205fc","6889d9ed2705065916d8fbdd","3","1","60c8a4ece55be5a30e0ccc5c","3","1","2025-07-30T08:45:52.376Z","","","","","","","","","","","ControlQ","","50","","","","","","","","","","","","","","","","","","","","","","","","","","","","",""
"3491","","<div style=""width:500px;"">
  <p>How would you describe your current emotional state?</p>
  </div>","66","html-slider-response","37","423346","0.0-5.0-3.5","257","1","2025-07-30 08:38:45","1f75c3e559b7213887762d5229550c2b","102.182.58.72","Mozilla/5.0 (Windows NT 10.0; Win64; x64) AppleWebKit/537.36 (KHTML, like Gecko) Chrome/138.0.0.0 Safari/537.36 Edg/138.0.0.0","WebKit","Edge","138.0.0.0","Windows","10.0","https://app.prolific.com/","en-US,en;q=0.9","60c8a4ece55be5a30e0ccc5c","6877631c9844ddd5501205fc","6889d9ed2705065916d8fbdd","3","1","60c8a4ece55be5a30e0ccc5c","3","1","2025-07-30T08:45:55.868Z","","","","","","","","","","","StressQ","","50","","","","","","","","","","","","","","","","","","","","","","","","","","","","",""
"2580","","<div style=""width:500px;"">
  <p>What best describes how you currently feel?</p>
  </div>","33","html-slider-response","38","425927","0.0-5.0-4.5","257","1","2025-07-30 08:38:45","1f75c3e559b7213887762d5229550c2b","102.182.58.72","Mozilla/5.0 (Windows NT 10.0; Win64; x64) AppleWebKit/537.36 (KHTML, like Gecko) Chrome/138.0.0.0 Safari/537.36 Edg/138.0.0.0","WebKit","Edge","138.0.0.0","Windows","10.0","https://app.prolific.com/","en-US,en;q=0.9","60c8a4ece55be5a30e0ccc5c","6877631c9844ddd5501205fc","6889d9ed2705065916d8fbdd","3","1","60c8a4ece55be5a30e0ccc5c","3","1","2025-07-30T08:45:58.449Z","","","","","","","","","","","MotivationQ","","50","","","","","","","","","","","","","","","","","","","","","","","","","","","","",""
"","","","","ctl-task-cpt","39","468245","0.0-5.0-0.6","257","1","2025-07-30 08:38:45","1f75c3e559b7213887762d5229550c2b","102.182.58.72","Mozilla/5.0 (Windows NT 10.0; Win64; x64) AppleWebKit/537.36 (KHTML, like Gecko) Chrome/138.0.0.0 Safari/537.36 Edg/138.0.0.0","WebKit","Edge","138.0.0.0","Windows","10.0","https://app.prolific.com/","en-US,en;q=0.9","60c8a4ece55be5a30e0ccc5c","6877631c9844ddd5501205fc","6889d9ed2705065916d8fbdd","3","1","60c8a4ece55be5a30e0ccc5c","3","1","2025-07-30T08:46:40.767Z","","","","","","","","","","","","","","win-only","0","g1:NW,g2:SE","0.4","7","0","436312.2","1944.8","6945.6","39305.6","1","4","4","6","1","-1","-1","1","2","0.007575757575757576","1498.7","3000","-2175","[""left"",""up""]","{""num_key_presses"":9,""num_perfect"":4,""num_errors"":0,""num_randdir"":5,""num_randdir_good_moves"":2,""num_whilered"":0,""num_whileblue"":0,""num_blue"":1,""num_good_moves"":6}","[298.22232142857143,289.12857142857143,1.7,298.22232142857143,289.12857142857143,415,298.22232142857143,289.12857142857143,516.7,298.22232142857143,289.12857142857143,617.7,298.22232142857143,289.12857142857143,719.1,298.22232142857143,289.12857142857143,821.9,298.22232142857143,289.12857142857143,928.7,100.22232142857143,84.12857142857143,1033.5,78.22232142857143,50.128571428571426,1137.2,60.222321428571426,28.128571428571426,1245.8,55.222321428571426,24.128571428571426,1351.6,55.222321428571426,24.128571428571426,1469.7,55.222321428571426,24.128571428571426,1571.7,55.222321428571426,24.128571428571426,1679.6,55.222321428571426,24.128571428571426,1784.5,55.222321428571426,24.128571428571426,1884.9,55.222321428571426,24.128571428571426,1986.2,55.222321428571426,24.128571428571426,2089.5,55.222321428571426,24.128571428571426,2189.5,55.222321428571426,24.128571428571426,2295.2,55.222321428571426,24.128571428571426,2397.8,136.22232142857143,52.128571428571426,2500.9,340.22232142857143,177.12857142857143,2601.4,461.22232142857143,218.12857142857143,2711.8,467.22232142857143,222.12857142857143,2812.2,467.22232142857143,222.12857142857143,2912.6,467.22232142857143,222.12857142857143,3015.4,467.22232142857143,222.12857142857143,3116.3,467.22232142857143,222.12857142857143,3226,467.22232142857143,222.12857142857143,3326.7,467.22232142857143,222.12857142857143,3433.4,467.22232142857143,222.12857142857143,3540.5,467.22232142857143,222.12857142857143,3644.3,467.22232142857143,222.12857142857143,3750.6,467.22232142857143,222.12857142857143,3857.1,467.22232142857143,222.12857142857143,3962,467.22232142857143,222.12857142857143,4065.8,467.22232142857143,222.12857142857143,4167.8,467.22232142857143,222.12857142857143,4277.7,467.22232142857143,222.12857142857143,4380.5,467.22232142857143,222.12857142857143,4480.7,467.22232142857143,222.12857142857143,4581.2,467.22232142857143,222.12857142857143,4686.2,467.22232142857143,222.12857142857143,4786.8,467.22232142857143,222.12857142857143,4888,467.22232142857143,222.12857142857143,4993.7]","[1441.9,1441.9,1000,0,441.9,""smooth"",""left"",""left"",""good_move"",4665.2,3220.9,2833.3,1444.4,387.5,""oops"",""left"",""right"",""bad_move"",10827,6159.8,1821.1,8524,481.9,""smooth"",""left"",""left"",""good_move"",13444.8,2617.6,2174,10827.2,443.6,""oops"",""up"",""down"",""bad_move"",16330.6,2885.4,2504.9,13445.2,380.5,""smooth"",""left"",""left"",""good_move"",18966.2,2635,2184,16331.2,451,""oops"",""up"",""up"",""good_move"",22456.5,3489.4,3031.2,18967.1,458.2,""oops"",""up"",""right"",""bad_move"",25513.3,3054.8,2676.5,22458.5,378.3,""oops"",""up"",""up"",""good_move"",29153.1,3639.4,3001.4,25513.8,637.9,""smooth"",""left"",""left"",""good_move""]","",""
"2314","","<div style=""width:500px;"">
  <p>What determined the result of this run?</p>
  </div>","35","html-slider-response","40","470561","0.0-5.0-1.6","257","1","2025-07-30 08:38:45","1f75c3e559b7213887762d5229550c2b","102.182.58.72","Mozilla/5.0 (Windows NT 10.0; Win64; x64) AppleWebKit/537.36 (KHTML, like Gecko) Chrome/138.0.0.0 Safari/537.36 Edg/138.0.0.0","WebKit","Edge","138.0.0.0","Windows","10.0","https://app.prolific.com/","en-US,en;q=0.9","60c8a4ece55be5a30e0ccc5c","6877631c9844ddd5501205fc","6889d9ed2705065916d8fbdd","3","1","60c8a4ece55be5a30e0ccc5c","3","1","2025-07-30T08:46:43.083Z","","","","","","","","","","","AttribQ","","50","","","","","","","","","","","","","","","","","","","","","","","","","","","","",""
"2860","","<div style=""width:500px;"">
  <p>How much control did you have over the ball?</p>
  </div>","33","html-slider-response","41","473424","0.0-5.0-2.6","257","1","2025-07-30 08:38:45","1f75c3e559b7213887762d5229550c2b","102.182.58.72","Mozilla/5.0 (Windows NT 10.0; Win64; x64) AppleWebKit/537.36 (KHTML, like Gecko) Chrome/138.0.0.0 Safari/537.36 Edg/138.0.0.0","WebKit","Edge","138.0.0.0","Windows","10.0","https://app.prolific.com/","en-US,en;q=0.9","60c8a4ece55be5a30e0ccc5c","6877631c9844ddd5501205fc","6889d9ed2705065916d8fbdd","3","1","60c8a4ece55be5a30e0ccc5c","3","1","2025-07-30T08:46:45.946Z","","","","","","","","","","","ControlQ","","50","","","","","","","","","","","","","","","","","","","","","","","","","","","","",""
"3299","","<div style=""width:500px;"">
  <p>How would you describe your current emotional state?</p>
  </div>","34","html-slider-response","42","476725","0.0-5.0-3.6","257","1","2025-07-30 08:38:45","1f75c3e559b7213887762d5229550c2b","102.182.58.72","Mozilla/5.0 (Windows NT 10.0; Win64; x64) AppleWebKit/537.36 (KHTML, like Gecko) Chrome/138.0.0.0 Safari/537.36 Edg/138.0.0.0","WebKit","Edge","138.0.0.0","Windows","10.0","https://app.prolific.com/","en-US,en;q=0.9","60c8a4ece55be5a30e0ccc5c","6877631c9844ddd5501205fc","6889d9ed2705065916d8fbdd","3","1","60c8a4ece55be5a30e0ccc5c","3","1","2025-07-30T08:46:49.247Z","","","","","","","","","","","StressQ","","50","","","","","","","","","","","","","","","","","","","","","","","","","","","","",""
"3096","","<div style=""width:500px;"">
  <p>What best describes how you currently feel?</p>
  </div>","57","html-slider-response","43","479823","0.0-5.0-4.6","257","1","2025-07-30 08:38:45","1f75c3e559b7213887762d5229550c2b","102.182.58.72","Mozilla/5.0 (Windows NT 10.0; Win64; x64) AppleWebKit/537.36 (KHTML, like Gecko) Chrome/138.0.0.0 Safari/537.36 Edg/138.0.0.0","WebKit","Edge","138.0.0.0","Windows","10.0","https://app.prolific.com/","en-US,en;q=0.9","60c8a4ece55be5a30e0ccc5c","6877631c9844ddd5501205fc","6889d9ed2705065916d8fbdd","3","1","60c8a4ece55be5a30e0ccc5c","3","1","2025-07-30T08:46:52.345Z","","","","","","","","","","","MotivationQ","","50","","","","","","","","","","","","","","","","","","","","","","","","","","","","",""
"","","","","ctl-task-cpt","44","532756","0.0-5.0-0.7","257","1","2025-07-30 08:38:45","1f75c3e559b7213887762d5229550c2b","102.182.58.72","Mozilla/5.0 (Windows NT 10.0; Win64; x64) AppleWebKit/537.36 (KHTML, like Gecko) Chrome/138.0.0.0 Safari/537.36 Edg/138.0.0.0","WebKit","Edge","138.0.0.0","Windows","10.0","https://app.prolific.com/","en-US,en;q=0.9","60c8a4ece55be5a30e0ccc5c","6877631c9844ddd5501205fc","6889d9ed2705065916d8fbdd","3","1","60c8a4ece55be5a30e0ccc5c","3","1","2025-07-30T08:47:45.278Z","","","","","","","","","","","","","","win-only","1","g1:NE,g2:SW","0.3","8","0","490210.4","1002.7","6017","49906.9","1","4","8","6","1","-1","-1","0","1","0","1257.2","3000","-2220","[""up"",""right""]","{""num_key_presses"":8,""num_perfect"":2,""num_errors"":0,""num_randdir"":6,""num_randdir_good_moves"":2,""num_whilered"":0,""num_whileblue"":0,""num_blue"":5,""num_good_moves"":3}","[299.22232142857143,293.12857142857143,0.3,299.22232142857143,293.12857142857143,102.6,299.22232142857143,293.12857142857143,203.8,299.22232142857143,293.12857142857143,305.3,299.22232142857143,293.12857142857143,406.1,366.22232142857143,220.12857142857143,509.3,433.22232142857143,143.12857142857143,616.5,446.22232142857143,129.12857142857143,719.5,452.22232142857143,125.12857142857143,824.9,464.22232142857143,110.12857142857143,926.6,539.2223214285714,60.128571428571426,1036,540.2223214285714,60.128571428571426,1136.7,540.2223214285714,60.128571428571426,1238.5,540.2223214285714,60.128571428571426,1339.4,540.2223214285714,60.128571428571426,1452.3,540.2223214285714,60.128571428571426,1554.8,540.2223214285714,60.128571428571426,1662.6,540.2223214285714,60.128571428571426,1764.8,540.2223214285714,60.128571428571426,1873.6,540.2223214285714,60.128571428571426,1975,540.2223214285714,60.128571428571426,2089.4,540.2223214285714,60.128571428571426,2193.1,540.2223214285714,60.128571428571426,2301.8,320.22232142857143,256.12857142857143,2407.3,207.22232142857143,361.12857142857143,2511.6,207.22232142857143,361.12857142857143,2612.8,207.22232142857143,361.12857142857143,2715.6,207.22232142857143,361.12857142857143,2821.9,207.22232142857143,361.12857142857143,2922.9,207.22232142857143,361.12857142857143,3027.2,207.22232142857143,361.12857142857143,3127.8,207.22232142857143,361.12857142857143,3230.1,207.22232142857143,361.12857142857143,3334.7,207.22232142857143,361.12857142857143,3435.4,207.22232142857143,361.12857142857143,3542.1,207.22232142857143,361.12857142857143,3643.8,207.22232142857143,361.12857142857143,3745.4,207.22232142857143,361.12857142857143,3848.5,207.22232142857143,361.12857142857143,3952.7,207.22232142857143,361.12857142857143,4053.7,207.22232142857143,361.12857142857143,4158.9,207.22232142857143,361.12857142857143,4261.1,207.22232142857143,361.12857142857143,4361.1,207.22232142857143,361.12857142857143,4463,207.22232142857143,361.12857142857143,4565.6,207.22232142857143,361.12857142857143,4671.9,207.22232142857143,361.12857142857143,4773.3,207.22232142857143,361.12857142857143,4878.4,207.22232142857143,361.12857142857143,4985.2]","[1445.9,1445.9,1000,0,445.9,""oops"",""right"",""down"",""bad_move"",4239.9,2793,2340.9,1446.9,452.1,""oops"",""right"",""up"",""good_move"",10653.9,6413.2,2353.3,7758.8,541.8,""oops"",""up"",""down"",""bad_move"",13793.4,3138.5,2662.4,10655,476.1,""oops"",""right"",""up"",""good_move"",16770.7,2976.7,2470.1,13794.1,506.6,""smooth"",""left"",""left"",""bad_move"",26995.9,10224.5,2455.3,23920.3,620.3,""oops"",""up"",""down"",""bad_move"",30579.7,3583,3032,26996.8,550.9,""oops"",""right"",""down"",""bad_move"",33229,2647.9,2188,30581.1,459.9,""smooth"",""right"",""right"",""good_move""]","",""
"2542","","<div style=""width:500px;"">
  <p>What determined the result of this run?</p>
  </div>","16","html-slider-response","45","535300","0.0-5.0-1.7","257","1","2025-07-30 08:38:45","1f75c3e559b7213887762d5229550c2b","102.182.58.72","Mozilla/5.0 (Windows NT 10.0; Win64; x64) AppleWebKit/537.36 (KHTML, like Gecko) Chrome/138.0.0.0 Safari/537.36 Edg/138.0.0.0","WebKit","Edge","138.0.0.0","Windows","10.0","https://app.prolific.com/","en-US,en;q=0.9","60c8a4ece55be5a30e0ccc5c","6877631c9844ddd5501205fc","6889d9ed2705065916d8fbdd","3","1","60c8a4ece55be5a30e0ccc5c","3","1","2025-07-30T08:47:47.823Z","","","","","","","","","","","AttribQ","","50","","","","","","","","","","","","","","","","","","","","","","","","","","","","",""
"4181","","<div style=""width:500px;"">
  <p>How much control did you have over the ball?</p>
  </div>","14","html-slider-response","46","539483","0.0-5.0-2.7","257","1","2025-07-30 08:38:45","1f75c3e559b7213887762d5229550c2b","102.182.58.72","Mozilla/5.0 (Windows NT 10.0; Win64; x64) AppleWebKit/537.36 (KHTML, like Gecko) Chrome/138.0.0.0 Safari/537.36 Edg/138.0.0.0","WebKit","Edge","138.0.0.0","Windows","10.0","https://app.prolific.com/","en-US,en;q=0.9","60c8a4ece55be5a30e0ccc5c","6877631c9844ddd5501205fc","6889d9ed2705065916d8fbdd","3","1","60c8a4ece55be5a30e0ccc5c","3","1","2025-07-30T08:47:52.006Z","","","","","","","","","","","ControlQ","","50","","","","","","","","","","","","","","","","","","","","","","","","","","","","",""
"4215","","<div style=""width:500px;"">
  <p>How would you describe your current emotional state?</p>
  </div>","69","html-slider-response","47","543701","0.0-5.0-3.7","257","1","2025-07-30 08:38:45","1f75c3e559b7213887762d5229550c2b","102.182.58.72","Mozilla/5.0 (Windows NT 10.0; Win64; x64) AppleWebKit/537.36 (KHTML, like Gecko) Chrome/138.0.0.0 Safari/537.36 Edg/138.0.0.0","WebKit","Edge","138.0.0.0","Windows","10.0","https://app.prolific.com/","en-US,en;q=0.9","60c8a4ece55be5a30e0ccc5c","6877631c9844ddd5501205fc","6889d9ed2705065916d8fbdd","3","1","60c8a4ece55be5a30e0ccc5c","3","1","2025-07-30T08:47:56.224Z","","","","","","","","","","","StressQ","","50","","","","","","","","","","","","","","","","","","","","","","","","","","","","",""
"4241","","<div style=""width:500px;"">
  <p>What best describes how you currently feel?</p>
  </div>","60","html-slider-response","48","547944","0.0-5.0-4.7","257","1","2025-07-30 08:38:45","1f75c3e559b7213887762d5229550c2b","102.182.58.72","Mozilla/5.0 (Windows NT 10.0; Win64; x64) AppleWebKit/537.36 (KHTML, like Gecko) Chrome/138.0.0.0 Safari/537.36 Edg/138.0.0.0","WebKit","Edge","138.0.0.0","Windows","10.0","https://app.prolific.com/","en-US,en;q=0.9","60c8a4ece55be5a30e0ccc5c","6877631c9844ddd5501205fc","6889d9ed2705065916d8fbdd","3","1","60c8a4ece55be5a30e0ccc5c","3","1","2025-07-30T08:48:00.466Z","","","","","","","","","","","MotivationQ","","50","","","","","","","","","","","","","","","","","","","","","","","","","","","","",""
"","","","","ctl-task-cpt","49","586715","0.0-5.0-0.8","257","1","2025-07-30 08:38:45","1f75c3e559b7213887762d5229550c2b","102.182.58.72","Mozilla/5.0 (Windows NT 10.0; Win64; x64) AppleWebKit/537.36 (KHTML, like Gecko) Chrome/138.0.0.0 Safari/537.36 Edg/138.0.0.0","WebKit","Edge","138.0.0.0","Windows","10.0","https://app.prolific.com/","en-US,en;q=0.9","60c8a4ece55be5a30e0ccc5c","6877631c9844ddd5501205fc","6889d9ed2705065916d8fbdd","3","1","60c8a4ece55be5a30e0ccc5c","3","1","2025-07-30T08:48:39.237Z","","","","","","","","","","","","","","win-only","3","g1:SW,g2:NE","0.2","9","0","558328.6","1112.3","6122.7","35739.9","1","4","4","6","1","-1","-1","0","0","0","1427.7","3000","-2025","[""down"",""left""]","{""num_key_presses"":9,""num_perfect"":1,""num_errors"":0,""num_randdir"":8,""num_randdir_good_moves"":4,""num_whilered"":0,""num_whileblue"":0,""num_blue"":0,""num_good_moves"":5}","[299.22232142857143,299.12857142857143,0.7,299.22232142857143,299.12857142857143,111.2,299.22232142857143,299.12857142857143,217.7,299.22232142857143,299.12857142857143,322.5,299.22232142857143,299.12857142857143,424.2,299.22232142857143,299.12857142857143,526.1,299.22232142857143,299.12857142857143,633.6,223.22232142857143,362.12857142857143,734.3,145.22232142857143,440.12857142857143,839.7,109.22232142857143,478.12857142857143,943.8,92.22232142857143,497.12857142857143,1049.4,68.22232142857143,511.12857142857143,1153.6,55.222321428571426,527.1285714285714,1254.4,55.222321428571426,527.1285714285714,1362.2,55.222321428571426,527.1285714285714,1467.9,55.222321428571426,527.1285714285714,1576.9,55.222321428571426,527.1285714285714,1684.9,55.222321428571426,527.1285714285714,1785.8,55.222321428571426,527.1285714285714,1889.6,55.222321428571426,527.1285714285714,1990.3,55.222321428571426,527.1285714285714,2092.9,55.222321428571426,527.1285714285714,2194.4,55.222321428571426,527.1285714285714,2297.7,55.222321428571426,527.1285714285714,2404.8,213.22232142857143,566.1285714285714,2507.5,332.22232142857143,647.1285714285714,2610.6,368.22232142857143,683.1285714285714,2715,368.22232142857143,683.1285714285714,2816.3,368.22232142857143,683.1285714285714,2919.9,368.22232142857143,683.1285714285714,3022.2,368.22232142857143,683.1285714285714,3125,368.22232142857143,683.1285714285714,3231.9,368.22232142857143,683.1285714285714,3336.6,368.22232142857143,683.1285714285714,3438.4,368.22232142857143,683.1285714285714,3542.1,368.22232142857143,683.1285714285714,3644.1,368.22232142857143,683.1285714285714,3745.4,368.22232142857143,683.1285714285714,3847.6,368.22232142857143,683.1285714285714,3949.6,368.22232142857143,683.1285714285714,4050.2,368.22232142857143,683.1285714285714,4151.2,368.22232142857143,683.1285714285714,4253.7,368.22232142857143,683.1285714285714,4355.9,368.22232142857143,683.1285714285714,4458.2,368.22232142857143,683.1285714285714,4558.8,368.22232142857143,683.1285714285714,4669.7,368.22232142857143,683.1285714285714,4771.6,368.22232142857143,683.1285714285714,4873.6,368.22232142857143,683.1285714285714,4973.7]","[1547.6,1547.6,1000,0,547.6,""oops"",""left"",""down"",""good_move"",5112.6,3564.3,3153.7,1548.3,410.6,""oops"",""down"",""down"",""good_move"",8170.3,3057.3,2665.4,5113,391.9,""oops"",""left"",""left"",""good_move"",11327.6,3156.5,2726.6,8171.1,429.9,""oops"",""left"",""right"",""bad_move"",14039,2710.3,2201.3,11328.7,509,""oops"",""left"",""right"",""bad_move"",17584.9,3545.5,3077.1,14039.4,468.4,""smooth"",""left"",""left"",""good_move"",20533.6,2948.1,2463.2,17585.5,484.9,""oops"",""left"",""left"",""good_move"",23339.4,2805.4,2333.1,20534,472.3,""oops"",""left"",""right"",""bad_move"",26915.8,3575.7,3130.4,23340.1,445.3,""oops"",""left"",""right"",""bad_move""]","",""
"6273","","<div style=""width:500px;"">
  <p>What determined the result of this run?</p>
  </div>","25","html-slider-response","50","592989","0.0-5.0-1.8","257","1","2025-07-30 08:38:45","1f75c3e559b7213887762d5229550c2b","102.182.58.72","Mozilla/5.0 (Windows NT 10.0; Win64; x64) AppleWebKit/537.36 (KHTML, like Gecko) Chrome/138.0.0.0 Safari/537.36 Edg/138.0.0.0","WebKit","Edge","138.0.0.0","Windows","10.0","https://app.prolific.com/","en-US,en;q=0.9","60c8a4ece55be5a30e0ccc5c","6877631c9844ddd5501205fc","6889d9ed2705065916d8fbdd","3","1","60c8a4ece55be5a30e0ccc5c","3","1","2025-07-30T08:48:45.511Z","","","","","","","","","","","AttribQ","","50","","","","","","","","","","","","","","","","","","","","","","","","","","","","",""
"2738","","<div style=""width:500px;"">
  <p>How much control did you have over the ball?</p>
  </div>","34","html-slider-response","51","595729","0.0-5.0-2.8","257","1","2025-07-30 08:38:45","1f75c3e559b7213887762d5229550c2b","102.182.58.72","Mozilla/5.0 (Windows NT 10.0; Win64; x64) AppleWebKit/537.36 (KHTML, like Gecko) Chrome/138.0.0.0 Safari/537.36 Edg/138.0.0.0","WebKit","Edge","138.0.0.0","Windows","10.0","https://app.prolific.com/","en-US,en;q=0.9","60c8a4ece55be5a30e0ccc5c","6877631c9844ddd5501205fc","6889d9ed2705065916d8fbdd","3","1","60c8a4ece55be5a30e0ccc5c","3","1","2025-07-30T08:48:48.251Z","","","","","","","","","","","ControlQ","","50","","","","","","","","","","","","","","","","","","","","","","","","","","","","",""
"2402","","<div style=""width:500px;"">
  <p>How would you describe your current emotional state?</p>
  </div>","44","html-slider-response","52","598133","0.0-5.0-3.8","257","1","2025-07-30 08:38:45","1f75c3e559b7213887762d5229550c2b","102.182.58.72","Mozilla/5.0 (Windows NT 10.0; Win64; x64) AppleWebKit/537.36 (KHTML, like Gecko) Chrome/138.0.0.0 Safari/537.36 Edg/138.0.0.0","WebKit","Edge","138.0.0.0","Windows","10.0","https://app.prolific.com/","en-US,en;q=0.9","60c8a4ece55be5a30e0ccc5c","6877631c9844ddd5501205fc","6889d9ed2705065916d8fbdd","3","1","60c8a4ece55be5a30e0ccc5c","3","1","2025-07-30T08:48:50.655Z","","","","","","","","","","","StressQ","","50","","","","","","","","","","","","","","","","","","","","","","","","","","","","",""
"2483","","<div style=""width:500px;"">
  <p>What best describes how you currently feel?</p>
  </div>","56","html-slider-response","53","600618","0.0-5.0-4.8","257","1","2025-07-30 08:38:45","1f75c3e559b7213887762d5229550c2b","102.182.58.72","Mozilla/5.0 (Windows NT 10.0; Win64; x64) AppleWebKit/537.36 (KHTML, like Gecko) Chrome/138.0.0.0 Safari/537.36 Edg/138.0.0.0","WebKit","Edge","138.0.0.0","Windows","10.0","https://app.prolific.com/","en-US,en;q=0.9","60c8a4ece55be5a30e0ccc5c","6877631c9844ddd5501205fc","6889d9ed2705065916d8fbdd","3","1","60c8a4ece55be5a30e0ccc5c","3","1","2025-07-30T08:48:53.140Z","","","","","","","","","","","MotivationQ","","50","","","","","","","","","","","","","","","","","","","","","","","","","","","","",""
"","","","","ctl-task-cpt","54","623852","0.0-5.0-0.9","257","1","2025-07-30 08:38:45","1f75c3e559b7213887762d5229550c2b","102.182.58.72","Mozilla/5.0 (Windows NT 10.0; Win64; x64) AppleWebKit/537.36 (KHTML, like Gecko) Chrome/138.0.0.0 Safari/537.36 Edg/138.0.0.0","WebKit","Edge","138.0.0.0","Windows","10.0","https://app.prolific.com/","en-US,en;q=0.9","60c8a4ece55be5a30e0ccc5c","6877631c9844ddd5501205fc","6889d9ed2705065916d8fbdd","3","1","60c8a4ece55be5a30e0ccc5c","3","1","2025-07-30T08:49:16.374Z","","","","","","","","","","","","","","win-only","1","g1:NE,g2:SW","0.4","10","0","611010","981.9","5996.2","20203.4","1","4","8","6","1","1","1","1","0","0.007575757575757576","1651.4","3000","1645","[""up"",""right""]","{""num_key_presses"":4,""num_perfect"":2,""num_errors"":0,""num_randdir"":2,""num_randdir_good_moves"":2,""num_whilered"":0,""num_whileblue"":0,""num_blue"":1,""num_good_moves"":4}","[298.22232142857143,292.12857142857143,0.3,298.22232142857143,292.12857142857143,101.1,298.22232142857143,292.12857142857143,204.5,298.22232142857143,292.12857142857143,313.6,298.22232142857143,292.12857142857143,414.1,466.22232142857143,134.12857142857143,516.4,564.2223214285714,78.12857142857143,619,599.2223214285714,63.128571428571426,722.7,602.2223214285714,60.128571428571426,824.4,600.2223214285714,58.128571428571426,928.2,600.2223214285714,58.128571428571426,1032.1,600.2223214285714,58.128571428571426,1132.7,600.2223214285714,58.128571428571426,1235.6,600.2223214285714,58.128571428571426,1341.7,568.2223214285714,42.128571428571426,1455.2,563.2223214285714,40.128571428571426,1563.2,563.2223214285714,40.128571428571426,1666.3,563.2223214285714,40.128571428571426,1767.2,563.2223214285714,40.128571428571426,1870.7,563.2223214285714,40.128571428571426,1971.7,563.2223214285714,40.128571428571426,2082.8,563.2223214285714,40.128571428571426,2183.6,563.2223214285714,40.128571428571426,2284.2,563.2223214285714,40.128571428571426,2387.8,563.2223214285714,40.128571428571426,2493.9,410.22232142857143,196.12857142857143,2604.5,407.22232142857143,207.12857142857143,2720.5,407.22232142857143,207.12857142857143,2835.6,407.22232142857143,207.12857142857143,2944.5,407.22232142857143,207.12857142857143,3047.8,407.22232142857143,207.12857142857143,3152,407.22232142857143,207.12857142857143,3254.3,407.22232142857143,207.12857142857143,3364.1,407.22232142857143,207.12857142857143,3465.8,407.22232142857143,207.12857142857143,3577.4,407.22232142857143,207.12857142857143,3682.4,407.22232142857143,207.12857142857143,3784.3,407.22232142857143,207.12857142857143,3886.1,407.22232142857143,207.12857142857143,3989.1,407.22232142857143,207.12857142857143,4094.4,407.22232142857143,207.12857142857143,4197.3,407.22232142857143,207.12857142857143,4299.6,407.22232142857143,207.12857142857143,4402.7,407.22232142857143,207.12857142857143,4506.6,407.22232142857143,207.12857142857143,4614,407.22232142857143,207.12857142857143,4716.1,407.22232142857143,207.12857142857143,4826,407.22232142857143,207.12857142857143,4932.2]","[1506.6,1506.6,1000,0,506.6,""smooth"",""right"",""right"",""good_move"",8337.8,6830.6,2698.7,5004.6,634.5,""oops"",""up"",""right"",""good_move"",11166.3,2828.2,2302.4,8338.1,525.8,""oops"",""up"",""up"",""good_move"",14064.9,2897.8,2502.2,11167.1,395.6,""smooth"",""up"",""up"",""good_move""]","",""
"3507","","<div style=""width:500px;"">
  <p>What determined the result of this run?</p>
  </div>","72","html-slider-response","55","627360","0.0-5.0-1.9","257","1","2025-07-30 08:38:45","1f75c3e559b7213887762d5229550c2b","102.182.58.72","Mozilla/5.0 (Windows NT 10.0; Win64; x64) AppleWebKit/537.36 (KHTML, like Gecko) Chrome/138.0.0.0 Safari/537.36 Edg/138.0.0.0","WebKit","Edge","138.0.0.0","Windows","10.0","https://app.prolific.com/","en-US,en;q=0.9","60c8a4ece55be5a30e0ccc5c","6877631c9844ddd5501205fc","6889d9ed2705065916d8fbdd","3","1","60c8a4ece55be5a30e0ccc5c","3","1","2025-07-30T08:49:19.883Z","","","","","","","","","","","AttribQ","","50","","","","","","","","","","","","","","","","","","","","","","","","","","","","",""
"2668","","<div style=""width:500px;"">
  <p>How much control did you have over the ball?</p>
  </div>","58","html-slider-response","56","630032","0.0-5.0-2.9","257","1","2025-07-30 08:38:45","1f75c3e559b7213887762d5229550c2b","102.182.58.72","Mozilla/5.0 (Windows NT 10.0; Win64; x64) AppleWebKit/537.36 (KHTML, like Gecko) Chrome/138.0.0.0 Safari/537.36 Edg/138.0.0.0","WebKit","Edge","138.0.0.0","Windows","10.0","https://app.prolific.com/","en-US,en;q=0.9","60c8a4ece55be5a30e0ccc5c","6877631c9844ddd5501205fc","6889d9ed2705065916d8fbdd","3","1","60c8a4ece55be5a30e0ccc5c","3","1","2025-07-30T08:49:22.555Z","","","","","","","","","","","ControlQ","","50","","","","","","","","","","","","","","","","","","","","","","","","","","","","",""
"3838","","<div style=""width:500px;"">
  <p>How would you describe your current emotional state?</p>
  </div>","34","html-slider-response","57","633873","0.0-5.0-3.9","257","1","2025-07-30 08:38:45","1f75c3e559b7213887762d5229550c2b","102.182.58.72","Mozilla/5.0 (Windows NT 10.0; Win64; x64) AppleWebKit/537.36 (KHTML, like Gecko) Chrome/138.0.0.0 Safari/537.36 Edg/138.0.0.0","WebKit","Edge","138.0.0.0","Windows","10.0","https://app.prolific.com/","en-US,en;q=0.9","60c8a4ece55be5a30e0ccc5c","6877631c9844ddd5501205fc","6889d9ed2705065916d8fbdd","3","1","60c8a4ece55be5a30e0ccc5c","3","1","2025-07-30T08:49:26.395Z","","","","","","","","","","","StressQ","","50","","","","","","","","","","","","","","","","","","","","","","","","","","","","",""
"3714","","<div style=""width:500px;"">
  <p>What best describes how you currently feel?</p>
  </div>","65","html-slider-response","58","637589","0.0-5.0-4.9","257","1","2025-07-30 08:38:45","1f75c3e559b7213887762d5229550c2b","102.182.58.72","Mozilla/5.0 (Windows NT 10.0; Win64; x64) AppleWebKit/537.36 (KHTML, like Gecko) Chrome/138.0.0.0 Safari/537.36 Edg/138.0.0.0","WebKit","Edge","138.0.0.0","Windows","10.0","https://app.prolific.com/","en-US,en;q=0.9","60c8a4ece55be5a30e0ccc5c","6877631c9844ddd5501205fc","6889d9ed2705065916d8fbdd","3","1","60c8a4ece55be5a30e0ccc5c","3","1","2025-07-30T08:49:30.111Z","","","","","","","","","","","MotivationQ","","50","","","","","","","","","","","","","","","","","","","","","","","","","","","","",""
"","","","","ctl-task-cpt","59","674887","0.0-5.0-0.10","257","1","2025-07-30 08:38:45","1f75c3e559b7213887762d5229550c2b","102.182.58.72","Mozilla/5.0 (Windows NT 10.0; Win64; x64) AppleWebKit/537.36 (KHTML, like Gecko) Chrome/138.0.0.0 Safari/537.36 Edg/138.0.0.0","WebKit","Edge","138.0.0.0","Windows","10.0","https://app.prolific.com/","en-US,en;q=0.9","60c8a4ece55be5a30e0ccc5c","6877631c9844ddd5501205fc","6889d9ed2705065916d8fbdd","3","1","60c8a4ece55be5a30e0ccc5c","3","1","2025-07-30T08:50:07.410Z","","","","","","","","","","","","","","win-only","3","g1:SW,g2:NE","0.5","11","0","647976.5","2375.2","7378","34273.9","1","4","4","6","1","-1","-1","0","1","0","1395.4","3000","-2040","[""down"",""left""]","{""num_key_presses"":6,""num_perfect"":2,""num_errors"":0,""num_randdir"":4,""num_randdir_good_moves"":1,""num_whilered"":0,""num_whileblue"":0,""num_blue"":2,""num_good_moves"":2}","[296.22232142857143,291.12857142857143,0.4,296.22232142857143,291.12857142857143,100.1,296.22232142857143,291.12857142857143,204.7,296.22232142857143,291.12857142857143,307.3,296.22232142857143,291.12857142857143,409.1,296.22232142857143,291.12857142857143,513.4,296.22232142857143,291.12857142857143,619.9,192.22232142857143,400.12857142857143,725.4,155.22232142857143,444.12857142857143,826.8,122.22232142857143,469.12857142857143,937.5,109.22232142857143,478.12857142857143,1041.2,72.22232142857143,534.1285714285714,1143,69.22232142857143,538.1285714285714,1246.8,69.22232142857143,538.1285714285714,1353.8,69.22232142857143,538.1285714285714,1454.9,69.22232142857143,538.1285714285714,1560.9,69.22232142857143,538.1285714285714,1664.8,69.22232142857143,538.1285714285714,1767,69.22232142857143,538.1285714285714,1867.2,69.22232142857143,538.1285714285714,1972.4,69.22232142857143,538.1285714285714,2077.7,69.22232142857143,538.1285714285714,2177.9,102.22232142857143,543.1285714285714,2279.5,415.22232142857143,564.1285714285714,2379.8,455.22232142857143,568.1285714285714,2480.8,455.22232142857143,568.1285714285714,2580.8,455.22232142857143,568.1285714285714,2681.8,455.22232142857143,568.1285714285714,2791.8,455.22232142857143,568.1285714285714,2899.5,455.22232142857143,568.1285714285714,3002.7,455.22232142857143,568.1285714285714,3104.8,455.22232142857143,568.1285714285714,3212.8,455.22232142857143,568.1285714285714,3315.6,455.22232142857143,568.1285714285714,3421.5,455.22232142857143,568.1285714285714,3527,455.22232142857143,568.1285714285714,3628.3,455.22232142857143,568.1285714285714,3737.1,455.22232142857143,568.1285714285714,3839.8,455.22232142857143,568.1285714285714,3941.8,455.22232142857143,568.1285714285714,4051.9,455.22232142857143,568.1285714285714,4156.8,455.22232142857143,568.1285714285714,4258.2,455.22232142857143,568.1285714285714,4361.9,455.22232142857143,568.1285714285714,4467.9,455.22232142857143,568.1285714285714,4578.1,455.22232142857143,568.1285714285714,4679.7,455.22232142857143,568.1285714285714,4784.8,455.22232142857143,568.1285714285714,4892.1,455.22232142857143,568.1285714285714,4999.7]","[1579.2,1579.2,1000,0,579.2,""oops"",""left"",""right"",""bad_move"",5454.4,3874.7,3007.9,1579.7,866.8,""oops"",""down"",""up"",""bad_move"",8398.1,2941.6,2178.4,5456.6,763.1,""smooth"",""up"",""up"",""bad_move"",14994.2,6595.6,3034.3,11489.3,470.6,""oops"",""left"",""left"",""good_move"",17734.1,2739.3,1721.8,14994.8,1017.5,""oops"",""left"",""up"",""bad_move"",20647.5,2912.7,2324.1,17734.8,588.6,""smooth"",""left"",""left"",""good_move""]","",""
"2763","","<div style=""width:500px;"">
  <p>What determined the result of this run?</p>
  </div>","34","html-slider-response","60","677652","0.0-5.0-1.10","257","1","2025-07-30 08:38:45","1f75c3e559b7213887762d5229550c2b","102.182.58.72","Mozilla/5.0 (Windows NT 10.0; Win64; x64) AppleWebKit/537.36 (KHTML, like Gecko) Chrome/138.0.0.0 Safari/537.36 Edg/138.0.0.0","WebKit","Edge","138.0.0.0","Windows","10.0","https://app.prolific.com/","en-US,en;q=0.9","60c8a4ece55be5a30e0ccc5c","6877631c9844ddd5501205fc","6889d9ed2705065916d8fbdd","3","1","60c8a4ece55be5a30e0ccc5c","3","1","2025-07-30T08:50:10.174Z","","","","","","","","","","","AttribQ","","50","","","","","","","","","","","","","","","","","","","","","","","","","","","","",""
"3285","","<div style=""width:500px;"">
  <p>How much control did you have over the ball?</p>
  </div>","17","html-slider-response","61","680938","0.0-5.0-2.10","257","1","2025-07-30 08:38:45","1f75c3e559b7213887762d5229550c2b","102.182.58.72","Mozilla/5.0 (Windows NT 10.0; Win64; x64) AppleWebKit/537.36 (KHTML, like Gecko) Chrome/138.0.0.0 Safari/537.36 Edg/138.0.0.0","WebKit","Edge","138.0.0.0","Windows","10.0","https://app.prolific.com/","en-US,en;q=0.9","60c8a4ece55be5a30e0ccc5c","6877631c9844ddd5501205fc","6889d9ed2705065916d8fbdd","3","1","60c8a4ece55be5a30e0ccc5c","3","1","2025-07-30T08:50:13.460Z","","","","","","","","","","","ControlQ","","50","","","","","","","","","","","","","","","","","","","","","","","","","","","","",""
"3589","","<div style=""width:500px;"">
  <p>How would you describe your current emotional state?</p>
  </div>","65","html-slider-response","62","684529","0.0-5.0-3.10","257","1","2025-07-30 08:38:45","1f75c3e559b7213887762d5229550c2b","102.182.58.72","Mozilla/5.0 (Windows NT 10.0; Win64; x64) AppleWebKit/537.36 (KHTML, like Gecko) Chrome/138.0.0.0 Safari/537.36 Edg/138.0.0.0","WebKit","Edge","138.0.0.0","Windows","10.0","https://app.prolific.com/","en-US,en;q=0.9","60c8a4ece55be5a30e0ccc5c","6877631c9844ddd5501205fc","6889d9ed2705065916d8fbdd","3","1","60c8a4ece55be5a30e0ccc5c","3","1","2025-07-30T08:50:17.051Z","","","","","","","","","","","StressQ","","50","","","","","","","","","","","","","","","","","","","","","","","","","","","","",""
"3611","","<div style=""width:500px;"">
  <p>What best describes how you currently feel?</p>
  </div>","35","html-slider-response","63","688141","0.0-5.0-4.10","257","1","2025-07-30 08:38:45","1f75c3e559b7213887762d5229550c2b","102.182.58.72","Mozilla/5.0 (Windows NT 10.0; Win64; x64) AppleWebKit/537.36 (KHTML, like Gecko) Chrome/138.0.0.0 Safari/537.36 Edg/138.0.0.0","WebKit","Edge","138.0.0.0","Windows","10.0","https://app.prolific.com/","en-US,en;q=0.9","60c8a4ece55be5a30e0ccc5c","6877631c9844ddd5501205fc","6889d9ed2705065916d8fbdd","3","1","60c8a4ece55be5a30e0ccc5c","3","1","2025-07-30T08:50:20.663Z","","","","","","","","","","","MotivationQ","","50","","","","","","","","","","","","","","","","","","","","","","","","","","","","",""
"","","","","ctl-task-cpt","64","715856","0.0-5.0-0.11","257","1","2025-07-30 08:38:45","1f75c3e559b7213887762d5229550c2b","102.182.58.72","Mozilla/5.0 (Windows NT 10.0; Win64; x64) AppleWebKit/537.36 (KHTML, like Gecko) Chrome/138.0.0.0 Safari/537.36 Edg/138.0.0.0","WebKit","Edge","138.0.0.0","Windows","10.0","https://app.prolific.com/","en-US,en;q=0.9","60c8a4ece55be5a30e0ccc5c","6877631c9844ddd5501205fc","6889d9ed2705065916d8fbdd","3","1","60c8a4ece55be5a30e0ccc5c","3","1","2025-07-30T08:50:48.378Z","","","","","","","","","","","","","","win-only","0","g1:NW,g2:SE","0.6","12","0","698526.9","2118.1","7120.4","24694.4","1","4","8","6","1","1","1","1","0","0.007575757575757576","1383.1","3000","935","[""left"",""up""]","{""num_key_presses"":6,""num_perfect"":5,""num_errors"":0,""num_randdir"":1,""num_randdir_good_moves"":0,""num_whilered"":0,""num_whileblue"":0,""num_blue"":0,""num_good_moves"":5}","[299.22232142857143,300.12857142857143,0.3,299.22232142857143,300.12857142857143,103.3,299.22232142857143,300.12857142857143,203.9,299.22232142857143,300.12857142857143,320.4,299.22232142857143,300.12857142857143,420.9,218.22232142857143,227.12857142857143,530.3,169.22232142857143,154.12857142857143,632.2,141.22232142857143,124.12857142857143,734.5,132.22232142857143,114.12857142857143,836.1,120.22232142857143,103.12857142857143,940.9,60.222321428571426,61.128571428571426,1044.9,46.222321428571426,47.128571428571426,1145.6,46.222321428571426,47.128571428571426,1251.1,46.222321428571426,47.128571428571426,1354.7,46.222321428571426,47.128571428571426,1459.8,46.222321428571426,47.128571428571426,1569.4,46.222321428571426,47.128571428571426,1683.3,46.222321428571426,47.128571428571426,1783.9,46.222321428571426,47.128571428571426,1891.4,46.222321428571426,47.128571428571426,1994,46.222321428571426,47.128571428571426,2108.2,80.22232142857143,88.12857142857143,2217,152.22232142857143,192.12857142857143,2318.3,204.22232142857143,273.12857142857143,2435.3,204.22232142857143,273.12857142857143,2541.6,204.22232142857143,273.12857142857143,2646.9,204.22232142857143,273.12857142857143,2753.1,204.22232142857143,273.12857142857143,2854.4,204.22232142857143,273.12857142857143,2954.5,204.22232142857143,273.12857142857143,3056.4,204.22232142857143,273.12857142857143,3157.9,204.22232142857143,273.12857142857143,3261.3,204.22232142857143,273.12857142857143,3369.5,204.22232142857143,273.12857142857143,3476.2,204.22232142857143,273.12857142857143,3584.2,204.22232142857143,273.12857142857143,3700.8,204.22232142857143,273.12857142857143,3803.6,204.22232142857143,273.12857142857143,3912,204.22232142857143,273.12857142857143,4016.1,204.22232142857143,273.12857142857143,4119.9,204.22232142857143,273.12857142857143,4233.3,204.22232142857143,273.12857142857143,4334.4,204.22232142857143,273.12857142857143,4436.8,204.22232142857143,273.12857142857143,4537,204.22232142857143,273.12857142857143,4640.6,204.22232142857143,273.12857142857143,4742.4,204.22232142857143,273.12857142857143,4844.9,204.22232142857143,273.12857142857143,4951.4]","[1488.1,1488.1,1000,0,488.1,""smooth"",""left"",""left"",""good_move"",4446.3,2957.7,2228.7,1488.6,729,""smooth"",""left"",""left"",""good_move"",8485.4,4038.4,3484.9,4447,553.5,""smooth"",""up"",""up"",""good_move"",11787.4,3301,2748.4,8486.4,552.6,""oops"",""up"",""down"",""bad_move"",14354.3,2566.6,2149.9,11787.7,416.7,""smooth"",""up"",""up"",""good_move"",17437.8,3083.2,2542.1,14354.6,541.1,""smooth"",""up"",""up"",""good_move""]","",""
"8292","","<div style=""width:500px;"">
  <p>What determined the result of this run?</p>
  </div>","71","html-slider-response","65","724149","0.0-5.0-1.11","257","1","2025-07-30 08:38:45","1f75c3e559b7213887762d5229550c2b","102.182.58.72","Mozilla/5.0 (Windows NT 10.0; Win64; x64) AppleWebKit/537.36 (KHTML, like Gecko) Chrome/138.0.0.0 Safari/537.36 Edg/138.0.0.0","WebKit","Edge","138.0.0.0","Windows","10.0","https://app.prolific.com/","en-US,en;q=0.9","60c8a4ece55be5a30e0ccc5c","6877631c9844ddd5501205fc","6889d9ed2705065916d8fbdd","3","1","60c8a4ece55be5a30e0ccc5c","3","1","2025-07-30T08:50:56.671Z","","","","","","","","","","","AttribQ","","50","","","","","","","","","","","","","","","","","","","","","","","","","","","","",""
"3008","","<div style=""width:500px;"">
  <p>How much control did you have over the ball?</p>
  </div>","60","html-slider-response","66","727158","0.0-5.0-2.11","257","1","2025-07-30 08:38:45","1f75c3e559b7213887762d5229550c2b","102.182.58.72","Mozilla/5.0 (Windows NT 10.0; Win64; x64) AppleWebKit/537.36 (KHTML, like Gecko) Chrome/138.0.0.0 Safari/537.36 Edg/138.0.0.0","WebKit","Edge","138.0.0.0","Windows","10.0","https://app.prolific.com/","en-US,en;q=0.9","60c8a4ece55be5a30e0ccc5c","6877631c9844ddd5501205fc","6889d9ed2705065916d8fbdd","3","1","60c8a4ece55be5a30e0ccc5c","3","1","2025-07-30T08:50:59.680Z","","","","","","","","","","","ControlQ","","50","","","","","","","","","","","","","","","","","","","","","","","","","","","","",""
"3537","","<div style=""width:500px;"">
  <p>How would you describe your current emotional state?</p>
  </div>","44","html-slider-response","67","730697","0.0-5.0-3.11","257","1","2025-07-30 08:38:45","1f75c3e559b7213887762d5229550c2b","102.182.58.72","Mozilla/5.0 (Windows NT 10.0; Win64; x64) AppleWebKit/537.36 (KHTML, like Gecko) Chrome/138.0.0.0 Safari/537.36 Edg/138.0.0.0","WebKit","Edge","138.0.0.0","Windows","10.0","https://app.prolific.com/","en-US,en;q=0.9","60c8a4ece55be5a30e0ccc5c","6877631c9844ddd5501205fc","6889d9ed2705065916d8fbdd","3","1","60c8a4ece55be5a30e0ccc5c","3","1","2025-07-30T08:51:03.219Z","","","","","","","","","","","StressQ","","50","","","","","","","","","","","","","","","","","","","","","","","","","","","","",""
"3100","","<div style=""width:500px;"">
  <p>What best describes how you currently feel?</p>
  </div>","57","html-slider-response","68","733799","0.0-5.0-4.11","257","1","2025-07-30 08:38:45","1f75c3e559b7213887762d5229550c2b","102.182.58.72","Mozilla/5.0 (Windows NT 10.0; Win64; x64) AppleWebKit/537.36 (KHTML, like Gecko) Chrome/138.0.0.0 Safari/537.36 Edg/138.0.0.0","WebKit","Edge","138.0.0.0","Windows","10.0","https://app.prolific.com/","en-US,en;q=0.9","60c8a4ece55be5a30e0ccc5c","6877631c9844ddd5501205fc","6889d9ed2705065916d8fbdd","3","1","60c8a4ece55be5a30e0ccc5c","3","1","2025-07-30T08:51:06.321Z","","","","","","","","","","","MotivationQ","","50","","","","","","","","","","","","","","","","","","","","","","","","","","","","",""
"","","","","ctl-task-cpt","69","760833","0.0-5.0-0.12","257","1","2025-07-30 08:38:45","1f75c3e559b7213887762d5229550c2b","102.182.58.72","Mozilla/5.0 (Windows NT 10.0; Win64; x64) AppleWebKit/537.36 (KHTML, like Gecko) Chrome/138.0.0.0 Safari/537.36 Edg/138.0.0.0","WebKit","Edge","138.0.0.0","Windows","10.0","https://app.prolific.com/","en-US,en;q=0.9","60c8a4ece55be5a30e0ccc5c","6877631c9844ddd5501205fc","6889d9ed2705065916d8fbdd","3","1","60c8a4ece55be5a30e0ccc5c","3","1","2025-07-30T08:51:33.355Z","","","","","","","","","","","","","","win-only","3","g1:SW,g2:NE","0.7","13","0","744182.1","1176.9","6178.8","24013.9","1","4","8","6","1","1","1","2","1","0.015151515151515152","1277.5","3000","1800","[""down"",""left""]","{""num_key_presses"":4,""num_perfect"":3,""num_errors"":0,""num_randdir"":1,""num_randdir_good_moves"":1,""num_whilered"":0,""num_whileblue"":0,""num_blue"":2,""num_good_moves"":4}","[297.22232142857143,295.12857142857143,0.2,297.22232142857143,295.12857142857143,101,297.22232142857143,295.12857142857143,201.3,297.22232142857143,295.12857142857143,304.4,297.22232142857143,295.12857142857143,409.6,297.22232142857143,295.12857142857143,516.8,171.22232142857143,428.12857142857143,616.8,136.22232142857143,468.12857142857143,719.4,111.22232142857143,491.12857142857143,831,88.22232142857143,516.1285714285714,935.7,68.22232142857143,528.1285714285714,1037.7,68.22232142857143,528.1285714285714,1141.1,68.22232142857143,528.1285714285714,1252.9,68.22232142857143,528.1285714285714,1355,68.22232142857143,528.1285714285714,1459.6,68.22232142857143,528.1285714285714,1565.3,68.22232142857143,528.1285714285714,1667.2,68.22232142857143,528.1285714285714,1774.8,68.22232142857143,528.1285714285714,1881.6,68.22232142857143,528.1285714285714,1982.6,68.22232142857143,528.1285714285714,2084.2,68.22232142857143,528.1285714285714,2192.8,68.22232142857143,528.1285714285714,2300.5,68.22232142857143,528.1285714285714,2409.4,173.22232142857143,535.1285714285714,2515.2,283.22232142857143,539.1285714285714,2615.5,351.22232142857143,547.1285714285714,2716.6,351.22232142857143,547.1285714285714,2818.8,351.22232142857143,547.1285714285714,2919.8,351.22232142857143,547.1285714285714,3026.7,351.22232142857143,547.1285714285714,3131.8,351.22232142857143,547.1285714285714,3232.3,351.22232142857143,547.1285714285714,3334,351.22232142857143,547.1285714285714,3434.7,351.22232142857143,547.1285714285714,3536.8,351.22232142857143,547.1285714285714,3639.7,351.22232142857143,547.1285714285714,3741.3,324.22232142857143,554.1285714285714,3847.4,294.22232142857143,555.1285714285714,3955.7,447.22232142857143,525.1285714285714,4064.8,483.22232142857143,528.1285714285714,4165.5,483.22232142857143,528.1285714285714,4270,483.22232142857143,528.1285714285714,4383.1,483.22232142857143,528.1285714285714,4484.4,483.22232142857143,528.1285714285714,4592.4,483.22232142857143,528.1285714285714,4693.8,483.22232142857143,528.1285714285714,4800.4,483.22232142857143,528.1285714285714,4903.6]","[5394.7,5394.7,2779.4,2007.3,608,""oops"",""left"",""left"",""good_move"",10877.6,5482.4,2250.8,8166.5,460.3,""smooth"",""left"",""left"",""good_move"",14368.7,3490.7,3055.8,10878,434.9,""smooth"",""down"",""down"",""good_move"",17693.7,3324.4,2873.2,14369.3,451.2,""smooth"",""down"",""down"",""good_move""]","",""
"4620","","<div style=""width:500px;"">
  <p>What determined the result of this run?</p>
  </div>","69","html-slider-response","70","765454","0.0-5.0-1.12","257","1","2025-07-30 08:38:45","1f75c3e559b7213887762d5229550c2b","102.182.58.72","Mozilla/5.0 (Windows NT 10.0; Win64; x64) AppleWebKit/537.36 (KHTML, like Gecko) Chrome/138.0.0.0 Safari/537.36 Edg/138.0.0.0","WebKit","Edge","138.0.0.0","Windows","10.0","https://app.prolific.com/","en-US,en;q=0.9","60c8a4ece55be5a30e0ccc5c","6877631c9844ddd5501205fc","6889d9ed2705065916d8fbdd","3","1","60c8a4ece55be5a30e0ccc5c","3","1","2025-07-30T08:51:37.976Z","","","","","","","","","","","AttribQ","","50","","","","","","","","","","","","","","","","","","","","","","","","","","","","",""
"3266","","<div style=""width:500px;"">
  <p>How much control did you have over the ball?</p>
  </div>","64","html-slider-response","71","768721","0.0-5.0-2.12","257","1","2025-07-30 08:38:45","1f75c3e559b7213887762d5229550c2b","102.182.58.72","Mozilla/5.0 (Windows NT 10.0; Win64; x64) AppleWebKit/537.36 (KHTML, like Gecko) Chrome/138.0.0.0 Safari/537.36 Edg/138.0.0.0","WebKit","Edge","138.0.0.0","Windows","10.0","https://app.prolific.com/","en-US,en;q=0.9","60c8a4ece55be5a30e0ccc5c","6877631c9844ddd5501205fc","6889d9ed2705065916d8fbdd","3","1","60c8a4ece55be5a30e0ccc5c","3","1","2025-07-30T08:51:41.243Z","","","","","","","","","","","ControlQ","","50","","","","","","","","","","","","","","","","","","","","","","","","","","","","",""
"3535","","<div style=""width:500px;"">
  <p>How would you describe your current emotional state?</p>
  </div>","34","html-slider-response","72","772258","0.0-5.0-3.12","257","1","2025-07-30 08:38:45","1f75c3e559b7213887762d5229550c2b","102.182.58.72","Mozilla/5.0 (Windows NT 10.0; Win64; x64) AppleWebKit/537.36 (KHTML, like Gecko) Chrome/138.0.0.0 Safari/537.36 Edg/138.0.0.0","WebKit","Edge","138.0.0.0","Windows","10.0","https://app.prolific.com/","en-US,en;q=0.9","60c8a4ece55be5a30e0ccc5c","6877631c9844ddd5501205fc","6889d9ed2705065916d8fbdd","3","1","60c8a4ece55be5a30e0ccc5c","3","1","2025-07-30T08:51:44.780Z","","","","","","","","","","","StressQ","","50","","","","","","","","","","","","","","","","","","","","","","","","","","","","",""
"2828","","<div style=""width:500px;"">
  <p>What best describes how you currently feel?</p>
  </div>","40","html-slider-response","73","775087","0.0-5.0-4.12","257","1","2025-07-30 08:38:45","1f75c3e559b7213887762d5229550c2b","102.182.58.72","Mozilla/5.0 (Windows NT 10.0; Win64; x64) AppleWebKit/537.36 (KHTML, like Gecko) Chrome/138.0.0.0 Safari/537.36 Edg/138.0.0.0","WebKit","Edge","138.0.0.0","Windows","10.0","https://app.prolific.com/","en-US,en;q=0.9","60c8a4ece55be5a30e0ccc5c","6877631c9844ddd5501205fc","6889d9ed2705065916d8fbdd","3","1","60c8a4ece55be5a30e0ccc5c","3","1","2025-07-30T08:51:47.609Z","","","","","","","","","","","MotivationQ","","50","","","","","","","","","","","","","","","","","","","","","","","","","","","","",""
"","","","","ctl-task-cpt","74","799562","0.0-5.0-0.13","257","1","2025-07-30 08:38:45","1f75c3e559b7213887762d5229550c2b","102.182.58.72","Mozilla/5.0 (Windows NT 10.0; Win64; x64) AppleWebKit/537.36 (KHTML, like Gecko) Chrome/138.0.0.0 Safari/537.36 Edg/138.0.0.0","WebKit","Edge","138.0.0.0","Windows","10.0","https://app.prolific.com/","en-US,en;q=0.9","60c8a4ece55be5a30e0ccc5c","6877631c9844ddd5501205fc","6889d9ed2705065916d8fbdd","3","1","60c8a4ece55be5a30e0ccc5c","3","1","2025-07-30T08:52:12.084Z","","","","","","","","","","","","","","win-only","1","g1:NE,g2:SW","0.8","14","0","785476.3","1189.5","6195.8","21458.1","1","4","4","6","1","1","0","2","2","0.015151515151515152","1131","3000","1420","[""up"",""right""]","{""num_key_presses"":6,""num_perfect"":3,""num_errors"":1,""num_randdir"":2,""num_randdir_good_moves"":1,""num_whilered"":0,""num_whileblue"":1,""num_blue"":1,""num_good_moves"":5}","[294.22232142857143,296.12857142857143,0.3,294.22232142857143,296.12857142857143,103.7,294.22232142857143,296.12857142857143,210.3,294.22232142857143,296.12857142857143,311.5,294.22232142857143,296.12857142857143,412.1,363.22232142857143,204.12857142857143,516.1,475.22232142857143,72.12857142857143,619.9,526.2223214285714,26.128571428571426,722.2,529.2223214285714,25.128571428571426,823.4,534.2223214285714,24.128571428571426,931.8,535.2223214285714,25.128571428571426,1032,535.2223214285714,25.128571428571426,1139.7,535.2223214285714,25.128571428571426,1248.7,535.2223214285714,25.128571428571426,1349.9,535.2223214285714,25.128571428571426,1465,535.2223214285714,25.128571428571426,1566.7,535.2223214285714,25.128571428571426,1669.1,535.2223214285714,25.128571428571426,1772.8,518.2223214285714,65.12857142857143,1877,447.22232142857143,306.12857142857143,1987.6,447.22232142857143,306.12857142857143,2095.2,447.22232142857143,306.12857142857143,2197.2,447.22232142857143,306.12857142857143,2314.4,447.22232142857143,306.12857142857143,2415.1,447.22232142857143,306.12857142857143,2519.4,447.22232142857143,306.12857142857143,2633,447.22232142857143,306.12857142857143,2740,447.22232142857143,306.12857142857143,2846,447.22232142857143,306.12857142857143,2949.5,447.22232142857143,306.12857142857143,3052.2,447.22232142857143,306.12857142857143,3152.5,447.22232142857143,306.12857142857143,3254.3,447.22232142857143,306.12857142857143,3363.7,447.22232142857143,306.12857142857143,3464.3,447.22232142857143,306.12857142857143,3566.7,447.22232142857143,306.12857142857143,3672.2,447.22232142857143,306.12857142857143,3774.2,447.22232142857143,306.12857142857143,3876.2,447.22232142857143,306.12857142857143,3977,447.22232142857143,306.12857142857143,4084.9,447.22232142857143,306.12857142857143,4186.8,447.22232142857143,306.12857142857143,4287.7,447.22232142857143,306.12857142857143,4388.3,447.22232142857143,306.12857142857143,4492,447.22232142857143,306.12857142857143,4598.2,447.22232142857143,306.12857142857143,4699.4,447.22232142857143,306.12857142857143,4802.5,447.22232142857143,306.12857142857143,4914.5]","[1455.5,1455.5,1000,0,455.5,""smooth"",""right"",""right"",""good_move"",4203.5,2746.6,2327,1457,419.6,""smooth"",""right"",""right"",""good_move"",6992.4,2788,2393.9,4204.4,394.1,""oops"",""up"",""up"",""good_move"",9731.1,2737.3,2223,6993.8,514.3,""oops"",""up"",""down"",""bad_move"",12507.5,2775.8,2445.3,9731.7,330.5,""while_blue"",""up"",""up"",""good_move"",15082.3,2574.3,2040.7,12508,533.6,""smooth"",""up"",""up"",""good_move""]","",""
"6446","","<div style=""width:500px;"">
  <p>What determined the result of this run?</p>
  </div>","70","html-slider-response","75","806012","0.0-5.0-1.13","257","1","2025-07-30 08:38:45","1f75c3e559b7213887762d5229550c2b","102.182.58.72","Mozilla/5.0 (Windows NT 10.0; Win64; x64) AppleWebKit/537.36 (KHTML, like Gecko) Chrome/138.0.0.0 Safari/537.36 Edg/138.0.0.0","WebKit","Edge","138.0.0.0","Windows","10.0","https://app.prolific.com/","en-US,en;q=0.9","60c8a4ece55be5a30e0ccc5c","6877631c9844ddd5501205fc","6889d9ed2705065916d8fbdd","3","1","60c8a4ece55be5a30e0ccc5c","3","1","2025-07-30T08:52:18.534Z","","","","","","","","","","","AttribQ","","50","","","","","","","","","","","","","","","","","","","","","","","","","","","","",""
"2817","","<div style=""width:500px;"">
  <p>How much control did you have over the ball?</p>
  </div>","64","html-slider-response","76","808830","0.0-5.0-2.13","257","1","2025-07-30 08:38:45","1f75c3e559b7213887762d5229550c2b","102.182.58.72","Mozilla/5.0 (Windows NT 10.0; Win64; x64) AppleWebKit/537.36 (KHTML, like Gecko) Chrome/138.0.0.0 Safari/537.36 Edg/138.0.0.0","WebKit","Edge","138.0.0.0","Windows","10.0","https://app.prolific.com/","en-US,en;q=0.9","60c8a4ece55be5a30e0ccc5c","6877631c9844ddd5501205fc","6889d9ed2705065916d8fbdd","3","1","60c8a4ece55be5a30e0ccc5c","3","1","2025-07-30T08:52:21.353Z","","","","","","","","","","","ControlQ","","50","","","","","","","","","","","","","","","","","","","","","","","","","","","","",""
"4037","","<div style=""width:500px;"">
  <p>How would you describe your current emotional state?</p>
