"rt","response_timestamp","stimulus","response","trial_type","trial_index","time_elapsed","internal_node_id","run_id","condition","recorded_at","source_code_version","ip","user_agent","device","browser","browser_version","platform","platform_version","referer","accept_language","PROLIFIC_PID","STUDY_ID","SESSION_ID","WEEK","BATCH","prolific_id","week","batch","realtime","success","responses","item_order","radio_event_ids","radio_event_times","key_event_times","mouse_event_times","straightlining","zigzagging","honeypot","eventType","view_history","slider_start","which_type","canvas_config","goals_layout","control_level","trial_number","tutorial_trial_number","trial_start_time","phase1_start_time","phase2_start_time","phase3_start_time","goal_1_value","goal_1_distance","goal_2_value","goal_2_distance","goal_selected","outcome","outcome_total","participant_final_score","participant_initial_score","participant_final_score_prop","goal_choice_rt","allocated_time","allocated_time_remaining","goal_direction","counts","mouse_movements","key_presses","question_order","question_id"
"7881","1752655264866","<p style='font-size:40px;line-height:1.25'><strong>Welcome to the experiment!</strong></p><p style='font-size:1.1em;line-height:1.25'>Thank you for participanting in our experiment again! You will be asked to play the Dysfunctional Ball Game again. We will briefly recap the rules before we start.</p><p style='font-size:1.1em;line-height:1.25'>Press <strong>Next</strong> to continue.</p>","0","custom-html-button-response","0","7883","0.0-0.0","81","1","2025-07-16 08:41:02","1f75c3e559b7213887762d5229550c2b","216.120.189.142","Mozilla/5.0 (Windows NT 10.0; Win64; x64) AppleWebKit/537.36 (KHTML, like Gecko) Chrome/138.0.0.0 Safari/537.36","WebKit","Chrome","138.0.0.0","Windows","10.0","https://app.prolific.com/","en-US,en;q=0.9","672c8a3b9fb83ab9c5f02fd2","686e379bc37a29ffa5cdc956","6877655f7cdb077d75bffd11","1","1","672c8a3b9fb83ab9c5f02fd2","1","1","2025-07-16T08:41:04.867Z","","","","","","","","","","","","","","","","","","","","","","","","","","","","","","","","","","","","","","","","","",""
"4862","","","","fullscreen","1","13762","0.0-1.0","81","1","2025-07-16 08:41:02","1f75c3e559b7213887762d5229550c2b","216.120.189.142","Mozilla/5.0 (Windows NT 10.0; Win64; x64) AppleWebKit/537.36 (KHTML, like Gecko) Chrome/138.0.0.0 Safari/537.36","WebKit","Chrome","138.0.0.0","Windows","10.0","https://app.prolific.com/","en-US,en;q=0.9","672c8a3b9fb83ab9c5f02fd2","686e379bc37a29ffa5cdc956","6877655f7cdb077d75bffd11","1","1","672c8a3b9fb83ab9c5f02fd2","1","1","","true","","","","","","","","","","","","","","","","","","","","","","","","","","","","","","","","","","","","","","","","",""
"5054","1752655275802","<p style='font-size:1.1em;line-height:1.25'>In the following, we will ask you a few questions relating to your feelings in the last 24 hours.<br></p><p style='font-size:1.1em;line-height:1.25'>Press the <strong>Next</strong> button to continue.</p>","0","custom-html-button-response","2","18819","0.0-2.0-0.0","81","1","2025-07-16 08:41:02","1f75c3e559b7213887762d5229550c2b","216.120.189.142","Mozilla/5.0 (Windows NT 10.0; Win64; x64) AppleWebKit/537.36 (KHTML, like Gecko) Chrome/138.0.0.0 Safari/537.36","WebKit","Chrome","138.0.0.0","Windows","10.0","https://app.prolific.com/","en-US,en;q=0.9","672c8a3b9fb83ab9c5f02fd2","686e379bc37a29ffa5cdc956","6877655f7cdb077d75bffd11","1","1","672c8a3b9fb83ab9c5f02fd2","1","1","2025-07-16T08:41:15.803Z","","","","","","","","","","","","","","","","","","","","","","","","","","","","","","","","","","","","","","","","","",""
"96616.5","","","","survey-template","3","115445","0.0-2.0-1.0","81","1","2025-07-16 08:41:02","1f75c3e559b7213887762d5229550c2b","216.120.189.142","Mozilla/5.0 (Windows NT 10.0; Win64; x64) AppleWebKit/537.36 (KHTML, like Gecko) Chrome/138.0.0.0 Safari/537.36","WebKit","Chrome","138.0.0.0","Windows","10.0","https://app.prolific.com/","en-US,en;q=0.9","672c8a3b9fb83ab9c5f02fd2","686e379bc37a29ffa5cdc956","6877655f7cdb077d75bffd11","1","1","672c8a3b9fb83ab9c5f02fd2","1","1","2025-07-16T08:42:52.429Z","","{""Q01"":""0"",""Q02"":""0"",""Q03"":""0"",""Q04"":""1"",""Q05"":""0"",""Q06"":""0"",""Q07"":""0"",""Q08"":""0"",""Q09"":""0"",""Q10"":""0"",""Q11"":""0"",""Q12"":""0"",""Q13"":""5"",""Q14"":""2"",""Q15"":""0"",""Q16"":""0"",""Q17"":""1"",""Q18"":""0"",""Q19"":""1"",""Q20"":""0"",""Q21"":""0"",""Q22"":""0""}","[0,1,2,3,4,5,6,7,8,9,10,11,12,13,14,15,16,17,18,19,20,21]","[""Q01"",""Q03"",""Q02"",""Q04"",""Q04"",""Q05"",""Q06"",""Q07"",""Q08"",""Q09"",""Q10"",""Q11"",""Q12"",""Q13"",""Q13"",""Q14"",""Q15"",""Q16"",""Q17"",""Q18"",""Q19"",""Q20"",""Q21"",""Q22""]","[5164.800000011921,8067.899999976158,9435.5,12950.800000011921,14282.899999976158,17153.100000023842,21966,24123.600000023842,26368.600000023842,29781.100000023842,31353.30000001192,34368.89999997616,42003.5,46894.69999998808,47298.5,52851.5,57452.80000001192,63635.5,67698.19999998808,69506.69999998808,78114.69999998808,84002.39999997616,87314.5,92242.80000001192]","[]","[0.10000002384185791,5164.800000011921,6098.800000011921,8067.899999976158,9435.5,12950.800000011921,14282.899999976158,17153.100000023842,21966,24123.600000023842,26368.600000023842,29781.100000023842,31353.30000001192,34368.89999997616,42003.5,46894.69999998808,47298.5,52851.5,57452.80000001192,63635.5,67698.19999998808,69506.69999998808,78114.69999998808,84002.39999997616,87314.5,92242.80000001192,96611.10000002384]","0.7727272727272727","0.3333333333333333","0","drsp","","","","","","","","","","","","","","","","","","","","","","","","","","","","","","",""
"30444.400000035763","","","","survey-template","4","145892","0.0-2.0-2.0","81","1","2025-07-16 08:41:02","1f75c3e559b7213887762d5229550c2b","216.120.189.142","Mozilla/5.0 (Windows NT 10.0; Win64; x64) AppleWebKit/537.36 (KHTML, like Gecko) Chrome/138.0.0.0 Safari/537.36","WebKit","Chrome","138.0.0.0","Windows","10.0","https://app.prolific.com/","en-US,en;q=0.9","672c8a3b9fb83ab9c5f02fd2","686e379bc37a29ffa5cdc956","6877655f7cdb077d75bffd11","1","1","672c8a3b9fb83ab9c5f02fd2","1","1","2025-07-16T08:43:22.876Z","","{""Q01"":""1"",""Q02"":""1"",""Q03"":""0""}","[0,1,2]","[""Q01"",""Q02"",""Q03""]","[7891.5,15379.100000023842,24883]","[]","[7891.5,15379.100000023842,24883,30442.80000001192]","0.3333333333333333","0","0","stress","","","","","","","","","","","","","","","","","","","","","","","","","","","","","","",""
"54133","","","","instructions","5","200027","0.0-3.0-0.0","81","1","2025-07-16 08:41:02","1f75c3e559b7213887762d5229550c2b","216.120.189.142","Mozilla/5.0 (Windows NT 10.0; Win64; x64) AppleWebKit/537.36 (KHTML, like Gecko) Chrome/138.0.0.0 Safari/537.36","WebKit","Chrome","138.0.0.0","Windows","10.0","https://app.prolific.com/","en-US,en;q=0.9","672c8a3b9fb83ab9c5f02fd2","686e379bc37a29ffa5cdc956","6877655f7cdb077d75bffd11","1","1","672c8a3b9fb83ab9c5f02fd2","1","1","","","","","","","","","","","","","[{""page_index"":0,""viewing_time"":54132}]","","","","","","","","","","","","","","","","","","","","","","","","","","","","","",""
"13685","","<p>Before you start with this game please answer the following three questions yourself. </p>
  <p>Through this game, we measure several aspects of your cognitive performance, such as reaction times, multi-tasking capabilities </p>
  <p>and the ability to assess the situation you are in.</p>
  <p></p>
  <p><b>How good do you usually are in such tasks?</b></p>","89","html-slider-response","6","213714","0.0-4.0-0.0","81","1","2025-07-16 08:41:02","1f75c3e559b7213887762d5229550c2b","216.120.189.142","Mozilla/5.0 (Windows NT 10.0; Win64; x64) AppleWebKit/537.36 (KHTML, like Gecko) Chrome/138.0.0.0 Safari/537.36","WebKit","Chrome","138.0.0.0","Windows","10.0","https://app.prolific.com/","en-US,en;q=0.9","672c8a3b9fb83ab9c5f02fd2","686e379bc37a29ffa5cdc956","6877655f7cdb077d75bffd11","1","1","672c8a3b9fb83ab9c5f02fd2","1","1","2025-07-16T08:44:30.699Z","","","","","","","","","","","PreSkillQ","","50","","","","","","","","","","","","","","","","","","","","","","","","","","","","",""
"5173","","<div style=""width:500px;"">
  <p>How well do you think you will perform in this task compared to other participants?</p>
  </div>","76","html-slider-response","7","218891","0.0-4.0-1.0","81","1","2025-07-16 08:41:02","1f75c3e559b7213887762d5229550c2b","216.120.189.142","Mozilla/5.0 (Windows NT 10.0; Win64; x64) AppleWebKit/537.36 (KHTML, like Gecko) Chrome/138.0.0.0 Safari/537.36","WebKit","Chrome","138.0.0.0","Windows","10.0","https://app.prolific.com/","en-US,en;q=0.9","672c8a3b9fb83ab9c5f02fd2","686e379bc37a29ffa5cdc956","6877655f7cdb077d75bffd11","1","1","672c8a3b9fb83ab9c5f02fd2","1","1","2025-07-16T08:44:35.875Z","","","","","","","","","","","PrePerfQ","","50","","","","","","","","","","","","","","","","","","","","","","","","","","","","",""
"4183","","<div style=""width:500px;"">
  <p>What best describes how you currently feel?</p>
  </div>","100","html-slider-response","8","223076","0.0-4.0-2.0","81","1","2025-07-16 08:41:02","1f75c3e559b7213887762d5229550c2b","216.120.189.142","Mozilla/5.0 (Windows NT 10.0; Win64; x64) AppleWebKit/537.36 (KHTML, like Gecko) Chrome/138.0.0.0 Safari/537.36","WebKit","Chrome","138.0.0.0","Windows","10.0","https://app.prolific.com/","en-US,en;q=0.9","672c8a3b9fb83ab9c5f02fd2","686e379bc37a29ffa5cdc956","6877655f7cdb077d75bffd11","1","1","672c8a3b9fb83ab9c5f02fd2","1","1","2025-07-16T08:44:40.060Z","","","","","","","","","","","PreMotivationQ","","50","","","","","","","","","","","","","","","","","","","","","","","","","","","","",""
"","","","","ctl-task-cpt","9","254603","0.0-5.0-0.0","81","1","2025-07-16 08:41:02","1f75c3e559b7213887762d5229550c2b","216.120.189.142","Mozilla/5.0 (Windows NT 10.0; Win64; x64) AppleWebKit/537.36 (KHTML, like Gecko) Chrome/138.0.0.0 Safari/537.36","WebKit","Chrome","138.0.0.0","Windows","10.0","https://app.prolific.com/","en-US,en;q=0.9","672c8a3b9fb83ab9c5f02fd2","686e379bc37a29ffa5cdc956","6877655f7cdb077d75bffd11","1","1","672c8a3b9fb83ab9c5f02fd2","1","1","2025-07-16T08:45:11.587Z","","","","","","","","","","","","","","win-only","3","g1:SW,g2:NE","1","1","0","226243.7","6923.1","11929.4","28510.9","1","4","8","6","1","1","0","0","0","0","5006.2","3000","1165","[""down"",""left""]","{""num_key_presses"":6,""num_perfect"":5,""num_errors"":1,""num_randdir"":0,""num_randdir_good_moves"":0,""num_whilered"":0,""num_whileblue"":1,""num_blue"":1,""num_good_moves"":5}","[289.22232142857143,292.12857142857143,0.5,289.22232142857143,292.12857142857143,105.7,289.22232142857143,292.12857142857143,208.6,289.22232142857143,292.12857142857143,313.4,289.22232142857143,292.12857142857143,419.7,289.22232142857143,292.12857142857143,525.8,288.22232142857143,298.12857142857143,630,245.22232142857143,357.12857142857143,731.4,196.22232142857143,411.12857142857143,838.8,149.22232142857143,457.12857142857143,941.1,145.22232142857143,458.12857142857143,1047.1,145.22232142857143,458.12857142857143,1147.8,145.22232142857143,458.12857142857143,1248.2,145.22232142857143,458.12857142857143,1351.8,145.22232142857143,458.12857142857143,1455.4,145.22232142857143,458.12857142857143,1557.6,145.22232142857143,458.12857142857143,1658.1,145.22232142857143,458.12857142857143,1766.1,145.22232142857143,458.12857142857143,1866.4,145.22232142857143,458.12857142857143,1971.5,145.22232142857143,458.12857142857143,2074.6,145.22232142857143,458.12857142857143,2180,145.22232142857143,458.12857142857143,2286.8,145.22232142857143,458.12857142857143,2387,145.22232142857143,458.12857142857143,2487,145.22232142857143,458.12857142857143,2588.7,145.22232142857143,458.12857142857143,2689.7,145.22232142857143,458.12857142857143,2790.2,145.22232142857143,458.12857142857143,2891.6,145.22232142857143,458.12857142857143,2995,145.22232142857143,458.12857142857143,3097.2,145.22232142857143,458.12857142857143,3200,145.22232142857143,458.12857142857143,3306.1,145.22232142857143,458.12857142857143,3411.5,145.22232142857143,458.12857142857143,3512.8,145.22232142857143,458.12857142857143,3616.1,145.22232142857143,458.12857142857143,3717.8,145.22232142857143,458.12857142857143,3817.9,145.22232142857143,458.12857142857143,3918.2,145.22232142857143,458.12857142857143,4027,145.22232142857143,458.12857142857143,4135.1,145.22232142857143,458.12857142857143,4243.5,145.22232142857143,458.12857142857143,4350.3,145.22232142857143,458.12857142857143,4459,145.22232142857143,458.12857142857143,4564.6,145.22232142857143,458.12857142857143,4672.8,145.22232142857143,458.12857142857143,4773.2,145.22232142857143,458.12857142857143,4874.3,145.22232142857143,458.12857142857143,4981.3]","[1816.2,1816.2,1000,0,816.3,""smooth"",""down"",""down"",""good_move"",4211.1,2393.4,2055.1,1817.9,338.1,""while_blue"",""down"",""right"",""bad_move"",7245.3,3033.6,2579.7,4211.7,453.9,""smooth"",""down"",""down"",""good_move"",10776.2,3530.2,3081.1,7246,449.1,""smooth"",""left"",""left"",""good_move"",13742.7,2965.7,2528.7,10777,437,""smooth"",""left"",""left"",""good_move"",16475.8,2732.8,2352.5,13743.1,380.3,""smooth"",""left"",""left"",""good_move""]","",""
"6269","","<div style=""width:500px;"">
  <p>What determined the result of this run?</p>
  </div>","68","html-slider-response","10","260874","0.0-5.0-1.0","81","1","2025-07-16 08:41:02","1f75c3e559b7213887762d5229550c2b","216.120.189.142","Mozilla/5.0 (Windows NT 10.0; Win64; x64) AppleWebKit/537.36 (KHTML, like Gecko) Chrome/138.0.0.0 Safari/537.36","WebKit","Chrome","138.0.0.0","Windows","10.0","https://app.prolific.com/","en-US,en;q=0.9","672c8a3b9fb83ab9c5f02fd2","686e379bc37a29ffa5cdc956","6877655f7cdb077d75bffd11","1","1","672c8a3b9fb83ab9c5f02fd2","1","1","2025-07-16T08:45:17.858Z","","","","","","","","","","","AttribQ","","50","","","","","","","","","","","","","","","","","","","","","","","","","","","","",""
"3815","","<div style=""width:500px;"">
  <p>How much control did you have over the ball?</p>
  </div>","65","html-slider-response","11","264692","0.0-5.0-2.0","81","1","2025-07-16 08:41:02","1f75c3e559b7213887762d5229550c2b","216.120.189.142","Mozilla/5.0 (Windows NT 10.0; Win64; x64) AppleWebKit/537.36 (KHTML, like Gecko) Chrome/138.0.0.0 Safari/537.36","WebKit","Chrome","138.0.0.0","Windows","10.0","https://app.prolific.com/","en-US,en;q=0.9","672c8a3b9fb83ab9c5f02fd2","686e379bc37a29ffa5cdc956","6877655f7cdb077d75bffd11","1","1","672c8a3b9fb83ab9c5f02fd2","1","1","2025-07-16T08:45:21.676Z","","","","","","","","","","","ControlQ","","50","","","","","","","","","","","","","","","","","","","","","","","","","","","","",""
"4909","","<div style=""width:500px;"">
  <p>How would you describe your current emotional state?</p>
  </div>","7","html-slider-response","12","269602","0.0-5.0-3.0","81","1","2025-07-16 08:41:02","1f75c3e559b7213887762d5229550c2b","216.120.189.142","Mozilla/5.0 (Windows NT 10.0; Win64; x64) AppleWebKit/537.36 (KHTML, like Gecko) Chrome/138.0.0.0 Safari/537.36","WebKit","Chrome","138.0.0.0","Windows","10.0","https://app.prolific.com/","en-US,en;q=0.9","672c8a3b9fb83ab9c5f02fd2","686e379bc37a29ffa5cdc956","6877655f7cdb077d75bffd11","1","1","672c8a3b9fb83ab9c5f02fd2","1","1","2025-07-16T08:45:26.586Z","","","","","","","","","","","StressQ","","50","","","","","","","","","","","","","","","","","","","","","","","","","","","","",""
"5438","","<div style=""width:500px;"">
  <p>What best describes how you currently feel?</p>
  </div>","95","html-slider-response","13","275043","0.0-5.0-4.0","81","1","2025-07-16 08:41:02","1f75c3e559b7213887762d5229550c2b","216.120.189.142","Mozilla/5.0 (Windows NT 10.0; Win64; x64) AppleWebKit/537.36 (KHTML, like Gecko) Chrome/138.0.0.0 Safari/537.36","WebKit","Chrome","138.0.0.0","Windows","10.0","https://app.prolific.com/","en-US,en;q=0.9","672c8a3b9fb83ab9c5f02fd2","686e379bc37a29ffa5cdc956","6877655f7cdb077d75bffd11","1","1","672c8a3b9fb83ab9c5f02fd2","1","1","2025-07-16T08:45:32.027Z","","","","","","","","","","","MotivationQ","","50","","","","","","","","","","","","","","","","","","","","","","","","","","","","",""
"","","","","ctl-task-cpt","14","318407","0.0-5.0-0.1","81","1","2025-07-16 08:41:02","1f75c3e559b7213887762d5229550c2b","216.120.189.142","Mozilla/5.0 (Windows NT 10.0; Win64; x64) AppleWebKit/537.36 (KHTML, like Gecko) Chrome/138.0.0.0 Safari/537.36","WebKit","Chrome","138.0.0.0","Windows","10.0","https://app.prolific.com/","en-US,en;q=0.9","672c8a3b9fb83ab9c5f02fd2","686e379bc37a29ffa5cdc956","6877655f7cdb077d75bffd11","1","1","672c8a3b9fb83ab9c5f02fd2","1","1","2025-07-16T08:46:15.392Z","","","","","","","","","","","","","","win-only","1","g1:NE,g2:SW","0.9","2","0","278206.9","6422.6","11427.5","40337.8","1","4","4","6","2","4","4","4","0","0.030303030303030304","5004.8","3000","845","[""down"",""left""]","{""num_key_presses"":6,""num_perfect"":5,""num_errors"":0,""num_randdir"":1,""num_randdir_good_moves"":1,""num_whilered"":0,""num_whileblue"":0,""num_blue"":4,""num_good_moves"":6}","[291.22232142857143,299.12857142857143,0.3,291.22232142857143,299.12857142857143,107.4,284.22232142857143,306.12857142857143,214.8,230.22232142857143,356.12857142857143,317.9,159.22232142857143,382.12857142857143,418.3,158.22232142857143,382.12857142857143,518.3,158.22232142857143,382.12857142857143,625.6,158.22232142857143,382.12857142857143,725.7,158.22232142857143,382.12857142857143,832.8,158.22232142857143,382.12857142857143,941.1,158.22232142857143,382.12857142857143,1045.4,158.22232142857143,382.12857142857143,1146.6,158.22232142857143,382.12857142857143,1247.4,158.22232142857143,382.12857142857143,1348.1,158.22232142857143,382.12857142857143,1455.5,158.22232142857143,382.12857142857143,1561.1,158.22232142857143,382.12857142857143,1664,158.22232142857143,382.12857142857143,1772,158.22232142857143,382.12857142857143,1873.2,158.22232142857143,382.12857142857143,1973.3,158.22232142857143,382.12857142857143,2082.9,158.22232142857143,382.12857142857143,2185.5,158.22232142857143,382.12857142857143,2288,158.22232142857143,382.12857142857143,2389.9,157.22232142857143,382.12857142857143,2490.8,157.22232142857143,382.12857142857143,2594.8,157.22232142857143,382.12857142857143,2702.3,157.22232142857143,382.12857142857143,2804.3,157.22232142857143,382.12857142857143,2908.5,157.22232142857143,382.12857142857143,3012.6,157.22232142857143,382.12857142857143,3119.8,157.22232142857143,382.12857142857143,3224.8,157.22232142857143,382.12857142857143,3332.7,157.22232142857143,382.12857142857143,3436.1,157.22232142857143,382.12857142857143,3539.7,157.22232142857143,382.12857142857143,3640.6,157.22232142857143,382.12857142857143,3744,157.22232142857143,382.12857142857143,3850.6,157.22232142857143,382.12857142857143,3950.8,157.22232142857143,382.12857142857143,4051.6,157.22232142857143,382.12857142857143,4153.7,157.22232142857143,382.12857142857143,4255.7,157.22232142857143,382.12857142857143,4361.7,157.22232142857143,382.12857142857143,4462.1,157.22232142857143,382.12857142857143,4563.1,157.22232142857143,382.12857142857143,4663.8,157.22232142857143,382.12857142857143,4765.1,157.22232142857143,382.12857142857143,4871.7,157.22232142857143,382.12857142857143,4977.1]","[1506.3,1506.3,1000,0,506.3,""smooth"",""down"",""down"",""good_move"",7661.2,6154.7,2501.1,4765.6,394.6,""smooth"",""down"",""down"",""good_move"",14087.9,6425.9,2485.7,11184.4,417.8,""smooth"",""down"",""down"",""good_move"",16190.1,2101.9,1389.9,14088.2,712,""smooth"",""left"",""left"",""good_move"",22741.1,6550.5,2505.5,19845.3,390.3,""smooth"",""left"",""left"",""good_move"",28795.7,6054.4,2371.1,26059,365.6,""oops"",""left"",""left"",""good_move""]","",""
"5154","","<div style=""width:500px;"">
  <p>What determined the result of this run?</p>
  </div>","80","html-slider-response","15","323563","0.0-5.0-1.1","81","1","2025-07-16 08:41:02","1f75c3e559b7213887762d5229550c2b","216.120.189.142","Mozilla/5.0 (Windows NT 10.0; Win64; x64) AppleWebKit/537.36 (KHTML, like Gecko) Chrome/138.0.0.0 Safari/537.36","WebKit","Chrome","138.0.0.0","Windows","10.0","https://app.prolific.com/","en-US,en;q=0.9","672c8a3b9fb83ab9c5f02fd2","686e379bc37a29ffa5cdc956","6877655f7cdb077d75bffd11","1","1","672c8a3b9fb83ab9c5f02fd2","1","1","2025-07-16T08:46:20.548Z","","","","","","","","","","","AttribQ","","50","","","","","","","","","","","","","","","","","","","","","","","","","","","","",""
"3885","","<div style=""width:500px;"">
  <p>How much control did you have over the ball?</p>
  </div>","66","html-slider-response","16","327451","0.0-5.0-2.1","81","1","2025-07-16 08:41:02","1f75c3e559b7213887762d5229550c2b","216.120.189.142","Mozilla/5.0 (Windows NT 10.0; Win64; x64) AppleWebKit/537.36 (KHTML, like Gecko) Chrome/138.0.0.0 Safari/537.36","WebKit","Chrome","138.0.0.0","Windows","10.0","https://app.prolific.com/","en-US,en;q=0.9","672c8a3b9fb83ab9c5f02fd2","686e379bc37a29ffa5cdc956","6877655f7cdb077d75bffd11","1","1","672c8a3b9fb83ab9c5f02fd2","1","1","2025-07-16T08:46:24.435Z","","","","","","","","","","","ControlQ","","50","","","","","","","","","","","","","","","","","","","","","","","","","","","","",""
"3365","","<div style=""width:500px;"">
  <p>How would you describe your current emotional state?</p>
  </div>","4","html-slider-response","17","330819","0.0-5.0-3.1","81","1","2025-07-16 08:41:02","1f75c3e559b7213887762d5229550c2b","216.120.189.142","Mozilla/5.0 (Windows NT 10.0; Win64; x64) AppleWebKit/537.36 (KHTML, like Gecko) Chrome/138.0.0.0 Safari/537.36","WebKit","Chrome","138.0.0.0","Windows","10.0","https://app.prolific.com/","en-US,en;q=0.9","672c8a3b9fb83ab9c5f02fd2","686e379bc37a29ffa5cdc956","6877655f7cdb077d75bffd11","1","1","672c8a3b9fb83ab9c5f02fd2","1","1","2025-07-16T08:46:27.803Z","","","","","","","","","","","StressQ","","50","","","","","","","","","","","","","","","","","","","","","","","","","","","","",""
"3125","","<div style=""width:500px;"">
  <p>What best describes how you currently feel?</p>
  </div>","98","html-slider-response","18","333946","0.0-5.0-4.1","81","1","2025-07-16 08:41:02","1f75c3e559b7213887762d5229550c2b","216.120.189.142","Mozilla/5.0 (Windows NT 10.0; Win64; x64) AppleWebKit/537.36 (KHTML, like Gecko) Chrome/138.0.0.0 Safari/537.36","WebKit","Chrome","138.0.0.0","Windows","10.0","https://app.prolific.com/","en-US,en;q=0.9","672c8a3b9fb83ab9c5f02fd2","686e379bc37a29ffa5cdc956","6877655f7cdb077d75bffd11","1","1","672c8a3b9fb83ab9c5f02fd2","1","1","2025-07-16T08:46:30.930Z","","","","","","","","","","","MotivationQ","","50","","","","","","","","","","","","","","","","","","","","","","","","","","","","",""
"","","","","ctl-task-cpt","19","355934","0.0-5.0-0.2","81","1","2025-07-16 08:41:02","1f75c3e559b7213887762d5229550c2b","216.120.189.142","Mozilla/5.0 (Windows NT 10.0; Win64; x64) AppleWebKit/537.36 (KHTML, like Gecko) Chrome/138.0.0.0 Safari/537.36","WebKit","Chrome","138.0.0.0","Windows","10.0","https://app.prolific.com/","en-US,en;q=0.9","672c8a3b9fb83ab9c5f02fd2","686e379bc37a29ffa5cdc956","6877655f7cdb077d75bffd11","1","1","672c8a3b9fb83ab9c5f02fd2","1","1","2025-07-16T08:46:52.918Z","","","","","","","","","","","","","","win-only","0","g1:NW,g2:SE","0.8","3","0","337112.1","2925.3","7933.5","18965.9","1","4","4","6","1","1","1","5","4","0.03787878787878788","5008.1","3000","1825","[""left"",""up""]","{""num_key_presses"":4,""num_perfect"":4,""num_errors"":0,""num_randdir"":0,""num_randdir_good_moves"":0,""num_whilered"":0,""num_whileblue"":0,""num_blue"":0,""num_good_moves"":4}","[296.22232142857143,296.12857142857143,0.4,296.22232142857143,296.12857142857143,103.4,296.22232142857143,296.12857142857143,207.9,296.22232142857143,296.12857142857143,308.1,296.22232142857143,296.12857142857143,411.9,296.22232142857143,296.12857142857143,517.1,293.22232142857143,303.12857142857143,621.5,274.22232142857143,332.12857142857143,733.3,252.22232142857143,369.12857142857143,834.6,252.22232142857143,370.12857142857143,937.6,252.22232142857143,370.12857142857143,1042.2,252.22232142857143,370.12857142857143,1145.3,252.22232142857143,370.12857142857143,1248.6,252.22232142857143,370.12857142857143,1350,252.22232142857143,370.12857142857143,1455.2,252.22232142857143,370.12857142857143,1560.5,252.22232142857143,370.12857142857143,1665.2,252.22232142857143,370.12857142857143,1765.5,252.22232142857143,370.12857142857143,1868.7,252.22232142857143,370.12857142857143,1968.9,252.22232142857143,370.12857142857143,2071.1,252.22232142857143,370.12857142857143,2172,252.22232142857143,370.12857142857143,2280,252.22232142857143,370.12857142857143,2383.5,252.22232142857143,370.12857142857143,2487.2,252.22232142857143,370.12857142857143,2598,252.22232142857143,370.12857142857143,2701.5,252.22232142857143,370.12857142857143,2809.8,252.22232142857143,370.12857142857143,2915.8,252.22232142857143,370.12857142857143,3019.3,252.22232142857143,370.12857142857143,3125.8,252.22232142857143,370.12857142857143,3228.3,252.22232142857143,370.12857142857143,3331.9,252.22232142857143,370.12857142857143,3434,252.22232142857143,370.12857142857143,3535.5,252.22232142857143,370.12857142857143,3639,252.22232142857143,370.12857142857143,3743.3,252.22232142857143,370.12857142857143,3851.5,252.22232142857143,370.12857142857143,3951.6,252.22232142857143,370.12857142857143,4064.6,252.22232142857143,370.12857142857143,4167.2,252.22232142857143,370.12857142857143,4268.3,252.22232142857143,370.12857142857143,4371.7,252.22232142857143,370.12857142857143,4475.9,252.22232142857143,370.12857142857143,4577,252.22232142857143,370.12857142857143,4682.2,252.22232142857143,370.12857142857143,4782.5,252.22232142857143,370.12857142857143,4893.7,252.22232142857143,370.12857142857143,4995.4]","[1416.2,1416.2,1000,0,416.3,""smooth"",""up"",""up"",""good_move"",4753.9,3337.1,2927.6,1416.8,409.5,""smooth"",""left"",""left"",""good_move"",8218.9,3464.3,3053.2,4754.6,411.1,""smooth"",""left"",""left"",""good_move"",10892.1,2672.1,2218.3,8220,453.8,""smooth"",""up"",""up"",""good_move""]","",""
"3547","","<div style=""width:500px;"">
  <p>What determined the result of this run?</p>
  </div>","50","html-slider-response","20","359482","0.0-5.0-1.2","81","1","2025-07-16 08:41:02","1f75c3e559b7213887762d5229550c2b","216.120.189.142","Mozilla/5.0 (Windows NT 10.0; Win64; x64) AppleWebKit/537.36 (KHTML, like Gecko) Chrome/138.0.0.0 Safari/537.36","WebKit","Chrome","138.0.0.0","Windows","10.0","https://app.prolific.com/","en-US,en;q=0.9","672c8a3b9fb83ab9c5f02fd2","686e379bc37a29ffa5cdc956","6877655f7cdb077d75bffd11","1","1","672c8a3b9fb83ab9c5f02fd2","1","1","2025-07-16T08:46:56.466Z","","","","","","","","","","","AttribQ","","50","","","","","","","","","","","","","","","","","","","","","","","","","","","","",""
"4366","","<div style=""width:500px;"">
  <p>How much control did you have over the ball?</p>
  </div>","51","html-slider-response","21","363850","0.0-5.0-2.2","81","1","2025-07-16 08:41:02","1f75c3e559b7213887762d5229550c2b","216.120.189.142","Mozilla/5.0 (Windows NT 10.0; Win64; x64) AppleWebKit/537.36 (KHTML, like Gecko) Chrome/138.0.0.0 Safari/537.36","WebKit","Chrome","138.0.0.0","Windows","10.0","https://app.prolific.com/","en-US,en;q=0.9","672c8a3b9fb83ab9c5f02fd2","686e379bc37a29ffa5cdc956","6877655f7cdb077d75bffd11","1","1","672c8a3b9fb83ab9c5f02fd2","1","1","2025-07-16T08:47:00.834Z","","","","","","","","","","","ControlQ","","50","","","","","","","","","","","","","","","","","","","","","","","","","","","","",""
"4188","","<div style=""width:500px;"">
  <p>How would you describe your current emotional state?</p>
  </div>","0","html-slider-response","22","368040","0.0-5.0-3.2","81","1","2025-07-16 08:41:02","1f75c3e559b7213887762d5229550c2b","216.120.189.142","Mozilla/5.0 (Windows NT 10.0; Win64; x64) AppleWebKit/537.36 (KHTML, like Gecko) Chrome/138.0.0.0 Safari/537.36","WebKit","Chrome","138.0.0.0","Windows","10.0","https://app.prolific.com/","en-US,en;q=0.9","672c8a3b9fb83ab9c5f02fd2","686e379bc37a29ffa5cdc956","6877655f7cdb077d75bffd11","1","1","672c8a3b9fb83ab9c5f02fd2","1","1","2025-07-16T08:47:05.024Z","","","","","","","","","","","StressQ","","50","","","","","","","","","","","","","","","","","","","","","","","","","","","","",""
"3226","","<div style=""width:500px;"">
  <p>What best describes how you currently feel?</p>
  </div>","100","html-slider-response","23","371269","0.0-5.0-4.2","81","1","2025-07-16 08:41:02","1f75c3e559b7213887762d5229550c2b","216.120.189.142","Mozilla/5.0 (Windows NT 10.0; Win64; x64) AppleWebKit/537.36 (KHTML, like Gecko) Chrome/138.0.0.0 Safari/537.36","WebKit","Chrome","138.0.0.0","Windows","10.0","https://app.prolific.com/","en-US,en;q=0.9","672c8a3b9fb83ab9c5f02fd2","686e379bc37a29ffa5cdc956","6877655f7cdb077d75bffd11","1","1","672c8a3b9fb83ab9c5f02fd2","1","1","2025-07-16T08:47:08.253Z","","","","","","","","","","","MotivationQ","","50","","","","","","","","","","","","","","","","","","","","","","","","","","","","",""
"","","","","ctl-task-cpt","24","413407","0.0-5.0-0.3","81","1","2025-07-16 08:41:02","1f75c3e559b7213887762d5229550c2b","216.120.189.142","Mozilla/5.0 (Windows NT 10.0; Win64; x64) AppleWebKit/537.36 (KHTML, like Gecko) Chrome/138.0.0.0 Safari/537.36","WebKit","Chrome","138.0.0.0","Windows","10.0","https://app.prolific.com/","en-US,en;q=0.9","672c8a3b9fb83ab9c5f02fd2","686e379bc37a29ffa5cdc956","6877655f7cdb077d75bffd11","1","1","672c8a3b9fb83ab9c5f02fd2","1","1","2025-07-16T08:47:50.391Z","","","","","","","","","","","","","","win-only","3","g1:SW,g2:NE","0.7","4","0","374437.3","1599.7","6603.4","39116.4","1","4","8","6","1","1","0","5","5","0.03787878787878788","5003.7","3000","900","[""down"",""left""]","{""num_key_presses"":8,""num_perfect"":5,""num_errors"":1,""num_randdir"":2,""num_randdir_good_moves"":1,""num_whilered"":0,""num_whileblue"":1,""num_blue"":4,""num_good_moves"":6}","[296.22232142857143,293.12857142857143,0.3,296.22232142857143,293.12857142857143,122.4,296.22232142857143,293.12857142857143,227.4,292.22232142857143,296.12857142857143,331.1,283.22232142857143,306.12857142857143,439.3,283.22232142857143,306.12857142857143,546.8,283.22232142857143,306.12857142857143,649.2,283.22232142857143,306.12857142857143,752.6,283.22232142857143,306.12857142857143,863.4,283.22232142857143,306.12857142857143,964.9,283.22232142857143,306.12857142857143,1067.1,283.22232142857143,306.12857142857143,1168.9,283.22232142857143,306.12857142857143,1278.1,283.22232142857143,306.12857142857143,1383.1,283.22232142857143,306.12857142857143,1491.9,283.22232142857143,306.12857142857143,1599,283.22232142857143,306.12857142857143,1713.3,283.22232142857143,306.12857142857143,1818.5,283.22232142857143,306.12857142857143,1924.9,283.22232142857143,306.12857142857143,2033.4,283.22232142857143,306.12857142857143,2146.5,283.22232142857143,306.12857142857143,2249.8,283.22232142857143,306.12857142857143,2350.2,283.22232142857143,306.12857142857143,2452.7,283.22232142857143,306.12857142857143,2557.2,283.22232142857143,306.12857142857143,2657.8,283.22232142857143,306.12857142857143,2761.2,283.22232142857143,306.12857142857143,2865,283.22232142857143,306.12857142857143,2967.7,283.22232142857143,306.12857142857143,3071.3,283.22232142857143,306.12857142857143,3175.4,283.22232142857143,306.12857142857143,3284.2,283.22232142857143,306.12857142857143,3394.7,283.22232142857143,306.12857142857143,3497.2,283.22232142857143,306.12857142857143,3598.3,283.22232142857143,306.12857142857143,3698.8,283.22232142857143,306.12857142857143,3803.8,283.22232142857143,306.12857142857143,3908.2,283.22232142857143,306.12857142857143,4011,283.22232142857143,306.12857142857143,4114.1,283.22232142857143,306.12857142857143,4219.6,283.22232142857143,306.12857142857143,4322.7,283.22232142857143,306.12857142857143,4432.4,283.22232142857143,306.12857142857143,4539.4,283.22232142857143,306.12857142857143,4641.1,283.22232142857143,306.12857142857143,4742.4,283.22232142857143,306.12857142857143,4851.4,283.22232142857143,306.12857142857143,4951.6]","[1434.4,1434.4,1000,0,434.4,""smooth"",""down"",""down"",""good_move"",5087.1,3652.2,3236.9,1435,415.3,""smooth"",""down"",""down"",""good_move"",10906.6,5819.1,2190.5,8390,326.1,""while_blue"",""left"",""up"",""bad_move"",13516.7,2609.4,2160.2,10907.3,449.2,""smooth"",""down"",""down"",""good_move"",16618.6,3101.5,2586.1,13517.1,515.4,""oops"",""left"",""up"",""bad_move"",23282.2,6663.3,2275.4,20558.3,448.5,""smooth"",""left"",""left"",""good_move"",30058.9,6775.6,3089.4,26528.3,441.2,""oops"",""left"",""left"",""good_move"",32384.3,2325.1,1843.6,30059.2,481.5,""smooth"",""down"",""down"",""good_move""]","",""
"4587","","<div style=""width:500px;"">
  <p>What determined the result of this run?</p>
  </div>","50","html-slider-response","25","417996","0.0-5.0-1.3","81","1","2025-07-16 08:41:02","1f75c3e559b7213887762d5229550c2b","216.120.189.142","Mozilla/5.0 (Windows NT 10.0; Win64; x64) AppleWebKit/537.36 (KHTML, like Gecko) Chrome/138.0.0.0 Safari/537.36","WebKit","Chrome","138.0.0.0","Windows","10.0","https://app.prolific.com/","en-US,en;q=0.9","672c8a3b9fb83ab9c5f02fd2","686e379bc37a29ffa5cdc956","6877655f7cdb077d75bffd11","1","1","672c8a3b9fb83ab9c5f02fd2","1","1","2025-07-16T08:47:54.980Z","","","","","","","","","","","AttribQ","","50","","","","","","","","","","","","","","","","","","","","","","","","","","","","",""
"9123","","<div style=""width:500px;"">
  <p>How much control did you have over the ball?</p>
  </div>","91","html-slider-response","26","427121","0.0-5.0-2.3","81","1","2025-07-16 08:41:02","1f75c3e559b7213887762d5229550c2b","216.120.189.142","Mozilla/5.0 (Windows NT 10.0; Win64; x64) AppleWebKit/537.36 (KHTML, like Gecko) Chrome/138.0.0.0 Safari/537.36","WebKit","Chrome","138.0.0.0","Windows","10.0","https://app.prolific.com/","en-US,en;q=0.9","672c8a3b9fb83ab9c5f02fd2","686e379bc37a29ffa5cdc956","6877655f7cdb077d75bffd11","1","1","672c8a3b9fb83ab9c5f02fd2","1","1","2025-07-16T08:48:04.105Z","","","","","","","","","","","ControlQ","","50","","","","","","","","","","","","","","","","","","","","","","","","","","","","",""
"4239","","<div style=""width:500px;"">
  <p>How would you describe your current emotional state?</p>
  </div>","0","html-slider-response","27","431363","0.0-5.0-3.3","81","1","2025-07-16 08:41:02","1f75c3e559b7213887762d5229550c2b","216.120.189.142","Mozilla/5.0 (Windows NT 10.0; Win64; x64) AppleWebKit/537.36 (KHTML, like Gecko) Chrome/138.0.0.0 Safari/537.36","WebKit","Chrome","138.0.0.0","Windows","10.0","https://app.prolific.com/","en-US,en;q=0.9","672c8a3b9fb83ab9c5f02fd2","686e379bc37a29ffa5cdc956","6877655f7cdb077d75bffd11","1","1","672c8a3b9fb83ab9c5f02fd2","1","1","2025-07-16T08:48:08.347Z","","","","","","","","","","","StressQ","","50","","","","","","","","","","","","","","","","","","","","","","","","","","","","",""
"4385","","<div style=""width:500px;"">
  <p>What best describes how you currently feel?</p>
  </div>","100","html-slider-response","28","435751","0.0-5.0-4.3","81","1","2025-07-16 08:41:02","1f75c3e559b7213887762d5229550c2b","216.120.189.142","Mozilla/5.0 (Windows NT 10.0; Win64; x64) AppleWebKit/537.36 (KHTML, like Gecko) Chrome/138.0.0.0 Safari/537.36","WebKit","Chrome","138.0.0.0","Windows","10.0","https://app.prolific.com/","en-US,en;q=0.9","672c8a3b9fb83ab9c5f02fd2","686e379bc37a29ffa5cdc956","6877655f7cdb077d75bffd11","1","1","672c8a3b9fb83ab9c5f02fd2","1","1","2025-07-16T08:48:12.735Z","","","","","","","","","","","MotivationQ","","50","","","","","","","","","","","","","","","","","","","","","","","","","","","","",""
"","","","","ctl-task-cpt","29","457112","0.0-5.0-0.4","81","1","2025-07-16 08:41:02","1f75c3e559b7213887762d5229550c2b","216.120.189.142","Mozilla/5.0 (Windows NT 10.0; Win64; x64) AppleWebKit/537.36 (KHTML, like Gecko) Chrome/138.0.0.0 Safari/537.36","WebKit","Chrome","138.0.0.0","Windows","10.0","https://app.prolific.com/","en-US,en;q=0.9","672c8a3b9fb83ab9c5f02fd2","686e379bc37a29ffa5cdc956","6877655f7cdb077d75bffd11","1","1","672c8a3b9fb83ab9c5f02fd2","1","1","2025-07-16T08:48:34.096Z","","","","","","","","","","","","","","win-only","0","g1:NW,g2:SE","0.6","5","0","438917.7","1689.1","6700","18351.7","1","4","4","6","1","1","1","6","5","0.045454545454545456","5010.9","3000","1825","[""left"",""up""]","{""num_key_presses"":4,""num_perfect"":4,""num_errors"":0,""num_randdir"":0,""num_randdir_good_moves"":0,""num_whilered"":0,""num_whileblue"":0,""num_blue"":0,""num_good_moves"":4}","[297.22232142857143,298.12857142857143,0.6,297.22232142857143,298.12857142857143,102.2,297.22232142857143,298.12857142857143,210.3,297.22232142857143,298.12857142857143,314.4,288.22232142857143,319.12857142857143,421.1,271.22232142857143,352.12857142857143,524,256.22232142857143,379.12857142857143,631.6,244.22232142857143,381.12857142857143,739.8,244.22232142857143,381.12857142857143,852.2,244.22232142857143,381.12857142857143,955.2,244.22232142857143,381.12857142857143,1057,244.22232142857143,381.12857142857143,1158.4,244.22232142857143,381.12857142857143,1273.9,244.22232142857143,381.12857142857143,1392.5,244.22232142857143,381.12857142857143,1492.9,244.22232142857143,381.12857142857143,1597.1,244.22232142857143,381.12857142857143,1702.6,244.22232142857143,381.12857142857143,1806.1,244.22232142857143,381.12857142857143,1920,244.22232142857143,381.12857142857143,2022.8,244.22232142857143,381.12857142857143,2129.3,244.22232142857143,381.12857142857143,2239,244.22232142857143,381.12857142857143,2339,244.22232142857143,381.12857142857143,2439.6,244.22232142857143,381.12857142857143,2543.7,244.22232142857143,381.12857142857143,2648,244.22232142857143,381.12857142857143,2752.4,244.22232142857143,381.12857142857143,2866.7,244.22232142857143,381.12857142857143,2968.8,244.22232142857143,381.12857142857143,3074.6,244.22232142857143,381.12857142857143,3183.8,244.22232142857143,381.12857142857143,3296.4,244.22232142857143,381.12857142857143,3412.2,244.22232142857143,381.12857142857143,3514.3,244.22232142857143,381.12857142857143,3621,244.22232142857143,381.12857142857143,3725,244.22232142857143,381.12857142857143,3832.1,244.22232142857143,381.12857142857143,3934.4,244.22232142857143,381.12857142857143,4046,244.22232142857143,381.12857142857143,4150.5,244.22232142857143,381.12857142857143,4253.5,244.22232142857143,381.12857142857143,4354.4,244.22232142857143,381.12857142857143,4464.9,244.22232142857143,381.12857142857143,4569.6,244.22232142857143,381.12857142857143,4672.5,244.22232142857143,381.12857142857143,4774.6,244.22232142857143,381.12857142857143,4875,244.22232142857143,381.12857142857143,4980.6]","[1670.7,1670.7,1000,0,670.7,""smooth"",""up"",""up"",""good_move"",5297.5,3626.2,3202.9,1671.3,423.3,""smooth"",""up"",""up"",""good_move"",8852.1,3553.8,3108.3,5298.3,445.5,""smooth"",""left"",""left"",""good_move"",11505.5,2652.7,2233.4,8852.8,419.3,""smooth"",""left"",""left"",""good_move""]","",""
"4497","","<div style=""width:500px;"">
  <p>What determined the result of this run?</p>
  </div>","49","html-slider-response","30","461611","0.0-5.0-1.4","81","1","2025-07-16 08:41:02","1f75c3e559b7213887762d5229550c2b","216.120.189.142","Mozilla/5.0 (Windows NT 10.0; Win64; x64) AppleWebKit/537.36 (KHTML, like Gecko) Chrome/138.0.0.0 Safari/537.36","WebKit","Chrome","138.0.0.0","Windows","10.0","https://app.prolific.com/","en-US,en;q=0.9","672c8a3b9fb83ab9c5f02fd2","686e379bc37a29ffa5cdc956","6877655f7cdb077d75bffd11","1","1","672c8a3b9fb83ab9c5f02fd2","1","1","2025-07-16T08:48:38.596Z","","","","","","","","","","","AttribQ","","50","","","","","","","","","","","","","","","","","","","","","","","","","","","","",""
"2772","","<div style=""width:500px;"">
  <p>How much control did you have over the ball?</p>
  </div>","75","html-slider-response","31","464386","0.0-5.0-2.4","81","1","2025-07-16 08:41:02","1f75c3e559b7213887762d5229550c2b","216.120.189.142","Mozilla/5.0 (Windows NT 10.0; Win64; x64) AppleWebKit/537.36 (KHTML, like Gecko) Chrome/138.0.0.0 Safari/537.36","WebKit","Chrome","138.0.0.0","Windows","10.0","https://app.prolific.com/","en-US,en;q=0.9","672c8a3b9fb83ab9c5f02fd2","686e379bc37a29ffa5cdc956","6877655f7cdb077d75bffd11","1","1","672c8a3b9fb83ab9c5f02fd2","1","1","2025-07-16T08:48:41.370Z","","","","","","","","","","","ControlQ","","50","","","","","","","","","","","","","","","","","","","","","","","","","","","","",""
"3055","","<div style=""width:500px;"">
  <p>How would you describe your current emotional state?</p>
  </div>","5","html-slider-response","32","467444","0.0-5.0-3.4","81","1","2025-07-16 08:41:02","1f75c3e559b7213887762d5229550c2b","216.120.189.142","Mozilla/5.0 (Windows NT 10.0; Win64; x64) AppleWebKit/537.36 (KHTML, like Gecko) Chrome/138.0.0.0 Safari/537.36","WebKit","Chrome","138.0.0.0","Windows","10.0","https://app.prolific.com/","en-US,en;q=0.9","672c8a3b9fb83ab9c5f02fd2","686e379bc37a29ffa5cdc956","6877655f7cdb077d75bffd11","1","1","672c8a3b9fb83ab9c5f02fd2","1","1","2025-07-16T08:48:44.429Z","","","","","","","","","","","StressQ","","50","","","","","","","","","","","","","","","","","","","","","","","","","","","","",""
"3659","","<div style=""width:500px;"">
  <p>What best describes how you currently feel?</p>
  </div>","96","html-slider-response","33","471108","0.0-5.0-4.4","81","1","2025-07-16 08:41:02","1f75c3e559b7213887762d5229550c2b","216.120.189.142","Mozilla/5.0 (Windows NT 10.0; Win64; x64) AppleWebKit/537.36 (KHTML, like Gecko) Chrome/138.0.0.0 Safari/537.36","WebKit","Chrome","138.0.0.0","Windows","10.0","https://app.prolific.com/","en-US,en;q=0.9","672c8a3b9fb83ab9c5f02fd2","686e379bc37a29ffa5cdc956","6877655f7cdb077d75bffd11","1","1","672c8a3b9fb83ab9c5f02fd2","1","1","2025-07-16T08:48:48.093Z","","","","","","","","","","","MotivationQ","","50","","","","","","","","","","","","","","","","","","","","","","","","","","","","",""
"","","","","ctl-task-cpt","34","494071","0.0-5.0-0.5","81","1","2025-07-16 08:41:02","1f75c3e559b7213887762d5229550c2b","216.120.189.142","Mozilla/5.0 (Windows NT 10.0; Win64; x64) AppleWebKit/537.36 (KHTML, like Gecko) Chrome/138.0.0.0 Safari/537.36","WebKit","Chrome","138.0.0.0","Windows","10.0","https://app.prolific.com/","en-US,en;q=0.9","672c8a3b9fb83ab9c5f02fd2","686e379bc37a29ffa5cdc956","6877655f7cdb077d75bffd11","1","1","672c8a3b9fb83ab9c5f02fd2","1","1","2025-07-16T08:49:11.055Z","","","","","","","","","","","","","","win-only","0","g1:NW,g2:SE","0.5","6","0","474277.4","1960.3","6973.6","19927.4","1","4","8","6","1","1","1","7","6","0.05303030303030303","5013.3","3000","2065","[""left"",""up""]","{""num_key_presses"":4,""num_perfect"":4,""num_errors"":0,""num_randdir"":0,""num_randdir_good_moves"":0,""num_whilered"":0,""num_whileblue"":0,""num_blue"":1,""num_good_moves"":4}","[300.22232142857143,298.12857142857143,0.2,300.22232142857143,298.12857142857143,109.8,300.22232142857143,298.12857142857143,213.5,300.22232142857143,299.12857142857143,322.3,291.22232142857143,319.12857142857143,425.2,286.22232142857143,328.12857142857143,527.2,286.22232142857143,328.12857142857143,635.1,286.22232142857143,328.12857142857143,739,286.22232142857143,328.12857142857143,850.6,286.22232142857143,328.12857142857143,961,286.22232142857143,328.12857142857143,1063,286.22232142857143,328.12857142857143,1171.7,286.22232142857143,328.12857142857143,1276.2,286.22232142857143,328.12857142857143,1378,286.22232142857143,328.12857142857143,1486.8,286.22232142857143,328.12857142857143,1599.1,286.22232142857143,328.12857142857143,1703.3,286.22232142857143,328.12857142857143,1808.4,286.22232142857143,329.12857142857143,1913.1,286.22232142857143,329.12857142857143,2018.4,286.22232142857143,329.12857142857143,2119.4,286.22232142857143,329.12857142857143,2221.2,286.22232142857143,329.12857142857143,2322.7,286.22232142857143,329.12857142857143,2424.3,286.22232142857143,329.12857142857143,2532.6,286.22232142857143,329.12857142857143,2635.5,286.22232142857143,329.12857142857143,2739.1,286.22232142857143,329.12857142857143,2849.2,286.22232142857143,329.12857142857143,2949.7,286.22232142857143,329.12857142857143,3050.6,286.22232142857143,329.12857142857143,3153.7,286.22232142857143,329.12857142857143,3265.3,286.22232142857143,329.12857142857143,3372.8,286.22232142857143,329.12857142857143,3474.7,286.22232142857143,329.12857142857143,3576.3,286.22232142857143,329.12857142857143,3680.8,286.22232142857143,329.12857142857143,3783.5,286.22232142857143,329.12857142857143,3886.7,286.22232142857143,329.12857142857143,3994.1,286.22232142857143,329.12857142857143,4096.6,286.22232142857143,329.12857142857143,4200.1,286.22232142857143,329.12857142857143,4300.3,286.22232142857143,329.12857142857143,4403.7,286.22232142857143,329.12857142857143,4513.2,286.22232142857143,329.12857142857143,4618.2,286.22232142857143,329.12857142857143,4721.9,286.22232142857143,329.12857142857143,4826.9,286.22232142857143,329.12857142857143,4939.3]","[4640.4,4640.4,2211.2,2022.9,406.3,""smooth"",""up"",""up"",""good_move"",6909.5,2267.3,1763.9,4642.2,503.4,""smooth"",""up"",""up"",""good_move"",9715.9,2805.4,2324.6,6910.5,480.8,""smooth"",""left"",""left"",""good_move"",12807.1,3089.2,2677.8,9718,411.4,""smooth"",""left"",""left"",""good_move""]","",""
"2862","","<div style=""width:500px;"">
  <p>What determined the result of this run?</p>
  </div>","62","html-slider-response","35","496935","0.0-5.0-1.5","81","1","2025-07-16 08:41:02","1f75c3e559b7213887762d5229550c2b","216.120.189.142","Mozilla/5.0 (Windows NT 10.0; Win64; x64) AppleWebKit/537.36 (KHTML, like Gecko) Chrome/138.0.0.0 Safari/537.36","WebKit","Chrome","138.0.0.0","Windows","10.0","https://app.prolific.com/","en-US,en;q=0.9","672c8a3b9fb83ab9c5f02fd2","686e379bc37a29ffa5cdc956","6877655f7cdb077d75bffd11","1","1","672c8a3b9fb83ab9c5f02fd2","1","1","2025-07-16T08:49:13.919Z","","","","","","","","","","","AttribQ","","50","","","","","","","","","","","","","","","","","","","","","","","","","","","","",""
"2523","","<div style=""width:500px;"">
  <p>How much control did you have over the ball?</p>
  </div>","84","html-slider-response","36","499461","0.0-5.0-2.5","81","1","2025-07-16 08:41:02","1f75c3e559b7213887762d5229550c2b","216.120.189.142","Mozilla/5.0 (Windows NT 10.0; Win64; x64) AppleWebKit/537.36 (KHTML, like Gecko) Chrome/138.0.0.0 Safari/537.36","WebKit","Chrome","138.0.0.0","Windows","10.0","https://app.prolific.com/","en-US,en;q=0.9","672c8a3b9fb83ab9c5f02fd2","686e379bc37a29ffa5cdc956","6877655f7cdb077d75bffd11","1","1","672c8a3b9fb83ab9c5f02fd2","1","1","2025-07-16T08:49:16.445Z","","","","","","","","","","","ControlQ","","50","","","","","","","","","","","","","","","","","","","","","","","","","","","","",""
"4123","","<div style=""width:500px;"">
  <p>How would you describe your current emotional state?</p>
  </div>","13","html-slider-response","37","503588","0.0-5.0-3.5","81","1","2025-07-16 08:41:02","1f75c3e559b7213887762d5229550c2b","216.120.189.142","Mozilla/5.0 (Windows NT 10.0; Win64; x64) AppleWebKit/537.36 (KHTML, like Gecko) Chrome/138.0.0.0 Safari/537.36","WebKit","Chrome","138.0.0.0","Windows","10.0","https://app.prolific.com/","en-US,en;q=0.9","672c8a3b9fb83ab9c5f02fd2","686e379bc37a29ffa5cdc956","6877655f7cdb077d75bffd11","1","1","672c8a3b9fb83ab9c5f02fd2","1","1","2025-07-16T08:49:20.572Z","","","","","","","","","","","StressQ","","50","","","","","","","","","","","","","","","","","","","","","","","","","","","","",""
"2239","","<div style=""width:500px;"">
  <p>What best describes how you currently feel?</p>
  </div>","99","html-slider-response","38","505831","0.0-5.0-4.5","81","1","2025-07-16 08:41:02","1f75c3e559b7213887762d5229550c2b","216.120.189.142","Mozilla/5.0 (Windows NT 10.0; Win64; x64) AppleWebKit/537.36 (KHTML, like Gecko) Chrome/138.0.0.0 Safari/537.36","WebKit","Chrome","138.0.0.0","Windows","10.0","https://app.prolific.com/","en-US,en;q=0.9","672c8a3b9fb83ab9c5f02fd2","686e379bc37a29ffa5cdc956","6877655f7cdb077d75bffd11","1","1","672c8a3b9fb83ab9c5f02fd2","1","1","2025-07-16T08:49:22.815Z","","","","","","","","","","","MotivationQ","","50","","","","","","","","","","","","","","","","","","","","","","","","","","","","",""
"","","","","ctl-task-cpt","39","550281","0.0-5.0-0.6","81","1","2025-07-16 08:41:02","1f75c3e559b7213887762d5229550c2b","216.120.189.142","Mozilla/5.0 (Windows NT 10.0; Win64; x64) AppleWebKit/537.36 (KHTML, like Gecko) Chrome/138.0.0.0 Safari/537.36","WebKit","Chrome","138.0.0.0","Windows","10.0","https://app.prolific.com/","en-US,en;q=0.9","672c8a3b9fb83ab9c5f02fd2","686e379bc37a29ffa5cdc956","6877655f7cdb077d75bffd11","1","1","672c8a3b9fb83ab9c5f02fd2","1","1","2025-07-16T08:50:07.265Z","","","","","","","","","","","","","","win-only","0","g1:NW,g2:SE","0.4","7","0","509002","1803.5","6810.5","41431.4","1","4","4","6","2","-4","-5","2","7","0.015151515151515152","5007","3000","-1725","[""down"",""right""]","{""num_key_presses"":10,""num_perfect"":4,""num_errors"":1,""num_randdir"":5,""num_randdir_good_moves"":3,""num_whilered"":0,""num_whileblue"":1,""num_blue"":2,""num_good_moves"":7}","[292.22232142857143,296.12857142857143,1,292.22232142857143,296.12857142857143,105.4,292.22232142857143,296.12857142857143,210.3,292.22232142857143,297.12857142857143,327.6,291.22232142857143,305.12857142857143,436.6,289.22232142857143,306.12857142857143,538.5,289.22232142857143,306.12857142857143,639,289.22232142857143,306.12857142857143,742,289.22232142857143,306.12857142857143,842.7,289.22232142857143,306.12857142857143,945.1,289.22232142857143,306.12857142857143,1049.4,289.22232142857143,306.12857142857143,1150.6,289.22232142857143,306.12857142857143,1259,289.22232142857143,306.12857142857143,1359.7,289.22232142857143,306.12857142857143,1466.9,289.22232142857143,306.12857142857143,1567.2,289.22232142857143,306.12857142857143,1671.6,289.22232142857143,306.12857142857143,1773,289.22232142857143,306.12857142857143,1882.9,289.22232142857143,306.12857142857143,1989.2,289.22232142857143,306.12857142857143,2089.7,289.22232142857143,306.12857142857143,2191.7,289.22232142857143,306.12857142857143,2296.8,289.22232142857143,306.12857142857143,2418.5,289.22232142857143,306.12857142857143,2518.6,289.22232142857143,306.12857142857143,2627.1,289.22232142857143,306.12857142857143,2728.7,289.22232142857143,306.12857142857143,2834.7,289.22232142857143,306.12857142857143,2935.8,289.22232142857143,306.12857142857143,3046.7,289.22232142857143,306.12857142857143,3149.6,289.22232142857143,306.12857142857143,3251.2,289.22232142857143,306.12857142857143,3356.8,289.22232142857143,306.12857142857143,3462.2,289.22232142857143,306.12857142857143,3565.6,289.22232142857143,306.12857142857143,3667.3,289.22232142857143,306.12857142857143,3776.6,289.22232142857143,306.12857142857143,3880.9,289.22232142857143,306.12857142857143,3986.7,289.22232142857143,306.12857142857143,4098.8,289.22232142857143,306.12857142857143,4205.1,289.22232142857143,306.12857142857143,4310.6,289.22232142857143,306.12857142857143,4410.6,289.22232142857143,306.12857142857143,4513.3,289.22232142857143,306.12857142857143,4618,289.22232142857143,306.12857142857143,4719.8,289.22232142857143,306.12857142857143,4828.8,289.22232142857143,306.12857142857143,4932.5]","[1508.4,1508.4,1000,0,508.4,""oops"",""down"",""right"",""good_move"",4865.2,3356.1,2833.6,1509.2,522.4,""smooth"",""down"",""down"",""good_move"",8366.2,3500.1,3027.9,4866.1,472.2,""smooth"",""down"",""down"",""good_move"",11236.6,2869.1,2444,8367.5,425.1,""smooth"",""down"",""down"",""good_move"",17119,5881.9,2578.4,14088.5,452.1,""oops"",""right"",""up"",""bad_move"",20179.7,3060.3,2618.5,17119.5,441.7,""smooth"",""right"",""right"",""good_move"",22803.1,2622.1,2045.4,20181.1,576.7,""oops"",""right"",""up"",""bad_move"",25703.6,2898.9,2481.6,22804.7,417.3,""while_blue"",""down"",""up"",""bad_move"",29021.4,3316.5,2871.5,25704.9,445,""oops"",""right"",""down"",""good_move"",31332.1,2310.3,1804.1,29021.8,506.2,""oops"",""right"",""down"",""good_move""]","",""
"6313","","<div style=""width:500px;"">
  <p>What determined the result of this run?</p>
  </div>","74","html-slider-response","40","556597","0.0-5.0-1.6","81","1","2025-07-16 08:41:02","1f75c3e559b7213887762d5229550c2b","216.120.189.142","Mozilla/5.0 (Windows NT 10.0; Win64; x64) AppleWebKit/537.36 (KHTML, like Gecko) Chrome/138.0.0.0 Safari/537.36","WebKit","Chrome","138.0.0.0","Windows","10.0","https://app.prolific.com/","en-US,en;q=0.9","672c8a3b9fb83ab9c5f02fd2","686e379bc37a29ffa5cdc956","6877655f7cdb077d75bffd11","1","1","672c8a3b9fb83ab9c5f02fd2","1","1","2025-07-16T08:50:13.581Z","","","","","","","","","","","AttribQ","","50","","","","","","","","","","","","","","","","","","","","","","","","","","","","",""
"3053","","<div style=""width:500px;"">
  <p>How much control did you have over the ball?</p>
  </div>","31","html-slider-response","41","559653","0.0-5.0-2.6","81","1","2025-07-16 08:41:02","1f75c3e559b7213887762d5229550c2b","216.120.189.142","Mozilla/5.0 (Windows NT 10.0; Win64; x64) AppleWebKit/537.36 (KHTML, like Gecko) Chrome/138.0.0.0 Safari/537.36","WebKit","Chrome","138.0.0.0","Windows","10.0","https://app.prolific.com/","en-US,en;q=0.9","672c8a3b9fb83ab9c5f02fd2","686e379bc37a29ffa5cdc956","6877655f7cdb077d75bffd11","1","1","672c8a3b9fb83ab9c5f02fd2","1","1","2025-07-16T08:50:16.637Z","","","","","","","","","","","ControlQ","","50","","","","","","","","","","","","","","","","","","","","","","","","","","","","",""
"3267","","<div style=""width:500px;"">
  <p>How would you describe your current emotional state?</p>
  </div>","15","html-slider-response","42","562923","0.0-5.0-3.6","81","1","2025-07-16 08:41:02","1f75c3e559b7213887762d5229550c2b","216.120.189.142","Mozilla/5.0 (Windows NT 10.0; Win64; x64) AppleWebKit/537.36 (KHTML, like Gecko) Chrome/138.0.0.0 Safari/537.36","WebKit","Chrome","138.0.0.0","Windows","10.0","https://app.prolific.com/","en-US,en;q=0.9","672c8a3b9fb83ab9c5f02fd2","686e379bc37a29ffa5cdc956","6877655f7cdb077d75bffd11","1","1","672c8a3b9fb83ab9c5f02fd2","1","1","2025-07-16T08:50:19.907Z","","","","","","","","","","","StressQ","","50","","","","","","","","","","","","","","","","","","","","","","","","","","","","",""
"3112","","<div style=""width:500px;"">
  <p>What best describes how you currently feel?</p>
  </div>","90","html-slider-response","43","566037","0.0-5.0-4.6","81","1","2025-07-16 08:41:02","1f75c3e559b7213887762d5229550c2b","216.120.189.142","Mozilla/5.0 (Windows NT 10.0; Win64; x64) AppleWebKit/537.36 (KHTML, like Gecko) Chrome/138.0.0.0 Safari/537.36","WebKit","Chrome","138.0.0.0","Windows","10.0","https://app.prolific.com/","en-US,en;q=0.9","672c8a3b9fb83ab9c5f02fd2","686e379bc37a29ffa5cdc956","6877655f7cdb077d75bffd11","1","1","672c8a3b9fb83ab9c5f02fd2","1","1","2025-07-16T08:50:23.022Z","","","","","","","","","","","MotivationQ","","50","","","","","","","","","","","","","","","","","","","","","","","","","","","","",""
"","","","","ctl-task-cpt","44","627193","0.0-5.0-0.7","81","1","2025-07-16 08:41:02","1f75c3e559b7213887762d5229550c2b","216.120.189.142","Mozilla/5.0 (Windows NT 10.0; Win64; x64) AppleWebKit/537.36 (KHTML, like Gecko) Chrome/138.0.0.0 Safari/537.36","WebKit","Chrome","138.0.0.0","Windows","10.0","https://app.prolific.com/","en-US,en;q=0.9","672c8a3b9fb83ab9c5f02fd2","686e379bc37a29ffa5cdc956","6877655f7cdb077d75bffd11","1","1","672c8a3b9fb83ab9c5f02fd2","1","1","2025-07-16T08:51:24.178Z","","","","","","","","","","","","","","win-only","1","g1:NE,g2:SW","0.3","8","0","569204.8","1203.2","6205.9","58138.4","1","4","8","6","2","-8","-8","0","2","0","5002.7","3000","-1705","[""down"",""left""]","{""num_key_presses"":13,""num_perfect"":4,""num_errors"":0,""num_randdir"":9,""num_randdir_good_moves"":4,""num_whilered"":0,""num_whileblue"":0,""num_blue"":4,""num_good_moves"":8}","[296.22232142857143,299.12857142857143,0.3,296.22232142857143,299.12857142857143,104.6,296.22232142857143,299.12857142857143,205.4,295.22232142857143,302.12857142857143,305.7,282.22232142857143,312.12857142857143,414,252.22232142857143,309.12857142857143,525,252.22232142857143,309.12857142857143,636.3,252.22232142857143,309.12857142857143,745.1,252.22232142857143,309.12857142857143,861.7,252.22232142857143,309.12857142857143,963.6,252.22232142857143,309.12857142857143,1070.2,252.22232142857143,309.12857142857143,1176.5,252.22232142857143,309.12857142857143,1281.4,252.22232142857143,309.12857142857143,1383.5,252.22232142857143,309.12857142857143,1488.3,252.22232142857143,309.12857142857143,1600.2,252.22232142857143,309.12857142857143,1702.4,252.22232142857143,309.12857142857143,1810.2,252.22232142857143,309.12857142857143,1914.5,252.22232142857143,309.12857142857143,2027.6,252.22232142857143,309.12857142857143,2138.5,252.22232142857143,309.12857142857143,2251.4,252.22232142857143,309.12857142857143,2359.4,252.22232142857143,309.12857142857143,2465.7,252.22232142857143,309.12857142857143,2576.7,252.22232142857143,309.12857142857143,2695.9,252.22232142857143,309.12857142857143,2801.2,252.22232142857143,309.12857142857143,2909,252.22232142857143,309.12857142857143,3024.4,252.22232142857143,309.12857142857143,3133.5,252.22232142857143,309.12857142857143,3245.4,252.22232142857143,309.12857142857143,3348.5,252.22232142857143,309.12857142857143,3460.8,252.22232142857143,309.12857142857143,3564.4,252.22232142857143,309.12857142857143,3670,252.22232142857143,309.12857142857143,3775.3,252.22232142857143,309.12857142857143,3883.2,252.22232142857143,309.12857142857143,3993.5,252.22232142857143,309.12857142857143,4104.2,252.22232142857143,309.12857142857143,4216.1,252.22232142857143,309.12857142857143,4322.2,252.22232142857143,309.12857142857143,4434.4,252.22232142857143,309.12857142857143,4538.9,252.22232142857143,309.12857142857143,4643.8,252.22232142857143,309.12857142857143,4757.4,252.22232142857143,309.12857142857143,4870.8,252.22232142857143,309.12857142857143,4973.8]","[1481.8,1481.8,1000,0,481.8,""oops"",""down"",""right"",""bad_move"",3815.6,2333.2,1830.3,1482.4,502.9,""smooth"",""down"",""down"",""good_move"",9916.7,6100.1,2684,6840.5,392.2,""oops"",""down"",""down"",""good_move"",16657.5,6740.4,2364.3,13831.7,461.5,""smooth"",""down"",""down"",""good_move"",19035.7,2377.6,1798.7,16658.1,578.9,""smooth"",""left"",""left"",""good_move"",26603.9,7567.5,2336.1,23863.3,404.5,""oops"",""left"",""right"",""bad_move"",29442.1,2837.5,2382.9,26604.6,454.6,""oops"",""left"",""right"",""bad_move"",32455,3011.8,2542.5,29443.2,469.3,""oops"",""left"",""up"",""bad_move"",34795.2,2338.9,1762.6,32456.3,576.3,""oops"",""left"",""up"",""bad_move"",37744.3,2947.3,2421.7,34797.1,525.5,""oops"",""down"",""left"",""good_move"",40058.6,2312.6,1849.3,37746.1,463.3,""oops"",""down"",""down"",""good_move"",46123.2,6063.3,2221.2,43411,491,""smooth"",""left"",""left"",""good_move"",49503.3,3378.7,2888.5,46124.7,490.2,""oops"",""left"",""down"",""good_move""]","",""
"4217","","<div style=""width:500px;"">
  <p>What determined the result of this run?</p>
  </div>","50","html-slider-response","45","631414","0.0-5.0-1.7","81","1","2025-07-16 08:41:02","1f75c3e559b7213887762d5229550c2b","216.120.189.142","Mozilla/5.0 (Windows NT 10.0; Win64; x64) AppleWebKit/537.36 (KHTML, like Gecko) Chrome/138.0.0.0 Safari/537.36","WebKit","Chrome","138.0.0.0","Windows","10.0","https://app.prolific.com/","en-US,en;q=0.9","672c8a3b9fb83ab9c5f02fd2","686e379bc37a29ffa5cdc956","6877655f7cdb077d75bffd11","1","1","672c8a3b9fb83ab9c5f02fd2","1","1","2025-07-16T08:51:28.399Z","","","","","","","","","","","AttribQ","","50","","","","","","","","","","","","","","","","","","","","","","","","","","","","",""
"3724","","<div style=""width:500px;"">
  <p>How much control did you have over the ball?</p>
  </div>","16","html-slider-response","46","635141","0.0-5.0-2.7","81","1","2025-07-16 08:41:02","1f75c3e559b7213887762d5229550c2b","216.120.189.142","Mozilla/5.0 (Windows NT 10.0; Win64; x64) AppleWebKit/537.36 (KHTML, like Gecko) Chrome/138.0.0.0 Safari/537.36","WebKit","Chrome","138.0.0.0","Windows","10.0","https://app.prolific.com/","en-US,en;q=0.9","672c8a3b9fb83ab9c5f02fd2","686e379bc37a29ffa5cdc956","6877655f7cdb077d75bffd11","1","1","672c8a3b9fb83ab9c5f02fd2","1","1","2025-07-16T08:51:32.125Z","","","","","","","","","","","ControlQ","","50","","","","","","","","","","","","","","","","","","","","","","","","","","","","",""
"3652","","<div style=""width:500px;"">
  <p>How would you describe your current emotional state?</p>
  </div>","11","html-slider-response","47","638796","0.0-5.0-3.7","81","1","2025-07-16 08:41:02","1f75c3e559b7213887762d5229550c2b","216.120.189.142","Mozilla/5.0 (Windows NT 10.0; Win64; x64) AppleWebKit/537.36 (KHTML, like Gecko) Chrome/138.0.0.0 Safari/537.36","WebKit","Chrome","138.0.0.0","Windows","10.0","https://app.prolific.com/","en-US,en;q=0.9","672c8a3b9fb83ab9c5f02fd2","686e379bc37a29ffa5cdc956","6877655f7cdb077d75bffd11","1","1","672c8a3b9fb83ab9c5f02fd2","1","1","2025-07-16T08:51:35.781Z","","","","","","","","","","","StressQ","","50","","","","","","","","","","","","","","","","","","","","","","","","","","","","",""
"2847","","<div style=""width:500px;"">
  <p>What best describes how you currently feel?</p>
  </div>","94","html-slider-response","48","641647","0.0-5.0-4.7","81","1","2025-07-16 08:41:02","1f75c3e559b7213887762d5229550c2b","216.120.189.142","Mozilla/5.0 (Windows NT 10.0; Win64; x64) AppleWebKit/537.36 (KHTML, like Gecko) Chrome/138.0.0.0 Safari/537.36","WebKit","Chrome","138.0.0.0","Windows","10.0","https://app.prolific.com/","en-US,en;q=0.9","672c8a3b9fb83ab9c5f02fd2","686e379bc37a29ffa5cdc956","6877655f7cdb077d75bffd11","1","1","672c8a3b9fb83ab9c5f02fd2","1","1","2025-07-16T08:51:38.631Z","","","","","","","","","","","MotivationQ","","50","","","","","","","","","","","","","","","","","","","","","","","","","","","","",""
"","","","","ctl-task-cpt","49","674684","0.0-5.0-0.8","81","1","2025-07-16 08:41:02","1f75c3e559b7213887762d5229550c2b","216.120.189.142","Mozilla/5.0 (Windows NT 10.0; Win64; x64) AppleWebKit/537.36 (KHTML, like Gecko) Chrome/138.0.0.0 Safari/537.36","WebKit","Chrome","138.0.0.0","Windows","10.0","https://app.prolific.com/","en-US,en;q=0.9","672c8a3b9fb83ab9c5f02fd2","686e379bc37a29ffa5cdc956","6877655f7cdb077d75bffd11","1","1","672c8a3b9fb83ab9c5f02fd2","1","1","2025-07-16T08:52:11.668Z","","","","","","","","","","","","","","win-only","1","g1:NE,g2:SW","0.2","9","0","644815.1","2615.7","7625.5","30006.6","1","4","8","6","1","1","1","1","0","0.007575757575757576","5009.8","3000","2210","[""up"",""right""]","{""num_key_presses"":4,""num_perfect"":2,""num_errors"":0,""num_randdir"":2,""num_randdir_good_moves"":2,""num_whilered"":0,""num_whileblue"":0,""num_blue"":3,""num_good_moves"":4}","[297.22232142857143,293.12857142857143,1.8,297.22232142857143,293.12857142857143,101.8,298.22232142857143,293.12857142857143,207.7,299.22232142857143,293.12857142857143,312.3,299.22232142857143,294.12857142857143,417.5,298.22232142857143,296.12857142857143,521.5,281.22232142857143,333.12857142857143,625.6,259.22232142857143,384.12857142857143,731.8,259.22232142857143,385.12857142857143,837.3,259.22232142857143,385.12857142857143,941.4,259.22232142857143,385.12857142857143,1050.2,259.22232142857143,385.12857142857143,1150.9,259.22232142857143,385.12857142857143,1272.7,259.22232142857143,385.12857142857143,1376,259.22232142857143,385.12857142857143,1486.1,259.22232142857143,385.12857142857143,1590.3,259.22232142857143,385.12857142857143,1699.7,259.22232142857143,385.12857142857143,1804.4,259.22232142857143,385.12857142857143,1910.6,259.22232142857143,385.12857142857143,2018.4,259.22232142857143,385.12857142857143,2125.4,259.22232142857143,385.12857142857143,2229.3,259.22232142857143,385.12857142857143,2335.9,259.22232142857143,385.12857142857143,2441.7,259.22232142857143,385.12857142857143,2546.3,259.22232142857143,385.12857142857143,2652.6,259.22232142857143,385.12857142857143,2753.5,259.22232142857143,385.12857142857143,2853.9,259.22232142857143,385.12857142857143,2953.9,259.22232142857143,385.12857142857143,3055.9,259.22232142857143,385.12857142857143,3169.6,259.22232142857143,385.12857142857143,3278.4,259.22232142857143,385.12857142857143,3387.8,259.22232142857143,385.12857142857143,3490.6,259.22232142857143,385.12857142857143,3596.3,259.22232142857143,385.12857142857143,3705.5,259.22232142857143,385.12857142857143,3814.3,259.22232142857143,385.12857142857143,3921.3,259.22232142857143,385.12857142857143,4029,259.22232142857143,385.12857142857143,4134.1,259.22232142857143,385.12857142857143,4238.1,259.22232142857143,385.12857142857143,4338.8,259.22232142857143,385.12857142857143,4443.5,259.22232142857143,385.12857142857143,4554,259.22232142857143,385.12857142857143,4663.3,259.22232142857143,385.12857142857143,4767.3,259.22232142857143,385.12857142857143,4867.3,259.22232142857143,385.12857142857143,4972.2]","[1793.6,1793.6,1000,0.1,793.5,""smooth"",""right"",""right"",""good_move"",8675.2,6879.7,3016.1,5208.1,451,""oops"",""right"",""up"",""good_move"",15159.7,6483.5,2809.4,11925.1,425.2,""oops"",""right"",""right"",""good_move"",22153.9,6994,2845,18861,448,""smooth"",""up"",""up"",""good_move""]","",""
"3637","","<div style=""width:500px;"">
  <p>What determined the result of this run?</p>
  </div>","50","html-slider-response","50","678324","0.0-5.0-1.8","81","1","2025-07-16 08:41:02","1f75c3e559b7213887762d5229550c2b","216.120.189.142","Mozilla/5.0 (Windows NT 10.0; Win64; x64) AppleWebKit/537.36 (KHTML, like Gecko) Chrome/138.0.0.0 Safari/537.36","WebKit","Chrome","138.0.0.0","Windows","10.0","https://app.prolific.com/","en-US,en;q=0.9","672c8a3b9fb83ab9c5f02fd2","686e379bc37a29ffa5cdc956","6877655f7cdb077d75bffd11","1","1","672c8a3b9fb83ab9c5f02fd2","1","1","2025-07-16T08:52:15.308Z","","","","","","","","","","","AttribQ","","50","","","","","","","","","","","","","","","","","","","","","","","","","","","","",""
"3077","","<div style=""width:500px;"">
  <p>How much control did you have over the ball?</p>
  </div>","72","html-slider-response","51","681403","0.0-5.0-2.8","81","1","2025-07-16 08:41:02","1f75c3e559b7213887762d5229550c2b","216.120.189.142","Mozilla/5.0 (Windows NT 10.0; Win64; x64) AppleWebKit/537.36 (KHTML, like Gecko) Chrome/138.0.0.0 Safari/537.36","WebKit","Chrome","138.0.0.0","Windows","10.0","https://app.prolific.com/","en-US,en;q=0.9","672c8a3b9fb83ab9c5f02fd2","686e379bc37a29ffa5cdc956","6877655f7cdb077d75bffd11","1","1","672c8a3b9fb83ab9c5f02fd2","1","1","2025-07-16T08:52:18.387Z","","","","","","","","","","","ControlQ","","50","","","","","","","","","","","","","","","","","","","","","","","","","","","","",""
"3022","","<div style=""width:500px;"">
  <p>How would you describe your current emotional state?</p>
  </div>","11","html-slider-response","52","684426","0.0-5.0-3.8","81","1","2025-07-16 08:41:02","1f75c3e559b7213887762d5229550c2b","216.120.189.142","Mozilla/5.0 (Windows NT 10.0; Win64; x64) AppleWebKit/537.36 (KHTML, like Gecko) Chrome/138.0.0.0 Safari/537.36","WebKit","Chrome","138.0.0.0","Windows","10.0","https://app.prolific.com/","en-US,en;q=0.9","672c8a3b9fb83ab9c5f02fd2","686e379bc37a29ffa5cdc956","6877655f7cdb077d75bffd11","1","1","672c8a3b9fb83ab9c5f02fd2","1","1","2025-07-16T08:52:21.411Z","","","","","","","","","","","StressQ","","50","","","","","","","","","","","","","","","","","","","","","","","","","","","","",""
"2965","","<div style=""width:500px;"">
  <p>What best describes how you currently feel?</p>
  </div>","99","html-slider-response","53","687395","0.0-5.0-4.8","81","1","2025-07-16 08:41:02","1f75c3e559b7213887762d5229550c2b","216.120.189.142","Mozilla/5.0 (Windows NT 10.0; Win64; x64) AppleWebKit/537.36 (KHTML, like Gecko) Chrome/138.0.0.0 Safari/537.36","WebKit","Chrome","138.0.0.0","Windows","10.0","https://app.prolific.com/","en-US,en;q=0.9","672c8a3b9fb83ab9c5f02fd2","686e379bc37a29ffa5cdc956","6877655f7cdb077d75bffd11","1","1","672c8a3b9fb83ab9c5f02fd2","1","1","2025-07-16T08:52:24.379Z","","","","","","","","","","","MotivationQ","","50","","","","","","","","","","","","","","","","","","","","","","","","","","","","",""
"","","","","ctl-task-cpt","54","783447","0.0-5.0-0.9","81","1","2025-07-16 08:41:02","1f75c3e559b7213887762d5229550c2b","216.120.189.142","Mozilla/5.0 (Windows NT 10.0; Win64; x64) AppleWebKit/537.36 (KHTML, like Gecko) Chrome/138.0.0.0 Safari/537.36","WebKit","Chrome","138.0.0.0","Windows","10.0","https://app.prolific.com/","en-US,en;q=0.9","672c8a3b9fb83ab9c5f02fd2","686e379bc37a29ffa5cdc956","6877655f7cdb077d75bffd11","1","1","672c8a3b9fb83ab9c5f02fd2","1","1","2025-07-16T08:54:00.431Z","","","","","","","","","","","","","","win-only","1","g1:NE,g2:SW","0.4","10","0","690563","2011.3","7031.9","93026.8","1","4","4","6","2","-4","-5","0","1","0","5020.6","3000","-1290","[""down"",""left""]","{""num_key_presses"":20,""num_perfect"":8,""num_errors"":1,""num_randdir"":11,""num_randdir_good_moves"":5,""num_whilered"":0,""num_whileblue"":1,""num_blue"":6,""num_good_moves"":12}","[299.22232142857143,296.12857142857143,0.4,299.22232142857143,296.12857142857143,107.4,299.22232142857143,296.12857142857143,216.7,299.22232142857143,296.12857142857143,326.3,299.22232142857143,296.12857142857143,445.9,296.22232142857143,299.12857142857143,555,246.22232142857143,338.12857142857143,671.5,229.22232142857143,354.12857142857143,771.5,229.22232142857143,354.12857142857143,872.4,229.22232142857143,354.12857142857143,988.7,229.22232142857143,354.12857142857143,1090.4,229.22232142857143,354.12857142857143,1211.1,229.22232142857143,354.12857142857143,1367.5,229.22232142857143,354.12857142857143,1497.5,229.22232142857143,354.12857142857143,1602.3,229.22232142857143,354.12857142857143,1717.7,229.22232142857143,354.12857142857143,1834.5,229.22232142857143,354.12857142857143,1949.2,229.22232142857143,354.12857142857143,2065.3,229.22232142857143,354.12857142857143,2168.3,229.22232142857143,354.12857142857143,2270.8,229.22232142857143,354.12857142857143,2372.2,229.22232142857143,354.12857142857143,2475.9,229.22232142857143,354.12857142857143,2585.1,229.22232142857143,354.12857142857143,2686.3,229.22232142857143,354.12857142857143,2812.9,229.22232142857143,354.12857142857143,2915.3,229.22232142857143,354.12857142857143,3038.4,229.22232142857143,354.12857142857143,3146.6,229.22232142857143,354.12857142857143,3254.7,229.22232142857143,354.12857142857143,3363.4,229.22232142857143,354.12857142857143,3473.3,229.22232142857143,354.12857142857143,3575.5,229.22232142857143,354.12857142857143,3679,229.22232142857143,354.12857142857143,3790.4,229.22232142857143,354.12857142857143,3897.6,229.22232142857143,354.12857142857143,4001.1,229.22232142857143,354.12857142857143,4109.5,229.22232142857143,354.12857142857143,4214.1,229.22232142857143,354.12857142857143,4330.7,229.22232142857143,354.12857142857143,4450.8,229.22232142857143,354.12857142857143,4561.8,229.22232142857143,354.12857142857143,4668,229.22232142857143,354.12857142857143,4777.6,229.22232142857143,354.12857142857143,4893.9,229.22232142857143,354.12857142857143,4996.5]","[1486.4,1486.4,1000,0,486.4,""smooth"",""down"",""down"",""good_move"",4293.8,2806.5,2368.1,1487.3,438.4,""oops"",""down"",""right"",""bad_move"",7132.4,2835.5,2425.6,4296.9,409.9,""oops"",""down"",""up"",""bad_move"",14381.6,7248.1,2929.4,10991.8,460.4,""smooth"",""left"",""left"",""good_move"",17562,3178.4,2131.3,14383.6,1047.1,""oops"",""left"",""left"",""good_move"",21514.9,3952.1,3539.4,17562.8,412.7,""oops"",""left"",""left"",""good_move"",24509.4,2994.2,1749.2,21515.2,1245,""smooth"",""left"",""left"",""good_move"",27953.5,3443.7,3068.9,24509.8,374.8,""while_blue"",""down"",""up"",""bad_move"",31817.9,3863.8,2604.5,27954.1,1259.4,""smooth"",""down"",""down"",""good_move"",34362.5,2543.3,1824.4,31819.2,718.9,""oops"",""down"",""right"",""bad_move"",36917.8,2554.4,2134.9,34363.5,419.5,""oops"",""down"",""down"",""good_move"",39930.3,3011.2,2561.4,36919.1,449.8,""oops"",""down"",""down"",""good_move"",42555,2624.4,2111.7,39930.6,512.7,""oops"",""down"",""left"",""good_move"",46651.7,4096,2126.5,42555.8,1969.5,""oops"",""down"",""up"",""bad_move"",51175.3,4522.9,2659.6,46652.5,1863.3,""smooth"",""up"",""up"",""bad_move"",64116.7,12940.9,2567,61032.4,517.3,""oops"",""down"",""right"",""bad_move"",71005.2,6888,2123,68413.9,468.3,""smooth"",""down"",""down"",""good_move"",77590.8,6584.8,2900.7,74277.9,412.2,""smooth"",""down"",""down"",""good_move"",80988.1,3397.1,2918.2,77591,478.9,""smooth"",""down"",""down"",""good_move"",83926.3,2937.4,2448,80988.9,489.4,""oops"",""left"",""right"",""bad_move""]","",""
"4241","","<div style=""width:500px;"">
  <p>What determined the result of this run?</p>
  </div>","50","html-slider-response","55","787692","0.0-5.0-1.9","81","1","2025-07-16 08:41:02","1f75c3e559b7213887762d5229550c2b","216.120.189.142","Mozilla/5.0 (Windows NT 10.0; Win64; x64) AppleWebKit/537.36 (KHTML, like Gecko) Chrome/138.0.0.0 Safari/537.36","WebKit","Chrome","138.0.0.0","Windows","10.0","https://app.prolific.com/","en-US,en;q=0.9","672c8a3b9fb83ab9c5f02fd2","686e379bc37a29ffa5cdc956","6877655f7cdb077d75bffd11","1","1","672c8a3b9fb83ab9c5f02fd2","1","1","2025-07-16T08:54:04.676Z","","","","","","","","","","","AttribQ","","50","","","","","","","","","","","","","","","","","","","","","","","","","","","","",""
"2749","","<div style=""width:500px;"">
  <p>How much control did you have over the ball?</p>
  </div>","30","html-slider-response","56","790444","0.0-5.0-2.9","81","1","2025-07-16 08:41:02","1f75c3e559b7213887762d5229550c2b","216.120.189.142","Mozilla/5.0 (Windows NT 10.0; Win64; x64) AppleWebKit/537.36 (KHTML, like Gecko) Chrome/138.0.0.0 Safari/537.36","WebKit","Chrome","138.0.0.0","Windows","10.0","https://app.prolific.com/","en-US,en;q=0.9","672c8a3b9fb83ab9c5f02fd2","686e379bc37a29ffa5cdc956","6877655f7cdb077d75bffd11","1","1","672c8a3b9fb83ab9c5f02fd2","1","1","2025-07-16T08:54:07.428Z","","","","","","","","","","","ControlQ","","50","","","","","","","","","","","","","","","","","","","","","","","","","","","","",""
"4343","","<div style=""width:500px;"">
  <p>How would you describe your current emotional state?</p>
  </div>","11","html-slider-response","57","794789","0.0-5.0-3.9","81","1","2025-07-16 08:41:02","1f75c3e559b7213887762d5229550c2b","216.120.189.142","Mozilla/5.0 (Windows NT 10.0; Win64; x64) AppleWebKit/537.36 (KHTML, like Gecko) Chrome/138.0.0.0 Safari/537.36","WebKit","Chrome","138.0.0.0","Windows","10.0","https://app.prolific.com/","en-US,en;q=0.9","672c8a3b9fb83ab9c5f02fd2","686e379bc37a29ffa5cdc956","6877655f7cdb077d75bffd11","1","1","672c8a3b9fb83ab9c5f02fd2","1","1","2025-07-16T08:54:11.773Z","","","","","","","","","","","StressQ","","50","","","","","","","","","","","","","","","","","","","","","","","","","","","","",""
"3460","","<div style=""width:500px;"">
  <p>What best describes how you currently feel?</p>
  </div>","97","html-slider-response","58","798252","0.0-5.0-4.9","81","1","2025-07-16 08:41:02","1f75c3e559b7213887762d5229550c2b","216.120.189.142","Mozilla/5.0 (Windows NT 10.0; Win64; x64) AppleWebKit/537.36 (KHTML, like Gecko) Chrome/138.0.0.0 Safari/537.36","WebKit","Chrome","138.0.0.0","Windows","10.0","https://app.prolific.com/","en-US,en;q=0.9","672c8a3b9fb83ab9c5f02fd2","686e379bc37a29ffa5cdc956","6877655f7cdb077d75bffd11","1","1","672c8a3b9fb83ab9c5f02fd2","1","1","2025-07-16T08:54:15.236Z","","","","","","","","","","","MotivationQ","","50","","","","","","","","","","","","","","","","","","","","","","","","","","","","",""
"","","","","ctl-task-cpt","59","849871","0.0-5.0-0.10","81","1","2025-07-16 08:41:02","1f75c3e559b7213887762d5229550c2b","216.120.189.142","Mozilla/5.0 (Windows NT 10.0; Win64; x64) AppleWebKit/537.36 (KHTML, like Gecko) Chrome/138.0.0.0 Safari/537.36","WebKit","Chrome","138.0.0.0","Windows","10.0","https://app.prolific.com/","en-US,en;q=0.9","672c8a3b9fb83ab9c5f02fd2","686e379bc37a29ffa5cdc956","6877655f7cdb077d75bffd11","1","1","672c8a3b9fb83ab9c5f02fd2","1","1","2025-07-16T08:55:06.855Z","","","","","","","","","","","","","","win-only","0","g1:NW,g2:SE","0.5","11","0","801419.6","2746.1","7776.7","48580.1","1","4","4","6","1","1","1","1","0","0.007575757575757576","5030.6","3000","1620","[""left"",""up""]","{""num_key_presses"":12,""num_perfect"":6,""num_errors"":0,""num_randdir"":6,""num_randdir_good_moves"":3,""num_whilered"":0,""num_whileblue"":0,""num_blue"":0,""num_good_moves"":8}","[291.22232142857143,292.12857142857143,0.7,291.22232142857143,292.12857142857143,109.4,291.22232142857143,292.12857142857143,221.6,291.22232142857143,292.12857142857143,321.7,291.22232142857143,292.12857142857143,428,291.22232142857143,292.12857142857143,539.5,291.22232142857143,292.12857142857143,640.5,227.22232142857143,325.12857142857143,741.4,194.22232142857143,339.12857142857143,842.5,194.22232142857143,339.12857142857143,945.8,194.22232142857143,339.12857142857143,1049,194.22232142857143,339.12857142857143,1155.6,194.22232142857143,339.12857142857143,1258.3,194.22232142857143,339.12857142857143,1371.1,194.22232142857143,339.12857142857143,1471.5,194.22232142857143,339.12857142857143,1575,194.22232142857143,339.12857142857143,1686.1,194.22232142857143,339.12857142857143,1799.5,194.22232142857143,339.12857142857143,1900.6,194.22232142857143,339.12857142857143,2013.6,194.22232142857143,339.12857142857143,2118.2,194.22232142857143,339.12857142857143,2224.6,194.22232142857143,339.12857142857143,2330.6,194.22232142857143,339.12857142857143,2432.7,194.22232142857143,339.12857142857143,2536.2,194.22232142857143,339.12857142857143,2649.9,194.22232142857143,339.12857142857143,2750.4,194.22232142857143,339.12857142857143,2853.6,194.22232142857143,339.12857142857143,2953.6,194.22232142857143,339.12857142857143,3056.7,194.22232142857143,339.12857142857143,3162.3,194.22232142857143,339.12857142857143,3274.8,194.22232142857143,339.12857142857143,3379.2,194.22232142857143,339.12857142857143,3488.1,194.22232142857143,339.12857142857143,3593.7,194.22232142857143,339.12857142857143,3695.7,194.22232142857143,339.12857142857143,3799.8,194.22232142857143,339.12857142857143,3907.6,194.22232142857143,339.12857142857143,4020.1,194.22232142857143,339.12857142857143,4121.1,194.22232142857143,339.12857142857143,4225.5,194.22232142857143,339.12857142857143,4350.3,194.22232142857143,339.12857142857143,4458.7,194.22232142857143,339.12857142857143,4568.6,194.22232142857143,339.12857142857143,4671,194.22232142857143,339.12857142857143,4774.1,194.22232142857143,339.12857142857143,4880.1,194.22232142857143,339.12857142857143,4985.7]","[1442.1,1442.1,1000,0,442.1,""smooth"",""up"",""up"",""good_move"",4810.3,3362.1,2893,1448.2,469.1,""smooth"",""left"",""left"",""good_move"",7671.5,2860,2455.5,4811.5,404.5,""oops"",""left"",""left"",""good_move"",10859.8,3187.9,1911.3,7671.9,1276.6,""oops"",""up"",""down"",""bad_move"",13882.3,3021.7,2585.4,10860.6,436.4,""smooth"",""up"",""up"",""good_move"",17610.6,3727.2,2094.6,13883.4,1632.6,""oops"",""up"",""down"",""bad_move"",20277,2665.6,2007.7,17611.4,657.9,""smooth"",""up"",""up"",""good_move"",24050.9,3772.7,3014.2,20278.2,758.5,""smooth"",""right"",""right"",""bad_move"",27138.4,3086.9,2535.5,24051.5,551.4,""oops"",""up"",""down"",""bad_move"",30135.3,2996.6,2470.2,27138.7,526.4,""oops"",""up"",""left"",""good_move"",35147.9,5010.2,2180.3,30137.7,2829.9,""oops"",""up"",""up"",""good_move"",40317.4,5169.1,2293.6,35148.3,2875.5,""smooth"",""up"",""up"",""good_move""]","",""
"2427","","<div style=""width:500px;"">
  <p>What determined the result of this run?</p>
  </div>","50","html-slider-response","60","852302","0.0-5.0-1.10","81","1","2025-07-16 08:41:02","1f75c3e559b7213887762d5229550c2b","216.120.189.142","Mozilla/5.0 (Windows NT 10.0; Win64; x64) AppleWebKit/537.36 (KHTML, like Gecko) Chrome/138.0.0.0 Safari/537.36","WebKit","Chrome","138.0.0.0","Windows","10.0","https://app.prolific.com/","en-US,en;q=0.9","672c8a3b9fb83ab9c5f02fd2","686e379bc37a29ffa5cdc956","6877655f7cdb077d75bffd11","1","1","672c8a3b9fb83ab9c5f02fd2","1","1","2025-07-16T08:55:09.286Z","","","","","","","","","","","AttribQ","","50","","","","","","","","","","","","","","","","","","","","","","","","","","","","",""
"2546","","<div style=""width:500px;"">
  <p>How much control did you have over the ball?</p>
  </div>","59","html-slider-response","61","854852","0.0-5.0-2.10","81","1","2025-07-16 08:41:02","1f75c3e559b7213887762d5229550c2b","216.120.189.142","Mozilla/5.0 (Windows NT 10.0; Win64; x64) AppleWebKit/537.36 (KHTML, like Gecko) Chrome/138.0.0.0 Safari/537.36","WebKit","Chrome","138.0.0.0","Windows","10.0","https://app.prolific.com/","en-US,en;q=0.9","672c8a3b9fb83ab9c5f02fd2","686e379bc37a29ffa5cdc956","6877655f7cdb077d75bffd11","1","1","672c8a3b9fb83ab9c5f02fd2","1","1","2025-07-16T08:55:11.836Z","","","","","","","","","","","ControlQ","","50","","","","","","","","","","","","","","","","","","","","","","","","","","","","",""
"3119","","<div style=""width:500px;"">
  <p>How would you describe your current emotional state?</p>
  </div>","11","html-slider-response","62","857978","0.0-5.0-3.10","81","1","2025-07-16 08:41:02","1f75c3e559b7213887762d5229550c2b","216.120.189.142","Mozilla/5.0 (Windows NT 10.0; Win64; x64) AppleWebKit/537.36 (KHTML, like Gecko) Chrome/138.0.0.0 Safari/537.36","WebKit","Chrome","138.0.0.0","Windows","10.0","https://app.prolific.com/","en-US,en;q=0.9","672c8a3b9fb83ab9c5f02fd2","686e379bc37a29ffa5cdc956","6877655f7cdb077d75bffd11","1","1","672c8a3b9fb83ab9c5f02fd2","1","1","2025-07-16T08:55:14.963Z","","","","","","","","","","","StressQ","","50","","","","","","","","","","","","","","","","","","","","","","","","","","","","",""
"2456","","<div style=""width:500px;"">
  <p>What best describes how you currently feel?</p>
  </div>","93","html-slider-response","63","860438","0.0-5.0-4.10","81","1","2025-07-16 08:41:02","1f75c3e559b7213887762d5229550c2b","216.120.189.142","Mozilla/5.0 (Windows NT 10.0; Win64; x64) AppleWebKit/537.36 (KHTML, like Gecko) Chrome/138.0.0.0 Safari/537.36","WebKit","Chrome","138.0.0.0","Windows","10.0","https://app.prolific.com/","en-US,en;q=0.9","672c8a3b9fb83ab9c5f02fd2","686e379bc37a29ffa5cdc956","6877655f7cdb077d75bffd11","1","1","672c8a3b9fb83ab9c5f02fd2","1","1","2025-07-16T08:55:17.422Z","","","","","","","","","","","MotivationQ","","50","","","","","","","","","","","","","","","","","","","","","","","","","","","","",""
"","","","","ctl-task-cpt","64","903429","0.0-5.0-0.11","81","1","2025-07-16 08:41:02","1f75c3e559b7213887762d5229550c2b","216.120.189.142","Mozilla/5.0 (Windows NT 10.0; Win64; x64) AppleWebKit/537.36 (KHTML, like Gecko) Chrome/138.0.0.0 Safari/537.36","WebKit","Chrome","138.0.0.0","Windows","10.0","https://app.prolific.com/","en-US,en;q=0.9","672c8a3b9fb83ab9c5f02fd2","686e379bc37a29ffa5cdc956","6877655f7cdb077d75bffd11","1","1","672c8a3b9fb83ab9c5f02fd2","1","1","2025-07-16T08:56:00.413Z","","","","","","","","","","","","","","win-only","1","g1:NE,g2:SW","0.6","12","0","863605.1","1295.8","6328.5","39957.8","1","4","8","6","1","1","1","2","1","0.015151515151515152","5032.7","3000","2495","[""up"",""right""]","{""num_key_presses"":6,""num_perfect"":5,""num_errors"":0,""num_randdir"":1,""num_randdir_good_moves"":0,""num_whilered"":0,""num_whileblue"":0,""num_blue"":2,""num_good_moves"":5}","[288.22232142857143,296.12857142857143,0.2,288.22232142857143,296.12857142857143,108.1,288.22232142857143,296.12857142857143,209.5,288.22232142857143,296.12857142857143,337.2,288.22232142857143,296.12857142857143,469.6,288.22232142857143,297.12857142857143,572.2,284.22232142857143,305.12857142857143,675.9,228.22232142857143,365.12857142857143,785,208.22232142857143,383.12857142857143,887.5,208.22232142857143,383.12857142857143,1018.7,208.22232142857143,383.12857142857143,1146.7,208.22232142857143,383.12857142857143,1273.6,208.22232142857143,383.12857142857143,1399.2,208.22232142857143,383.12857142857143,1535,208.22232142857143,383.12857142857143,1663.5,208.22232142857143,383.12857142857143,1791.1,208.22232142857143,383.12857142857143,1919.2,208.22232142857143,383.12857142857143,2052.7,208.22232142857143,383.12857142857143,2155.2,208.22232142857143,383.12857142857143,2282.3,208.22232142857143,383.12857142857143,2416,208.22232142857143,383.12857142857143,2541.2,208.22232142857143,383.12857142857143,2665.3,208.22232142857143,383.12857142857143,2766.4,208.22232142857143,383.12857142857143,2870.5,208.22232142857143,383.12857142857143,2999.4,208.22232142857143,383.12857142857143,3118.6,208.22232142857143,383.12857142857143,3252.9,208.22232142857143,383.12857142857143,3372.9,208.22232142857143,383.12857142857143,3498.6,208.22232142857143,383.12857142857143,3618.8,208.22232142857143,383.12857142857143,3743.2,208.22232142857143,383.12857142857143,3864.9,208.22232142857143,383.12857142857143,3967.3,208.22232142857143,383.12857142857143,4068.4,208.22232142857143,383.12857142857143,4200.2,208.22232142857143,383.12857142857143,4336.7,208.22232142857143,383.12857142857143,4462.6,208.22232142857143,383.12857142857143,4600.2,208.22232142857143,383.12857142857143,4707.1,208.22232142857143,383.12857142857143,4834.4,208.22232142857143,383.12857142857143,4937]","[5030.5,5030.6,2526.3,2029.2,475.1,""smooth"",""right"",""right"",""good_move"",12108.4,7077.3,2938.6,8711,458.8,""smooth"",""right"",""right"",""good_move"",15004.1,2895.5,2274.8,12108.7,620.8,""oops"",""up"",""down"",""bad_move"",17692.5,2686,2197.2,15006.5,488.8,""smooth"",""up"",""up"",""good_move"",26417.9,8725.2,2516.2,17692.8,6209,""smooth"",""up"",""up"",""good_move"",33444.1,7025.8,2410.6,26418.3,4615.2,""smooth"",""up"",""up"",""good_move""]","",""
"3600","","<div style=""width:500px;"">
  <p>What determined the result of this run?</p>
  </div>","58","html-slider-response","65","907033","0.0-5.0-1.11","81","1","2025-07-16 08:41:02","1f75c3e559b7213887762d5229550c2b","216.120.189.142","Mozilla/5.0 (Windows NT 10.0; Win64; x64) AppleWebKit/537.36 (KHTML, like Gecko) Chrome/138.0.0.0 Safari/537.36","WebKit","Chrome","138.0.0.0","Windows","10.0","https://app.prolific.com/","en-US,en;q=0.9","672c8a3b9fb83ab9c5f02fd2","686e379bc37a29ffa5cdc956","6877655f7cdb077d75bffd11","1","1","672c8a3b9fb83ab9c5f02fd2","1","1","2025-07-16T08:56:04.018Z","","","","","","","","","","","AttribQ","","50","","","","","","","","","","","","","","","","","","","","","","","","","","","","",""
"2542","","<div style=""width:500px;"">
  <p>How much control did you have over the ball?</p>
  </div>","74","html-slider-response","66","909578","0.0-5.0-2.11","81","1","2025-07-16 08:41:02","1f75c3e559b7213887762d5229550c2b","216.120.189.142","Mozilla/5.0 (Windows NT 10.0; Win64; x64) AppleWebKit/537.36 (KHTML, like Gecko) Chrome/138.0.0.0 Safari/537.36","WebKit","Chrome","138.0.0.0","Windows","10.0","https://app.prolific.com/","en-US,en;q=0.9","672c8a3b9fb83ab9c5f02fd2","686e379bc37a29ffa5cdc956","6877655f7cdb077d75bffd11","1","1","672c8a3b9fb83ab9c5f02fd2","1","1","2025-07-16T08:56:06.562Z","","","","","","","","","","","ControlQ","","50","","","","","","","","","","","","","","","","","","","","","","","","","","","","",""
"3238","","<div style=""width:500px;"">
  <p>How would you describe your current emotional state?</p>
  </div>","7","html-slider-response","67","912819","0.0-5.0-3.11","81","1","2025-07-16 08:41:02","1f75c3e559b7213887762d5229550c2b","216.120.189.142","Mozilla/5.0 (Windows NT 10.0; Win64; x64) AppleWebKit/537.36 (KHTML, like Gecko) Chrome/138.0.0.0 Safari/537.36","WebKit","Chrome","138.0.0.0","Windows","10.0","https://app.prolific.com/","en-US,en;q=0.9","672c8a3b9fb83ab9c5f02fd2","686e379bc37a29ffa5cdc956","6877655f7cdb077d75bffd11","1","1","672c8a3b9fb83ab9c5f02fd2","1","1","2025-07-16T08:56:09.803Z","","","","","","","","","","","StressQ","","50","","","","","","","","","","","","","","","","","","","","","","","","","","","","",""
"2192","","<div style=""width:500px;"">
  <p>What best describes how you currently feel?</p>
  </div>","97","html-slider-response","68","915013","0.0-5.0-4.11","81","1","2025-07-16 08:41:02","1f75c3e559b7213887762d5229550c2b","216.120.189.142","Mozilla/5.0 (Windows NT 10.0; Win64; x64) AppleWebKit/537.36 (KHTML, like Gecko) Chrome/138.0.0.0 Safari/537.36","WebKit","Chrome","138.0.0.0","Windows","10.0","https://app.prolific.com/","en-US,en;q=0.9","672c8a3b9fb83ab9c5f02fd2","686e379bc37a29ffa5cdc956","6877655f7cdb077d75bffd11","1","1","672c8a3b9fb83ab9c5f02fd2","1","1","2025-07-16T08:56:11.997Z","","","","","","","","","","","MotivationQ","","50","","","","","","","","","","","","","","","","","","","","","","","","","","","","",""
"","","","","ctl-task-cpt","69","944373","0.0-5.0-0.12","81","1","2025-07-16 08:41:02","1f75c3e559b7213887762d5229550c2b","216.120.189.142","Mozilla/5.0 (Windows NT 10.0; Win64; x64) AppleWebKit/537.36 (KHTML, like Gecko) Chrome/138.0.0.0 Safari/537.36","WebKit","Chrome","138.0.0.0","Windows","10.0","https://app.prolific.com/","en-US,en;q=0.9","672c8a3b9fb83ab9c5f02fd2","686e379bc37a29ffa5cdc956","6877655f7cdb077d75bffd11","1","1","672c8a3b9fb83ab9c5f02fd2","1","1","2025-07-16T08:56:41.357Z","","","","","","","","","","","","","","win-only","0","g1:NW,g2:SE","0.7","13","0","918180.8","4329.5","9333.9","26330.2","1","4","4","6","1","1","1","3","2","0.022727272727272728","5004.4","3000","1980","[""left"",""up""]","{""num_key_presses"":6,""num_perfect"":5,""num_errors"":0,""num_randdir"":1,""num_randdir_good_moves"":0,""num_whilered"":0,""num_whileblue"":0,""num_blue"":0,""num_good_moves"":5}","[295.22232142857143,300.12857142857143,0.8,295.22232142857143,300.12857142857143,104.9,295.22232142857143,301.12857142857143,207.2,295.22232142857143,301.12857142857143,316.1,295.22232142857143,301.12857142857143,425.9,295.22232142857143,301.12857142857143,541.5,295.22232142857143,301.12857142857143,652.7,295.22232142857143,301.12857142857143,757.8,295.22232142857143,301.12857142857143,867.5,295.22232142857143,301.12857142857143,973.6,295.22232142857143,301.12857142857143,1073.6,295.22232142857143,301.12857142857143,1189.2,295.22232142857143,301.12857142857143,1297.3,295.22232142857143,301.12857142857143,1403.2,295.22232142857143,301.12857142857143,1520.8,295.22232142857143,301.12857142857143,1625.7,295.22232142857143,301.12857142857143,1728.4,295.22232142857143,301.12857142857143,1829,295.22232142857143,301.12857142857143,1932.2,295.22232142857143,301.12857142857143,2038.1,295.22232142857143,301.12857142857143,2144.7,295.22232142857143,301.12857142857143,2254.4,295.22232142857143,301.12857142857143,2354.8,295.22232142857143,301.12857142857143,2455.1,295.22232142857143,301.12857142857143,2560.4,295.22232142857143,301.12857142857143,2672,295.22232142857143,301.12857142857143,2788.9,295.22232142857143,301.12857142857143,2893.5,295.22232142857143,301.12857142857143,2995.3,295.22232142857143,301.12857142857143,3106.8,295.22232142857143,301.12857142857143,3226.8,295.22232142857143,301.12857142857143,3341.6,295.22232142857143,301.12857142857143,3443,295.22232142857143,301.12857142857143,3548.3,295.22232142857143,301.12857142857143,3650.1,295.22232142857143,301.12857142857143,3754.3,295.22232142857143,301.12857142857143,3854.4,295.22232142857143,301.12857142857143,3958.7,295.22232142857143,301.12857142857143,4060.2,295.22232142857143,301.12857142857143,4171.5,295.22232142857143,301.12857142857143,4275.5,295.22232142857143,301.12857142857143,4378.4,295.22232142857143,301.12857142857143,4488.1,295.22232142857143,301.12857142857143,4591.6,295.22232142857143,301.12857142857143,4694.5,295.22232142857143,301.12857142857143,4801.4,295.22232142857143,301.12857142857143,4919.3]","[1854.8,1854.8,1000,0,854.8,""smooth"",""up"",""up"",""good_move"",5429.9,3573.8,2310.6,1856.1,1263.2,""smooth"",""up"",""up"",""good_move"",8351.1,2919.8,2117.4,5431.3,802.4,""smooth"",""left"",""left"",""good_move"",11603.3,3251.1,2837,8352.2,414.1,""oops"",""left"",""right"",""bad_move"",13613.5,2009,1450.4,11604.5,558.6,""smooth"",""left"",""left"",""good_move"",16730.7,3115.8,2675.5,13615,440.2,""smooth"",""left"",""left"",""good_move""]","",""
"3397","","<div style=""width:500px;"">
  <p>What determined the result of this run?</p>
  </div>","58","html-slider-response","70","947772","0.0-5.0-1.12","81","1","2025-07-16 08:41:02","1f75c3e559b7213887762d5229550c2b","216.120.189.142","Mozilla/5.0 (Windows NT 10.0; Win64; x64) AppleWebKit/537.36 (KHTML, like Gecko) Chrome/138.0.0.0 Safari/537.36","WebKit","Chrome","138.0.0.0","Windows","10.0","https://app.prolific.com/","en-US,en;q=0.9","672c8a3b9fb83ab9c5f02fd2","686e379bc37a29ffa5cdc956","6877655f7cdb077d75bffd11","1","1","672c8a3b9fb83ab9c5f02fd2","1","1","2025-07-16T08:56:44.756Z","","","","","","","","","","","AttribQ","","50","","","","","","","","","","","","","","","","","","","","","","","","","","","","",""
"2964","","<div style=""width:500px;"">
  <p>How much control did you have over the ball?</p>
  </div>","62","html-slider-response","71","950738","0.0-5.0-2.12","81","1","2025-07-16 08:41:02","1f75c3e559b7213887762d5229550c2b","216.120.189.142","Mozilla/5.0 (Windows NT 10.0; Win64; x64) AppleWebKit/537.36 (KHTML, like Gecko) Chrome/138.0.0.0 Safari/537.36","WebKit","Chrome","138.0.0.0","Windows","10.0","https://app.prolific.com/","en-US,en;q=0.9","672c8a3b9fb83ab9c5f02fd2","686e379bc37a29ffa5cdc956","6877655f7cdb077d75bffd11","1","1","672c8a3b9fb83ab9c5f02fd2","1","1","2025-07-16T08:56:47.722Z","","","","","","","","","","","ControlQ","","50","","","","","","","","","","","","","","","","","","","","","","","","","","","","",""
"5320","","<div style=""width:500px;"">
  <p>How would you describe your current emotional state?</p>
  </div>","7","html-slider-response","72","956061","0.0-5.0-3.12","81","1","2025-07-16 08:41:02","1f75c3e559b7213887762d5229550c2b","216.120.189.142","Mozilla/5.0 (Windows NT 10.0; Win64; x64) AppleWebKit/537.36 (KHTML, like Gecko) Chrome/138.0.0.0 Safari/537.36","WebKit","Chrome","138.0.0.0","Windows","10.0","https://app.prolific.com/","en-US,en;q=0.9","672c8a3b9fb83ab9c5f02fd2","686e379bc37a29ffa5cdc956","6877655f7cdb077d75bffd11","1","1","672c8a3b9fb83ab9c5f02fd2","1","1","2025-07-16T08:56:53.045Z","","","","","","","","","","","StressQ","","50","","","","","","","","","","","","","","","","","","","","","","","","","","","","",""
"3113","","<div style=""width:500px;"">
  <p>What best describes how you currently feel?</p>
  </div>","95","html-slider-response","73","959178","0.0-5.0-4.12","81","1","2025-07-16 08:41:02","1f75c3e559b7213887762d5229550c2b","216.120.189.142","Mozilla/5.0 (Windows NT 10.0; Win64; x64) AppleWebKit/537.36 (KHTML, like Gecko) Chrome/138.0.0.0 Safari/537.36","WebKit","Chrome","138.0.0.0","Windows","10.0","https://app.prolific.com/","en-US,en;q=0.9","672c8a3b9fb83ab9c5f02fd2","686e379bc37a29ffa5cdc956","6877655f7cdb077d75bffd11","1","1","672c8a3b9fb83ab9c5f02fd2","1","1","2025-07-16T08:56:56.162Z","","","","","","","","","","","MotivationQ","","50","","","","","","","","","","","","","","","","","","","","","","","","","","","","",""
"","","","","ctl-task-cpt","74","991932","0.0-5.0-0.13","81","1","2025-07-16 08:41:02","1f75c3e559b7213887762d5229550c2b","216.120.189.142","Mozilla/5.0 (Windows NT 10.0; Win64; x64) AppleWebKit/537.36 (KHTML, like Gecko) Chrome/138.0.0.0 Safari/537.36","WebKit","Chrome","138.0.0.0","Windows","10.0","https://app.prolific.com/","en-US,en;q=0.9","672c8a3b9fb83ab9c5f02fd2","686e379bc37a29ffa5cdc956","6877655f7cdb077d75bffd11","1","1","672c8a3b9fb83ab9c5f02fd2","1","1","2025-07-16T08:57:28.916Z","","","","","","","","","","","","","","win-only","0","g1:NW,g2:SE","0.8","14","0","962343.8","1949.5","6966.5","29730.2","1","4","8","6","2","8","8","11","3","0.08333333333333333","5016.9","3000","2240","[""down"",""right""]","{""num_key_presses"":6,""num_perfect"":4,""num_errors"":0,""num_randdir"":2,""num_randdir_good_moves"":2,""num_whilered"":0,""num_whileblue"":0,""num_blue"":2,""num_good_moves"":6}","[295.22232142857143,293.12857142857143,0.3,295.22232142857143,293.12857142857143,113.4,295.22232142857143,293.12857142857143,220.1,293.22232142857143,295.12857142857143,320.8,257.22232142857143,355.12857142857143,426,225.22232142857143,397.12857142857143,545.7,222.22232142857143,398.12857142857143,656.2,221.22232142857143,398.12857142857143,770.7,221.22232142857143,398.12857142857143,876.3,221.22232142857143,398.12857142857143,987.9,221.22232142857143,398.12857142857143,1097.7,221.22232142857143,398.12857142857143,1209,221.22232142857143,398.12857142857143,1314.9,221.22232142857143,398.12857142857143,1434.2,221.22232142857143,398.12857142857143,1540.5,221.22232142857143,398.12857142857143,1654.8,221.22232142857143,398.12857142857143,1768.2,221.22232142857143,398.12857142857143,1871.7,221.22232142857143,398.12857142857143,1977.8,221.22232142857143,398.12857142857143,2093.8,221.22232142857143,398.12857142857143,2209.5,221.22232142857143,398.12857142857143,2313.8,221.22232142857143,398.12857142857143,2436.9,221.22232142857143,398.12857142857143,2553.5,221.22232142857143,398.12857142857143,2666.9,221.22232142857143,398.12857142857143,2777.2,221.22232142857143,398.12857142857143,2895.2,221.22232142857143,398.12857142857143,3016.1,221.22232142857143,398.12857142857143,3129.9,221.22232142857143,398.12857142857143,3244.4,221.22232142857143,398.12857142857143,3357.5,221.22232142857143,398.12857142857143,3476.7,221.22232142857143,398.12857142857143,3596.9,221.22232142857143,398.12857142857143,3708.5,221.22232142857143,398.12857142857143,3829.2,221.22232142857143,398.12857142857143,3932.1,221.22232142857143,398.12857142857143,4039.6,221.22232142857143,398.12857142857143,4163.5,221.22232142857143,398.12857142857143,4288.1,221.22232142857143,398.12857142857143,4407.2,221.22232142857143,398.12857142857143,4529.1,221.22232142857143,398.12857142857143,4641.4,221.22232142857143,398.12857142857143,4759.1,221.22232142857143,398.12857142857143,4880.7,221.22232142857143,398.12857142857143,4990.8]","[5460.5,5460.5,3039,2017.6,403.9,""oops"",""right"",""right"",""good_move"",7981.3,2519.5,1364,5461.8,1155.5,""smooth"",""right"",""right"",""good_move"",10853.2,2871.6,2385.9,7981.6,485.7,""smooth"",""right"",""right"",""good_move"",13762.6,2909.1,2420.2,10853.6,488.8,""smooth"",""down"",""down"",""good_move"",16207.6,2443.3,2015.5,13764.3,427.8,""oops"",""down"",""down"",""good_move"",22325.2,6116.9,2540.7,19349.9,434.6,""smooth"",""down"",""down"",""good_move""]","",""
"3908","","<div style=""width:500px;"">
  <p>What determined the result of this run?</p>
  </div>","77","html-slider-response","75","995843","0.0-5.0-1.13","81","1","2025-07-16 08:41:02","1f75c3e559b7213887762d5229550c2b","216.120.189.142","Mozilla/5.0 (Windows NT 10.0; Win64; x64) AppleWebKit/537.36 (KHTML, like Gecko) Chrome/138.0.0.0 Safari/537.36","WebKit","Chrome","138.0.0.0","Windows","10.0","https://app.prolific.com/","en-US,en;q=0.9","672c8a3b9fb83ab9c5f02fd2","686e379bc37a29ffa5cdc956","6877655f7cdb077d75bffd11","1","1","672c8a3b9fb83ab9c5f02fd2","1","1","2025-07-16T08:57:32.827Z","","","","","","","","","","","AttribQ","","50","","","","","","","","","","","","","","","","","","","","","","","","","","","","",""
"3296","","<div style=""width:500px;"">
  <p>How much control did you have over the ball?</p>
  </div>","94","html-slider-response","76","999142","0.0-5.0-2.13","81","1","2025-07-16 08:41:02","1f75c3e559b7213887762d5229550c2b","216.120.189.142","Mozilla/5.0 (Windows NT 10.0; Win64; x64) AppleWebKit/537.36 (KHTML, like Gecko) Chrome/138.0.0.0 Safari/537.36","WebKit","Chrome","138.0.0.0","Windows","10.0","https://app.prolific.com/","en-US,en;q=0.9","672c8a3b9fb83ab9c5f02fd2","686e379bc37a29ffa5cdc956","6877655f7cdb077d75bffd11","1","1","672c8a3b9fb83ab9c5f02fd2","1","1","2025-07-16T08:57:36.127Z","","","","","","","","","","","ControlQ","","50","","","","","","","","","","","","","","","","","","","","","","","","","","","","",""
