"rt","response_timestamp","stimulus","response","trial_type","trial_index","time_elapsed","internal_node_id","run_id","condition","recorded_at","source_code_version","ip","user_agent","device","browser","browser_version","platform","platform_version","referer","accept_language","PROLIFIC_PID","STUDY_ID","SESSION_ID","WEEK","BATCH","prolific_id","week","batch","realtime","success","responses","item_order","radio_event_ids","radio_event_times","key_event_times","mouse_event_times","straightlining","zigzagging","honeypot","eventType","view_history","slider_start","which_type","canvas_config","goals_layout","control_level","trial_number","tutorial_trial_number","trial_start_time","phase1_start_time","phase2_start_time","phase3_start_time","goal_1_value","goal_1_distance","goal_2_value","goal_2_distance","goal_selected","outcome","outcome_total","participant_final_score","participant_initial_score","participant_final_score_prop","goal_choice_rt","allocated_time","allocated_time_remaining","goal_direction","counts","mouse_movements","key_presses","question_order","question_id"
"2635","1753258784304","<p style='font-size:40px;line-height:1.25'><strong>Welcome to the experiment!</strong></p><p style='font-size:1.1em;line-height:1.25'>Thank you for participanting in our experiment again! You will be asked to play the Dysfunctional Ball Game again. We will briefly recap the rules before we start.</p><p style='font-size:1.1em;line-height:1.25'>Press <strong>Next</strong> to continue.</p>","0","custom-html-button-response","0","2645","0.0-0.0","193","1","2025-07-23 08:19:07","1f75c3e559b7213887762d5229550c2b","78.145.195.194","Mozilla/5.0 (Windows NT 10.0; Win64; x64) AppleWebKit/537.36 (KHTML, like Gecko) Chrome/138.0.0.0 Safari/537.36","WebKit","Chrome","138.0.0.0","Windows","10.0","https://app.prolific.com/","en-US,en;q=0.9","5cab22cd68194f001511b2d6","683db9eb0562dbf637994deb","68809ade558bef2bf1fdba9b","2","1","5cab22cd68194f001511b2d6","2","1","2025-07-23T08:19:44.308Z","","","","","","","","","","","","","","","","","","","","","","","","","","","","","","","","","","","","","","","","","",""
"3311","","","","fullscreen","1","6974","0.0-1.0","193","1","2025-07-23 08:19:07","1f75c3e559b7213887762d5229550c2b","78.145.195.194","Mozilla/5.0 (Windows NT 10.0; Win64; x64) AppleWebKit/537.36 (KHTML, like Gecko) Chrome/138.0.0.0 Safari/537.36","WebKit","Chrome","138.0.0.0","Windows","10.0","https://app.prolific.com/","en-US,en;q=0.9","5cab22cd68194f001511b2d6","683db9eb0562dbf637994deb","68809ade558bef2bf1fdba9b","2","1","5cab22cd68194f001511b2d6","2","1","","true","","","","","","","","","","","","","","","","","","","","","","","","","","","","","","","","","","","","","","","","",""
"10103","1753258798745","<p style='font-size:1.1em;line-height:1.25'>In the following, we will ask you a few questions relating to your feelings in the last 24 hours.<br></p><p style='font-size:1.1em;line-height:1.25'>Press the <strong>Next</strong> button to continue.</p>","0","custom-html-button-response","2","17083","0.0-2.0-0.0","193","1","2025-07-23 08:19:07","1f75c3e559b7213887762d5229550c2b","78.145.195.194","Mozilla/5.0 (Windows NT 10.0; Win64; x64) AppleWebKit/537.36 (KHTML, like Gecko) Chrome/138.0.0.0 Safari/537.36","WebKit","Chrome","138.0.0.0","Windows","10.0","https://app.prolific.com/","en-US,en;q=0.9","5cab22cd68194f001511b2d6","683db9eb0562dbf637994deb","68809ade558bef2bf1fdba9b","2","1","5cab22cd68194f001511b2d6","2","1","2025-07-23T08:19:58.746Z","","","","","","","","","","","","","","","","","","","","","","","","","","","","","","","","","","","","","","","","","",""
"45840.59999999404","","","","survey-template","3","62941","0.0-2.0-1.0","193","1","2025-07-23 08:19:07","1f75c3e559b7213887762d5229550c2b","78.145.195.194","Mozilla/5.0 (Windows NT 10.0; Win64; x64) AppleWebKit/537.36 (KHTML, like Gecko) Chrome/138.0.0.0 Safari/537.36","WebKit","Chrome","138.0.0.0","Windows","10.0","https://app.prolific.com/","en-US,en;q=0.9","5cab22cd68194f001511b2d6","683db9eb0562dbf637994deb","68809ade558bef2bf1fdba9b","2","1","5cab22cd68194f001511b2d6","2","1","2025-07-23T08:20:44.604Z","","{""Q01"":""3"",""Q02"":""3"",""Q03"":""2"",""Q04"":""3"",""Q05"":""0"",""Q06"":""0"",""Q07"":""0"",""Q08"":""0"",""Q09"":""0"",""Q10"":""1"",""Q11"":""3"",""Q12"":""0"",""Q13"":""5"",""Q14"":""0"",""Q15"":""0"",""Q16"":""3"",""Q17"":""3"",""Q18"":""2"",""Q19"":""0"",""Q20"":""0"",""Q21"":""0"",""Q22"":""0""}","[0,1,2,3,4,5,6,7,8,9,10,11,12,13,14,15,16,17,18,19,20,21]","[""Q01"",""Q02"",""Q03"",""Q04"",""Q05"",""Q06"",""Q07"",""Q08"",""Q09"",""Q10"",""Q11"",""Q12"",""Q13"",""Q14"",""Q15"",""Q16"",""Q17"",""Q18"",""Q19"",""Q20"",""Q21"",""Q22""]","[3488.1999999955297,5302.5,7490.79999999702,8599.89999999851,9912.19999999553,10913.59999999404,12017.89999999851,17307.19999999553,18490.29999999702,19459,21303.79999999702,23479.39999999851,24648.59999999404,28447.59999999404,30967.89999999851,33369.89999999851,34538.89999999851,35753.79999999702,39494.59999999404,40232.19999999553,41120.79999999702,43735]","[]","[0.09999999403953552,3488.1999999955297,5302.5,7490.79999999702,8599.89999999851,9912.19999999553,10913.59999999404,12017.89999999851,13319.79999999702,17307.19999999553,18490.29999999702,19459,21303.79999999702,23479.39999999851,24648.59999999404,28447.59999999404,30967.89999999851,33369.89999999851,34538.89999999851,35753.79999999702,39494.59999999404,40232.19999999553,41120.79999999702,43735,45827.5]","0.5454545454545454","0.2857142857142857","0","drsp","","","","","","","","","","","","","","","","","","","","","","","","","","","","","","",""
"9061.39999999851","","","","survey-template","4","72008","0.0-2.0-2.0","193","1","2025-07-23 08:19:07","1f75c3e559b7213887762d5229550c2b","78.145.195.194","Mozilla/5.0 (Windows NT 10.0; Win64; x64) AppleWebKit/537.36 (KHTML, like Gecko) Chrome/138.0.0.0 Safari/537.36","WebKit","Chrome","138.0.0.0","Windows","10.0","https://app.prolific.com/","en-US,en;q=0.9","5cab22cd68194f001511b2d6","683db9eb0562dbf637994deb","68809ade558bef2bf1fdba9b","2","1","5cab22cd68194f001511b2d6","2","1","2025-07-23T08:20:53.671Z","","{""Q01"":""3"",""Q02"":""4"",""Q03"":""1""}","[0,1,2]","[""Q01"",""Q02"",""Q03""]","[3192.2000000029802,4482.10000000149,7052.89999999851]","[]","[3192.2000000029802,4482.10000000149,7052.89999999851,9058.79999999702]","0.6666666666666666","0","0","stress","","","","","","","","","","","","","","","","","","","","","","","","","","","","","","",""
"8484","","","","instructions","5","80494","0.0-3.0-0.0","193","1","2025-07-23 08:19:07","1f75c3e559b7213887762d5229550c2b","78.145.195.194","Mozilla/5.0 (Windows NT 10.0; Win64; x64) AppleWebKit/537.36 (KHTML, like Gecko) Chrome/138.0.0.0 Safari/537.36","WebKit","Chrome","138.0.0.0","Windows","10.0","https://app.prolific.com/","en-US,en;q=0.9","5cab22cd68194f001511b2d6","683db9eb0562dbf637994deb","68809ade558bef2bf1fdba9b","2","1","5cab22cd68194f001511b2d6","2","1","","","","","","","","","","","","","[{""page_index"":0,""viewing_time"":8483}]","","","","","","","","","","","","","","","","","","","","","","","","","","","","","",""
"3669","","<p>Before you start with this game please answer the following three questions yourself. </p>
  <p>Through this game, we measure several aspects of your cognitive performance, such as reaction times, multi-tasking capabilities </p>
  <p>and the ability to assess the situation you are in.</p>
  <p></p>
  <p><b>How good do you usually are in such tasks?</b></p>","76","html-slider-response","6","84168","0.0-4.0-0.0","193","1","2025-07-23 08:19:07","1f75c3e559b7213887762d5229550c2b","78.145.195.194","Mozilla/5.0 (Windows NT 10.0; Win64; x64) AppleWebKit/537.36 (KHTML, like Gecko) Chrome/138.0.0.0 Safari/537.36","WebKit","Chrome","138.0.0.0","Windows","10.0","https://app.prolific.com/","en-US,en;q=0.9","5cab22cd68194f001511b2d6","683db9eb0562dbf637994deb","68809ade558bef2bf1fdba9b","2","1","5cab22cd68194f001511b2d6","2","1","2025-07-23T08:21:05.831Z","","","","","","","","","","","PreSkillQ","","50","","","","","","","","","","","","","","","","","","","","","","","","","","","","",""
"2897","","<div style=""width:500px;"">
  <p>How well do you think you will perform in this task compared to other participants?</p>
  </div>","51","html-slider-response","7","87068","0.0-4.0-1.0","193","1","2025-07-23 08:19:07","1f75c3e559b7213887762d5229550c2b","78.145.195.194","Mozilla/5.0 (Windows NT 10.0; Win64; x64) AppleWebKit/537.36 (KHTML, like Gecko) Chrome/138.0.0.0 Safari/537.36","WebKit","Chrome","138.0.0.0","Windows","10.0","https://app.prolific.com/","en-US,en;q=0.9","5cab22cd68194f001511b2d6","683db9eb0562dbf637994deb","68809ade558bef2bf1fdba9b","2","1","5cab22cd68194f001511b2d6","2","1","2025-07-23T08:21:08.731Z","","","","","","","","","","","PrePerfQ","","50","","","","","","","","","","","","","","","","","","","","","","","","","","","","",""
"5011","","<div style=""width:500px;"">
  <p>What best describes how you currently feel?</p>
  </div>","92","html-slider-response","8","92082","0.0-4.0-2.0","193","1","2025-07-23 08:19:07","1f75c3e559b7213887762d5229550c2b","78.145.195.194","Mozilla/5.0 (Windows NT 10.0; Win64; x64) AppleWebKit/537.36 (KHTML, like Gecko) Chrome/138.0.0.0 Safari/537.36","WebKit","Chrome","138.0.0.0","Windows","10.0","https://app.prolific.com/","en-US,en;q=0.9","5cab22cd68194f001511b2d6","683db9eb0562dbf637994deb","68809ade558bef2bf1fdba9b","2","1","5cab22cd68194f001511b2d6","2","1","2025-07-23T08:21:13.745Z","","","","","","","","","","","PreMotivationQ","","50","","","","","","","","","","","","","","","","","","","","","","","","","","","","",""
"","","","","ctl-task-cpt","9","134476","0.0-5.0-0.0","193","1","2025-07-23 08:19:07","1f75c3e559b7213887762d5229550c2b","78.145.195.194","Mozilla/5.0 (Windows NT 10.0; Win64; x64) AppleWebKit/537.36 (KHTML, like Gecko) Chrome/138.0.0.0 Safari/537.36","WebKit","Chrome","138.0.0.0","Windows","10.0","https://app.prolific.com/","en-US,en;q=0.9","5cab22cd68194f001511b2d6","683db9eb0562dbf637994deb","68809ade558bef2bf1fdba9b","2","1","5cab22cd68194f001511b2d6","2","1","2025-07-23T08:21:56.139Z","","","","","","","","","","","","","","win-only","3","g1:SW,g2:NE","1","1","0","95396.1","2400.3","7407.7","39363.4","1","4","4","6","2","4","4","4","0","0.030303030303030304","1392.3","3000","350","[""up"",""right""]","{""num_key_presses"":6,""num_perfect"":6,""num_errors"":0,""num_randdir"":0,""num_randdir_good_moves"":0,""num_whilered"":0,""num_whileblue"":0,""num_blue"":4,""num_good_moves"":6}","[298.22232142857143,302.12857142857143,1.6,298.22232142857143,302.12857142857143,100.9,298.22232142857143,302.12857142857143,206.8,298.22232142857143,302.12857142857143,307.6,298.22232142857143,302.12857142857143,413.3,298.22232142857143,302.12857142857143,517.5,258.22232142857143,349.12857142857143,627.5,323.22232142857143,238.12857142857143,728.4,526.2223214285714,67.12857142857143,833.9,525.2223214285714,92.12857142857143,946.3,519.2223214285714,99.12857142857143,1049.1,518.2223214285714,100.12857142857143,1152.1,521.2223214285714,80.12857142857143,1265,527.2223214285714,68.12857142857143,1367.1,527.2223214285714,68.12857142857143,1472.1,527.2223214285714,68.12857142857143,1577.9,498.22232142857143,104.12857142857143,1678.4,350.22232142857143,248.12857142857143,1779.4,308.22232142857143,280.12857142857143,1881.5,308.22232142857143,280.12857142857143,1988.6,308.22232142857143,280.12857142857143,2091.2,308.22232142857143,280.12857142857143,2191.7,308.22232142857143,280.12857142857143,2292.9,308.22232142857143,280.12857142857143,2396.7,308.22232142857143,280.12857142857143,2497.2,308.22232142857143,280.12857142857143,2601.2,308.22232142857143,280.12857142857143,2705.4,308.22232142857143,280.12857142857143,2806.8,308.22232142857143,280.12857142857143,2907.3,308.22232142857143,280.12857142857143,3011.5,308.22232142857143,280.12857142857143,3116.2,308.22232142857143,280.12857142857143,3223.7,308.22232142857143,280.12857142857143,3323.7,308.22232142857143,280.12857142857143,3424.4,308.22232142857143,280.12857142857143,3526,308.22232142857143,280.12857142857143,3626.2,308.22232142857143,280.12857142857143,3726.5,308.22232142857143,280.12857142857143,3826.6,308.22232142857143,280.12857142857143,3926.6,308.22232142857143,280.12857142857143,4027.3,308.22232142857143,280.12857142857143,4131.1,308.22232142857143,280.12857142857143,4240.2,308.22232142857143,280.12857142857143,4348,308.22232142857143,280.12857142857143,4457.6,308.22232142857143,280.12857142857143,4559.2,308.22232142857143,280.12857142857143,4661.5,308.22232142857143,280.12857142857143,4766.2,308.22232142857143,280.12857142857143,4867.3,308.22232142857143,280.12857142857143,4967.7]","[5419.7,5419.6,2907.7,2002.1,509.9,""smooth"",""up"",""up"",""good_move"",9358,3936.5,3509.7,5421.5,426.8,""smooth"",""right"",""right"",""good_move"",11969.6,2610.2,2167.8,9359.4,442.4,""smooth"",""up"",""up"",""good_move"",22199.9,10229.2,2585.4,19075.1,539.5,""smooth"",""right"",""right"",""good_move"",28516.1,6314.6,2760.6,25268.2,487.4,""smooth"",""up"",""up"",""good_move"",31849.3,3332,2772.7,28517.4,559.2,""smooth"",""right"",""right"",""good_move""]","",""
"2937","","<div style=""width:500px;"">
  <p>What determined the result of this run?</p>
  </div>","100","html-slider-response","10","137417","0.0-5.0-1.0","193","1","2025-07-23 08:19:07","1f75c3e559b7213887762d5229550c2b","78.145.195.194","Mozilla/5.0 (Windows NT 10.0; Win64; x64) AppleWebKit/537.36 (KHTML, like Gecko) Chrome/138.0.0.0 Safari/537.36","WebKit","Chrome","138.0.0.0","Windows","10.0","https://app.prolific.com/","en-US,en;q=0.9","5cab22cd68194f001511b2d6","683db9eb0562dbf637994deb","68809ade558bef2bf1fdba9b","2","1","5cab22cd68194f001511b2d6","2","1","2025-07-23T08:21:59.081Z","","","","","","","","","","","AttribQ","","50","","","","","","","","","","","","","","","","","","","","","","","","","","","","",""
"2620","","<div style=""width:500px;"">
  <p>How much control did you have over the ball?</p>
  </div>","100","html-slider-response","11","140042","0.0-5.0-2.0","193","1","2025-07-23 08:19:07","1f75c3e559b7213887762d5229550c2b","78.145.195.194","Mozilla/5.0 (Windows NT 10.0; Win64; x64) AppleWebKit/537.36 (KHTML, like Gecko) Chrome/138.0.0.0 Safari/537.36","WebKit","Chrome","138.0.0.0","Windows","10.0","https://app.prolific.com/","en-US,en;q=0.9","5cab22cd68194f001511b2d6","683db9eb0562dbf637994deb","68809ade558bef2bf1fdba9b","2","1","5cab22cd68194f001511b2d6","2","1","2025-07-23T08:22:01.705Z","","","","","","","","","","","ControlQ","","50","","","","","","","","","","","","","","","","","","","","","","","","","","","","",""
"2484","","<div style=""width:500px;"">
  <p>How would you describe your current emotional state?</p>
  </div>","0","html-slider-response","12","142528","0.0-5.0-3.0","193","1","2025-07-23 08:19:07","1f75c3e559b7213887762d5229550c2b","78.145.195.194","Mozilla/5.0 (Windows NT 10.0; Win64; x64) AppleWebKit/537.36 (KHTML, like Gecko) Chrome/138.0.0.0 Safari/537.36","WebKit","Chrome","138.0.0.0","Windows","10.0","https://app.prolific.com/","en-US,en;q=0.9","5cab22cd68194f001511b2d6","683db9eb0562dbf637994deb","68809ade558bef2bf1fdba9b","2","1","5cab22cd68194f001511b2d6","2","1","2025-07-23T08:22:04.192Z","","","","","","","","","","","StressQ","","50","","","","","","","","","","","","","","","","","","","","","","","","","","","","",""
"2788","","<div style=""width:500px;"">
  <p>What best describes how you currently feel?</p>
  </div>","100","html-slider-response","13","145322","0.0-5.0-4.0","193","1","2025-07-23 08:19:07","1f75c3e559b7213887762d5229550c2b","78.145.195.194","Mozilla/5.0 (Windows NT 10.0; Win64; x64) AppleWebKit/537.36 (KHTML, like Gecko) Chrome/138.0.0.0 Safari/537.36","WebKit","Chrome","138.0.0.0","Windows","10.0","https://app.prolific.com/","en-US,en;q=0.9","5cab22cd68194f001511b2d6","683db9eb0562dbf637994deb","68809ade558bef2bf1fdba9b","2","1","5cab22cd68194f001511b2d6","2","1","2025-07-23T08:22:06.985Z","","","","","","","","","","","MotivationQ","","50","","","","","","","","","","","","","","","","","","","","","","","","","","","","",""
"","","","","ctl-task-cpt","14","169677","0.0-5.0-0.1","193","1","2025-07-23 08:19:07","1f75c3e559b7213887762d5229550c2b","78.145.195.194","Mozilla/5.0 (Windows NT 10.0; Win64; x64) AppleWebKit/537.36 (KHTML, like Gecko) Chrome/138.0.0.0 Safari/537.36","WebKit","Chrome","138.0.0.0","Windows","10.0","https://app.prolific.com/","en-US,en;q=0.9","5cab22cd68194f001511b2d6","683db9eb0562dbf637994deb","68809ade558bef2bf1fdba9b","2","1","5cab22cd68194f001511b2d6","2","1","2025-07-23T08:22:31.340Z","","","","","","","","","","","","","","win-only","2","g1:SE,g2:NW","0.9","2","0","148620.8","1317.3","6324.3","21336.5","1","4","8","6","2","8","8","12","4","0.09090909090909091","1004.6","3000","990","[""left"",""up""]","{""num_key_presses"":6,""num_perfect"":5,""num_errors"":0,""num_randdir"":1,""num_randdir_good_moves"":1,""num_whilered"":0,""num_whileblue"":0,""num_blue"":0,""num_good_moves"":6}","[301.22232142857143,292.12857142857143,1,301.22232142857143,292.12857142857143,104,301.22232142857143,292.12857142857143,204.3,301.22232142857143,292.12857142857143,308.6,301.22232142857143,292.12857142857143,420.7,250.22232142857143,256.12857142857143,524.9,69.22232142857143,103.12857142857143,631.1,54.222321428571426,91.12857142857143,736.2,54.222321428571426,91.12857142857143,836.3,54.222321428571426,91.12857142857143,938.9,54.222321428571426,91.12857142857143,1039.6,54.222321428571426,91.12857142857143,1150.4,54.222321428571426,91.12857142857143,1253.3,54.222321428571426,91.12857142857143,1354.7,54.222321428571426,91.12857142857143,1459.6,54.222321428571426,91.12857142857143,1559.8,54.222321428571426,91.12857142857143,1668,54.222321428571426,91.12857142857143,1769.1,54.222321428571426,91.12857142857143,1875.2,54.222321428571426,91.12857142857143,1987.4,54.222321428571426,91.12857142857143,2090.7,54.222321428571426,91.12857142857143,2194.5,54.222321428571426,91.12857142857143,2301.6,54.222321428571426,91.12857142857143,2403.6,54.222321428571426,91.12857142857143,2503.7,54.222321428571426,91.12857142857143,2604.1,54.222321428571426,91.12857142857143,2714.1,54.222321428571426,91.12857142857143,2814.4,54.222321428571426,91.12857142857143,2914.6,54.222321428571426,91.12857142857143,3015.9,54.222321428571426,91.12857142857143,3120.7,-53.777678571428574,89.12857142857143,3221,-222.77767857142857,110.12857142857143,3321.4,-240.77767857142857,114.12857142857143,3421.7,-242.77767857142857,122.12857142857143,3526.2,-242.77767857142857,122.12857142857143,3635.7,-242.77767857142857,122.12857142857143,3739.4,-242.77767857142857,122.12857142857143,3839.5,-242.77767857142857,122.12857142857143,3940.6,-242.77767857142857,122.12857142857143,4041.1,-242.77767857142857,122.12857142857143,4143.7,-242.77767857142857,122.12857142857143,4265.3,-242.77767857142857,122.12857142857143,4370.6,-242.77767857142857,122.12857142857143,4470.6,-242.77767857142857,122.12857142857143,4582.5,-242.77767857142857,122.12857142857143,4688.3,-242.77767857142857,122.12857142857143,4789.9,-242.77767857142857,122.12857142857143,4893.9,-242.77767857142857,122.12857142857143,4994.8]","[1507.2,1507.2,1000,0.1,507.1,""oops"",""up"",""up"",""good_move"",4075.1,2566.6,2176.6,1508.5,390,""smooth"",""left"",""left"",""good_move"",6277.1,2200.2,1772.2,4076.9,428,""smooth"",""up"",""up"",""good_move"",9765,3486.3,3021.8,6278.8,464.4,""smooth"",""left"",""left"",""good_move"",11957.9,2191.3,1798.9,9766.6,392.4,""smooth"",""up"",""up"",""good_move"",14890.6,2931.4,2562.5,11959.2,369,""smooth"",""left"",""left"",""good_move""]","",""
"3119","","<div style=""width:500px;"">
  <p>What determined the result of this run?</p>
  </div>","100","html-slider-response","15","172799","0.0-5.0-1.1","193","1","2025-07-23 08:19:07","1f75c3e559b7213887762d5229550c2b","78.145.195.194","Mozilla/5.0 (Windows NT 10.0; Win64; x64) AppleWebKit/537.36 (KHTML, like Gecko) Chrome/138.0.0.0 Safari/537.36","WebKit","Chrome","138.0.0.0","Windows","10.0","https://app.prolific.com/","en-US,en;q=0.9","5cab22cd68194f001511b2d6","683db9eb0562dbf637994deb","68809ade558bef2bf1fdba9b","2","1","5cab22cd68194f001511b2d6","2","1","2025-07-23T08:22:34.462Z","","","","","","","","","","","AttribQ","","50","","","","","","","","","","","","","","","","","","","","","","","","","","","","",""
"2195","","<div style=""width:500px;"">
  <p>How much control did you have over the ball?</p>
  </div>","100","html-slider-response","16","174998","0.0-5.0-2.1","193","1","2025-07-23 08:19:07","1f75c3e559b7213887762d5229550c2b","78.145.195.194","Mozilla/5.0 (Windows NT 10.0; Win64; x64) AppleWebKit/537.36 (KHTML, like Gecko) Chrome/138.0.0.0 Safari/537.36","WebKit","Chrome","138.0.0.0","Windows","10.0","https://app.prolific.com/","en-US,en;q=0.9","5cab22cd68194f001511b2d6","683db9eb0562dbf637994deb","68809ade558bef2bf1fdba9b","2","1","5cab22cd68194f001511b2d6","2","1","2025-07-23T08:22:36.661Z","","","","","","","","","","","ControlQ","","50","","","","","","","","","","","","","","","","","","","","","","","","","","","","",""
"2669","","<div style=""width:500px;"">
  <p>How would you describe your current emotional state?</p>
  </div>","0","html-slider-response","17","177672","0.0-5.0-3.1","193","1","2025-07-23 08:19:07","1f75c3e559b7213887762d5229550c2b","78.145.195.194","Mozilla/5.0 (Windows NT 10.0; Win64; x64) AppleWebKit/537.36 (KHTML, like Gecko) Chrome/138.0.0.0 Safari/537.36","WebKit","Chrome","138.0.0.0","Windows","10.0","https://app.prolific.com/","en-US,en;q=0.9","5cab22cd68194f001511b2d6","683db9eb0562dbf637994deb","68809ade558bef2bf1fdba9b","2","1","5cab22cd68194f001511b2d6","2","1","2025-07-23T08:22:39.335Z","","","","","","","","","","","StressQ","","50","","","","","","","","","","","","","","","","","","","","","","","","","","","","",""
"3485","","<div style=""width:500px;"">
  <p>What best describes how you currently feel?</p>
  </div>","100","html-slider-response","18","181161","0.0-5.0-4.1","193","1","2025-07-23 08:19:07","1f75c3e559b7213887762d5229550c2b","78.145.195.194","Mozilla/5.0 (Windows NT 10.0; Win64; x64) AppleWebKit/537.36 (KHTML, like Gecko) Chrome/138.0.0.0 Safari/537.36","WebKit","Chrome","138.0.0.0","Windows","10.0","https://app.prolific.com/","en-US,en;q=0.9","5cab22cd68194f001511b2d6","683db9eb0562dbf637994deb","68809ade558bef2bf1fdba9b","2","1","5cab22cd68194f001511b2d6","2","1","2025-07-23T08:22:42.824Z","","","","","","","","","","","MotivationQ","","50","","","","","","","","","","","","","","","","","","","","","","","","","","","","",""
"","","","","ctl-task-cpt","19","208331","0.0-5.0-0.2","193","1","2025-07-23 08:19:07","1f75c3e559b7213887762d5229550c2b","78.145.195.194","Mozilla/5.0 (Windows NT 10.0; Win64; x64) AppleWebKit/537.36 (KHTML, like Gecko) Chrome/138.0.0.0 Safari/537.36","WebKit","Chrome","138.0.0.0","Windows","10.0","https://app.prolific.com/","en-US,en;q=0.9","5cab22cd68194f001511b2d6","683db9eb0562dbf637994deb","68809ade558bef2bf1fdba9b","2","1","5cab22cd68194f001511b2d6","2","1","2025-07-23T08:23:09.994Z","","","","","","","","","","","","","","win-only","1","g1:NE,g2:SW","0.8","3","0","184461.5","1299.9","6314.5","24158","1","4","4","6","2","4","4","16","12","0.12121212121212122","1053","3000","1415","[""down"",""left""]","{""num_key_presses"":6,""num_perfect"":5,""num_errors"":0,""num_randdir"":1,""num_randdir_good_moves"":1,""num_whilered"":0,""num_whileblue"":0,""num_blue"":0,""num_good_moves"":6}","[296.22232142857143,300.12857142857143,3.8,296.22232142857143,300.12857142857143,107.8,296.22232142857143,300.12857142857143,209.8,296.22232142857143,300.12857142857143,310.8,296.22232142857143,300.12857142857143,415.1,304.22232142857143,309.12857142857143,519.1,200.22232142857143,488.12857142857143,625.8,79.22232142857143,556.1285714285714,726,40.222321428571426,563.1285714285714,830.9,36.222321428571426,550.1285714285714,940.2,36.222321428571426,546.1285714285714,1041.3,36.222321428571426,546.1285714285714,1151.2,36.222321428571426,546.1285714285714,1255.3,30.222321428571426,602.1285714285714,1357.4,21.222321428571426,674.1285714285714,1461.7,-7.777678571428574,683.1285714285714,1570.9,-92.77767857142857,673.1285714285714,1675.6,-114.77767857142857,654.1285714285714,1775.6,-121.77767857142857,645.1285714285714,1882.7,-121.77767857142857,645.1285714285714,1983.1,-121.77767857142857,645.1285714285714,2085.1,-121.77767857142857,645.1285714285714,2188.6,-121.77767857142857,645.1285714285714,2288.6,-121.77767857142857,645.1285714285714,2393.5,-121.77767857142857,645.1285714285714,2495.5,-121.77767857142857,645.1285714285714,2598.4,-121.77767857142857,645.1285714285714,2698.5,-121.77767857142857,645.1285714285714,2804.5,-121.77767857142857,645.1285714285714,2921.3,-121.77767857142857,645.1285714285714,3021.6,-121.77767857142857,645.1285714285714,3124.3,-121.77767857142857,645.1285714285714,3224.3,-121.77767857142857,645.1285714285714,3326.6,-121.77767857142857,645.1285714285714,3435.5,-121.77767857142857,645.1285714285714,3538.8,-121.77767857142857,645.1285714285714,3639.7,-121.77767857142857,645.1285714285714,3744.3,-121.77767857142857,645.1285714285714,3849.2,-121.77767857142857,645.1285714285714,3954.6,-121.77767857142857,645.1285714285714,4054.6,-121.77767857142857,645.1285714285714,4159.3,-121.77767857142857,645.1285714285714,4265.3,-121.77767857142857,645.1285714285714,4368.3,-121.77767857142857,645.1285714285714,4473.9,-121.77767857142857,645.1285714285714,4574.8,-121.77767857142857,645.1285714285714,4679.4,-121.77767857142857,645.1285714285714,4787.7,-121.77767857142857,645.1285714285714,4899.1]","[1431.9,1431.9,1000,0,432,""smooth"",""down"",""down"",""good_move"",4850.7,3415.6,3024.9,1435.1,390.7,""smooth"",""left"",""left"",""good_move"",7929.7,3076.3,2631.6,4853.4,444.7,""oops"",""down"",""left"",""good_move"",11153.8,3220.5,2797.9,7933.4,422.6,""smooth"",""down"",""down"",""good_move"",14865.8,3710.1,3314.4,11155.8,395.6,""smooth"",""down"",""down"",""good_move"",17696,2828.2,2439.7,14867.8,388.5,""smooth"",""left"",""left"",""good_move""]","",""
"4281","","<div style=""width:500px;"">
  <p>What determined the result of this run?</p>
  </div>","99","html-slider-response","20","212617","0.0-5.0-1.2","193","1","2025-07-23 08:19:07","1f75c3e559b7213887762d5229550c2b","78.145.195.194","Mozilla/5.0 (Windows NT 10.0; Win64; x64) AppleWebKit/537.36 (KHTML, like Gecko) Chrome/138.0.0.0 Safari/537.36","WebKit","Chrome","138.0.0.0","Windows","10.0","https://app.prolific.com/","en-US,en;q=0.9","5cab22cd68194f001511b2d6","683db9eb0562dbf637994deb","68809ade558bef2bf1fdba9b","2","1","5cab22cd68194f001511b2d6","2","1","2025-07-23T08:23:14.281Z","","","","","","","","","","","AttribQ","","50","","","","","","","","","","","","","","","","","","","","","","","","","","","","",""
"2830","","<div style=""width:500px;"">
  <p>How much control did you have over the ball?</p>
  </div>","99","html-slider-response","21","215451","0.0-5.0-2.2","193","1","2025-07-23 08:19:07","1f75c3e559b7213887762d5229550c2b","78.145.195.194","Mozilla/5.0 (Windows NT 10.0; Win64; x64) AppleWebKit/537.36 (KHTML, like Gecko) Chrome/138.0.0.0 Safari/537.36","WebKit","Chrome","138.0.0.0","Windows","10.0","https://app.prolific.com/","en-US,en;q=0.9","5cab22cd68194f001511b2d6","683db9eb0562dbf637994deb","68809ade558bef2bf1fdba9b","2","1","5cab22cd68194f001511b2d6","2","1","2025-07-23T08:23:17.114Z","","","","","","","","","","","ControlQ","","50","","","","","","","","","","","","","","","","","","","","","","","","","","","","",""
"2552","","<div style=""width:500px;"">
  <p>How would you describe your current emotional state?</p>
  </div>","0","html-slider-response","22","218006","0.0-5.0-3.2","193","1","2025-07-23 08:19:07","1f75c3e559b7213887762d5229550c2b","78.145.195.194","Mozilla/5.0 (Windows NT 10.0; Win64; x64) AppleWebKit/537.36 (KHTML, like Gecko) Chrome/138.0.0.0 Safari/537.36","WebKit","Chrome","138.0.0.0","Windows","10.0","https://app.prolific.com/","en-US,en;q=0.9","5cab22cd68194f001511b2d6","683db9eb0562dbf637994deb","68809ade558bef2bf1fdba9b","2","1","5cab22cd68194f001511b2d6","2","1","2025-07-23T08:23:19.669Z","","","","","","","","","","","StressQ","","50","","","","","","","","","","","","","","","","","","","","","","","","","","","","",""
"2412","","<div style=""width:500px;"">
  <p>What best describes how you currently feel?</p>
  </div>","100","html-slider-response","23","220421","0.0-5.0-4.2","193","1","2025-07-23 08:19:07","1f75c3e559b7213887762d5229550c2b","78.145.195.194","Mozilla/5.0 (Windows NT 10.0; Win64; x64) AppleWebKit/537.36 (KHTML, like Gecko) Chrome/138.0.0.0 Safari/537.36","WebKit","Chrome","138.0.0.0","Windows","10.0","https://app.prolific.com/","en-US,en;q=0.9","5cab22cd68194f001511b2d6","683db9eb0562dbf637994deb","68809ade558bef2bf1fdba9b","2","1","5cab22cd68194f001511b2d6","2","1","2025-07-23T08:23:22.084Z","","","","","","","","","","","MotivationQ","","50","","","","","","","","","","","","","","","","","","","","","","","","","","","","",""
"","","","","ctl-task-cpt","24","253184","0.0-5.0-0.3","193","1","2025-07-23 08:19:07","1f75c3e559b7213887762d5229550c2b","78.145.195.194","Mozilla/5.0 (Windows NT 10.0; Win64; x64) AppleWebKit/537.36 (KHTML, like Gecko) Chrome/138.0.0.0 Safari/537.36","WebKit","Chrome","138.0.0.0","Windows","10.0","https://app.prolific.com/","en-US,en;q=0.9","5cab22cd68194f001511b2d6","683db9eb0562dbf637994deb","68809ade558bef2bf1fdba9b","2","1","5cab22cd68194f001511b2d6","2","1","2025-07-23T08:23:54.847Z","","","","","","","","","","","","","","win-only","0","g1:NW,g2:SE","0.7","4","0","223725.6","1300.2","6303.9","29738.7","1","4","8","6","2","8","8","24","16","0.18181818181818182","1643","3000","1585","[""down"",""right""]","{""num_key_presses"":6,""num_perfect"":5,""num_errors"":0,""num_randdir"":1,""num_randdir_good_moves"":1,""num_whilered"":0,""num_whileblue"":0,""num_blue"":2,""num_good_moves"":6}","[297.22232142857143,297.12857142857143,5.3,297.22232142857143,297.12857142857143,100.2,297.22232142857143,297.12857142857143,209.3,297.22232142857143,297.12857142857143,314.8,293.22232142857143,299.12857142857143,416.2,293.22232142857143,299.12857142857143,516.3,293.22232142857143,299.12857142857143,626.1,293.22232142857143,299.12857142857143,728.6,293.22232142857143,299.12857142857143,834.7,293.22232142857143,299.12857142857143,940.5,334.22232142857143,316.12857142857143,1043.2,506.22232142857143,426.12857142857143,1143.7,518.2223214285714,459.12857142857143,1246.6,531.2223214285714,476.12857142857143,1358.9,526.2223214285714,531.1285714285714,1461.8,520.2223214285714,543.1285714285714,1565.8,520.2223214285714,543.1285714285714,1668.6,520.2223214285714,543.1285714285714,1772.8,520.2223214285714,543.1285714285714,1879.3,627.2223214285714,459.12857142857143,1995.9,898.2223214285714,230.12857142857143,2098.3,916.2223214285714,220.12857142857143,2202,916.2223214285714,220.12857142857143,2303.7,916.2223214285714,220.12857142857143,2406.2,916.2223214285714,220.12857142857143,2508.7,916.2223214285714,220.12857142857143,2611.8,916.2223214285714,220.12857142857143,2713.8,916.2223214285714,220.12857142857143,2826,916.2223214285714,220.12857142857143,2927.4,916.2223214285714,220.12857142857143,3042.1,916.2223214285714,220.12857142857143,3147,916.2223214285714,220.12857142857143,3253.9,916.2223214285714,220.12857142857143,3358.6,916.2223214285714,220.12857142857143,3470,916.2223214285714,220.12857142857143,3574.1,916.2223214285714,220.12857142857143,3675.9,916.2223214285714,220.12857142857143,3785.8,916.2223214285714,220.12857142857143,3889.5,916.2223214285714,220.12857142857143,3995.8,916.2223214285714,220.12857142857143,4105.8,916.2223214285714,220.12857142857143,4222,916.2223214285714,220.12857142857143,4324.3,916.2223214285714,220.12857142857143,4429,916.2223214285714,220.12857142857143,4533.8,916.2223214285714,220.12857142857143,4649.8,916.2223214285714,220.12857142857143,4753.4,916.2223214285714,220.12857142857143,4854,916.2223214285714,220.12857142857143,4962.6]","[1394.6,1394.6,1000,0,394.7,""smooth"",""right"",""right"",""good_move"",8546.2,7150.1,2788.6,5372.3,385.4,""oops"",""down"",""right"",""good_move"",11227.2,2677.1,2272.7,8550.1,404.4,""smooth"",""down"",""down"",""good_move"",14095.1,2864.2,2497.1,11231,367,""smooth"",""down"",""down"",""good_move"",19994.6,5891.1,1838.4,17732.5,423.7,""smooth"",""right"",""right"",""good_move"",23266.2,3270.9,2884.2,19995.5,386.6,""smooth"",""down"",""down"",""good_move""]","",""
"4783","","<div style=""width:500px;"">
  <p>What determined the result of this run?</p>
  </div>","99","html-slider-response","25","257971","0.0-5.0-1.3","193","1","2025-07-23 08:19:07","1f75c3e559b7213887762d5229550c2b","78.145.195.194","Mozilla/5.0 (Windows NT 10.0; Win64; x64) AppleWebKit/537.36 (KHTML, like Gecko) Chrome/138.0.0.0 Safari/537.36","WebKit","Chrome","138.0.0.0","Windows","10.0","https://app.prolific.com/","en-US,en;q=0.9","5cab22cd68194f001511b2d6","683db9eb0562dbf637994deb","68809ade558bef2bf1fdba9b","2","1","5cab22cd68194f001511b2d6","2","1","2025-07-23T08:23:59.634Z","","","","","","","","","","","AttribQ","","50","","","","","","","","","","","","","","","","","","","","","","","","","","","","",""
"3434","","<div style=""width:500px;"">
  <p>How much control did you have over the ball?</p>
  </div>","98","html-slider-response","26","261409","0.0-5.0-2.3","193","1","2025-07-23 08:19:07","1f75c3e559b7213887762d5229550c2b","78.145.195.194","Mozilla/5.0 (Windows NT 10.0; Win64; x64) AppleWebKit/537.36 (KHTML, like Gecko) Chrome/138.0.0.0 Safari/537.36","WebKit","Chrome","138.0.0.0","Windows","10.0","https://app.prolific.com/","en-US,en;q=0.9","5cab22cd68194f001511b2d6","683db9eb0562dbf637994deb","68809ade558bef2bf1fdba9b","2","1","5cab22cd68194f001511b2d6","2","1","2025-07-23T08:24:03.073Z","","","","","","","","","","","ControlQ","","50","","","","","","","","","","","","","","","","","","","","","","","","","","","","",""
"2555","","<div style=""width:500px;"">
  <p>How would you describe your current emotional state?</p>
  </div>","0","html-slider-response","27","263968","0.0-5.0-3.3","193","1","2025-07-23 08:19:07","1f75c3e559b7213887762d5229550c2b","78.145.195.194","Mozilla/5.0 (Windows NT 10.0; Win64; x64) AppleWebKit/537.36 (KHTML, like Gecko) Chrome/138.0.0.0 Safari/537.36","WebKit","Chrome","138.0.0.0","Windows","10.0","https://app.prolific.com/","en-US,en;q=0.9","5cab22cd68194f001511b2d6","683db9eb0562dbf637994deb","68809ade558bef2bf1fdba9b","2","1","5cab22cd68194f001511b2d6","2","1","2025-07-23T08:24:05.631Z","","","","","","","","","","","StressQ","","50","","","","","","","","","","","","","","","","","","","","","","","","","","","","",""
"2422","","<div style=""width:500px;"">
  <p>What best describes how you currently feel?</p>
  </div>","100","html-slider-response","28","266393","0.0-5.0-4.3","193","1","2025-07-23 08:19:07","1f75c3e559b7213887762d5229550c2b","78.145.195.194","Mozilla/5.0 (Windows NT 10.0; Win64; x64) AppleWebKit/537.36 (KHTML, like Gecko) Chrome/138.0.0.0 Safari/537.36","WebKit","Chrome","138.0.0.0","Windows","10.0","https://app.prolific.com/","en-US,en;q=0.9","5cab22cd68194f001511b2d6","683db9eb0562dbf637994deb","68809ade558bef2bf1fdba9b","2","1","5cab22cd68194f001511b2d6","2","1","2025-07-23T08:24:08.056Z","","","","","","","","","","","MotivationQ","","50","","","","","","","","","","","","","","","","","","","","","","","","","","","","",""
"","","","","ctl-task-cpt","29","307377","0.0-5.0-0.4","193","1","2025-07-23 08:19:07","1f75c3e559b7213887762d5229550c2b","78.145.195.194","Mozilla/5.0 (Windows NT 10.0; Win64; x64) AppleWebKit/537.36 (KHTML, like Gecko) Chrome/138.0.0.0 Safari/537.36","WebKit","Chrome","138.0.0.0","Windows","10.0","https://app.prolific.com/","en-US,en;q=0.9","5cab22cd68194f001511b2d6","683db9eb0562dbf637994deb","68809ade558bef2bf1fdba9b","2","1","5cab22cd68194f001511b2d6","2","1","2025-07-23T08:24:49.040Z","","","","","","","","","","","","","","win-only","0","g1:NW,g2:SE","0.6","5","0","269694.3","1285.6","6295.9","37957.5","1","4","4","6","2","4","4","28","24","0.21212121212121213","842.1","3000","1110","[""down"",""right""]","{""num_key_presses"":10,""num_perfect"":6,""num_errors"":0,""num_randdir"":4,""num_randdir_good_moves"":2,""num_whilered"":0,""num_whileblue"":0,""num_blue"":1,""num_good_moves"":8}","[292.22232142857143,298.12857142857143,0.2,292.22232142857143,298.12857142857143,100.7,292.22232142857143,298.12857142857143,216.3,292.22232142857143,298.12857142857143,323.2,304.22232142857143,316.12857142857143,427.7,483.22232142857143,470.12857142857143,535,530.2223214285714,532.1285714285714,635.4,530.2223214285714,536.1285714285714,741.5,530.2223214285714,536.1285714285714,855.8,530.2223214285714,536.1285714285714,965.5,530.2223214285714,536.1285714285714,1072.6,291.22232142857143,530.1285714285714,1176.9,-170.77767857142857,516.1285714285714,1285.9,-280.77767857142857,483.12857142857143,1391.9,-280.77767857142857,483.12857142857143,1500.3,-280.77767857142857,483.12857142857143,1609.5,-280.77767857142857,483.12857142857143,1715.5,-280.77767857142857,483.12857142857143,1823.1,-280.77767857142857,483.12857142857143,1932,-280.77767857142857,483.12857142857143,2039.8,-280.77767857142857,483.12857142857143,2142.6,-280.77767857142857,483.12857142857143,2250.1,-280.77767857142857,483.12857142857143,2355.7,-280.77767857142857,483.12857142857143,2464.7,-280.77767857142857,483.12857142857143,2568.4,-280.77767857142857,483.12857142857143,2669.2,-280.77767857142857,483.12857142857143,2774.7,-280.77767857142857,483.12857142857143,2875.5,-280.77767857142857,483.12857142857143,2985.3,-280.77767857142857,483.12857142857143,3092.9,-280.77767857142857,483.12857142857143,3193.5,-280.77767857142857,483.12857142857143,3304.6,-280.77767857142857,483.12857142857143,3409.7,-280.77767857142857,483.12857142857143,3509.9,-280.77767857142857,483.12857142857143,3610.1,-280.77767857142857,483.12857142857143,3714.2,-280.77767857142857,483.12857142857143,3816.5,-280.77767857142857,483.12857142857143,3925,-280.77767857142857,483.12857142857143,4026.9,-280.77767857142857,483.12857142857143,4133.4,-280.77767857142857,483.12857142857143,4242.7,-280.77767857142857,483.12857142857143,4352,-280.77767857142857,483.12857142857143,4467.3,-280.77767857142857,483.12857142857143,4569.9,-280.77767857142857,483.12857142857143,4678.9,-280.77767857142857,483.12857142857143,4779.8,-280.77767857142857,483.12857142857143,4879.8,-280.77767857142857,483.12857142857143,4988.2]","[1483.7,1483.6,1000,0.1,483.6,""oops"",""right"",""down"",""good_move"",4262,2773.9,2334.9,1488.1,439,""oops"",""right"",""left"",""bad_move"",10532.1,6259.4,2573.2,7550.4,408.6,""smooth"",""right"",""right"",""good_move"",13464.9,2931.6,2532.7,10533.3,398.9,""oops"",""down"",""up"",""bad_move"",16724.5,3257.9,2282.8,13466.7,975,""smooth"",""down"",""down"",""good_move"",19536.5,2810.6,2410.9,16726,399.7,""smooth"",""right"",""right"",""good_move"",22386.5,2848.3,2467.1,19538.2,381.2,""smooth"",""down"",""down"",""good_move"",25296.4,2908.2,2536.5,22388.2,371.7,""smooth"",""right"",""right"",""good_move"",27812.9,2511.2,2161.7,25301.8,349.5,""oops"",""down"",""down"",""good_move"",31424,3609.7,3210.2,27814.4,399.4,""smooth"",""right"",""right"",""good_move""]","",""
"3332","","<div style=""width:500px;"">
  <p>What determined the result of this run?</p>
  </div>","97","html-slider-response","30","310715","0.0-5.0-1.4","193","1","2025-07-23 08:19:07","1f75c3e559b7213887762d5229550c2b","78.145.195.194","Mozilla/5.0 (Windows NT 10.0; Win64; x64) AppleWebKit/537.36 (KHTML, like Gecko) Chrome/138.0.0.0 Safari/537.36","WebKit","Chrome","138.0.0.0","Windows","10.0","https://app.prolific.com/","en-US,en;q=0.9","5cab22cd68194f001511b2d6","683db9eb0562dbf637994deb","68809ade558bef2bf1fdba9b","2","1","5cab22cd68194f001511b2d6","2","1","2025-07-23T08:24:52.379Z","","","","","","","","","","","AttribQ","","50","","","","","","","","","","","","","","","","","","","","","","","","","","","","",""
"2869","","<div style=""width:500px;"">
  <p>How much control did you have over the ball?</p>
  </div>","97","html-slider-response","31","313589","0.0-5.0-2.4","193","1","2025-07-23 08:19:07","1f75c3e559b7213887762d5229550c2b","78.145.195.194","Mozilla/5.0 (Windows NT 10.0; Win64; x64) AppleWebKit/537.36 (KHTML, like Gecko) Chrome/138.0.0.0 Safari/537.36","WebKit","Chrome","138.0.0.0","Windows","10.0","https://app.prolific.com/","en-US,en;q=0.9","5cab22cd68194f001511b2d6","683db9eb0562dbf637994deb","68809ade558bef2bf1fdba9b","2","1","5cab22cd68194f001511b2d6","2","1","2025-07-23T08:24:55.252Z","","","","","","","","","","","ControlQ","","50","","","","","","","","","","","","","","","","","","","","","","","","","","","","",""
"2253","","<div style=""width:500px;"">
  <p>How would you describe your current emotional state?</p>
  </div>","0","html-slider-response","32","315846","0.0-5.0-3.4","193","1","2025-07-23 08:19:07","1f75c3e559b7213887762d5229550c2b","78.145.195.194","Mozilla/5.0 (Windows NT 10.0; Win64; x64) AppleWebKit/537.36 (KHTML, like Gecko) Chrome/138.0.0.0 Safari/537.36","WebKit","Chrome","138.0.0.0","Windows","10.0","https://app.prolific.com/","en-US,en;q=0.9","5cab22cd68194f001511b2d6","683db9eb0562dbf637994deb","68809ade558bef2bf1fdba9b","2","1","5cab22cd68194f001511b2d6","2","1","2025-07-23T08:24:57.510Z","","","","","","","","","","","StressQ","","50","","","","","","","","","","","","","","","","","","","","","","","","","","","","",""
"2937","","<div style=""width:500px;"">
  <p>What best describes how you currently feel?</p>
  </div>","100","html-slider-response","33","318788","0.0-5.0-4.4","193","1","2025-07-23 08:19:07","1f75c3e559b7213887762d5229550c2b","78.145.195.194","Mozilla/5.0 (Windows NT 10.0; Win64; x64) AppleWebKit/537.36 (KHTML, like Gecko) Chrome/138.0.0.0 Safari/537.36","WebKit","Chrome","138.0.0.0","Windows","10.0","https://app.prolific.com/","en-US,en;q=0.9","5cab22cd68194f001511b2d6","683db9eb0562dbf637994deb","68809ade558bef2bf1fdba9b","2","1","5cab22cd68194f001511b2d6","2","1","2025-07-23T08:25:00.451Z","","","","","","","","","","","MotivationQ","","50","","","","","","","","","","","","","","","","","","","","","","","","","","","","",""
"","","","","ctl-task-cpt","34","418517","0.0-5.0-0.5","193","1","2025-07-23 08:19:07","1f75c3e559b7213887762d5229550c2b","78.145.195.194","Mozilla/5.0 (Windows NT 10.0; Win64; x64) AppleWebKit/537.36 (KHTML, like Gecko) Chrome/138.0.0.0 Safari/537.36","WebKit","Chrome","138.0.0.0","Windows","10.0","https://app.prolific.com/","en-US,en;q=0.9","5cab22cd68194f001511b2d6","683db9eb0562dbf637994deb","68809ade558bef2bf1fdba9b","2","1","5cab22cd68194f001511b2d6","2","1","2025-07-23T08:26:40.181Z","","","","","","","","","","","","","","win-only","0","g1:NW,g2:SE","0.5","6","0","322092","1206.5","6220.6","96691.1","1","4","8","6","2","-8","-10","18","28","0.13636363636363635","1026.1","3000","-915","[""down"",""right""]","{""num_key_presses"":25,""num_perfect"":12,""num_errors"":2,""num_randdir"":11,""num_randdir_good_moves"":1,""num_whilered"":0,""num_whileblue"":2,""num_blue"":6,""num_good_moves"":13}","[297.22232142857143,302.12857142857143,6.4,297.22232142857143,302.12857142857143,109.8,297.22232142857143,302.12857142857143,216.9,297.22232142857143,302.12857142857143,329.4,297.22232142857143,302.12857142857143,442.9,325.22232142857143,328.12857142857143,560.2,522.2223214285714,506.12857142857143,660.3,564.2223214285714,577.1285714285714,762.4,549.2223214285714,562.1285714285714,881.2,542.2223214285714,541.1285714285714,984.5,542.2223214285714,541.1285714285714,1086.9,542.2223214285714,541.1285714285714,1202.8,571.2223214285714,512.1285714285714,1305.7,691.2223214285714,382.12857142857143,1406.9,712.2223214285714,309.12857142857143,1520.7,712.2223214285714,309.12857142857143,1626.6,712.2223214285714,309.12857142857143,1733.2,712.2223214285714,309.12857142857143,1845,712.2223214285714,309.12857142857143,1955.2,712.2223214285714,309.12857142857143,2068.1,712.2223214285714,309.12857142857143,2171.3,712.2223214285714,309.12857142857143,2284.2,712.2223214285714,309.12857142857143,2396.1,712.2223214285714,309.12857142857143,2510.1,712.2223214285714,309.12857142857143,2625.2,712.2223214285714,309.12857142857143,2727.7,712.2223214285714,309.12857142857143,2832.8,712.2223214285714,309.12857142857143,2948.9,712.2223214285714,309.12857142857143,3051.3,712.2223214285714,309.12857142857143,3158.2,712.2223214285714,309.12857142857143,3258.4,712.2223214285714,309.12857142857143,3358.9,712.2223214285714,309.12857142857143,3463.8,712.2223214285714,309.12857142857143,3578.6,712.2223214285714,309.12857142857143,3679.4,712.2223214285714,309.12857142857143,3786,712.2223214285714,309.12857142857143,3889.5,712.2223214285714,309.12857142857143,3996.9,712.2223214285714,309.12857142857143,4102.2,712.2223214285714,309.12857142857143,4213.6,712.2223214285714,309.12857142857143,4319.5,712.2223214285714,309.12857142857143,4422.7,712.2223214285714,309.12857142857143,4527.8,712.2223214285714,309.12857142857143,4644.7,712.2223214285714,309.12857142857143,4746.1,712.2223214285714,309.12857142857143,4854,712.2223214285714,309.12857142857143,4964]","[1447.3,1447.4,1000,0,447.4,""smooth"",""right"",""right"",""good_move"",5050.2,3600.7,3221.4,1449.5,379.3,""smooth"",""down"",""down"",""good_move"",7496.7,2444.9,2014.7,5051.8,430.2,""oops"",""right"",""left"",""bad_move"",10672.2,3173.6,2807.2,7498.7,366.4,""oops"",""right"",""left"",""bad_move"",13830.5,3156.5,2132,10674,1024.5,""smooth"",""right"",""right"",""good_move"",20847.4,7015.4,2882.4,17608.5,356.6,""oops"",""right"",""up"",""bad_move"",23573.3,2724.4,2069.4,20848.9,655,""oops"",""right"",""up"",""bad_move"",26480.9,2906.2,2533.8,23574.7,372.4,""smooth"",""right"",""right"",""good_move"",29174.1,2690.9,2345.3,26483.2,345.6,""smooth"",""down"",""down"",""good_move"",35259.7,6079.5,2336.2,32540.4,383.1,""oops"",""right"",""left"",""bad_move"",38066.5,2805.4,2430.4,35261.2,375,""smooth"",""down"",""down"",""good_move"",41067.1,2998.9,2631.6,38068.2,367.3,""smooth"",""right"",""right"",""good_move"",44516.6,3447.5,3106.3,41069.2,341.1,""oops"",""right"",""left"",""bad_move"",47657.2,3139.3,2804,44517.9,335.3,""while_blue"",""right"",""left"",""bad_move"",50897.7,3237.1,2261.1,47660.6,976,""oops"",""right"",""left"",""bad_move"",54429.2,3529.9,3159.5,50899.3,370.4,""smooth"",""right"",""right"",""good_move"",57332.7,2901.1,2537.6,54431.6,363.5,""smooth"",""down"",""down"",""good_move"",64162.7,6828.7,2589.5,61248.1,325.2,""smooth"",""right"",""right"",""good_move"",70309.9,6146.1,2526.1,67371.4,412.4,""oops"",""right"",""left"",""bad_move"",74069.1,3757.6,3354.5,70311.6,403,""oops"",""right"",""down"",""good_move"",76983.7,2913.3,2494.3,74070.4,419,""oops"",""right"",""up"",""bad_move"",79695.2,2709.9,2324.1,76985.3,385.8,""oops"",""right"",""left"",""bad_move"",81881.9,2184.9,1719,79697,465.9,""smooth"",""right"",""right"",""good_move"",84508.7,2625.5,2296.8,81883.3,328.6,""smooth"",""right"",""right"",""good_move"",87412.6,2901.8,2596,84510.8,305.8,""while_blue"",""right"",""up"",""bad_move""]","",""
"2955","","<div style=""width:500px;"">
  <p>What determined the result of this run?</p>
  </div>","15","html-slider-response","35","421477","0.0-5.0-1.5","193","1","2025-07-23 08:19:07","1f75c3e559b7213887762d5229550c2b","78.145.195.194","Mozilla/5.0 (Windows NT 10.0; Win64; x64) AppleWebKit/537.36 (KHTML, like Gecko) Chrome/138.0.0.0 Safari/537.36","WebKit","Chrome","138.0.0.0","Windows","10.0","https://app.prolific.com/","en-US,en;q=0.9","5cab22cd68194f001511b2d6","683db9eb0562dbf637994deb","68809ade558bef2bf1fdba9b","2","1","5cab22cd68194f001511b2d6","2","1","2025-07-23T08:26:43.140Z","","","","","","","","","","","AttribQ","","50","","","","","","","","","","","","","","","","","","","","","","","","","","","","",""
"4111","","<div style=""width:500px;"">
  <p>How much control did you have over the ball?</p>
  </div>","12","html-slider-response","36","425594","0.0-5.0-2.5","193","1","2025-07-23 08:19:07","1f75c3e559b7213887762d5229550c2b","78.145.195.194","Mozilla/5.0 (Windows NT 10.0; Win64; x64) AppleWebKit/537.36 (KHTML, like Gecko) Chrome/138.0.0.0 Safari/537.36","WebKit","Chrome","138.0.0.0","Windows","10.0","https://app.prolific.com/","en-US,en;q=0.9","5cab22cd68194f001511b2d6","683db9eb0562dbf637994deb","68809ade558bef2bf1fdba9b","2","1","5cab22cd68194f001511b2d6","2","1","2025-07-23T08:26:47.257Z","","","","","","","","","","","ControlQ","","50","","","","","","","","","","","","","","","","","","","","","","","","","","","","",""
"3611","","<div style=""width:500px;"">
  <p>How would you describe your current emotional state?</p>
  </div>","15","html-slider-response","37","429211","0.0-5.0-3.5","193","1","2025-07-23 08:19:07","1f75c3e559b7213887762d5229550c2b","78.145.195.194","Mozilla/5.0 (Windows NT 10.0; Win64; x64) AppleWebKit/537.36 (KHTML, like Gecko) Chrome/138.0.0.0 Safari/537.36","WebKit","Chrome","138.0.0.0","Windows","10.0","https://app.prolific.com/","en-US,en;q=0.9","5cab22cd68194f001511b2d6","683db9eb0562dbf637994deb","68809ade558bef2bf1fdba9b","2","1","5cab22cd68194f001511b2d6","2","1","2025-07-23T08:26:50.875Z","","","","","","","","","","","StressQ","","50","","","","","","","","","","","","","","","","","","","","","","","","","","","","",""
"2574","","<div style=""width:500px;"">
  <p>What best describes how you currently feel?</p>
  </div>","86","html-slider-response","38","431793","0.0-5.0-4.5","193","1","2025-07-23 08:19:07","1f75c3e559b7213887762d5229550c2b","78.145.195.194","Mozilla/5.0 (Windows NT 10.0; Win64; x64) AppleWebKit/537.36 (KHTML, like Gecko) Chrome/138.0.0.0 Safari/537.36","WebKit","Chrome","138.0.0.0","Windows","10.0","https://app.prolific.com/","en-US,en;q=0.9","5cab22cd68194f001511b2d6","683db9eb0562dbf637994deb","68809ade558bef2bf1fdba9b","2","1","5cab22cd68194f001511b2d6","2","1","2025-07-23T08:26:53.456Z","","","","","","","","","","","MotivationQ","","50","","","","","","","","","","","","","","","","","","","","","","","","","","","","",""
"","","","","ctl-task-cpt","39","483403","0.0-5.0-0.6","193","1","2025-07-23 08:19:07","1f75c3e559b7213887762d5229550c2b","78.145.195.194","Mozilla/5.0 (Windows NT 10.0; Win64; x64) AppleWebKit/537.36 (KHTML, like Gecko) Chrome/138.0.0.0 Safari/537.36","WebKit","Chrome","138.0.0.0","Windows","10.0","https://app.prolific.com/","en-US,en;q=0.9","5cab22cd68194f001511b2d6","683db9eb0562dbf637994deb","68809ade558bef2bf1fdba9b","2","1","5cab22cd68194f001511b2d6","2","1","2025-07-23T08:27:45.067Z","","","","","","","","","","","","","","win-only","2","g1:SE,g2:NW","0.4","7","0","435093.9","1111.5","6122.4","48577.2","1","4","8","6","2","8","8","26","18","0.19696969696969696","1222.4","3000","2090","[""left"",""up""]","{""num_key_presses"":10,""num_perfect"":4,""num_errors"":0,""num_randdir"":6,""num_randdir_good_moves"":4,""num_whilered"":0,""num_whileblue"":0,""num_blue"":2,""num_good_moves"":8}","[295.22232142857143,301.12857142857143,0.2,295.22232142857143,301.12857142857143,108.7,295.22232142857143,301.12857142857143,219.2,295.22232142857143,301.12857142857143,328.3,295.22232142857143,301.12857142857143,429.2,313.22232142857143,312.12857142857143,536.7,396.22232142857143,380.12857142857143,644.1,244.22232142857143,292.12857142857143,749.3,-2.7776785714285737,83.12857142857143,859.9,1.2223214285714263,83.12857142857143,963.1,16.222321428571426,88.12857142857143,1071.5,29.222321428571426,76.12857142857143,1173.1,31.222321428571426,75.12857142857143,1275,31.222321428571426,75.12857142857143,1378.1,31.222321428571426,75.12857142857143,1481.9,-201.77767857142857,164.12857142857143,1599,-233.77767857142857,174.12857142857143,1715.7,-231.77767857142857,175.12857142857143,1821.7,-231.77767857142857,175.12857142857143,1938.8,-231.77767857142857,175.12857142857143,2056.7,-231.77767857142857,175.12857142857143,2164.6,-231.77767857142857,175.12857142857143,2277.1,-231.77767857142857,175.12857142857143,2388.6,-231.77767857142857,175.12857142857143,2490.2,-231.77767857142857,175.12857142857143,2592.7,-231.77767857142857,175.12857142857143,2697.9,-231.77767857142857,175.12857142857143,2809.5,-231.77767857142857,175.12857142857143,2917.3,-231.77767857142857,175.12857142857143,3032.3,-231.77767857142857,175.12857142857143,3142,-231.77767857142857,175.12857142857143,3257,-231.77767857142857,175.12857142857143,3360.6,-231.77767857142857,175.12857142857143,3466.8,-231.77767857142857,175.12857142857143,3570.3,-231.77767857142857,175.12857142857143,3682.5,-231.77767857142857,175.12857142857143,3790.4,-231.77767857142857,175.12857142857143,3894.5,-231.77767857142857,175.12857142857143,4009.8,-231.77767857142857,175.12857142857143,4121,-231.77767857142857,175.12857142857143,4234,-231.77767857142857,175.12857142857143,4336.6,-231.77767857142857,175.12857142857143,4439.2,-231.77767857142857,175.12857142857143,4542.8,-231.77767857142857,175.12857142857143,4646.3,-231.77767857142857,175.12857142857143,4761.2,-231.77767857142857,175.12857142857143,4870.9,-231.77767857142857,175.12857142857143,4978.1]","[1483,1483,1000,0,483,""smooth"",""up"",""up"",""good_move"",4828.5,3340.7,2385.4,1487.8,955.3,""smooth"",""left"",""left"",""good_move"",8436.1,3606,1936.3,4830.1,1669.7,""oops"",""up"",""left"",""good_move"",12053.7,3616.3,2083.2,8437.4,1533.2,""oops"",""up"",""up"",""good_move"",15803.4,3748.2,1900,12055.2,1848.2,""smooth"",""up"",""up"",""good_move"",20122.9,4318.2,2666.3,15804.7,1651.9,""oops"",""left"",""right"",""bad_move"",25628.9,5504.6,1709.2,23504.4,415.3,""oops"",""left"",""down"",""bad_move"",32143.9,6513.8,2397.4,29358,388.5,""oops"",""left"",""left"",""good_move"",37013,4868.2,2387.4,32144.8,2480.8,""oops"",""up"",""left"",""good_move"",41943.9,4926.5,1938,37017.5,2988.4,""smooth"",""up"",""up"",""good_move""]","",""
"3204","","<div style=""width:500px;"">
  <p>What determined the result of this run?</p>
  </div>","78","html-slider-response","40","486613","0.0-5.0-1.6","193","1","2025-07-23 08:19:07","1f75c3e559b7213887762d5229550c2b","78.145.195.194","Mozilla/5.0 (Windows NT 10.0; Win64; x64) AppleWebKit/537.36 (KHTML, like Gecko) Chrome/138.0.0.0 Safari/537.36","WebKit","Chrome","138.0.0.0","Windows","10.0","https://app.prolific.com/","en-US,en;q=0.9","5cab22cd68194f001511b2d6","683db9eb0562dbf637994deb","68809ade558bef2bf1fdba9b","2","1","5cab22cd68194f001511b2d6","2","1","2025-07-23T08:27:48.276Z","","","","","","","","","","","AttribQ","","50","","","","","","","","","","","","","","","","","","","","","","","","","","","","",""
"2673","","<div style=""width:500px;"">
  <p>How much control did you have over the ball?</p>
  </div>","81","html-slider-response","41","489291","0.0-5.0-2.6","193","1","2025-07-23 08:19:07","1f75c3e559b7213887762d5229550c2b","78.145.195.194","Mozilla/5.0 (Windows NT 10.0; Win64; x64) AppleWebKit/537.36 (KHTML, like Gecko) Chrome/138.0.0.0 Safari/537.36","WebKit","Chrome","138.0.0.0","Windows","10.0","https://app.prolific.com/","en-US,en;q=0.9","5cab22cd68194f001511b2d6","683db9eb0562dbf637994deb","68809ade558bef2bf1fdba9b","2","1","5cab22cd68194f001511b2d6","2","1","2025-07-23T08:27:50.955Z","","","","","","","","","","","ControlQ","","50","","","","","","","","","","","","","","","","","","","","","","","","","","","","",""
"3908","","<div style=""width:500px;"">
  <p>How would you describe your current emotional state?</p>
  </div>","10","html-slider-response","42","493204","0.0-5.0-3.6","193","1","2025-07-23 08:19:07","1f75c3e559b7213887762d5229550c2b","78.145.195.194","Mozilla/5.0 (Windows NT 10.0; Win64; x64) AppleWebKit/537.36 (KHTML, like Gecko) Chrome/138.0.0.0 Safari/537.36","WebKit","Chrome","138.0.0.0","Windows","10.0","https://app.prolific.com/","en-US,en;q=0.9","5cab22cd68194f001511b2d6","683db9eb0562dbf637994deb","68809ade558bef2bf1fdba9b","2","1","5cab22cd68194f001511b2d6","2","1","2025-07-23T08:27:54.868Z","","","","","","","","","","","StressQ","","50","","","","","","","","","","","","","","","","","","","","","","","","","","","","",""
"2402","","<div style=""width:500px;"">
  <p>What best describes how you currently feel?</p>
  </div>","86","html-slider-response","43","495612","0.0-5.0-4.6","193","1","2025-07-23 08:19:07","1f75c3e559b7213887762d5229550c2b","78.145.195.194","Mozilla/5.0 (Windows NT 10.0; Win64; x64) AppleWebKit/537.36 (KHTML, like Gecko) Chrome/138.0.0.0 Safari/537.36","WebKit","Chrome","138.0.0.0","Windows","10.0","https://app.prolific.com/","en-US,en;q=0.9","5cab22cd68194f001511b2d6","683db9eb0562dbf637994deb","68809ade558bef2bf1fdba9b","2","1","5cab22cd68194f001511b2d6","2","1","2025-07-23T08:27:57.275Z","","","","","","","","","","","MotivationQ","","50","","","","","","","","","","","","","","","","","","","","","","","","","","","","",""
"","","","","ctl-task-cpt","44","668963","0.0-5.0-0.7","193","1","2025-07-23 08:19:07","1f75c3e559b7213887762d5229550c2b","78.145.195.194","Mozilla/5.0 (Windows NT 10.0; Win64; x64) AppleWebKit/537.36 (KHTML, like Gecko) Chrome/138.0.0.0 Safari/537.36","WebKit","Chrome","138.0.0.0","Windows","10.0","https://app.prolific.com/","en-US,en;q=0.9","5cab22cd68194f001511b2d6","683db9eb0562dbf637994deb","68809ade558bef2bf1fdba9b","2","1","5cab22cd68194f001511b2d6","2","1","2025-07-23T08:30:50.626Z","","","","","","","","","","","","","","win-only","0","g1:NW,g2:SE","0.3","8","0","498917.2","1172.7","6201.8","170247.5","1","4","4","6","2","4","4","30","26","0.22727272727272727","970.5","3000","1865","[""down"",""right""]","{""num_key_presses"":25,""num_perfect"":7,""num_errors"":0,""num_randdir"":18,""num_randdir_good_moves"":9,""num_whilered"":0,""num_whileblue"":0,""num_blue"":8,""num_good_moves"":16}","[302.22232142857143,301.12857142857143,0.9,302.22232142857143,301.12857142857143,120.3,302.22232142857143,301.12857142857143,245.7,302.22232142857143,301.12857142857143,366.5,354.22232142857143,373.12857142857143,500.8,498.22232142857143,492.12857142857143,647,541.2223214285714,534.1285714285714,752,553.2223214285714,547.1285714285714,871.5,553.2223214285714,547.1285714285714,977,553.2223214285714,547.1285714285714,1123.4,573.2223214285714,522.1285714285714,1227.4,651.2223214285714,417.12857142857143,1385.3,651.2223214285714,394.12857142857143,1499.1,651.2223214285714,384.12857142857143,1609.6,650.2223214285714,384.12857142857143,1743.3,650.2223214285714,384.12857142857143,1872.6,650.2223214285714,384.12857142857143,1999,650.2223214285714,384.12857142857143,2131.2,650.2223214285714,384.12857142857143,2255.2,650.2223214285714,384.12857142857143,2377.3,650.2223214285714,384.12857142857143,2497.7,650.2223214285714,384.12857142857143,2617.6,650.2223214285714,384.12857142857143,2732.2,650.2223214285714,384.12857142857143,2854.7,650.2223214285714,384.12857142857143,2972.9,650.2223214285714,384.12857142857143,3095.5,650.2223214285714,384.12857142857143,3214.3,650.2223214285714,384.12857142857143,3338.8,650.2223214285714,384.12857142857143,3461.7,650.2223214285714,384.12857142857143,3582,650.2223214285714,384.12857142857143,3700.8,650.2223214285714,384.12857142857143,3818,650.2223214285714,384.12857142857143,3942.6,650.2223214285714,384.12857142857143,4062.2,650.2223214285714,384.12857142857143,4198.4,650.2223214285714,384.12857142857143,4323.4,650.2223214285714,384.12857142857143,4447,650.2223214285714,384.12857142857143,4568.9,650.2223214285714,384.12857142857143,4688.8,650.2223214285714,384.12857142857143,4816.1,650.2223214285714,384.12857142857143,4939.3]","[1505.7,1505.7,1000,0,505.7,""oops"",""right"",""right"",""good_move"",4472.2,2965.6,2465.2,1506.7,500.4,""oops"",""down"",""left"",""bad_move"",12366.3,7892.6,2928.3,4473.7,4964.3,""smooth"",""right"",""right"",""good_move"",15782.3,3415.1,2893.3,12367.3,521.7,""smooth"",""down"",""down"",""good_move"",19050.7,3267.1,2796.1,15783.7,470.9,""oops"",""right"",""right"",""good_move"",22670.4,3618.1,3102.8,19052.3,515.3,""oops"",""down"",""down"",""good_move"",25989.9,3317.9,2868.7,22672,449.2,""oops"",""right"",""right"",""good_move"",28999.9,2981.8,2508.9,26018.1,473,""oops"",""down"",""up"",""bad_move"",37455.6,8453.2,1876,29002.5,6577.2,""oops"",""down"",""up"",""bad_move"",46156.2,8699.6,2073.1,37456.6,6626.5,""smooth"",""down"",""down"",""good_move"",52590.8,6433.8,2714.4,49455.8,420.6,""oops"",""down"",""up"",""bad_move"",61716.1,9124.3,2865.7,52591.8,6258.6,""oops"",""down"",""down"",""good_move"",64241.6,2523.5,1912.3,61718.2,611.2,""oops"",""down"",""left"",""bad_move"",73527.3,9283.7,2788.9,64243.6,6494.8,""smooth"",""down"",""down"",""good_move"",75814,2285,1813.9,73529,471.1,""oops"",""right"",""up"",""bad_move"",85383.7,9568.2,3208.8,75815.5,6359.4,""smooth"",""down"",""down"",""good_move"",92628.8,7244.2,2792.3,89394.9,441.7,""smooth"",""down"",""down"",""good_move"",95653.8,3023.9,2481,92629.9,542.9,""oops"",""right"",""left"",""bad_move"",106018.5,10363.6,2825.1,95655,7538.5,""oops"",""right"",""down"",""good_move"",111274.2,5254.7,2107,108527.5,639.7,""oops"",""right"",""right"",""good_move"",114727.5,3451.5,2862.2,111276.2,589.1,""oops"",""right"",""left"",""bad_move"",126817.4,12088.4,2038.9,114729,10049.5,""oops"",""right"",""up"",""bad_move"",150406.1,23587.7,2782.5,147100.1,523.5,""oops"",""right"",""down"",""good_move"",153997.3,3590.1,2199.3,150407.2,1390.9,""smooth"",""right"",""right"",""good_move"",160215.9,6217.1,2744.4,156926.4,545.1,""oops"",""right"",""right"",""good_move""]","",""
"2258","","<div style=""width:500px;"">
  <p>What determined the result of this run?</p>
  </div>","17","html-slider-response","45","671232","0.0-5.0-1.7","193","1","2025-07-23 08:19:07","1f75c3e559b7213887762d5229550c2b","78.145.195.194","Mozilla/5.0 (Windows NT 10.0; Win64; x64) AppleWebKit/537.36 (KHTML, like Gecko) Chrome/138.0.0.0 Safari/537.36","WebKit","Chrome","138.0.0.0","Windows","10.0","https://app.prolific.com/","en-US,en;q=0.9","5cab22cd68194f001511b2d6","683db9eb0562dbf637994deb","68809ade558bef2bf1fdba9b","2","1","5cab22cd68194f001511b2d6","2","1","2025-07-23T08:30:52.895Z","","","","","","","","","","","AttribQ","","50","","","","","","","","","","","","","","","","","","","","","","","","","","","","",""
"2376","","<div style=""width:500px;"">
  <p>How much control did you have over the ball?</p>
  </div>","15","html-slider-response","46","673620","0.0-5.0-2.7","193","1","2025-07-23 08:19:07","1f75c3e559b7213887762d5229550c2b","78.145.195.194","Mozilla/5.0 (Windows NT 10.0; Win64; x64) AppleWebKit/537.36 (KHTML, like Gecko) Chrome/138.0.0.0 Safari/537.36","WebKit","Chrome","138.0.0.0","Windows","10.0","https://app.prolific.com/","en-US,en;q=0.9","5cab22cd68194f001511b2d6","683db9eb0562dbf637994deb","68809ade558bef2bf1fdba9b","2","1","5cab22cd68194f001511b2d6","2","1","2025-07-23T08:30:55.283Z","","","","","","","","","","","ControlQ","","50","","","","","","","","","","","","","","","","","","","","","","","","","","","","",""
"3661","","<div style=""width:500px;"">
  <p>How would you describe your current emotional state?</p>
  </div>","40","html-slider-response","47","677293","0.0-5.0-3.7","193","1","2025-07-23 08:19:07","1f75c3e559b7213887762d5229550c2b","78.145.195.194","Mozilla/5.0 (Windows NT 10.0; Win64; x64) AppleWebKit/537.36 (KHTML, like Gecko) Chrome/138.0.0.0 Safari/537.36","WebKit","Chrome","138.0.0.0","Windows","10.0","https://app.prolific.com/","en-US,en;q=0.9","5cab22cd68194f001511b2d6","683db9eb0562dbf637994deb","68809ade558bef2bf1fdba9b","2","1","5cab22cd68194f001511b2d6","2","1","2025-07-23T08:30:58.956Z","","","","","","","","","","","StressQ","","50","","","","","","","","","","","","","","","","","","","","","","","","","","","","",""
"2298","","<div style=""width:500px;"">
  <p>What best describes how you currently feel?</p>
  </div>","76","html-slider-response","48","679602","0.0-5.0-4.7","193","1","2025-07-23 08:19:07","1f75c3e559b7213887762d5229550c2b","78.145.195.194","Mozilla/5.0 (Windows NT 10.0; Win64; x64) AppleWebKit/537.36 (KHTML, like Gecko) Chrome/138.0.0.0 Safari/537.36","WebKit","Chrome","138.0.0.0","Windows","10.0","https://app.prolific.com/","en-US,en;q=0.9","5cab22cd68194f001511b2d6","683db9eb0562dbf637994deb","68809ade558bef2bf1fdba9b","2","1","5cab22cd68194f001511b2d6","2","1","2025-07-23T08:31:01.265Z","","","","","","","","","","","MotivationQ","","50","","","","","","","","","","","","","","","","","","","","","","","","","","","","",""
"","","","","ctl-task-cpt","49","838880","0.0-5.0-0.8","193","1","2025-07-23 08:19:07","1f75c3e559b7213887762d5229550c2b","78.145.195.194","Mozilla/5.0 (Windows NT 10.0; Win64; x64) AppleWebKit/537.36 (KHTML, like Gecko) Chrome/138.0.0.0 Safari/537.36","WebKit","Chrome","138.0.0.0","Windows","10.0","https://app.prolific.com/","en-US,en;q=0.9","5cab22cd68194f001511b2d6","683db9eb0562dbf637994deb","68809ade558bef2bf1fdba9b","2","1","5cab22cd68194f001511b2d6","2","1","2025-07-23T08:33:40.544Z","","","","","","","","","","","","","","win-only","2","g1:SE,g2:NW","0.2","9","0","682910.6","1120.2","6129.5","156157.2","1","4","4","6","2","4","4","34","30","0.25757575757575757","1033.6","3000","2605","[""left"",""up""]","{""num_key_presses"":12,""num_perfect"":4,""num_errors"":0,""num_randdir"":8,""num_randdir_good_moves"":5,""num_whilered"":0,""num_whileblue"":0,""num_blue"":2,""num_good_moves"":9}","[296.22232142857143,297.12857142857143,10.2,296.22232142857143,297.12857142857143,145.2,296.22232142857143,297.12857142857143,317.7,252.22232142857143,282.12857142857143,518.2,43.222321428571426,150.12857142857143,620.1,11.222321428571426,108.12857142857143,728.1,21.222321428571426,88.12857142857143,834.6,27.222321428571426,76.12857142857143,937.9,45.222321428571426,52.128571428571426,1129.1,45.222321428571426,52.128571428571426,1322.6,-61.777678571428574,143.12857142857143,1445.1,-178.77767857142857,243.12857142857143,1548.4,-193.77767857142857,267.12857142857143,1655.8,-200.77767857142857,281.12857142857143,1836.4,-200.77767857142857,281.12857142857143,2008.9,-200.77767857142857,281.12857142857143,2180.4,-200.77767857142857,281.12857142857143,2353.5,-200.77767857142857,281.12857142857143,2529.3,-200.77767857142857,281.12857142857143,2707.6,-200.77767857142857,281.12857142857143,2903.5,-200.77767857142857,281.12857142857143,3077.3,-200.77767857142857,281.12857142857143,3181.5,-200.77767857142857,281.12857142857143,3361.3,-200.77767857142857,281.12857142857143,3538.1,-200.77767857142857,281.12857142857143,3714.5,-200.77767857142857,281.12857142857143,3892.8,-200.77767857142857,281.12857142857143,4063.4,-200.77767857142857,281.12857142857143,4242.2,-200.77767857142857,281.12857142857143,4428,-200.77767857142857,281.12857142857143,4601.6,-200.77767857142857,281.12857142857143,4764.9,-200.77767857142857,281.12857142857143,4927.9]","[1533.7,1533.7,1000,0,533.7,""oops"",""up"",""right"",""bad_move"",5143.1,3608.2,2875.7,1534.9,732.5,""oops"",""up"",""left"",""good_move"",20320.1,15175.7,2227.1,5144.4,12948.6,""smooth"",""up"",""up"",""good_move"",35897,15569.3,2920.5,20327.8,12648.7,""oops"",""left"",""left"",""good_move"",51917.4,16018.8,2065.2,35898.6,13953.6,""oops"",""up"",""left"",""good_move"",68035.1,16116.6,3453.1,51918.5,12663.5,""oops"",""up"",""left"",""good_move"",88323.5,20283.5,2663.5,84909.5,750.5,""oops"",""up"",""down"",""bad_move"",91809.1,3484.6,2076.5,88324.5,1408.1,""oops"",""up"",""down"",""bad_move"",95018.2,3207.8,2482.9,91810.4,724.9,""smooth"",""up"",""up"",""good_move"",111951.5,16915.6,2277.8,95036,14637.8,""oops"",""up"",""up"",""good_move"",129096.2,17143.2,2305.9,111953,14837.3,""smooth"",""up"",""up"",""good_move"",149890.6,20793.7,2287.1,146924.6,678.9,""smooth"",""up"",""up"",""good_move""]","",""
"3615","","<div style=""width:500px;"">
  <p>What determined the result of this run?</p>
  </div>","19","html-slider-response","50","842508","0.0-5.0-1.8","193","1","2025-07-23 08:19:07","1f75c3e559b7213887762d5229550c2b","78.145.195.194","Mozilla/5.0 (Windows NT 10.0; Win64; x64) AppleWebKit/537.36 (KHTML, like Gecko) Chrome/138.0.0.0 Safari/537.36","WebKit","Chrome","138.0.0.0","Windows","10.0","https://app.prolific.com/","en-US,en;q=0.9","5cab22cd68194f001511b2d6","683db9eb0562dbf637994deb","68809ade558bef2bf1fdba9b","2","1","5cab22cd68194f001511b2d6","2","1","2025-07-23T08:33:44.171Z","","","","","","","","","","","AttribQ","","50","","","","","","","","","","","","","","","","","","","","","","","","","","","","",""
"4450","","<div style=""width:500px;"">
  <p>How much control did you have over the ball?</p>
  </div>","24","html-slider-response","51","846970","0.0-5.0-2.8","193","1","2025-07-23 08:19:07","1f75c3e559b7213887762d5229550c2b","78.145.195.194","Mozilla/5.0 (Windows NT 10.0; Win64; x64) AppleWebKit/537.36 (KHTML, like Gecko) Chrome/138.0.0.0 Safari/537.36","WebKit","Chrome","138.0.0.0","Windows","10.0","https://app.prolific.com/","en-US,en;q=0.9","5cab22cd68194f001511b2d6","683db9eb0562dbf637994deb","68809ade558bef2bf1fdba9b","2","1","5cab22cd68194f001511b2d6","2","1","2025-07-23T08:33:48.634Z","","","","","","","","","","","ControlQ","","50","","","","","","","","","","","","","","","","","","","","","","","","","","","","",""
"3762","","<div style=""width:500px;"">
  <p>How would you describe your current emotional state?</p>
  </div>","47","html-slider-response","52","850745","0.0-5.0-3.8","193","1","2025-07-23 08:19:07","1f75c3e559b7213887762d5229550c2b","78.145.195.194","Mozilla/5.0 (Windows NT 10.0; Win64; x64) AppleWebKit/537.36 (KHTML, like Gecko) Chrome/138.0.0.0 Safari/537.36","WebKit","Chrome","138.0.0.0","Windows","10.0","https://app.prolific.com/","en-US,en;q=0.9","5cab22cd68194f001511b2d6","683db9eb0562dbf637994deb","68809ade558bef2bf1fdba9b","2","1","5cab22cd68194f001511b2d6","2","1","2025-07-23T08:33:52.408Z","","","","","","","","","","","StressQ","","50","","","","","","","","","","","","","","","","","","","","","","","","","","","","",""
"2631","","<div style=""width:500px;"">
  <p>What best describes how you currently feel?</p>
  </div>","77","html-slider-response","53","853389","0.0-5.0-4.8","193","1","2025-07-23 08:19:07","1f75c3e559b7213887762d5229550c2b","78.145.195.194","Mozilla/5.0 (Windows NT 10.0; Win64; x64) AppleWebKit/537.36 (KHTML, like Gecko) Chrome/138.0.0.0 Safari/537.36","WebKit","Chrome","138.0.0.0","Windows","10.0","https://app.prolific.com/","en-US,en;q=0.9","5cab22cd68194f001511b2d6","683db9eb0562dbf637994deb","68809ade558bef2bf1fdba9b","2","1","5cab22cd68194f001511b2d6","2","1","2025-07-23T08:33:55.052Z","","","","","","","","","","","MotivationQ","","50","","","","","","","","","","","","","","","","","","","","","","","","","","","","",""
"","","","","ctl-task-cpt","54","1083383","0.0-5.0-0.9","193","1","2025-07-23 08:19:07","1f75c3e559b7213887762d5229550c2b","78.145.195.194","Mozilla/5.0 (Windows NT 10.0; Win64; x64) AppleWebKit/537.36 (KHTML, like Gecko) Chrome/138.0.0.0 Safari/537.36","WebKit","Chrome","138.0.0.0","Windows","10.0","https://app.prolific.com/","en-US,en;q=0.9","5cab22cd68194f001511b2d6","683db9eb0562dbf637994deb","68809ade558bef2bf1fdba9b","2","1","5cab22cd68194f001511b2d6","2","1","2025-07-23T08:37:45.046Z","","","","","","","","","","","","","","win-only","0","g1:NW,g2:SE","0.4","10","0","856699.9","1891.2","6977.8","226951.7","1","4","8","6","2","8","8","42","34","0.3181818181818182","1269.1","3000","1985","[""down"",""right""]","{""num_key_presses"":28,""num_perfect"":11,""num_errors"":0,""num_randdir"":17,""num_randdir_good_moves"":9,""num_whilered"":0,""num_whileblue"":0,""num_blue"":3,""num_good_moves"":20}","[295.22232142857143,297.12857142857143,22.5,295.22232142857143,297.12857142857143,208.7,295.22232142857143,297.12857142857143,332.5,295.22232142857143,297.12857142857143,457.2,396.22232142857143,355.12857142857143,599.4,534.2223214285714,480.12857142857143,746.3,555.2223214285714,516.1285714285714,880.8,560.2223214285714,543.1285714285714,1007.8,555.2223214285714,551.1285714285714,1119.4,555.2223214285714,551.1285714285714,1232.7,555.2223214285714,551.1285714285714,1382.3,555.2223214285714,551.1285714285714,1494.4,555.2223214285714,551.1285714285714,1612,951.2223214285714,385.12857142857143,1763.7,951.2223214285714,387.12857142857143,1887.9,951.2223214285714,387.12857142857143,2004.9,951.2223214285714,387.12857142857143,2118.4,951.2223214285714,387.12857142857143,2233.9,951.2223214285714,387.12857142857143,2359.8,951.2223214285714,387.12857142857143,2481.6,951.2223214285714,387.12857142857143,2597.9,951.2223214285714,387.12857142857143,2718.6,951.2223214285714,387.12857142857143,2841.4,951.2223214285714,387.12857142857143,2958.2,951.2223214285714,387.12857142857143,3076.5,951.2223214285714,387.12857142857143,3197.6,951.2223214285714,387.12857142857143,3316.2,951.2223214285714,387.12857142857143,3441.5,951.2223214285714,387.12857142857143,3558.9,951.2223214285714,387.12857142857143,3675.2,951.2223214285714,387.12857142857143,3787.5,951.2223214285714,387.12857142857143,3907,951.2223214285714,387.12857142857143,4025.1,951.2223214285714,387.12857142857143,4138.1,951.2223214285714,387.12857142857143,4261.1,951.2223214285714,387.12857142857143,4376.3,951.2223214285714,387.12857142857143,4506.9,951.2223214285714,387.12857142857143,4625.7,951.2223214285714,387.12857142857143,4738.3,951.2223214285714,387.12857142857143,4964.9]","[1590.6,1590.7,1000,0,590.7,""oops"",""right"",""down"",""good_move"",5543.7,3952.1,2460.7,1591.6,1491.4,""smooth"",""right"",""right"",""good_move"",7990.8,2445.5,1776.3,5545.3,669.2,""oops"",""down"",""down"",""good_move"",11638.3,3646.3,2989.2,7992,657.1,""smooth"",""right"",""right"",""good_move"",14493.5,2854.1,2105.5,11639.5,748.5,""oops"",""down"",""up"",""bad_move"",34075.4,19580.2,2789.6,14495.2,16790.6,""oops"",""right"",""down"",""good_move"",36655.8,2579.6,1228.8,34076.3,1350.7,""oops"",""right"",""down"",""good_move"",40344.6,3687.7,2600.7,36657,1086.9,""smooth"",""right"",""right"",""good_move"",43317.2,2971,2213.9,40346.2,757.1,""smooth"",""down"",""down"",""good_move"",47122.4,3770.4,3180.2,43352,590.2,""oops"",""right"",""left"",""bad_move"",68999,21861.9,2459.7,47137.1,19402.2,""smooth"",""right"",""right"",""good_move"",72243.1,3243.5,2567.5,68999.6,676,""smooth"",""right"",""right"",""good_move"",74522.6,2278.1,1527.5,72244.6,750.5,""oops"",""right"",""up"",""bad_move"",95222.9,20699,2518.2,74523.9,18180.8,""oops"",""down"",""left"",""bad_move"",120087.4,24861.6,2481.5,116977.7,628.2,""oops"",""down"",""down"",""good_move"",123622.1,3533.6,2789,120088.6,744.5,""smooth"",""right"",""right"",""good_move"",127055.3,3431.9,2735,123623.4,696.9,""oops"",""right"",""up"",""bad_move"",148104.5,21048.1,2819.8,127056.5,18228.2,""oops"",""down"",""up"",""bad_move"",170597.6,22491.7,1772.7,148105.9,20719,""oops"",""down"",""down"",""good_move"",172937.8,2339.2,1062.7,170598.7,1276.4,""smooth"",""down"",""down"",""good_move"",176819.3,3880.2,3074.6,172939.1,805.6,""oops"",""right"",""right"",""good_move"",179841,3020.3,2331.8,176820.7,688.5,""smooth"",""down"",""down"",""good_move"",183571.6,3729.3,2861.5,179842.3,867.8,""oops"",""right"",""right"",""good_move"",186816.6,3243.5,2573.4,183573.1,670.1,""oops"",""down"",""left"",""bad_move"",200954.5,14136.6,2422.7,186818,11713.9,""smooth"",""right"",""right"",""good_move"",207819.7,6857.1,2216.4,204922.6,680.7,""oops"",""down"",""up"",""bad_move"",212900.5,5080.1,1993.9,207820.5,3086.1,""oops"",""down"",""down"",""good_move"",219250.9,6348.8,3066.2,215791.5,393.2,""smooth"",""down"",""down"",""good_move""]","",""
"4596","","<div style=""width:500px;"">
  <p>What determined the result of this run?</p>
  </div>","32","html-slider-response","55","1087982","0.0-5.0-1.9","193","1","2025-07-23 08:19:07","1f75c3e559b7213887762d5229550c2b","78.145.195.194","Mozilla/5.0 (Windows NT 10.0; Win64; x64) AppleWebKit/537.36 (KHTML, like Gecko) Chrome/138.0.0.0 Safari/537.36","WebKit","Chrome","138.0.0.0","Windows","10.0","https://app.prolific.com/","en-US,en;q=0.9","5cab22cd68194f001511b2d6","683db9eb0562dbf637994deb","68809ade558bef2bf1fdba9b","2","1","5cab22cd68194f001511b2d6","2","1","2025-07-23T08:37:49.645Z","","","","","","","","","","","AttribQ","","50","","","","","","","","","","","","","","","","","","","","","","","","","","","","",""
"5016","","<div style=""width:500px;"">
  <p>How much control did you have over the ball?</p>
  </div>","29","html-slider-response","56","1093002","0.0-5.0-2.9","193","1","2025-07-23 08:19:07","1f75c3e559b7213887762d5229550c2b","78.145.195.194","Mozilla/5.0 (Windows NT 10.0; Win64; x64) AppleWebKit/537.36 (KHTML, like Gecko) Chrome/138.0.0.0 Safari/537.36","WebKit","Chrome","138.0.0.0","Windows","10.0","https://app.prolific.com/","en-US,en;q=0.9","5cab22cd68194f001511b2d6","683db9eb0562dbf637994deb","68809ade558bef2bf1fdba9b","2","1","5cab22cd68194f001511b2d6","2","1","2025-07-23T08:37:54.666Z","","","","","","","","","","","ControlQ","","50","","","","","","","","","","","","","","","","","","","","","","","","","","","","",""
"3541","","<div style=""width:500px;"">
  <p>How would you describe your current emotional state?</p>
  </div>","53","html-slider-response","57","1096546","0.0-5.0-3.9","193","1","2025-07-23 08:19:07","1f75c3e559b7213887762d5229550c2b","78.145.195.194","Mozilla/5.0 (Windows NT 10.0; Win64; x64) AppleWebKit/537.36 (KHTML, like Gecko) Chrome/138.0.0.0 Safari/537.36","WebKit","Chrome","138.0.0.0","Windows","10.0","https://app.prolific.com/","en-US,en;q=0.9","5cab22cd68194f001511b2d6","683db9eb0562dbf637994deb","68809ade558bef2bf1fdba9b","2","1","5cab22cd68194f001511b2d6","2","1","2025-07-23T08:37:58.210Z","","","","","","","","","","","StressQ","","50","","","","","","","","","","","","","","","","","","","","","","","","","","","","",""
"3814","","<div style=""width:500px;"">
  <p>What best describes how you currently feel?</p>
  </div>","74","html-slider-response","58","1100365","0.0-5.0-4.9","193","1","2025-07-23 08:19:07","1f75c3e559b7213887762d5229550c2b","78.145.195.194","Mozilla/5.0 (Windows NT 10.0; Win64; x64) AppleWebKit/537.36 (KHTML, like Gecko) Chrome/138.0.0.0 Safari/537.36","WebKit","Chrome","138.0.0.0","Windows","10.0","https://app.prolific.com/","en-US,en;q=0.9","5cab22cd68194f001511b2d6","683db9eb0562dbf637994deb","68809ade558bef2bf1fdba9b","2","1","5cab22cd68194f001511b2d6","2","1","2025-07-23T08:38:02.028Z","","","","","","","","","","","MotivationQ","","50","","","","","","","","","","","","","","","","","","","","","","","","","","","","",""
"","","","","ctl-task-cpt","59","1140876","0.0-5.0-0.10","193","1","2025-07-23 08:19:07","1f75c3e559b7213887762d5229550c2b","78.145.195.194","Mozilla/5.0 (Windows NT 10.0; Win64; x64) AppleWebKit/537.36 (KHTML, like Gecko) Chrome/138.0.0.0 Safari/537.36","WebKit","Chrome","138.0.0.0","Windows","10.0","https://app.prolific.com/","en-US,en;q=0.9","5cab22cd68194f001511b2d6","683db9eb0562dbf637994deb","68809ade558bef2bf1fdba9b","2","1","5cab22cd68194f001511b2d6","2","1","2025-07-23T08:38:42.540Z","","","","","","","","","","","","","","win-only","3","g1:SW,g2:NE","0.5","11","0","1103666.1","1367.5","6385.7","37473.8","1","4","4","6","2","4","4","46","42","0.3484848484848485","1548.1","3000","2305","[""up"",""right""]","{""num_key_presses"":8,""num_perfect"":5,""num_errors"":0,""num_randdir"":3,""num_randdir_good_moves"":2,""num_whilered"":0,""num_whileblue"":0,""num_blue"":0,""num_good_moves"":7}","[297.22232142857143,299.12857142857143,1.1,297.22232142857143,299.12857142857143,140.2,297.22232142857143,299.12857142857143,285.1,297.22232142857143,299.12857142857143,401.2,279.22232142857143,315.12857142857143,521.4,210.22232142857143,396.12857142857143,643.8,555.2223214285714,-44.871428571428574,778.2,598.2223214285714,-71.87142857142857,889.7,598.2223214285714,-71.87142857142857,1007.1,566.2223214285714,7.128571428571426,1115.4,559.2223214285714,18.128571428571426,1228.1,553.2223214285714,34.128571428571426,1352.8,553.2223214285714,34.128571428571426,1477.5,553.2223214285714,34.128571428571426,1597.9,553.2223214285714,34.128571428571426,1700.7,553.2223214285714,34.128571428571426,1824.7,553.2223214285714,34.128571428571426,1927.2,664.2223214285714,10.128571428571426,2038.8,807.2223214285714,-13.871428571428574,2158.3,888.2223214285714,7.128571428571426,2276.2,899.2223214285714,24.128571428571426,2378.5,899.2223214285714,24.128571428571426,2500.9,899.2223214285714,24.128571428571426,2633.4,899.2223214285714,24.128571428571426,2771.8,899.2223214285714,24.128571428571426,2879.2,899.2223214285714,24.128571428571426,2984.1,899.2223214285714,24.128571428571426,3094,899.2223214285714,24.128571428571426,3207.7,899.2223214285714,24.128571428571426,3333.7,899.2223214285714,24.128571428571426,3461.5,899.2223214285714,24.128571428571426,3593.7,899.2223214285714,24.128571428571426,3721.7,899.2223214285714,24.128571428571426,3835.3,899.2223214285714,24.128571428571426,3939.2,899.2223214285714,24.128571428571426,4073.5,899.2223214285714,24.128571428571426,4187.2,899.2223214285714,24.128571428571426,4291.7,899.2223214285714,24.128571428571426,4411.3,899.2223214285714,24.128571428571426,4537.9,899.2223214285714,24.128571428571426,4647.1,899.2223214285714,24.128571428571426,4761.4,899.2223214285714,24.128571428571426,4870.2,899.2223214285714,24.128571428571426,4975.8]","[1505.6,1505.6,1000,0,505.6,""smooth"",""right"",""right"",""good_move"",5122.9,3615.4,3126.2,1507.5,489.3,""oops"",""up"",""up"",""good_move"",12094.1,6969.6,1827,5124.6,5142.6,""smooth"",""right"",""right"",""good_move"",15570.5,3474.2,3055.5,12096.3,418.7,""smooth"",""up"",""up"",""good_move"",19595.1,4023.1,2171.5,15572.1,1851.5,""oops"",""right"",""left"",""bad_move"",24306.5,4709.3,3230.6,19597.2,1478.7,""smooth"",""right"",""right"",""good_move"",26421.2,2109.7,1631.8,24311.5,477.9,""smooth"",""up"",""up"",""good_move"",30600.9,4178.1,2304,26422.8,1874.1,""oops"",""right"",""right"",""good_move""]","",""
"5682","","<div style=""width:500px;"">
  <p>What determined the result of this run?</p>
  </div>","82","html-slider-response","60","1146562","0.0-5.0-1.10","193","1","2025-07-23 08:19:07","1f75c3e559b7213887762d5229550c2b","78.145.195.194","Mozilla/5.0 (Windows NT 10.0; Win64; x64) AppleWebKit/537.36 (KHTML, like Gecko) Chrome/138.0.0.0 Safari/537.36","WebKit","Chrome","138.0.0.0","Windows","10.0","https://app.prolific.com/","en-US,en;q=0.9","5cab22cd68194f001511b2d6","683db9eb0562dbf637994deb","68809ade558bef2bf1fdba9b","2","1","5cab22cd68194f001511b2d6","2","1","2025-07-23T08:38:48.225Z","","","","","","","","","","","AttribQ","","50","","","","","","","","","","","","","","","","","","","","","","","","","","","","",""
"2858","","<div style=""width:500px;"">
  <p>How much control did you have over the ball?</p>
  </div>","82","html-slider-response","61","1149425","0.0-5.0-2.10","193","1","2025-07-23 08:19:07","1f75c3e559b7213887762d5229550c2b","78.145.195.194","Mozilla/5.0 (Windows NT 10.0; Win64; x64) AppleWebKit/537.36 (KHTML, like Gecko) Chrome/138.0.0.0 Safari/537.36","WebKit","Chrome","138.0.0.0","Windows","10.0","https://app.prolific.com/","en-US,en;q=0.9","5cab22cd68194f001511b2d6","683db9eb0562dbf637994deb","68809ade558bef2bf1fdba9b","2","1","5cab22cd68194f001511b2d6","2","1","2025-07-23T08:38:51.088Z","","","","","","","","","","","ControlQ","","50","","","","","","","","","","","","","","","","","","","","","","","","","","","","",""
"6106","","<div style=""width:500px;"">
  <p>How would you describe your current emotional state?</p>
  </div>","49","html-slider-response","62","1155536","0.0-5.0-3.10","193","1","2025-07-23 08:19:07","1f75c3e559b7213887762d5229550c2b","78.145.195.194","Mozilla/5.0 (Windows NT 10.0; Win64; x64) AppleWebKit/537.36 (KHTML, like Gecko) Chrome/138.0.0.0 Safari/537.36","WebKit","Chrome","138.0.0.0","Windows","10.0","https://app.prolific.com/","en-US,en;q=0.9","5cab22cd68194f001511b2d6","683db9eb0562dbf637994deb","68809ade558bef2bf1fdba9b","2","1","5cab22cd68194f001511b2d6","2","1","2025-07-23T08:38:57.199Z","","","","","","","","","","","StressQ","","50","","","","","","","","","","","","","","","","","","","","","","","","","","","","",""
"11462","","<div style=""width:500px;"">
  <p>What best describes how you currently feel?</p>
  </div>","80","html-slider-response","63","1167004","0.0-5.0-4.10","193","1","2025-07-23 08:19:07","1f75c3e559b7213887762d5229550c2b","78.145.195.194","Mozilla/5.0 (Windows NT 10.0; Win64; x64) AppleWebKit/537.36 (KHTML, like Gecko) Chrome/138.0.0.0 Safari/537.36","WebKit","Chrome","138.0.0.0","Windows","10.0","https://app.prolific.com/","en-US,en;q=0.9","5cab22cd68194f001511b2d6","683db9eb0562dbf637994deb","68809ade558bef2bf1fdba9b","2","1","5cab22cd68194f001511b2d6","2","1","2025-07-23T08:39:08.667Z","","","","","","","","","","","MotivationQ","","50","","","","","","","","","","","","","","","","","","","","","","","","","","","","",""
"","","","","ctl-task-cpt","64","1275505","0.0-5.0-0.11","193","1","2025-07-23 08:19:07","1f75c3e559b7213887762d5229550c2b","78.145.195.194","Mozilla/5.0 (Windows NT 10.0; Win64; x64) AppleWebKit/537.36 (KHTML, like Gecko) Chrome/138.0.0.0 Safari/537.36","WebKit","Chrome","138.0.0.0","Windows","10.0","https://app.prolific.com/","en-US,en;q=0.9","5cab22cd68194f001511b2d6","683db9eb0562dbf637994deb","68809ade558bef2bf1fdba9b","2","1","5cab22cd68194f001511b2d6","2","1","2025-07-23T08:40:57.168Z","","","","","","","","","","","","","","win-only","3","g1:SW,g2:NE","0.6","12","0","1170307.1","1698","6718.9","105412.8","1","4","8","6","2","8","7","53","46","0.4015151515151515","1037.6","3000","2445","[""up"",""right""]","{""num_key_presses"":13,""num_perfect"":7,""num_errors"":1,""num_randdir"":5,""num_randdir_good_moves"":2,""num_whilered"":0,""num_whileblue"":1,""num_blue"":3,""num_good_moves"":10}","[301.22232142857143,295.12857142857143,2.2,301.22232142857143,295.12857142857143,149.9,301.22232142857143,295.12857142857143,292.8,301.22232142857143,295.12857142857143,444.6,369.22232142857143,194.12857142857143,550.8,551.2223214285714,30.128571428571426,657.9,551.2223214285714,30.128571428571426,759.8,551.2223214285714,30.128571428571426,911.4,551.2223214285714,30.128571428571426,1014.1,551.2223214285714,30.128571428571426,1137.2,551.2223214285714,30.128571428571426,1247.7,551.2223214285714,30.128571428571426,1347.7,670.2223214285714,45.128571428571426,1456.9,736.2223214285714,76.12857142857143,1575,797.2223214285714,120.12857142857143,1681.4,797.2223214285714,120.12857142857143,1817.4,797.2223214285714,120.12857142857143,1962.8,797.2223214285714,120.12857142857143,2112.5,797.2223214285714,120.12857142857143,2214.2,797.2223214285714,120.12857142857143,2352.5,797.2223214285714,120.12857142857143,2494.9,797.2223214285714,120.12857142857143,2635.1,797.2223214285714,120.12857142857143,2774.7,797.2223214285714,120.12857142857143,2926.7,797.2223214285714,120.12857142857143,3070.1,797.2223214285714,120.12857142857143,3182.9,797.2223214285714,120.12857142857143,3321.5,797.2223214285714,120.12857142857143,3422.4,797.2223214285714,120.12857142857143,3563,797.2223214285714,120.12857142857143,3704.4,797.2223214285714,120.12857142857143,3849.6,797.2223214285714,120.12857142857143,3992.3,797.2223214285714,120.12857142857143,4130.8,797.2223214285714,120.12857142857143,4247.9,797.2223214285714,120.12857142857143,4384.4,797.2223214285714,120.12857142857143,4484.6,797.2223214285714,120.12857142857143,4609.7,797.2223214285714,120.12857142857143,4755.6,797.2223214285714,120.12857142857143,4906]","[1461.6,1461.7,1000,0,461.7,""smooth"",""up"",""up"",""good_move"",11036,9573.2,2413.6,1463,7159.5,""oops"",""right"",""left"",""bad_move"",21751.6,10714.8,1892.2,11036.9,8822.5,""smooth"",""right"",""right"",""good_move"",24804.8,3052.4,1996.7,21752.6,1055.7,""oops"",""up"",""left"",""bad_move"",40220.7,15410.7,2987.9,36611.6,621.2,""oops"",""up"",""right"",""good_move"",43491.1,3269.8,2460,40221.5,809.7,""smooth"",""up"",""up"",""good_move"",55410.2,11917.9,2257.5,43492.4,9660.4,""smooth"",""right"",""right"",""good_move"",58611.8,3200.6,2520.7,55411.2,679.9,""smooth"",""up"",""up"",""good_move"",71216.9,12603.7,2262.6,58613.2,10341.1,""smooth"",""right"",""right"",""good_move"",74735.4,3517.6,2400.1,71217.8,1117.5,""oops"",""right"",""left"",""bad_move"",91360.1,16623.6,2288.6,88470.4,601.1,""while_blue"",""right"",""right"",""good_move"",94807.7,3446.2,2708.2,91361.5,738,""smooth"",""right"",""right"",""good_move"",97338.7,2529.9,1951.5,94808.8,578.5,""oops"",""right"",""right"",""good_move""]","",""
"12655","","<div style=""width:500px;"">
  <p>What determined the result of this run?</p>
  </div>","54","html-slider-response","65","1288169","0.0-5.0-1.11","193","1","2025-07-23 08:19:07","1f75c3e559b7213887762d5229550c2b","78.145.195.194","Mozilla/5.0 (Windows NT 10.0; Win64; x64) AppleWebKit/537.36 (KHTML, like Gecko) Chrome/138.0.0.0 Safari/537.36","WebKit","Chrome","138.0.0.0","Windows","10.0","https://app.prolific.com/","en-US,en;q=0.9","5cab22cd68194f001511b2d6","683db9eb0562dbf637994deb","68809ade558bef2bf1fdba9b","2","1","5cab22cd68194f001511b2d6","2","1","2025-07-23T08:41:09.832Z","","","","","","","","","","","AttribQ","","50","","","","","","","","","","","","","","","","","","","","","","","","","","","","",""
"2017","","<div style=""width:500px;"">
  <p>How much control did you have over the ball?</p>
  </div>","54","html-slider-response","66","1290196","0.0-5.0-2.11","193","1","2025-07-23 08:19:07","1f75c3e559b7213887762d5229550c2b","78.145.195.194","Mozilla/5.0 (Windows NT 10.0; Win64; x64) AppleWebKit/537.36 (KHTML, like Gecko) Chrome/138.0.0.0 Safari/537.36","WebKit","Chrome","138.0.0.0","Windows","10.0","https://app.prolific.com/","en-US,en;q=0.9","5cab22cd68194f001511b2d6","683db9eb0562dbf637994deb","68809ade558bef2bf1fdba9b","2","1","5cab22cd68194f001511b2d6","2","1","2025-07-23T08:41:11.859Z","","","","","","","","","","","ControlQ","","50","","","","","","","","","","","","","","","","","","","","","","","","","","","","",""
"3229","","<div style=""width:500px;"">
  <p>How would you describe your current emotional state?</p>
  </div>","46","html-slider-response","67","1293434","0.0-5.0-3.11","193","1","2025-07-23 08:19:07","1f75c3e559b7213887762d5229550c2b","78.145.195.194","Mozilla/5.0 (Windows NT 10.0; Win64; x64) AppleWebKit/537.36 (KHTML, like Gecko) Chrome/138.0.0.0 Safari/537.36","WebKit","Chrome","138.0.0.0","Windows","10.0","https://app.prolific.com/","en-US,en;q=0.9","5cab22cd68194f001511b2d6","683db9eb0562dbf637994deb","68809ade558bef2bf1fdba9b","2","1","5cab22cd68194f001511b2d6","2","1","2025-07-23T08:41:15.098Z","","","","","","","","","","","StressQ","","50","","","","","","","","","","","","","","","","","","","","","","","","","","","","",""
"4752","","<div style=""width:500px;"">
  <p>What best describes how you currently feel?</p>
  </div>","78","html-slider-response","68","1298195","0.0-5.0-4.11","193","1","2025-07-23 08:19:07","1f75c3e559b7213887762d5229550c2b","78.145.195.194","Mozilla/5.0 (Windows NT 10.0; Win64; x64) AppleWebKit/537.36 (KHTML, like Gecko) Chrome/138.0.0.0 Safari/537.36","WebKit","Chrome","138.0.0.0","Windows","10.0","https://app.prolific.com/","en-US,en;q=0.9","5cab22cd68194f001511b2d6","683db9eb0562dbf637994deb","68809ade558bef2bf1fdba9b","2","1","5cab22cd68194f001511b2d6","2","1","2025-07-23T08:41:19.859Z","","","","","","","","","","","MotivationQ","","50","","","","","","","","","","","","","","","","","","","","","","","","","","","","",""
"","","","","ctl-task-cpt","69","1360201","0.0-5.0-0.12","193","1","2025-07-23 08:19:07","1f75c3e559b7213887762d5229550c2b","78.145.195.194","Mozilla/5.0 (Windows NT 10.0; Win64; x64) AppleWebKit/537.36 (KHTML, like Gecko) Chrome/138.0.0.0 Safari/537.36","WebKit","Chrome","138.0.0.0","Windows","10.0","https://app.prolific.com/","en-US,en;q=0.9","5cab22cd68194f001511b2d6","683db9eb0562dbf637994deb","68809ade558bef2bf1fdba9b","2","1","5cab22cd68194f001511b2d6","2","1","2025-07-23T08:42:21.864Z","","","","","","","","","","","","","","win-only","2","g1:SE,g2:NW","0.7","13","0","1301503","1506.3","6553.2","58943.9","1","4","4","6","2","4","4","57","53","0.4318181818181818","1236","3000","2670","[""left"",""up""]","{""num_key_presses"":6,""num_perfect"":4,""num_errors"":0,""num_randdir"":2,""num_randdir_good_moves"":2,""num_whilered"":0,""num_whileblue"":0,""num_blue"":0,""num_good_moves"":6}","[298.22232142857143,296.12857142857143,0.9,298.22232142857143,296.12857142857143,104.1,298.22232142857143,296.12857142857143,220.1,298.22232142857143,296.12857142857143,336.7,298.22232142857143,296.12857142857143,446,288.22232142857143,295.12857142857143,569.3,110.22232142857143,196.12857142857143,701.2,-82.77767857142857,113.12857142857143,826.5,-72.77767857142857,107.12857142857143,962.6,26.222321428571426,65.12857142857143,1094.1,27.222321428571426,63.128571428571426,1209.1,27.222321428571426,63.128571428571426,1340.8,27.222321428571426,63.128571428571426,1453.1,-19.777678571428574,138.12857142857143,1577.8,-88.77767857142857,228.12857142857143,1708.4,-155.77767857142857,319.12857142857143,1818.9,-155.77767857142857,319.12857142857143,1928.5,-155.77767857142857,319.12857142857143,2032.8,-155.77767857142857,319.12857142857143,2138.8,-155.77767857142857,319.12857142857143,2249.8,-155.77767857142857,319.12857142857143,2366,-155.77767857142857,319.12857142857143,2471.2,-155.77767857142857,319.12857142857143,2577.8,-155.77767857142857,319.12857142857143,2680.9,-155.77767857142857,319.12857142857143,2787,-155.77767857142857,319.12857142857143,2894.6,-155.77767857142857,319.12857142857143,2998.5,-155.77767857142857,319.12857142857143,3104.7,-155.77767857142857,319.12857142857143,3208.6,-155.77767857142857,319.12857142857143,3319.5,-155.77767857142857,319.12857142857143,3432.1,-155.77767857142857,319.12857142857143,3538.2,-155.77767857142857,319.12857142857143,3644.3,-155.77767857142857,319.12857142857143,3750.8,-155.77767857142857,319.12857142857143,3857.8,-155.77767857142857,319.12857142857143,3963.7,-155.77767857142857,319.12857142857143,4074.5,-155.77767857142857,319.12857142857143,4179.9,-155.77767857142857,319.12857142857143,4285,-155.77767857142857,319.12857142857143,4392.7,-155.77767857142857,319.12857142857143,4507.7,-155.77767857142857,319.12857142857143,4616.8,-155.77767857142857,319.12857142857143,4725.6,-155.77767857142857,319.12857142857143,4831.7,-155.77767857142857,319.12857142857143,4940]","[1657.9,1657.9,1000,0,657.9,""oops"",""up"",""up"",""good_move"",20643.2,18984.4,2688.3,1658.9,16296.1,""smooth"",""left"",""left"",""good_move"",28578.1,7933.9,3307.5,20644.2,4626.4,""smooth"",""up"",""up"",""good_move"",34990.7,6411.9,2915.2,28579,3496.5,""smooth"",""left"",""left"",""good_move"",42820.4,7823.9,2607.3,34996.5,5216.6,""oops"",""up"",""left"",""good_move"",51455.3,8633.8,2704.9,42821.5,5928.9,""smooth"",""up"",""up"",""good_move""]","",""
"6915","","<div style=""width:500px;"">
  <p>What determined the result of this run?</p>
  </div>","74","html-slider-response","70","1367122","0.0-5.0-1.12","193","1","2025-07-23 08:19:07","1f75c3e559b7213887762d5229550c2b","78.145.195.194","Mozilla/5.0 (Windows NT 10.0; Win64; x64) AppleWebKit/537.36 (KHTML, like Gecko) Chrome/138.0.0.0 Safari/537.36","WebKit","Chrome","138.0.0.0","Windows","10.0","https://app.prolific.com/","en-US,en;q=0.9","5cab22cd68194f001511b2d6","683db9eb0562dbf637994deb","68809ade558bef2bf1fdba9b","2","1","5cab22cd68194f001511b2d6","2","1","2025-07-23T08:42:28.785Z","","","","","","","","","","","AttribQ","","50","","","","","","","","","","","","","","","","","","","","","","","","","","","","",""
"2985","","<div style=""width:500px;"">
  <p>How much control did you have over the ball?</p>
  </div>","76","html-slider-response","71","1370114","0.0-5.0-2.12","193","1","2025-07-23 08:19:07","1f75c3e559b7213887762d5229550c2b","78.145.195.194","Mozilla/5.0 (Windows NT 10.0; Win64; x64) AppleWebKit/537.36 (KHTML, like Gecko) Chrome/138.0.0.0 Safari/537.36","WebKit","Chrome","138.0.0.0","Windows","10.0","https://app.prolific.com/","en-US,en;q=0.9","5cab22cd68194f001511b2d6","683db9eb0562dbf637994deb","68809ade558bef2bf1fdba9b","2","1","5cab22cd68194f001511b2d6","2","1","2025-07-23T08:42:31.778Z","","","","","","","","","","","ControlQ","","50","","","","","","","","","","","","","","","","","","","","","","","","","","","","",""
"9072","","<div style=""width:500px;"">
  <p>How would you describe your current emotional state?</p>
  </div>","45","html-slider-response","72","1379194","0.0-5.0-3.12","193","1","2025-07-23 08:19:07","1f75c3e559b7213887762d5229550c2b","78.145.195.194","Mozilla/5.0 (Windows NT 10.0; Win64; x64) AppleWebKit/537.36 (KHTML, like Gecko) Chrome/138.0.0.0 Safari/537.36","WebKit","Chrome","138.0.0.0","Windows","10.0","https://app.prolific.com/","en-US,en;q=0.9","5cab22cd68194f001511b2d6","683db9eb0562dbf637994deb","68809ade558bef2bf1fdba9b","2","1","5cab22cd68194f001511b2d6","2","1","2025-07-23T08:42:40.857Z","","","","","","","","","","","StressQ","","50","","","","","","","","","","","","","","","","","","","","","","","","","","","","",""
"24823","","<div style=""width:500px;"">
  <p>What best describes how you currently feel?</p>
  </div>","78","html-slider-response","73","1404024","0.0-5.0-4.12","193","1","2025-07-23 08:19:07","1f75c3e559b7213887762d5229550c2b","78.145.195.194","Mozilla/5.0 (Windows NT 10.0; Win64; x64) AppleWebKit/537.36 (KHTML, like Gecko) Chrome/138.0.0.0 Safari/537.36","WebKit","Chrome","138.0.0.0","Windows","10.0","https://app.prolific.com/","en-US,en;q=0.9","5cab22cd68194f001511b2d6","683db9eb0562dbf637994deb","68809ade558bef2bf1fdba9b","2","1","5cab22cd68194f001511b2d6","2","1","2025-07-23T08:43:05.687Z","","","","","","","","","","","MotivationQ","","50","","","","","","","","","","","","","","","","","","","","","","","","","","","","",""
