"rt","response_timestamp","stimulus","response","trial_type","trial_index","time_elapsed","internal_node_id","run_id","condition","recorded_at","source_code_version","ip","user_agent","device","browser","browser_version","platform","platform_version","referer","accept_language","PROLIFIC_PID","STUDY_ID","SESSION_ID","WEEK","prolific_id","week","realtime","success","responses","item_order","radio_event_ids","radio_event_times","key_event_times","mouse_event_times","straightlining","zigzagging","honeypot","eventType","view_history","slider_start","which_type","canvas_config","goals_layout","control_level","trial_number","tutorial_trial_number","trial_start_time","phase1_start_time","phase2_start_time","phase3_start_time","goal_1_value","goal_1_distance","goal_2_value","goal_2_distance","goal_selected","outcome","outcome_total","participant_final_score","participant_initial_score","participant_final_score_prop","goal_choice_rt","allocated_time","allocated_time_remaining","goal_direction","counts","mouse_movements","key_presses","question_order","question_id"
"2383","1752050486590","<p style='font-size:40px;line-height:1.25'><strong>Welcome to the experiment!</strong></p><p style='font-size:1.1em;line-height:1.25'>Thank you for participanting in our experiment again! You will be asked to play the Dysfunctional Ball Game again. We will briefly recap the rules before we start.</p><p style='font-size:1.1em;line-height:1.25'>Press <strong>Next</strong> to continue.</p>","0","custom-html-button-response","0","2386","0.0-0.0","14","1","2025-07-09 08:41:22","01610cd0009c79a99da7d0a3353eb402","83.104.232.21","Mozilla/5.0 (Macintosh; Intel Mac OS X 10_15_7) AppleWebKit/537.36 (KHTML, like Gecko) Chrome/137.0.0.0 Safari/537.36","Macintosh","Chrome","137.0.0.0","OS X","10_15_7","https://app.prolific.com/","en-GB,en-US;q=0.9,en;q=0.8","6658ba167affbe300577b93d","683db7602f5db6a34d12d064","686e2b21037431b6681cc469","1","6658ba167affbe300577b93d","1","2025-07-09T08:41:26.592Z","","","","","","","","","","","","","","","","","","","","","","","","","","","","","","","","","","","","","","","","","",""
"11143","","","","fullscreen","1","14537","0.0-1.0","14","1","2025-07-09 08:41:22","01610cd0009c79a99da7d0a3353eb402","83.104.232.21","Mozilla/5.0 (Macintosh; Intel Mac OS X 10_15_7) AppleWebKit/537.36 (KHTML, like Gecko) Chrome/137.0.0.0 Safari/537.36","Macintosh","Chrome","137.0.0.0","OS X","10_15_7","https://app.prolific.com/","en-GB,en-US;q=0.9,en;q=0.8","6658ba167affbe300577b93d","683db7602f5db6a34d12d064","686e2b21037431b6681cc469","1","6658ba167affbe300577b93d","1","","true","","","","","","","","","","","","","","","","","","","","","","","","","","","","","","","","","","","","","","","","",""
"2042","1752050500786","<p style='font-size:1.1em;line-height:1.25'>In the following, we will ask you a few questions relating to your feelings in the last 24 hours.<br></p><p style='font-size:1.1em;line-height:1.25'>Press the <strong>Next</strong> button to continue.</p>","0","custom-html-button-response","2","16581","0.0-2.0-0.0","14","1","2025-07-09 08:41:22","01610cd0009c79a99da7d0a3353eb402","83.104.232.21","Mozilla/5.0 (Macintosh; Intel Mac OS X 10_15_7) AppleWebKit/537.36 (KHTML, like Gecko) Chrome/137.0.0.0 Safari/537.36","Macintosh","Chrome","137.0.0.0","OS X","10_15_7","https://app.prolific.com/","en-GB,en-US;q=0.9,en;q=0.8","6658ba167affbe300577b93d","683db7602f5db6a34d12d064","686e2b21037431b6681cc469","1","6658ba167affbe300577b93d","1","2025-07-09T08:41:40.787Z","","","","","","","","","","","","","","","","","","","","","","","","","","","","","","","","","","","","","","","","","",""
"42796.60000000009","","","","survey-template","3","59385","0.0-2.0-1.0","14","1","2025-07-09 08:41:22","01610cd0009c79a99da7d0a3353eb402","83.104.232.21","Mozilla/5.0 (Macintosh; Intel Mac OS X 10_15_7) AppleWebKit/537.36 (KHTML, like Gecko) Chrome/137.0.0.0 Safari/537.36","Macintosh","Chrome","137.0.0.0","OS X","10_15_7","https://app.prolific.com/","en-GB,en-US;q=0.9,en;q=0.8","6658ba167affbe300577b93d","683db7602f5db6a34d12d064","686e2b21037431b6681cc469","1","6658ba167affbe300577b93d","1","2025-07-09T08:42:23.591Z","","{""Q01"":""1"",""Q02"":""1"",""Q03"":""1"",""Q04"":""1"",""Q05"":""2"",""Q06"":""2"",""Q07"":""2"",""Q08"":""2"",""Q09"":""1"",""Q10"":""1"",""Q11"":""2"",""Q12"":""1"",""Q13"":""5"",""Q14"":""1"",""Q15"":""2"",""Q16"":""2"",""Q17"":""2"",""Q18"":""1"",""Q19"":""1"",""Q20"":""1"",""Q21"":""1"",""Q22"":""1""}","[0,1,2,3,4,5,6,7,8,9,10,11,12,13,14,15,16,17,18,19,20,21]","[""Q01"",""Q02"",""Q03"",""Q04"",""Q05"",""Q06"",""Q07"",""Q08"",""Q09"",""Q10"",""Q11"",""Q12"",""Q13"",""Q14"",""Q15"",""Q16"",""Q17"",""Q18"",""Q19"",""Q20"",""Q22"",""Q21""]","[3440.399999999907,4045.8000000000466,5203.899999999907,6677.399999999907,7633.899999999907,9130.199999999953,10187.899999999907,11391.300000000047,12774.699999999953,13708.800000000047,18084.899999999907,19018.800000000047,20683.5,22168.399999999907,25352.100000000093,27366,30369.300000000047,31472.600000000093,33654.60000000009,37052.19999999995,40337.10000000009,41068.39999999991]","[]","[0.10000000009313226,3440.399999999907,4045.8000000000466,5203.899999999907,6677.399999999907,7633.899999999907,9130.199999999953,10187.899999999907,11391.300000000047,12774.699999999953,13708.800000000047,18084.899999999907,19018.800000000047,20683.5,22168.399999999907,25352.100000000093,27366,30369.300000000047,31472.600000000093,33654.60000000009,37052.19999999995,38379.69999999995,40337.10000000009,41068.39999999991,42790.10000000009]","0.5909090909090909","0.2857142857142857","0","drsp","","","","","","","","","","","","","","","","","","","","","","","","","","","","","","",""
"12771","","","","survey-template","4","72159","0.0-2.0-2.0","14","1","2025-07-09 08:41:22","01610cd0009c79a99da7d0a3353eb402","83.104.232.21","Mozilla/5.0 (Macintosh; Intel Mac OS X 10_15_7) AppleWebKit/537.36 (KHTML, like Gecko) Chrome/137.0.0.0 Safari/537.36","Macintosh","Chrome","137.0.0.0","OS X","10_15_7","https://app.prolific.com/","en-GB,en-US;q=0.9,en;q=0.8","6658ba167affbe300577b93d","683db7602f5db6a34d12d064","686e2b21037431b6681cc469","1","6658ba167affbe300577b93d","1","2025-07-09T08:42:36.365Z","","{""Q01"":""2"",""Q02"":""2"",""Q03"":""1""}","[0,1,2]","[""Q01"",""Q02"",""Q03""]","[6965.09999999986,10462.699999999953,12015.09999999986]","[]","[6965.09999999986,10462.699999999953,12015.09999999986,12769.59999999986]","0.3333333333333333","0.5","0","stress","","","","","","","","","","","","","","","","","","","","","","","","","","","","","","",""
"36986","","","","instructions","5","109148","0.0-3.0-0.0","14","1","2025-07-09 08:41:22","01610cd0009c79a99da7d0a3353eb402","83.104.232.21","Mozilla/5.0 (Macintosh; Intel Mac OS X 10_15_7) AppleWebKit/537.36 (KHTML, like Gecko) Chrome/137.0.0.0 Safari/537.36","Macintosh","Chrome","137.0.0.0","OS X","10_15_7","https://app.prolific.com/","en-GB,en-US;q=0.9,en;q=0.8","6658ba167affbe300577b93d","683db7602f5db6a34d12d064","686e2b21037431b6681cc469","1","6658ba167affbe300577b93d","1","","","","","","","","","","","","","[{""page_index"":0,""viewing_time"":36986}]","","","","","","","","","","","","","","","","","","","","","","","","","","","","","",""
"3383","","<p>Before you start with this game please answer the following three questions yourself. </p>
  <p>Through this game, we measure several aspects of your cognitive performance, such as reaction times, multi-tasking capabilities </p>
  <p>and the ability to assess the situation you are in.</p>
  <p></p>
  <p><b>How good do you usually are in such tasks?</b></p>","46","html-slider-response","6","112534","0.0-4.0-0.0","14","1","2025-07-09 08:41:22","01610cd0009c79a99da7d0a3353eb402","83.104.232.21","Mozilla/5.0 (Macintosh; Intel Mac OS X 10_15_7) AppleWebKit/537.36 (KHTML, like Gecko) Chrome/137.0.0.0 Safari/537.36","Macintosh","Chrome","137.0.0.0","OS X","10_15_7","https://app.prolific.com/","en-GB,en-US;q=0.9,en;q=0.8","6658ba167affbe300577b93d","683db7602f5db6a34d12d064","686e2b21037431b6681cc469","1","6658ba167affbe300577b93d","1","2025-07-09T08:43:16.740Z","","","","","","","","","","","PreSkillQ","","50","","","","","","","","","","","","","","","","","","","","","","","","","","","","",""
"2304","","<div style=""width:500px;"">
  <p>How well do you think you will perform in this task compared to other participants?</p>
  </div>","41","html-slider-response","7","114839","0.0-4.0-1.0","14","1","2025-07-09 08:41:22","01610cd0009c79a99da7d0a3353eb402","83.104.232.21","Mozilla/5.0 (Macintosh; Intel Mac OS X 10_15_7) AppleWebKit/537.36 (KHTML, like Gecko) Chrome/137.0.0.0 Safari/537.36","Macintosh","Chrome","137.0.0.0","OS X","10_15_7","https://app.prolific.com/","en-GB,en-US;q=0.9,en;q=0.8","6658ba167affbe300577b93d","683db7602f5db6a34d12d064","686e2b21037431b6681cc469","1","6658ba167affbe300577b93d","1","2025-07-09T08:43:19.046Z","","","","","","","","","","","PrePerfQ","","50","","","","","","","","","","","","","","","","","","","","","","","","","","","","",""
"3723","","<div style=""width:500px;"">
  <p>What best describes how you currently feel?</p>
  </div>","67","html-slider-response","8","118564","0.0-4.0-2.0","14","1","2025-07-09 08:41:22","01610cd0009c79a99da7d0a3353eb402","83.104.232.21","Mozilla/5.0 (Macintosh; Intel Mac OS X 10_15_7) AppleWebKit/537.36 (KHTML, like Gecko) Chrome/137.0.0.0 Safari/537.36","Macintosh","Chrome","137.0.0.0","OS X","10_15_7","https://app.prolific.com/","en-GB,en-US;q=0.9,en;q=0.8","6658ba167affbe300577b93d","683db7602f5db6a34d12d064","686e2b21037431b6681cc469","1","6658ba167affbe300577b93d","1","2025-07-09T08:43:22.770Z","","","","","","","","","","","PreMotivationQ","","50","","","","","","","","","","","","","","","","","","","","","","","","","","","","",""
"","","","","ctl-task-cpt","9","150862","0.0-5.0-0.0","14","1","2025-07-09 08:41:22","01610cd0009c79a99da7d0a3353eb402","83.104.232.21","Mozilla/5.0 (Macintosh; Intel Mac OS X 10_15_7) AppleWebKit/537.36 (KHTML, like Gecko) Chrome/137.0.0.0 Safari/537.36","Macintosh","Chrome","137.0.0.0","OS X","10_15_7","https://app.prolific.com/","en-GB,en-US;q=0.9,en;q=0.8","6658ba167affbe300577b93d","683db7602f5db6a34d12d064","686e2b21037431b6681cc469","1","6658ba167affbe300577b93d","1","2025-07-09T08:43:55.068Z","","","","","","","","","","","","","","win-only","3","g1:SW,g2:NE","1","1","0","120279.3","3147.1","8148.6","29288.2","1","4","8","6","2","8","8","8","0","0.06060606060606061","1876.1","3000","635","[""up"",""right""]","{""num_key_presses"":6,""num_perfect"":6,""num_errors"":0,""num_randdir"":0,""num_randdir_good_moves"":0,""num_whilered"":0,""num_whileblue"":0,""num_blue"":1,""num_good_moves"":6}","[688.2857142857143,696.0825892857143,0.2,688.2857142857143,698.0825892857143,112.3,688.2857142857143,698.0825892857143,212.7,688.2857142857143,698.0825892857143,314.4,688.2857142857143,698.0825892857143,419.5,688.2857142857143,698.0825892857143,519.7,688.2857142857143,698.0825892857143,626.5,688.2857142857143,698.0825892857143,727.1,688.2857142857143,698.0825892857143,829.2,662.2857142857143,728.0825892857143,929.2,286.2857142857143,1086.0825892857142,1034.3,224.28571428571428,1144.0825892857142,1142.3,224.28571428571428,1144.0825892857142,1243.6,650.2857142857143,674.0825892857143,1344.2,1002.2857142857143,304.0825892857143,1444.3,1008.2857142857143,300.0825892857143,1548.3,1200.2857142857142,222.08258928571428,1649.4,1252.2857142857142,184.08258928571428,1758.7,1268.2857142857142,162.08258928571428,1858.8,1270.2857142857142,158.08258928571428,1959.4,1270.2857142857142,158.08258928571428,2064.2,1270.2857142857142,158.08258928571428,2164.4,1270.2857142857142,158.08258928571428,2264.7,1270.2857142857142,158.08258928571428,2365.1,1270.2857142857142,158.08258928571428,2475,1270.2857142857142,158.08258928571428,2579.8,1270.2857142857142,158.08258928571428,2689.7,1270.2857142857142,158.08258928571428,2794.5,1270.2857142857142,158.08258928571428,2894.5,1270.2857142857142,158.08258928571428,2994.7,1270.2857142857142,158.08258928571428,3099.5,1270.2857142857142,158.08258928571428,3203.6,1270.2857142857142,158.08258928571428,3305.8,1270.2857142857142,158.08258928571428,3409.7,1270.2857142857142,158.08258928571428,3514.2,1270.2857142857142,158.08258928571428,3614.7,1270.2857142857142,158.08258928571428,3720.5,1270.2857142857142,158.08258928571428,3824.3,1270.2857142857142,158.08258928571428,3925.1,1270.2857142857142,158.08258928571428,4028.7,1270.2857142857142,158.08258928571428,4129.3,1270.2857142857142,158.08258928571428,4229.9,1270.2857142857142,158.08258928571428,4329.9,1270.2857142857142,158.08258928571428,4435.5,1270.2857142857142,158.08258928571428,4540.1,1270.2857142857142,158.08258928571428,4644.3,1270.2857142857142,158.08258928571428,4750.2,1270.2857142857142,158.08258928571428,4852.6,1270.2857142857142,158.08258928571428,4954.4]","[1549.5,1549.5,1000,0,549.5,""smooth"",""up"",""up"",""good_move"",4436.7,2886.5,2441.6,1550.2,444.9,""smooth"",""up"",""up"",""good_move"",7597.6,3160.4,2817,4437.2,343.4,""smooth"",""up"",""up"",""good_move"",15160.7,7562.9,3469.9,11186.4,504.4,""smooth"",""right"",""right"",""good_move"",17723.4,2562.3,2135,15161.1,427.3,""smooth"",""right"",""right"",""good_move"",21045,3321.4,2955.5,17723.7,365.8,""smooth"",""right"",""right"",""good_move""]","",""
"3375","","<div style=""width:500px;"">
  <p>What determined the result of this run?</p>
  </div>","99","html-slider-response","10","154238","0.0-5.0-1.0","14","1","2025-07-09 08:41:22","01610cd0009c79a99da7d0a3353eb402","83.104.232.21","Mozilla/5.0 (Macintosh; Intel Mac OS X 10_15_7) AppleWebKit/537.36 (KHTML, like Gecko) Chrome/137.0.0.0 Safari/537.36","Macintosh","Chrome","137.0.0.0","OS X","10_15_7","https://app.prolific.com/","en-GB,en-US;q=0.9,en;q=0.8","6658ba167affbe300577b93d","683db7602f5db6a34d12d064","686e2b21037431b6681cc469","1","6658ba167affbe300577b93d","1","2025-07-09T08:43:58.445Z","","","","","","","","","","","AttribQ","","50","","","","","","","","","","","","","","","","","","","","","","","","","","","","",""
"2090","","<div style=""width:500px;"">
  <p>How much control did you have over the ball?</p>
  </div>","99","html-slider-response","11","156331","0.0-5.0-2.0","14","1","2025-07-09 08:41:22","01610cd0009c79a99da7d0a3353eb402","83.104.232.21","Mozilla/5.0 (Macintosh; Intel Mac OS X 10_15_7) AppleWebKit/537.36 (KHTML, like Gecko) Chrome/137.0.0.0 Safari/537.36","Macintosh","Chrome","137.0.0.0","OS X","10_15_7","https://app.prolific.com/","en-GB,en-US;q=0.9,en;q=0.8","6658ba167affbe300577b93d","683db7602f5db6a34d12d064","686e2b21037431b6681cc469","1","6658ba167affbe300577b93d","1","2025-07-09T08:44:00.537Z","","","","","","","","","","","ControlQ","","50","","","","","","","","","","","","","","","","","","","","","","","","","","","","",""
"2383","","<div style=""width:500px;"">
  <p>How would you describe your current emotional state?</p>
  </div>","38","html-slider-response","12","158715","0.0-5.0-3.0","14","1","2025-07-09 08:41:22","01610cd0009c79a99da7d0a3353eb402","83.104.232.21","Mozilla/5.0 (Macintosh; Intel Mac OS X 10_15_7) AppleWebKit/537.36 (KHTML, like Gecko) Chrome/137.0.0.0 Safari/537.36","Macintosh","Chrome","137.0.0.0","OS X","10_15_7","https://app.prolific.com/","en-GB,en-US;q=0.9,en;q=0.8","6658ba167affbe300577b93d","683db7602f5db6a34d12d064","686e2b21037431b6681cc469","1","6658ba167affbe300577b93d","1","2025-07-09T08:44:02.921Z","","","","","","","","","","","StressQ","","50","","","","","","","","","","","","","","","","","","","","","","","","","","","","",""
"1981","","<div style=""width:500px;"">
  <p>What best describes how you currently feel?</p>
  </div>","66","html-slider-response","13","160698","0.0-5.0-4.0","14","1","2025-07-09 08:41:22","01610cd0009c79a99da7d0a3353eb402","83.104.232.21","Mozilla/5.0 (Macintosh; Intel Mac OS X 10_15_7) AppleWebKit/537.36 (KHTML, like Gecko) Chrome/137.0.0.0 Safari/537.36","Macintosh","Chrome","137.0.0.0","OS X","10_15_7","https://app.prolific.com/","en-GB,en-US;q=0.9,en;q=0.8","6658ba167affbe300577b93d","683db7602f5db6a34d12d064","686e2b21037431b6681cc469","1","6658ba167affbe300577b93d","1","2025-07-09T08:44:04.904Z","","","","","","","","","","","MotivationQ","","50","","","","","","","","","","","","","","","","","","","","","","","","","","","","",""
"","","","","ctl-task-cpt","14","189923","0.0-5.0-0.1","14","1","2025-07-09 08:41:22","01610cd0009c79a99da7d0a3353eb402","83.104.232.21","Mozilla/5.0 (Macintosh; Intel Mac OS X 10_15_7) AppleWebKit/537.36 (KHTML, like Gecko) Chrome/137.0.0.0 Safari/537.36","Macintosh","Chrome","137.0.0.0","OS X","10_15_7","https://app.prolific.com/","en-GB,en-US;q=0.9,en;q=0.8","6658ba167affbe300577b93d","683db7602f5db6a34d12d064","686e2b21037431b6681cc469","1","6658ba167affbe300577b93d","1","2025-07-09T08:44:34.129Z","","","","","","","","","","","","","","win-only","2","g1:SE,g2:NW","0.9","2","0","162410.7","3089.9","8092.5","26213.5","1","4","4","6","2","4","4","12","8","0.09090909090909091","1282.1","3000","1010","[""left"",""up""]","{""num_key_presses"":6,""num_perfect"":5,""num_errors"":0,""num_randdir"":1,""num_randdir_good_moves"":1,""num_whilered"":0,""num_whileblue"":0,""num_blue"":1,""num_good_moves"":6}","[702.2857142857143,692.0825892857143,0.2,702.2857142857143,692.0825892857143,101.6,702.2857142857143,692.0825892857143,206.7,702.2857142857143,692.0825892857143,306.8,702.2857142857143,692.0825892857143,411.3,900.2857142857143,866.0825892857143,512.8,980.2857142857143,946.0825892857143,615,1080.2857142857142,1038.0825892857142,716.4,380.2857142857143,474.0825892857143,816.6,296.2857142857143,396.0825892857143,920.7,282.2857142857143,346.0825892857143,1021.1,174.28571428571428,230.08258928571428,1122.6,158.28571428571428,202.08258928571428,1230.1,158.28571428571428,196.08258928571428,1331.4,158.28571428571428,196.08258928571428,1433.1,158.28571428571428,196.08258928571428,1536.7,1054.2857142857142,600.0825892857143,1644.5,1684.2857142857142,862.0825892857143,1745.1,1684.2857142857142,862.0825892857143,1845.9,1684.2857142857142,862.0825892857143,1947.1,1684.2857142857142,862.0825892857143,2047.5,1684.2857142857142,862.0825892857143,2152.7,1684.2857142857142,862.0825892857143,2257.5,1684.2857142857142,862.0825892857143,2358.6,1684.2857142857142,862.0825892857143,2461.6,1684.2857142857142,862.0825892857143,2566,1684.2857142857142,862.0825892857143,2666.4,1684.2857142857142,862.0825892857143,2766.5,1684.2857142857142,862.0825892857143,2871.8,1684.2857142857142,862.0825892857143,2973.2,1684.2857142857142,862.0825892857143,3073.7,1684.2857142857142,862.0825892857143,3177.2,1684.2857142857142,862.0825892857143,3280.7,1684.2857142857142,862.0825892857143,3381.3,1684.2857142857142,862.0825892857143,3482.3,1684.2857142857142,862.0825892857143,3589,1684.2857142857142,862.0825892857143,3691.5,1684.2857142857142,862.0825892857143,3796.8,1684.2857142857142,862.0825892857143,3901.3,1684.2857142857142,862.0825892857143,4002.6,1684.2857142857142,862.0825892857143,4103.1,1684.2857142857142,862.0825892857143,4205.9,1684.2857142857142,862.0825892857143,4306.1,1684.2857142857142,862.0825892857143,4406.3,1684.2857142857142,862.0825892857143,4507.5,1684.2857142857142,862.0825892857143,4612.1,1684.2857142857142,862.0825892857143,4717.1,1684.2857142857142,862.0825892857143,4817.4,1684.2857142857142,862.0825892857143,4917.9]","[1412.3,1412.3,1000,0,412.3,""smooth"",""up"",""up"",""good_move"",3214.2,1801.5,1348.7,1412.7,452.8,""smooth"",""left"",""left"",""good_move"",5418,2203.4,1899.4,3214.6,304,""smooth"",""left"",""left"",""good_move"",8273.8,2855.6,2510,5418.2,345.7,""oops"",""left"",""up"",""good_move"",11392.2,3118.1,2763.9,8274.1,354.2,""smooth"",""left"",""left"",""good_move"",18005.4,6612.8,2646.3,15003.7,355.4,""smooth"",""up"",""up"",""good_move""]","",""
"3083","","<div style=""width:500px;"">
  <p>What determined the result of this run?</p>
  </div>","90","html-slider-response","15","193008","0.0-5.0-1.1","14","1","2025-07-09 08:41:22","01610cd0009c79a99da7d0a3353eb402","83.104.232.21","Mozilla/5.0 (Macintosh; Intel Mac OS X 10_15_7) AppleWebKit/537.36 (KHTML, like Gecko) Chrome/137.0.0.0 Safari/537.36","Macintosh","Chrome","137.0.0.0","OS X","10_15_7","https://app.prolific.com/","en-GB,en-US;q=0.9,en;q=0.8","6658ba167affbe300577b93d","683db7602f5db6a34d12d064","686e2b21037431b6681cc469","1","6658ba167affbe300577b93d","1","2025-07-09T08:44:37.214Z","","","","","","","","","","","AttribQ","","50","","","","","","","","","","","","","","","","","","","","","","","","","","","","",""
"1997","","<div style=""width:500px;"">
  <p>How much control did you have over the ball?</p>
  </div>","95","html-slider-response","16","195008","0.0-5.0-2.1","14","1","2025-07-09 08:41:22","01610cd0009c79a99da7d0a3353eb402","83.104.232.21","Mozilla/5.0 (Macintosh; Intel Mac OS X 10_15_7) AppleWebKit/537.36 (KHTML, like Gecko) Chrome/137.0.0.0 Safari/537.36","Macintosh","Chrome","137.0.0.0","OS X","10_15_7","https://app.prolific.com/","en-GB,en-US;q=0.9,en;q=0.8","6658ba167affbe300577b93d","683db7602f5db6a34d12d064","686e2b21037431b6681cc469","1","6658ba167affbe300577b93d","1","2025-07-09T08:44:39.215Z","","","","","","","","","","","ControlQ","","50","","","","","","","","","","","","","","","","","","","","","","","","","","","","",""
"2035","","<div style=""width:500px;"">
  <p>How would you describe your current emotional state?</p>
  </div>","30","html-slider-response","17","197044","0.0-5.0-3.1","14","1","2025-07-09 08:41:22","01610cd0009c79a99da7d0a3353eb402","83.104.232.21","Mozilla/5.0 (Macintosh; Intel Mac OS X 10_15_7) AppleWebKit/537.36 (KHTML, like Gecko) Chrome/137.0.0.0 Safari/537.36","Macintosh","Chrome","137.0.0.0","OS X","10_15_7","https://app.prolific.com/","en-GB,en-US;q=0.9,en;q=0.8","6658ba167affbe300577b93d","683db7602f5db6a34d12d064","686e2b21037431b6681cc469","1","6658ba167affbe300577b93d","1","2025-07-09T08:44:41.251Z","","","","","","","","","","","StressQ","","50","","","","","","","","","","","","","","","","","","","","","","","","","","","","",""
"1957","","<div style=""width:500px;"">
  <p>What best describes how you currently feel?</p>
  </div>","75","html-slider-response","18","199003","0.0-5.0-4.1","14","1","2025-07-09 08:41:22","01610cd0009c79a99da7d0a3353eb402","83.104.232.21","Mozilla/5.0 (Macintosh; Intel Mac OS X 10_15_7) AppleWebKit/537.36 (KHTML, like Gecko) Chrome/137.0.0.0 Safari/537.36","Macintosh","Chrome","137.0.0.0","OS X","10_15_7","https://app.prolific.com/","en-GB,en-US;q=0.9,en;q=0.8","6658ba167affbe300577b93d","683db7602f5db6a34d12d064","686e2b21037431b6681cc469","1","6658ba167affbe300577b93d","1","2025-07-09T08:44:43.209Z","","","","","","","","","","","MotivationQ","","50","","","","","","","","","","","","","","","","","","","","","","","","","","","","",""
"","","","","ctl-task-cpt","19","235108","0.0-5.0-0.2","14","1","2025-07-09 08:41:22","01610cd0009c79a99da7d0a3353eb402","83.104.232.21","Mozilla/5.0 (Macintosh; Intel Mac OS X 10_15_7) AppleWebKit/537.36 (KHTML, like Gecko) Chrome/137.0.0.0 Safari/537.36","Macintosh","Chrome","137.0.0.0","OS X","10_15_7","https://app.prolific.com/","en-GB,en-US;q=0.9,en;q=0.8","6658ba167affbe300577b93d","683db7602f5db6a34d12d064","686e2b21037431b6681cc469","1","6658ba167affbe300577b93d","1","2025-07-09T08:45:19.314Z","","","","","","","","","","","","","","win-only","2","g1:SE,g2:NW","0.8","3","0","200715.2","1787.6","6796.6","33092.9","1","4","4","6","2","4","4","16","12","0.12121212121212122","1171","3000","470","[""left"",""up""]","{""num_key_presses"":8,""num_perfect"":6,""num_errors"":0,""num_randdir"":2,""num_randdir_good_moves"":1,""num_whilered"":0,""num_whileblue"":0,""num_blue"":1,""num_good_moves"":7}","[700.2857142857143,698.0825892857143,0.6,700.2857142857143,698.0825892857143,101.8,700.2857142857143,698.0825892857143,205.6,700.2857142857143,698.0825892857143,308.9,700.2857142857143,698.0825892857143,415.7,700.2857142857143,698.0825892857143,515.7,700.2857142857143,698.0825892857143,618.8,680.2857142857143,670.0825892857143,724,362.2857142857143,386.0825892857143,824.1,208.28571428571428,288.0825892857143,933.2,122.28571428571429,184.08258928571428,1036.3,100.28571428571429,142.08258928571428,1138,100.28571428571429,140.08258928571428,1243.3,100.28571428571429,140.08258928571428,1344.7,556.2857142857143,630.0825892857143,1451.2,1146.2857142857142,1050.0825892857142,1553.4,1146.2857142857142,1050.0825892857142,1654,1146.2857142857142,1050.0825892857142,1763.3,1146.2857142857142,1050.0825892857142,1866.7,1146.2857142857142,1050.0825892857142,1968.5,1146.2857142857142,1050.0825892857142,2074.9,1146.2857142857142,1050.0825892857142,2179.9,1146.2857142857142,1050.0825892857142,2283.2,1146.2857142857142,1050.0825892857142,2383.6,1146.2857142857142,1050.0825892857142,2483.8,1146.2857142857142,1050.0825892857142,2589.2,1146.2857142857142,1050.0825892857142,2691.1,1146.2857142857142,1050.0825892857142,2793.7,1146.2857142857142,1050.0825892857142,2895.2,1146.2857142857142,1050.0825892857142,2999.2,1146.2857142857142,1050.0825892857142,3107.8,1146.2857142857142,1050.0825892857142,3208.5,1146.2857142857142,1050.0825892857142,3310.2,1146.2857142857142,1050.0825892857142,3414.1,1146.2857142857142,1050.0825892857142,3518.9,1146.2857142857142,1050.0825892857142,3625.5,1146.2857142857142,1050.0825892857142,3729.7,1146.2857142857142,1050.0825892857142,3833.5,1146.2857142857142,1050.0825892857142,3940.4,1146.2857142857142,1050.0825892857142,4041.5,1146.2857142857142,1050.0825892857142,4146.4,1146.2857142857142,1050.0825892857142,4249.7,1146.2857142857142,1050.0825892857142,4358.9,1146.2857142857142,1050.0825892857142,4464.3,1146.2857142857142,1050.0825892857142,4564.5,1146.2857142857142,1050.0825892857142,4671.1,1146.2857142857142,1050.0825892857142,4772.6,1146.2857142857142,1050.0825892857142,4874,1146.2857142857142,1050.0825892857142,4979.1]","[1382.9,1383,1000,0,383,""smooth"",""up"",""up"",""good_move"",4084.1,2700.3,2344.4,1383.8,355.9,""smooth"",""up"",""up"",""good_move"",6808.9,2724,2352.7,4084.9,371.3,""oops"",""up"",""down"",""bad_move"",9137.1,2327,1912,6810.1,415,""smooth"",""left"",""left"",""good_move"",12265.5,3127,2760.9,9138.5,366.1,""smooth"",""left"",""left"",""good_move"",19849.8,7583.8,3142.5,16279.3,428,""smooth"",""left"",""left"",""good_move"",23073.2,3222.2,2778.1,19851,444.1,""smooth"",""up"",""up"",""good_move"",26187.9,3113.4,2770.9,23074.5,342.5,""oops"",""up"",""up"",""good_move""]","",""
"2638","","<div style=""width:500px;"">
  <p>What determined the result of this run?</p>
  </div>","82","html-slider-response","20","237749","0.0-5.0-1.2","14","1","2025-07-09 08:41:22","01610cd0009c79a99da7d0a3353eb402","83.104.232.21","Mozilla/5.0 (Macintosh; Intel Mac OS X 10_15_7) AppleWebKit/537.36 (KHTML, like Gecko) Chrome/137.0.0.0 Safari/537.36","Macintosh","Chrome","137.0.0.0","OS X","10_15_7","https://app.prolific.com/","en-GB,en-US;q=0.9,en;q=0.8","6658ba167affbe300577b93d","683db7602f5db6a34d12d064","686e2b21037431b6681cc469","1","6658ba167affbe300577b93d","1","2025-07-09T08:45:21.955Z","","","","","","","","","","","AttribQ","","50","","","","","","","","","","","","","","","","","","","","","","","","","","","","",""
"1698","","<div style=""width:500px;"">
  <p>How much control did you have over the ball?</p>
  </div>","88","html-slider-response","21","239448","0.0-5.0-2.2","14","1","2025-07-09 08:41:22","01610cd0009c79a99da7d0a3353eb402","83.104.232.21","Mozilla/5.0 (Macintosh; Intel Mac OS X 10_15_7) AppleWebKit/537.36 (KHTML, like Gecko) Chrome/137.0.0.0 Safari/537.36","Macintosh","Chrome","137.0.0.0","OS X","10_15_7","https://app.prolific.com/","en-GB,en-US;q=0.9,en;q=0.8","6658ba167affbe300577b93d","683db7602f5db6a34d12d064","686e2b21037431b6681cc469","1","6658ba167affbe300577b93d","1","2025-07-09T08:45:23.654Z","","","","","","","","","","","ControlQ","","50","","","","","","","","","","","","","","","","","","","","","","","","","","","","",""
"2370","","<div style=""width:500px;"">
  <p>How would you describe your current emotional state?</p>
  </div>","32","html-slider-response","22","241821","0.0-5.0-3.2","14","1","2025-07-09 08:41:22","01610cd0009c79a99da7d0a3353eb402","83.104.232.21","Mozilla/5.0 (Macintosh; Intel Mac OS X 10_15_7) AppleWebKit/537.36 (KHTML, like Gecko) Chrome/137.0.0.0 Safari/537.36","Macintosh","Chrome","137.0.0.0","OS X","10_15_7","https://app.prolific.com/","en-GB,en-US;q=0.9,en;q=0.8","6658ba167affbe300577b93d","683db7602f5db6a34d12d064","686e2b21037431b6681cc469","1","6658ba167affbe300577b93d","1","2025-07-09T08:45:26.027Z","","","","","","","","","","","StressQ","","50","","","","","","","","","","","","","","","","","","","","","","","","","","","","",""
"1665","","<div style=""width:500px;"">
  <p>What best describes how you currently feel?</p>
  </div>","67","html-slider-response","23","243488","0.0-5.0-4.2","14","1","2025-07-09 08:41:22","01610cd0009c79a99da7d0a3353eb402","83.104.232.21","Mozilla/5.0 (Macintosh; Intel Mac OS X 10_15_7) AppleWebKit/537.36 (KHTML, like Gecko) Chrome/137.0.0.0 Safari/537.36","Macintosh","Chrome","137.0.0.0","OS X","10_15_7","https://app.prolific.com/","en-GB,en-US;q=0.9,en;q=0.8","6658ba167affbe300577b93d","683db7602f5db6a34d12d064","686e2b21037431b6681cc469","1","6658ba167affbe300577b93d","1","2025-07-09T08:45:27.694Z","","","","","","","","","","","MotivationQ","","50","","","","","","","","","","","","","","","","","","","","","","","","","","","","",""
"","","","","ctl-task-cpt","24","277551","0.0-5.0-0.3","14","1","2025-07-09 08:41:22","01610cd0009c79a99da7d0a3353eb402","83.104.232.21","Mozilla/5.0 (Macintosh; Intel Mac OS X 10_15_7) AppleWebKit/537.36 (KHTML, like Gecko) Chrome/137.0.0.0 Safari/537.36","Macintosh","Chrome","137.0.0.0","OS X","10_15_7","https://app.prolific.com/","en-GB,en-US;q=0.9,en;q=0.8","6658ba167affbe300577b93d","683db7602f5db6a34d12d064","686e2b21037431b6681cc469","1","6658ba167affbe300577b93d","1","2025-07-09T08:46:01.757Z","","","","","","","","","","","","","","win-only","3","g1:SW,g2:NE","0.7","4","0","245200.4","1343.1","6346.7","31043.2","1","4","8","6","2","8","8","24","16","0.18181818181818182","1260.3","3000","770","[""up"",""right""]","{""num_key_presses"":8,""num_perfect"":6,""num_errors"":0,""num_randdir"":2,""num_randdir_good_moves"":1,""num_whilered"":0,""num_whileblue"":0,""num_blue"":1,""num_good_moves"":7}","[698.2857142857143,704.0825892857143,0.3,698.2857142857143,704.0825892857143,105.1,698.2857142857143,704.0825892857143,210.9,698.2857142857143,704.0825892857143,311.8,698.2857142857143,704.0825892857143,414.8,698.2857142857143,704.0825892857143,521.2,698.2857142857143,704.0825892857143,622.8,784.2857142857143,580.0825892857143,722.9,944.2857142857143,394.0825892857143,825.6,1054.2857142857142,300.0825892857143,928.7,1188.2857142857142,216.08258928571428,1037.5,1232.2857142857142,192.08258928571428,1139.6,1234.2857142857142,188.08258928571428,1241.7,1234.2857142857142,188.08258928571428,1350.6,1234.2857142857142,188.08258928571428,1453.2,1540.2857142857142,440.0825892857143,1559.3,1678.2857142857142,528.0825892857143,1682.1,1678.2857142857142,528.0825892857143,1785,1678.2857142857142,528.0825892857143,1888.5,1678.2857142857142,528.0825892857143,1993.3,1678.2857142857142,528.0825892857143,2105.8,1678.2857142857142,528.0825892857143,2206.2,1678.2857142857142,528.0825892857143,2309.6,1678.2857142857142,528.0825892857143,2415.1,1678.2857142857142,528.0825892857143,2523.6,1678.2857142857142,528.0825892857143,2623.6,1678.2857142857142,528.0825892857143,2724.5,1678.2857142857142,528.0825892857143,2824.5,1678.2857142857142,528.0825892857143,2936.1,1678.2857142857142,528.0825892857143,3038.6,1678.2857142857142,528.0825892857143,3138.7,1678.2857142857142,528.0825892857143,3254.6,1678.2857142857142,528.0825892857143,3355.3,1678.2857142857142,528.0825892857143,3458.5,1678.2857142857142,528.0825892857143,3559.8,1678.2857142857142,528.0825892857143,3660.5,1678.2857142857142,528.0825892857143,3764.3,1678.2857142857142,528.0825892857143,3867.7,1678.2857142857142,528.0825892857143,3976.5,1678.2857142857142,528.0825892857143,4080.3,1678.2857142857142,528.0825892857143,4182.6,1678.2857142857142,528.0825892857143,4285.6,1678.2857142857142,528.0825892857143,4386.1,1678.2857142857142,528.0825892857143,4487.8,1678.2857142857142,528.0825892857143,4590.2,1678.2857142857142,528.0825892857143,4691.9,1678.2857142857142,528.0825892857143,4798.4,1678.2857142857142,528.0825892857143,4898.8,1678.2857142857142,528.0825892857143,4999.2]","[1426,1426,1000,0,426,""smooth"",""up"",""up"",""good_move"",3939.5,2513.1,2130.7,1426.4,382.4,""smooth"",""up"",""up"",""good_move"",6333.5,2393.8,2022.4,3939.7,371.4,""oops"",""up"",""left"",""bad_move"",9301.5,2967.2,2608.7,6334.4,358.4,""smooth"",""right"",""right"",""good_move"",15469.2,6163.6,2630.9,12315.2,523.1,""smooth"",""right"",""right"",""good_move"",18376.1,2906.7,2521.6,15469.4,385.1,""smooth"",""right"",""right"",""good_move"",21577.5,3199.7,2825.6,18377.8,374.1,""oops"",""right"",""right"",""good_move"",24574.9,2997.1,2618.4,21577.8,378.7,""smooth"",""up"",""up"",""good_move""]","",""
"2590","","<div style=""width:500px;"">
  <p>What determined the result of this run?</p>
  </div>","87","html-slider-response","25","280142","0.0-5.0-1.3","14","1","2025-07-09 08:41:22","01610cd0009c79a99da7d0a3353eb402","83.104.232.21","Mozilla/5.0 (Macintosh; Intel Mac OS X 10_15_7) AppleWebKit/537.36 (KHTML, like Gecko) Chrome/137.0.0.0 Safari/537.36","Macintosh","Chrome","137.0.0.0","OS X","10_15_7","https://app.prolific.com/","en-GB,en-US;q=0.9,en;q=0.8","6658ba167affbe300577b93d","683db7602f5db6a34d12d064","686e2b21037431b6681cc469","1","6658ba167affbe300577b93d","1","2025-07-09T08:46:04.348Z","","","","","","","","","","","AttribQ","","50","","","","","","","","","","","","","","","","","","","","","","","","","","","","",""
"1547","","<div style=""width:500px;"">
  <p>How much control did you have over the ball?</p>
  </div>","91","html-slider-response","26","281691","0.0-5.0-2.3","14","1","2025-07-09 08:41:22","01610cd0009c79a99da7d0a3353eb402","83.104.232.21","Mozilla/5.0 (Macintosh; Intel Mac OS X 10_15_7) AppleWebKit/537.36 (KHTML, like Gecko) Chrome/137.0.0.0 Safari/537.36","Macintosh","Chrome","137.0.0.0","OS X","10_15_7","https://app.prolific.com/","en-GB,en-US;q=0.9,en;q=0.8","6658ba167affbe300577b93d","683db7602f5db6a34d12d064","686e2b21037431b6681cc469","1","6658ba167affbe300577b93d","1","2025-07-09T08:46:05.897Z","","","","","","","","","","","ControlQ","","50","","","","","","","","","","","","","","","","","","","","","","","","","","","","",""
"1655","","<div style=""width:500px;"">
  <p>How would you describe your current emotional state?</p>
  </div>","29","html-slider-response","27","283347","0.0-5.0-3.3","14","1","2025-07-09 08:41:22","01610cd0009c79a99da7d0a3353eb402","83.104.232.21","Mozilla/5.0 (Macintosh; Intel Mac OS X 10_15_7) AppleWebKit/537.36 (KHTML, like Gecko) Chrome/137.0.0.0 Safari/537.36","Macintosh","Chrome","137.0.0.0","OS X","10_15_7","https://app.prolific.com/","en-GB,en-US;q=0.9,en;q=0.8","6658ba167affbe300577b93d","683db7602f5db6a34d12d064","686e2b21037431b6681cc469","1","6658ba167affbe300577b93d","1","2025-07-09T08:46:07.554Z","","","","","","","","","","","StressQ","","50","","","","","","","","","","","","","","","","","","","","","","","","","","","","",""
"1655","","<div style=""width:500px;"">
  <p>What best describes how you currently feel?</p>
  </div>","72","html-slider-response","28","285005","0.0-5.0-4.3","14","1","2025-07-09 08:41:22","01610cd0009c79a99da7d0a3353eb402","83.104.232.21","Mozilla/5.0 (Macintosh; Intel Mac OS X 10_15_7) AppleWebKit/537.36 (KHTML, like Gecko) Chrome/137.0.0.0 Safari/537.36","Macintosh","Chrome","137.0.0.0","OS X","10_15_7","https://app.prolific.com/","en-GB,en-US;q=0.9,en;q=0.8","6658ba167affbe300577b93d","683db7602f5db6a34d12d064","686e2b21037431b6681cc469","1","6658ba167affbe300577b93d","1","2025-07-09T08:46:09.211Z","","","","","","","","","","","MotivationQ","","50","","","","","","","","","","","","","","","","","","","","","","","","","","","","",""
"","","","","ctl-task-cpt","29","315782","0.0-5.0-0.4","14","1","2025-07-09 08:41:22","01610cd0009c79a99da7d0a3353eb402","83.104.232.21","Mozilla/5.0 (Macintosh; Intel Mac OS X 10_15_7) AppleWebKit/537.36 (KHTML, like Gecko) Chrome/137.0.0.0 Safari/537.36","Macintosh","Chrome","137.0.0.0","OS X","10_15_7","https://app.prolific.com/","en-GB,en-US;q=0.9,en;q=0.8","6658ba167affbe300577b93d","683db7602f5db6a34d12d064","686e2b21037431b6681cc469","1","6658ba167affbe300577b93d","1","2025-07-09T08:46:39.988Z","","","","","","","","","","","","","","win-only","1","g1:NE,g2:SW","0.6","5","0","286715.3","802","5803.9","27761","1","4","8","6","2","8","7","31","24","0.23484848484848486","943.4","3000","1000","[""down"",""left""]","{""num_key_presses"":7,""num_perfect"":6,""num_errors"":1,""num_randdir"":0,""num_randdir_good_moves"":0,""num_whilered"":0,""num_whileblue"":0,""num_blue"":1,""num_good_moves"":6}","[694.2857142857143,700.0825892857143,0.1,694.2857142857143,700.0825892857143,104.3,694.2857142857143,700.0825892857143,210,694.2857142857143,700.0825892857143,310.3,774.2857142857143,808.0825892857143,410.8,988.2857142857143,952.0825892857143,514.9,820.2857142857143,942.0825892857143,618.3,240.28571428571428,1206.0825892857142,721.1,216.28571428571428,1238.0825892857142,826.9,216.28571428571428,1238.0825892857142,927.9,216.28571428571428,1238.0825892857142,1030.1,216.28571428571428,1238.0825892857142,1145.9,954.2857142857143,1488.0825892857142,1255.4,984.2857142857143,1496.0825892857142,1360.5,984.2857142857143,1496.0825892857142,1466.5,984.2857142857143,1496.0825892857142,1576.6,984.2857142857143,1496.0825892857142,1679.1,984.2857142857143,1496.0825892857142,1787.2,984.2857142857143,1496.0825892857142,1892.5,984.2857142857143,1496.0825892857142,1996.1,984.2857142857143,1496.0825892857142,2097.3,984.2857142857143,1496.0825892857142,2197.7,984.2857142857143,1496.0825892857142,2298,984.2857142857143,1496.0825892857142,2404.5,984.2857142857143,1496.0825892857142,2510.7,984.2857142857143,1496.0825892857142,2620,984.2857142857143,1496.0825892857142,2720,984.2857142857143,1496.0825892857142,2827.8,984.2857142857143,1496.0825892857142,2934.3,984.2857142857143,1496.0825892857142,3040,984.2857142857143,1496.0825892857142,3143.7,984.2857142857143,1496.0825892857142,3248.3,984.2857142857143,1496.0825892857142,3351.9,984.2857142857143,1496.0825892857142,3456.4,984.2857142857143,1496.0825892857142,3561.8,984.2857142857143,1496.0825892857142,3662.6,984.2857142857143,1496.0825892857142,3764.6,984.2857142857143,1496.0825892857142,3870.4,984.2857142857143,1496.0825892857142,3973,984.2857142857143,1496.0825892857142,4085.2,984.2857142857143,1496.0825892857142,4188.7,984.2857142857143,1496.0825892857142,4291.8,984.2857142857143,1496.0825892857142,4398.8,984.2857142857143,1496.0825892857142,4505.3,984.2857142857143,1496.0825892857142,4605.7,984.2857142857143,1496.0825892857142,4706.8,984.2857142857143,1496.0825892857142,4806.9,984.2857142857143,1496.0825892857142,4914.2]","[392,392,1000,0,-608,""error"",""-"",""-"",""no_move"",4910.3,4518.2,2995.1,1396.5,518.7,""smooth"",""down"",""down"",""good_move"",7649.5,2738.7,1997.8,4910.8,740.9,""smooth"",""down"",""down"",""good_move"",13598.7,5948,2213.1,11009.3,376.3,""smooth"",""down"",""down"",""good_move"",16565.3,2966.5,2097.9,13598.8,868.6,""smooth"",""left"",""left"",""good_move"",19888.5,3320.9,2942.9,16567.6,378,""smooth"",""left"",""left"",""good_move"",21822.2,1931.1,1334.8,19891.1,596.3,""smooth"",""left"",""left"",""good_move""]","",""
"5409","","<div style=""width:500px;"">
  <p>What determined the result of this run?</p>
  </div>","98","html-slider-response","30","321193","0.0-5.0-1.4","14","1","2025-07-09 08:41:22","01610cd0009c79a99da7d0a3353eb402","83.104.232.21","Mozilla/5.0 (Macintosh; Intel Mac OS X 10_15_7) AppleWebKit/537.36 (KHTML, like Gecko) Chrome/137.0.0.0 Safari/537.36","Macintosh","Chrome","137.0.0.0","OS X","10_15_7","https://app.prolific.com/","en-GB,en-US;q=0.9,en;q=0.8","6658ba167affbe300577b93d","683db7602f5db6a34d12d064","686e2b21037431b6681cc469","1","6658ba167affbe300577b93d","1","2025-07-09T08:46:45.399Z","","","","","","","","","","","AttribQ","","50","","","","","","","","","","","","","","","","","","","","","","","","","","","","",""
"1748","","<div style=""width:500px;"">
  <p>How much control did you have over the ball?</p>
  </div>","100","html-slider-response","31","322943","0.0-5.0-2.4","14","1","2025-07-09 08:41:22","01610cd0009c79a99da7d0a3353eb402","83.104.232.21","Mozilla/5.0 (Macintosh; Intel Mac OS X 10_15_7) AppleWebKit/537.36 (KHTML, like Gecko) Chrome/137.0.0.0 Safari/537.36","Macintosh","Chrome","137.0.0.0","OS X","10_15_7","https://app.prolific.com/","en-GB,en-US;q=0.9,en;q=0.8","6658ba167affbe300577b93d","683db7602f5db6a34d12d064","686e2b21037431b6681cc469","1","6658ba167affbe300577b93d","1","2025-07-09T08:46:47.150Z","","","","","","","","","","","ControlQ","","50","","","","","","","","","","","","","","","","","","","","","","","","","","","","",""
"3029","","<div style=""width:500px;"">
  <p>How would you describe your current emotional state?</p>
  </div>","44","html-slider-response","32","325974","0.0-5.0-3.4","14","1","2025-07-09 08:41:22","01610cd0009c79a99da7d0a3353eb402","83.104.232.21","Mozilla/5.0 (Macintosh; Intel Mac OS X 10_15_7) AppleWebKit/537.36 (KHTML, like Gecko) Chrome/137.0.0.0 Safari/537.36","Macintosh","Chrome","137.0.0.0","OS X","10_15_7","https://app.prolific.com/","en-GB,en-US;q=0.9,en;q=0.8","6658ba167affbe300577b93d","683db7602f5db6a34d12d064","686e2b21037431b6681cc469","1","6658ba167affbe300577b93d","1","2025-07-09T08:46:50.180Z","","","","","","","","","","","StressQ","","50","","","","","","","","","","","","","","","","","","","","","","","","","","","","",""
"2134","","<div style=""width:500px;"">
  <p>What best describes how you currently feel?</p>
  </div>","68","html-slider-response","33","328110","0.0-5.0-4.4","14","1","2025-07-09 08:41:22","01610cd0009c79a99da7d0a3353eb402","83.104.232.21","Mozilla/5.0 (Macintosh; Intel Mac OS X 10_15_7) AppleWebKit/537.36 (KHTML, like Gecko) Chrome/137.0.0.0 Safari/537.36","Macintosh","Chrome","137.0.0.0","OS X","10_15_7","https://app.prolific.com/","en-GB,en-US;q=0.9,en;q=0.8","6658ba167affbe300577b93d","683db7602f5db6a34d12d064","686e2b21037431b6681cc469","1","6658ba167affbe300577b93d","1","2025-07-09T08:46:52.317Z","","","","","","","","","","","MotivationQ","","50","","","","","","","","","","","","","","","","","","","","","","","","","","","","",""
"","","","","ctl-task-cpt","34","368099","0.0-5.0-0.5","14","1","2025-07-09 08:41:22","01610cd0009c79a99da7d0a3353eb402","83.104.232.21","Mozilla/5.0 (Macintosh; Intel Mac OS X 10_15_7) AppleWebKit/537.36 (KHTML, like Gecko) Chrome/137.0.0.0 Safari/537.36","Macintosh","Chrome","137.0.0.0","OS X","10_15_7","https://app.prolific.com/","en-GB,en-US;q=0.9,en;q=0.8","6658ba167affbe300577b93d","683db7602f5db6a34d12d064","686e2b21037431b6681cc469","1","6658ba167affbe300577b93d","1","2025-07-09T08:47:32.306Z","","","","","","","","","","","","","","win-only","3","g1:SW,g2:NE","0.5","6","0","329821.4","1630","6639","36967.4","1","4","4","6","2","4","4","35","31","0.26515151515151514","1270.9","3000","1560","[""up"",""right""]","{""num_key_presses"":8,""num_perfect"":4,""num_errors"":0,""num_randdir"":4,""num_randdir_good_moves"":3,""num_whilered"":0,""num_whileblue"":0,""num_blue"":2,""num_good_moves"":7}","[700.2857142857143,688.0825892857143,5.9,700.2857142857143,688.0825892857143,109.7,700.2857142857143,688.0825892857143,221.4,700.2857142857143,688.0825892857143,322.1,700.2857142857143,688.0825892857143,430.1,700.2857142857143,688.0825892857143,536.7,700.2857142857143,688.0825892857143,638.7,1102.2857142857142,470.0825892857143,744,1312.2857142857142,308.0825892857143,860.7,1354.2857142857142,266.0825892857143,966,1308.2857142857142,166.08258928571428,1078.8,1306.2857142857142,126.08258928571429,1194,1306.2857142857142,126.08258928571429,1294.5,1306.2857142857142,126.08258928571429,1398.3,1306.2857142857142,126.08258928571429,1501.3,1306.2857142857142,126.08258928571429,1608.3,1306.2857142857142,126.08258928571429,1716.6,1306.2857142857142,126.08258928571429,1822,1306.2857142857142,126.08258928571429,1925.4,1306.2857142857142,126.08258928571429,2027.2,1306.2857142857142,126.08258928571429,2130.3,1306.2857142857142,126.08258928571429,2231.7,1306.2857142857142,126.08258928571429,2341.7,1306.2857142857142,126.08258928571429,2451.7,1306.2857142857142,126.08258928571429,2557,1306.2857142857142,126.08258928571429,2659.5,1306.2857142857142,126.08258928571429,2765.3,1306.2857142857142,126.08258928571429,2875.1,1306.2857142857142,126.08258928571429,2987.5,1306.2857142857142,126.08258928571429,3096.8,1306.2857142857142,126.08258928571429,3208.1,1306.2857142857142,126.08258928571429,3313.6,1306.2857142857142,126.08258928571429,3422.2,1306.2857142857142,126.08258928571429,3528.8,1306.2857142857142,126.08258928571429,3658.3,1306.2857142857142,126.08258928571429,3758.5,1306.2857142857142,126.08258928571429,3866.6,1306.2857142857142,126.08258928571429,3971.5,1306.2857142857142,126.08258928571429,4073.1,1306.2857142857142,126.08258928571429,4177.7,1306.2857142857142,126.08258928571429,4284.6,1306.2857142857142,126.08258928571429,4386,1306.2857142857142,126.08258928571429,4493.3,1306.2857142857142,126.08258928571429,4593.8,1306.2857142857142,126.08258928571429,4699.1,1306.2857142857142,126.08258928571429,4800.6,1306.2857142857142,126.08258928571429,4907.5]","[1424.5,1424.5,1000,0,424.5,""smooth"",""up"",""up"",""good_move"",13300,11875.1,2975.3,9891.2,433.5,""smooth"",""up"",""up"",""good_move"",15717,2416.8,1863.4,13300.2,553.4,""oops"",""up"",""right"",""good_move"",18450.3,2731.9,2332.5,15718.4,399.4,""oops"",""up"",""right"",""good_move"",21133.4,2683,2234.6,18450.5,448.4,""oops"",""up"",""down"",""bad_move"",24352.4,3218.4,2835.8,21134,382.6,""oops"",""right"",""right"",""good_move"",26774.8,2420.1,2045.1,24354.7,375.1,""smooth"",""up"",""up"",""good_move"",30105.7,3330.6,2930.2,26775.1,400.4,""smooth"",""up"",""up"",""good_move""]","",""
"2623","","<div style=""width:500px;"">
  <p>What determined the result of this run?</p>
  </div>","78","html-slider-response","35","370724","0.0-5.0-1.5","14","1","2025-07-09 08:41:22","01610cd0009c79a99da7d0a3353eb402","83.104.232.21","Mozilla/5.0 (Macintosh; Intel Mac OS X 10_15_7) AppleWebKit/537.36 (KHTML, like Gecko) Chrome/137.0.0.0 Safari/537.36","Macintosh","Chrome","137.0.0.0","OS X","10_15_7","https://app.prolific.com/","en-GB,en-US;q=0.9,en;q=0.8","6658ba167affbe300577b93d","683db7602f5db6a34d12d064","686e2b21037431b6681cc469","1","6658ba167affbe300577b93d","1","2025-07-09T08:47:34.931Z","","","","","","","","","","","AttribQ","","50","","","","","","","","","","","","","","","","","","","","","","","","","","","","",""
"1722","","<div style=""width:500px;"">
  <p>How much control did you have over the ball?</p>
  </div>","78","html-slider-response","36","372448","0.0-5.0-2.5","14","1","2025-07-09 08:41:22","01610cd0009c79a99da7d0a3353eb402","83.104.232.21","Mozilla/5.0 (Macintosh; Intel Mac OS X 10_15_7) AppleWebKit/537.36 (KHTML, like Gecko) Chrome/137.0.0.0 Safari/537.36","Macintosh","Chrome","137.0.0.0","OS X","10_15_7","https://app.prolific.com/","en-GB,en-US;q=0.9,en;q=0.8","6658ba167affbe300577b93d","683db7602f5db6a34d12d064","686e2b21037431b6681cc469","1","6658ba167affbe300577b93d","1","2025-07-09T08:47:36.654Z","","","","","","","","","","","ControlQ","","50","","","","","","","","","","","","","","","","","","","","","","","","","","","","",""
"2248","","<div style=""width:500px;"">
  <p>How would you describe your current emotional state?</p>
  </div>","43","html-slider-response","37","374697","0.0-5.0-3.5","14","1","2025-07-09 08:41:22","01610cd0009c79a99da7d0a3353eb402","83.104.232.21","Mozilla/5.0 (Macintosh; Intel Mac OS X 10_15_7) AppleWebKit/537.36 (KHTML, like Gecko) Chrome/137.0.0.0 Safari/537.36","Macintosh","Chrome","137.0.0.0","OS X","10_15_7","https://app.prolific.com/","en-GB,en-US;q=0.9,en;q=0.8","6658ba167affbe300577b93d","683db7602f5db6a34d12d064","686e2b21037431b6681cc469","1","6658ba167affbe300577b93d","1","2025-07-09T08:47:38.904Z","","","","","","","","","","","StressQ","","50","","","","","","","","","","","","","","","","","","","","","","","","","","","","",""
"1729","","<div style=""width:500px;"">
  <p>What best describes how you currently feel?</p>
  </div>","61","html-slider-response","38","376428","0.0-5.0-4.5","14","1","2025-07-09 08:41:22","01610cd0009c79a99da7d0a3353eb402","83.104.232.21","Mozilla/5.0 (Macintosh; Intel Mac OS X 10_15_7) AppleWebKit/537.36 (KHTML, like Gecko) Chrome/137.0.0.0 Safari/537.36","Macintosh","Chrome","137.0.0.0","OS X","10_15_7","https://app.prolific.com/","en-GB,en-US;q=0.9,en;q=0.8","6658ba167affbe300577b93d","683db7602f5db6a34d12d064","686e2b21037431b6681cc469","1","6658ba167affbe300577b93d","1","2025-07-09T08:47:40.634Z","","","","","","","","","","","MotivationQ","","50","","","","","","","","","","","","","","","","","","","","","","","","","","","","",""
"","","","","ctl-task-cpt","39","423330","0.0-5.0-0.6","14","1","2025-07-09 08:41:22","01610cd0009c79a99da7d0a3353eb402","83.104.232.21","Mozilla/5.0 (Macintosh; Intel Mac OS X 10_15_7) AppleWebKit/537.36 (KHTML, like Gecko) Chrome/137.0.0.0 Safari/537.36","Macintosh","Chrome","137.0.0.0","OS X","10_15_7","https://app.prolific.com/","en-GB,en-US;q=0.9,en;q=0.8","6658ba167affbe300577b93d","683db7602f5db6a34d12d064","686e2b21037431b6681cc469","1","6658ba167affbe300577b93d","1","2025-07-09T08:48:27.536Z","","","","","","","","","","","","","","win-only","3","g1:SW,g2:NE","0.4","7","0","378138.3","1212.9","6227.8","43882.9","1","4","4","6","2","4","4","39","35","0.29545454545454547","1068.2","3000","610","[""up"",""right""]","{""num_key_presses"":12,""num_perfect"":6,""num_errors"":0,""num_randdir"":6,""num_randdir_good_moves"":3,""num_whilered"":0,""num_whileblue"":0,""num_blue"":1,""num_good_moves"":9}","[696.2857142857143,688.0825892857143,0.7,696.2857142857143,688.0825892857143,107.4,696.2857142857143,688.0825892857143,209.1,696.2857142857143,688.0825892857143,315.8,696.2857142857143,688.0825892857143,419.6,696.2857142857143,688.0825892857143,522.3,716.2857142857143,680.0825892857143,628.4,1174.2857142857142,362.0825892857143,732.6,1290.2857142857142,206.08258928571428,840.3,1298.2857142857142,190.08258928571428,949.6,1300.2857142857142,178.08258928571428,1061,1300.2857142857142,178.08258928571428,1163.5,1300.2857142857142,178.08258928571428,1265.5,1300.2857142857142,178.08258928571428,1369.6,1300.2857142857142,178.08258928571428,1476.9,1300.2857142857142,178.08258928571428,1578.4,1300.2857142857142,178.08258928571428,1681.9,1300.2857142857142,178.08258928571428,1782.2,1300.2857142857142,178.08258928571428,1889.7,1300.2857142857142,178.08258928571428,2002.2,1300.2857142857142,178.08258928571428,2113.7,1300.2857142857142,178.08258928571428,2223.3,1300.2857142857142,178.08258928571428,2333.9,1300.2857142857142,178.08258928571428,2439.4,1300.2857142857142,178.08258928571428,2540.1,1300.2857142857142,178.08258928571428,2646.8,1300.2857142857142,178.08258928571428,2747.7,1300.2857142857142,178.08258928571428,2849,1300.2857142857142,178.08258928571428,2953.9,1300.2857142857142,178.08258928571428,3061.3,1300.2857142857142,178.08258928571428,3167.6,1300.2857142857142,178.08258928571428,3274.6,1300.2857142857142,178.08258928571428,3374.7,1300.2857142857142,178.08258928571428,3484.1,1300.2857142857142,178.08258928571428,3590.9,1300.2857142857142,178.08258928571428,3695.7,1300.2857142857142,178.08258928571428,3803.3,1300.2857142857142,178.08258928571428,3908.8,1300.2857142857142,178.08258928571428,4010.1,1300.2857142857142,178.08258928571428,4114.9,1300.2857142857142,178.08258928571428,4222.9,1300.2857142857142,178.08258928571428,4323.7,1300.2857142857142,178.08258928571428,4424.3,1300.2857142857142,178.08258928571428,4526,1300.2857142857142,178.08258928571428,4639.5,1300.2857142857142,178.08258928571428,4745.6,1300.2857142857142,178.08258928571428,4856.5,1300.2857142857142,178.08258928571428,4957.6]","[1459.3,1459.3,1000,0,459.3,""oops"",""right"",""down"",""bad_move"",5120.6,3657.7,3213.7,1462.9,444,""smooth"",""right"",""right"",""good_move"",7840.6,2719.4,2340.7,5121.2,378.7,""smooth"",""right"",""right"",""good_move"",10365.5,2519.6,2088.4,7845.9,431.2,""oops"",""right"",""left"",""bad_move"",13333.2,2967.1,2287.6,10366.1,679.5,""smooth"",""up"",""up"",""good_move"",16531.2,3197.7,2605.5,13333.6,592.2,""oops"",""up"",""up"",""good_move"",19365.7,2829.5,2351.2,16536.2,478.3,""oops"",""up"",""left"",""bad_move"",22525,3157,2730.4,19368,426.6,""oops"",""up"",""up"",""good_move"",25423.6,2897,2478,22526.6,419,""smooth"",""up"",""up"",""good_move"",28391.6,2967.9,2588.1,25423.8,379.8,""oops"",""right"",""right"",""good_move"",34564.9,6172.8,2291.6,31804.5,468.8,""smooth"",""right"",""right"",""good_move"",37435.8,2868.8,2355.9,34567,512.9,""smooth"",""right"",""right"",""good_move""]","",""
"3128","","<div style=""width:500px;"">
  <p>What determined the result of this run?</p>
  </div>","84","html-slider-response","40","426460","0.0-5.0-1.6","14","1","2025-07-09 08:41:22","01610cd0009c79a99da7d0a3353eb402","83.104.232.21","Mozilla/5.0 (Macintosh; Intel Mac OS X 10_15_7) AppleWebKit/537.36 (KHTML, like Gecko) Chrome/137.0.0.0 Safari/537.36","Macintosh","Chrome","137.0.0.0","OS X","10_15_7","https://app.prolific.com/","en-GB,en-US;q=0.9,en;q=0.8","6658ba167affbe300577b93d","683db7602f5db6a34d12d064","686e2b21037431b6681cc469","1","6658ba167affbe300577b93d","1","2025-07-09T08:48:30.666Z","","","","","","","","","","","AttribQ","","50","","","","","","","","","","","","","","","","","","","","","","","","","","","","",""
"1980","","<div style=""width:500px;"">
  <p>How much control did you have over the ball?</p>
  </div>","77","html-slider-response","41","428441","0.0-5.0-2.6","14","1","2025-07-09 08:41:22","01610cd0009c79a99da7d0a3353eb402","83.104.232.21","Mozilla/5.0 (Macintosh; Intel Mac OS X 10_15_7) AppleWebKit/537.36 (KHTML, like Gecko) Chrome/137.0.0.0 Safari/537.36","Macintosh","Chrome","137.0.0.0","OS X","10_15_7","https://app.prolific.com/","en-GB,en-US;q=0.9,en;q=0.8","6658ba167affbe300577b93d","683db7602f5db6a34d12d064","686e2b21037431b6681cc469","1","6658ba167affbe300577b93d","1","2025-07-09T08:48:32.647Z","","","","","","","","","","","ControlQ","","50","","","","","","","","","","","","","","","","","","","","","","","","","","","","",""
"3745","","<div style=""width:500px;"">
  <p>How would you describe your current emotional state?</p>
  </div>","50","html-slider-response","42","432187","0.0-5.0-3.6","14","1","2025-07-09 08:41:22","01610cd0009c79a99da7d0a3353eb402","83.104.232.21","Mozilla/5.0 (Macintosh; Intel Mac OS X 10_15_7) AppleWebKit/537.36 (KHTML, like Gecko) Chrome/137.0.0.0 Safari/537.36","Macintosh","Chrome","137.0.0.0","OS X","10_15_7","https://app.prolific.com/","en-GB,en-US;q=0.9,en;q=0.8","6658ba167affbe300577b93d","683db7602f5db6a34d12d064","686e2b21037431b6681cc469","1","6658ba167affbe300577b93d","1","2025-07-09T08:48:36.394Z","","","","","","","","","","","StressQ","","50","","","","","","","","","","","","","","","","","","","","","","","","","","","","",""
"2089","","<div style=""width:500px;"">
  <p>What best describes how you currently feel?</p>
  </div>","65","html-slider-response","43","434277","0.0-5.0-4.6","14","1","2025-07-09 08:41:22","01610cd0009c79a99da7d0a3353eb402","83.104.232.21","Mozilla/5.0 (Macintosh; Intel Mac OS X 10_15_7) AppleWebKit/537.36 (KHTML, like Gecko) Chrome/137.0.0.0 Safari/537.36","Macintosh","Chrome","137.0.0.0","OS X","10_15_7","https://app.prolific.com/","en-GB,en-US;q=0.9,en;q=0.8","6658ba167affbe300577b93d","683db7602f5db6a34d12d064","686e2b21037431b6681cc469","1","6658ba167affbe300577b93d","1","2025-07-09T08:48:38.483Z","","","","","","","","","","","MotivationQ","","50","","","","","","","","","","","","","","","","","","","","","","","","","","","","",""
"","","","","ctl-task-cpt","44","518075","0.0-5.0-0.7","14","1","2025-07-09 08:41:22","01610cd0009c79a99da7d0a3353eb402","83.104.232.21","Mozilla/5.0 (Macintosh; Intel Mac OS X 10_15_7) AppleWebKit/537.36 (KHTML, like Gecko) Chrome/137.0.0.0 Safari/537.36","Macintosh","Chrome","137.0.0.0","OS X","10_15_7","https://app.prolific.com/","en-GB,en-US;q=0.9,en;q=0.8","6658ba167affbe300577b93d","683db7602f5db6a34d12d064","686e2b21037431b6681cc469","1","6658ba167affbe300577b93d","1","2025-07-09T08:50:02.281Z","","","","","","","","","","","","","","win-only","3","g1:SW,g2:NE","0.3","8","0","435983.8","1088.4","6104.1","80777.6","1","4","8","6","2","-8","-8","31","39","0.23484848484848486","1409.7","3000","-1075","[""up"",""right""]","{""num_key_presses"":16,""num_perfect"":3,""num_errors"":0,""num_randdir"":13,""num_randdir_good_moves"":5,""num_whilered"":0,""num_whileblue"":0,""num_blue"":7,""num_good_moves"":8}","[694.2857142857143,686.0825892857143,0.7,694.2857142857143,686.0825892857143,105.3,694.2857142857143,686.0825892857143,214.8,694.2857142857143,686.0825892857143,320,694.2857142857143,686.0825892857143,430.3,694.2857142857143,686.0825892857143,536.9,694.2857142857143,686.0825892857143,643.6,1302.2857142857142,598.0825892857143,756.2,1632.2857142857142,364.0825892857143,866.2,1548.2857142857142,280.0825892857143,967.2,1546.2857142857142,280.0825892857143,1070.5,1500.2857142857142,238.08258928571428,1171.7,1422.2857142857142,178.08258928571428,1273.6,1324.2857142857142,140.08258928571428,1374.2,1310.2857142857142,136.08258928571428,1480.1,1310.2857142857142,136.08258928571428,1590.7,1310.2857142857142,136.08258928571428,1696.5,1310.2857142857142,136.08258928571428,1802.2,1310.2857142857142,136.08258928571428,1924.1,1310.2857142857142,136.08258928571428,2036.6,1310.2857142857142,136.08258928571428,2140.9,1310.2857142857142,136.08258928571428,2252.5,1310.2857142857142,136.08258928571428,2360.3,1310.2857142857142,136.08258928571428,2473.1,1310.2857142857142,136.08258928571428,2582.4,1310.2857142857142,136.08258928571428,2691.3,1310.2857142857142,136.08258928571428,2791.7,1310.2857142857142,136.08258928571428,2891.7,1310.2857142857142,136.08258928571428,3006,1310.2857142857142,136.08258928571428,3115.7,1310.2857142857142,136.08258928571428,3223.1,1310.2857142857142,136.08258928571428,3331.2,1310.2857142857142,136.08258928571428,3446.6,1310.2857142857142,136.08258928571428,3554.1,1310.2857142857142,136.08258928571428,3656.1,1310.2857142857142,136.08258928571428,3756.5,1310.2857142857142,136.08258928571428,3858.5,1310.2857142857142,136.08258928571428,3962.4,1310.2857142857142,136.08258928571428,4082.3,1310.2857142857142,136.08258928571428,4186,1310.2857142857142,136.08258928571428,4290.4,1310.2857142857142,136.08258928571428,4396.2,1310.2857142857142,136.08258928571428,4502.1,1310.2857142857142,136.08258928571428,4604,1310.2857142857142,136.08258928571428,4705.5,1310.2857142857142,136.08258928571428,4819.5,1310.2857142857142,136.08258928571428,4927.5]","[1435.7,1435.7,1000,0,435.7,""oops"",""up"",""down"",""bad_move"",4286.9,2849.6,2354.8,1437.3,494.8,""oops"",""up"",""right"",""good_move"",10249.1,5961.8,2246.4,7529.2,473.5,""oops"",""up"",""right"",""good_move"",17074.7,6822.5,2369,14250.7,455,""oops"",""up"",""left"",""bad_move"",21000,3919.2,3364.5,17080.8,554.7,""oops"",""up"",""down"",""bad_move"",24090.5,3089.2,2435.2,21001.3,654,""smooth"",""right"",""right"",""good_move"",26791.4,2700.5,2243,24090.9,457.5,""smooth"",""right"",""right"",""good_move"",30597.9,3806.4,3370.1,26791.6,436.3,""smooth"",""up"",""up"",""good_move"",33274.7,2673.3,2109.3,30601.4,564,""oops"",""up"",""down"",""bad_move"",36664.8,3387.9,3043.5,33276.9,344.4,""oops"",""up"",""up"",""good_move"",42671.4,6005.2,1917.1,40229.3,525,""oops"",""up"",""up"",""good_move"",50616.1,7941.6,2789.3,47185.5,641.4,""oops"",""up"",""down"",""bad_move"",56174.1,5557.3,1903.4,53810.4,460.3,""oops"",""up"",""down"",""bad_move"",59481.4,3305,2589.3,56176.4,715.7,""oops"",""up"",""left"",""bad_move"",69176,9691.6,2085.9,66658.8,431.3,""oops"",""up"",""right"",""good_move"",72411.1,3234.7,2770,69176.4,464.7,""oops"",""up"",""left"",""bad_move""]","",""
"8693","","<div style=""width:500px;"">
  <p>What determined the result of this run?</p>
  </div>","24","html-slider-response","45","526771","0.0-5.0-1.7","14","1","2025-07-09 08:41:22","01610cd0009c79a99da7d0a3353eb402","83.104.232.21","Mozilla/5.0 (Macintosh; Intel Mac OS X 10_15_7) AppleWebKit/537.36 (KHTML, like Gecko) Chrome/137.0.0.0 Safari/537.36","Macintosh","Chrome","137.0.0.0","OS X","10_15_7","https://app.prolific.com/","en-GB,en-US;q=0.9,en;q=0.8","6658ba167affbe300577b93d","683db7602f5db6a34d12d064","686e2b21037431b6681cc469","1","6658ba167affbe300577b93d","1","2025-07-09T08:50:10.977Z","","","","","","","","","","","AttribQ","","50","","","","","","","","","","","","","","","","","","","","","","","","","","","","",""
"2389","","<div style=""width:500px;"">
  <p>How much control did you have over the ball?</p>
  </div>","2","html-slider-response","46","529162","0.0-5.0-2.7","14","1","2025-07-09 08:41:22","01610cd0009c79a99da7d0a3353eb402","83.104.232.21","Mozilla/5.0 (Macintosh; Intel Mac OS X 10_15_7) AppleWebKit/537.36 (KHTML, like Gecko) Chrome/137.0.0.0 Safari/537.36","Macintosh","Chrome","137.0.0.0","OS X","10_15_7","https://app.prolific.com/","en-GB,en-US;q=0.9,en;q=0.8","6658ba167affbe300577b93d","683db7602f5db6a34d12d064","686e2b21037431b6681cc469","1","6658ba167affbe300577b93d","1","2025-07-09T08:50:13.368Z","","","","","","","","","","","ControlQ","","50","","","","","","","","","","","","","","","","","","","","","","","","","","","","",""
"2335","","<div style=""width:500px;"">
  <p>How would you describe your current emotional state?</p>
  </div>","58","html-slider-response","47","531499","0.0-5.0-3.7","14","1","2025-07-09 08:41:22","01610cd0009c79a99da7d0a3353eb402","83.104.232.21","Mozilla/5.0 (Macintosh; Intel Mac OS X 10_15_7) AppleWebKit/537.36 (KHTML, like Gecko) Chrome/137.0.0.0 Safari/537.36","Macintosh","Chrome","137.0.0.0","OS X","10_15_7","https://app.prolific.com/","en-GB,en-US;q=0.9,en;q=0.8","6658ba167affbe300577b93d","683db7602f5db6a34d12d064","686e2b21037431b6681cc469","1","6658ba167affbe300577b93d","1","2025-07-09T08:50:15.705Z","","","","","","","","","","","StressQ","","50","","","","","","","","","","","","","","","","","","","","","","","","","","","","",""
"1983","","<div style=""width:500px;"">
  <p>What best describes how you currently feel?</p>
  </div>","58","html-slider-response","48","533484","0.0-5.0-4.7","14","1","2025-07-09 08:41:22","01610cd0009c79a99da7d0a3353eb402","83.104.232.21","Mozilla/5.0 (Macintosh; Intel Mac OS X 10_15_7) AppleWebKit/537.36 (KHTML, like Gecko) Chrome/137.0.0.0 Safari/537.36","Macintosh","Chrome","137.0.0.0","OS X","10_15_7","https://app.prolific.com/","en-GB,en-US;q=0.9,en;q=0.8","6658ba167affbe300577b93d","683db7602f5db6a34d12d064","686e2b21037431b6681cc469","1","6658ba167affbe300577b93d","1","2025-07-09T08:50:17.690Z","","","","","","","","","","","MotivationQ","","50","","","","","","","","","","","","","","","","","","","","","","","","","","","","",""
"","","","","ctl-task-cpt","49","576101","0.0-5.0-0.8","14","1","2025-07-09 08:41:22","01610cd0009c79a99da7d0a3353eb402","83.104.232.21","Mozilla/5.0 (Macintosh; Intel Mac OS X 10_15_7) AppleWebKit/537.36 (KHTML, like Gecko) Chrome/137.0.0.0 Safari/537.36","Macintosh","Chrome","137.0.0.0","OS X","10_15_7","https://app.prolific.com/","en-GB,en-US;q=0.9,en;q=0.8","6658ba167affbe300577b93d","683db7602f5db6a34d12d064","686e2b21037431b6681cc469","1","6658ba167affbe300577b93d","1","2025-07-09T08:51:00.307Z","","","","","","","","","","","","","","win-only","0","g1:NW,g2:SE","0.2","9","0","535192.2","1374.3","6389.5","39587","1","4","8","6","2","8","8","39","31","0.29545454545454547","1019","3000","1535","[""down"",""right""]","{""num_key_presses"":10,""num_perfect"":2,""num_errors"":0,""num_randdir"":8,""num_randdir_good_moves"":6,""num_whilered"":0,""num_whileblue"":0,""num_blue"":1,""num_good_moves"":8}","[700.2857142857143,692.0825892857143,1.3,700.2857142857143,692.0825892857143,106.7,700.2857142857143,692.0825892857143,213.7,700.2857142857143,692.0825892857143,316.9,700.2857142857143,692.0825892857143,426.3,700.2857142857143,692.0825892857143,532,738.2857142857143,742.0825892857143,643.4,1172.2857142857142,1176.0825892857142,749.7,1310.2857142857142,1258.0825892857142,855.7,1312.2857142857142,1266.0825892857142,960.8,1312.2857142857142,1266.0825892857142,1064.1,1312.2857142857142,1266.0825892857142,1171.3,1312.2857142857142,1266.0825892857142,1272.4,1308.2857142857142,1286.0825892857142,1375.6,1308.2857142857142,1286.0825892857142,1483.4,1308.2857142857142,1286.0825892857142,1587.6,1308.2857142857142,1286.0825892857142,1697.9,1308.2857142857142,1286.0825892857142,1803.3,1308.2857142857142,1286.0825892857142,1913.8,1308.2857142857142,1286.0825892857142,2027.2,1308.2857142857142,1286.0825892857142,2137.5,1308.2857142857142,1286.0825892857142,2255.4,1308.2857142857142,1286.0825892857142,2363.2,1308.2857142857142,1286.0825892857142,2474,1308.2857142857142,1286.0825892857142,2578.1,1308.2857142857142,1286.0825892857142,2680.5,1308.2857142857142,1286.0825892857142,2796.7,1308.2857142857142,1286.0825892857142,2909.9,1308.2857142857142,1286.0825892857142,3023.5,1308.2857142857142,1286.0825892857142,3132.5,1308.2857142857142,1286.0825892857142,3236.5,1308.2857142857142,1286.0825892857142,3339.2,1308.2857142857142,1286.0825892857142,3442.2,1308.2857142857142,1286.0825892857142,3543.2,1308.2857142857142,1286.0825892857142,3645.6,1308.2857142857142,1286.0825892857142,3751.3,1308.2857142857142,1286.0825892857142,3854.6,1308.2857142857142,1286.0825892857142,3959.7,1308.2857142857142,1286.0825892857142,4070.4,1308.2857142857142,1286.0825892857142,4179.2,1308.2857142857142,1286.0825892857142,4287.5,1308.2857142857142,1286.0825892857142,4399.7,1308.2857142857142,1286.0825892857142,4503.5,1308.2857142857142,1286.0825892857142,4616.4,1308.2857142857142,1286.0825892857142,4717.9,1308.2857142857142,1286.0825892857142,4820,1308.2857142857142,1286.0825892857142,4932.3]","[1388.2,1388.2,1000,0,388.2,""oops"",""down"",""right"",""good_move"",4640.5,3251.9,2806,1388.6,445.9,""oops"",""down"",""left"",""bad_move"",7821.7,3176,2594.3,4645.7,581.7,""oops"",""down"",""down"",""good_move"",10885,3062.2,2525.5,7822.9,536.7,""oops"",""down"",""right"",""good_move"",14153.4,3267.6,2785.6,10885.9,482,""oops"",""down"",""right"",""good_move"",17345.5,3191.6,2719.2,14153.9,472.4,""oops"",""down"",""left"",""bad_move"",24343.9,6996.2,2922.4,20996.2,425.3,""smooth"",""right"",""right"",""good_move"",27189.2,2843.6,2364.9,24345.6,478.7,""smooth"",""right"",""right"",""good_move"",29871,2680.4,2170,27190.6,510.4,""oops"",""down"",""down"",""good_move"",32904.2,3032.9,2643.4,29871.3,389.5,""oops"",""down"",""down"",""good_move""]","",""
"12293","","<div style=""width:500px;"">
  <p>What determined the result of this run?</p>
  </div>","70","html-slider-response","50","588397","0.0-5.0-1.8","14","1","2025-07-09 08:41:22","01610cd0009c79a99da7d0a3353eb402","83.104.232.21","Mozilla/5.0 (Macintosh; Intel Mac OS X 10_15_7) AppleWebKit/537.36 (KHTML, like Gecko) Chrome/137.0.0.0 Safari/537.36","Macintosh","Chrome","137.0.0.0","OS X","10_15_7","https://app.prolific.com/","en-GB,en-US;q=0.9,en;q=0.8","6658ba167affbe300577b93d","683db7602f5db6a34d12d064","686e2b21037431b6681cc469","1","6658ba167affbe300577b93d","1","2025-07-09T08:51:12.603Z","","","","","","","","","","","AttribQ","","50","","","","","","","","","","","","","","","","","","","","","","","","","","","","",""
"1800","","<div style=""width:500px;"">
  <p>How much control did you have over the ball?</p>
  </div>","63","html-slider-response","51","590202","0.0-5.0-2.8","14","1","2025-07-09 08:41:22","01610cd0009c79a99da7d0a3353eb402","83.104.232.21","Mozilla/5.0 (Macintosh; Intel Mac OS X 10_15_7) AppleWebKit/537.36 (KHTML, like Gecko) Chrome/137.0.0.0 Safari/537.36","Macintosh","Chrome","137.0.0.0","OS X","10_15_7","https://app.prolific.com/","en-GB,en-US;q=0.9,en;q=0.8","6658ba167affbe300577b93d","683db7602f5db6a34d12d064","686e2b21037431b6681cc469","1","6658ba167affbe300577b93d","1","2025-07-09T08:51:14.408Z","","","","","","","","","","","ControlQ","","50","","","","","","","","","","","","","","","","","","","","","","","","","","","","",""
"2661","","<div style=""width:500px;"">
  <p>How would you describe your current emotional state?</p>
  </div>","45","html-slider-response","52","592864","0.0-5.0-3.8","14","1","2025-07-09 08:41:22","01610cd0009c79a99da7d0a3353eb402","83.104.232.21","Mozilla/5.0 (Macintosh; Intel Mac OS X 10_15_7) AppleWebKit/537.36 (KHTML, like Gecko) Chrome/137.0.0.0 Safari/537.36","Macintosh","Chrome","137.0.0.0","OS X","10_15_7","https://app.prolific.com/","en-GB,en-US;q=0.9,en;q=0.8","6658ba167affbe300577b93d","683db7602f5db6a34d12d064","686e2b21037431b6681cc469","1","6658ba167affbe300577b93d","1","2025-07-09T08:51:17.071Z","","","","","","","","","","","StressQ","","50","","","","","","","","","","","","","","","","","","","","","","","","","","","","",""
"16476","","<div style=""width:500px;"">
  <p>What best describes how you currently feel?</p>
  </div>","63","html-slider-response","53","609344","0.0-5.0-4.8","14","1","2025-07-09 08:41:22","01610cd0009c79a99da7d0a3353eb402","83.104.232.21","Mozilla/5.0 (Macintosh; Intel Mac OS X 10_15_7) AppleWebKit/537.36 (KHTML, like Gecko) Chrome/137.0.0.0 Safari/537.36","Macintosh","Chrome","137.0.0.0","OS X","10_15_7","https://app.prolific.com/","en-GB,en-US;q=0.9,en;q=0.8","6658ba167affbe300577b93d","683db7602f5db6a34d12d064","686e2b21037431b6681cc469","1","6658ba167affbe300577b93d","1","2025-07-09T08:51:33.550Z","","","","","","","","","","","MotivationQ","","50","","","","","","","","","","","","","","","","","","","","","","","","","","","","",""
"","","","","ctl-task-cpt","54","655563","0.0-5.0-0.9","14","1","2025-07-09 08:41:22","01610cd0009c79a99da7d0a3353eb402","83.104.232.21","Mozilla/5.0 (Macintosh; Intel Mac OS X 10_15_7) AppleWebKit/537.36 (KHTML, like Gecko) Chrome/137.0.0.0 Safari/537.36","Macintosh","Chrome","137.0.0.0","OS X","10_15_7","https://app.prolific.com/","en-GB,en-US;q=0.9,en;q=0.8","6658ba167affbe300577b93d","683db7602f5db6a34d12d064","686e2b21037431b6681cc469","1","6658ba167affbe300577b93d","1","2025-07-09T08:52:19.769Z","","","","","","","","","","","","","","win-only","0","g1:NW,g2:SE","0.4","10","0","611046.5","1623.2","6639.3","43197.2","1","4","4","6","2","4","4","43","39","0.32575757575757575","1083.4","3000","1310","[""down"",""right""]","{""num_key_presses"":12,""num_perfect"":6,""num_errors"":0,""num_randdir"":6,""num_randdir_good_moves"":3,""num_whilered"":0,""num_whileblue"":0,""num_blue"":1,""num_good_moves"":9}","[704.2857142857143,704.0825892857143,0.3,704.2857142857143,704.0825892857143,115.2,704.2857142857143,704.0825892857143,228.6,704.2857142857143,704.0825892857143,334.3,704.2857142857143,704.0825892857143,446.8,742.2857142857143,756.0825892857143,554.7,1240.2857142857142,1244.0825892857142,658.6,1294.2857142857142,1280.0825892857142,766.5,1344.2857142857142,1306.0825892857142,869.5,1336.2857142857142,1298.0825892857142,985.4,1284.2857142857142,1262.0825892857142,1092.2,1284.2857142857142,1262.0825892857142,1199.2,1308.2857142857142,1274.0825892857142,1312,1638.2857142857142,1366.0825892857142,1412.1,1664.2857142857142,1368.0825892857142,1512.3,1696.2857142857142,1354.0825892857142,1613.1,1890.2857142857142,1182.0825892857142,1727.8,1986.2857142857142,1132.0825892857142,1838,1986.2857142857142,1130.0825892857142,1943.6,1986.2857142857142,1130.0825892857142,2054.7,1986.2857142857142,1130.0825892857142,2172.6,1986.2857142857142,1130.0825892857142,2283.6,1986.2857142857142,1130.0825892857142,2383.6,1986.2857142857142,1130.0825892857142,2487.7,1986.2857142857142,1130.0825892857142,2605,1986.2857142857142,1130.0825892857142,2715.1,1986.2857142857142,1130.0825892857142,2819.4,1986.2857142857142,1130.0825892857142,2920.8,1986.2857142857142,1130.0825892857142,3032.3,1986.2857142857142,1130.0825892857142,3132.4,1986.2857142857142,1130.0825892857142,3252.7,1986.2857142857142,1130.0825892857142,3358.5,1986.2857142857142,1130.0825892857142,3471.9,1986.2857142857142,1130.0825892857142,3574.5,1986.2857142857142,1130.0825892857142,3688.4,1986.2857142857142,1130.0825892857142,3799.2,1986.2857142857142,1130.0825892857142,3916.5,1986.2857142857142,1130.0825892857142,4025,1986.2857142857142,1130.0825892857142,4129.7,1986.2857142857142,1130.0825892857142,4232.6,1986.2857142857142,1130.0825892857142,4340.9,1986.2857142857142,1130.0825892857142,4453.8,1986.2857142857142,1130.0825892857142,4569.6,1986.2857142857142,1130.0825892857142,4675.4,1986.2857142857142,1130.0825892857142,4783.4,1986.2857142857142,1130.0825892857142,4885.4,1986.2857142857142,1130.0825892857142,4994.9]","[1596.3,1596.3,1000,0,596.3,""smooth"",""down"",""down"",""good_move"",4082.7,2485.7,2105.4,1597.1,380.3,""smooth"",""down"",""down"",""good_move"",6181.4,2097.1,1608.2,4084.3,488.9,""oops"",""down"",""down"",""good_move"",8965.1,2783.5,2294.4,6181.6,489.1,""smooth"",""right"",""right"",""good_move"",11771.7,2804.7,2440.9,8967,363.8,""oops"",""right"",""left"",""bad_move"",15012.9,3240.7,1704.7,11772.2,1536,""smooth"",""right"",""right"",""good_move"",21235.5,6222.1,2540.9,18273.1,421.5,""oops"",""right"",""right"",""good_move"",23839.7,2603.2,2153.5,21236.6,449.7,""oops"",""right"",""left"",""bad_move"",27281.1,3441.1,2693.2,23840,747.9,""oops"",""right"",""right"",""good_move"",30455.9,3174.3,2781.8,27281.6,392.5,""oops"",""right"",""up"",""bad_move"",33437,2980.7,1738.8,30456.3,1241.9,""smooth"",""right"",""right"",""good_move"",36259.8,2821.3,2363.5,33438.7,457.7,""smooth"",""down"",""down"",""good_move""]","",""
"2913","","<div style=""width:500px;"">
  <p>What determined the result of this run?</p>
  </div>","67","html-slider-response","55","658478","0.0-5.0-1.9","14","1","2025-07-09 08:41:22","01610cd0009c79a99da7d0a3353eb402","83.104.232.21","Mozilla/5.0 (Macintosh; Intel Mac OS X 10_15_7) AppleWebKit/537.36 (KHTML, like Gecko) Chrome/137.0.0.0 Safari/537.36","Macintosh","Chrome","137.0.0.0","OS X","10_15_7","https://app.prolific.com/","en-GB,en-US;q=0.9,en;q=0.8","6658ba167affbe300577b93d","683db7602f5db6a34d12d064","686e2b21037431b6681cc469","1","6658ba167affbe300577b93d","1","2025-07-09T08:52:22.684Z","","","","","","","","","","","AttribQ","","50","","","","","","","","","","","","","","","","","","","","","","","","","","","","",""
"1590","","<div style=""width:500px;"">
  <p>How much control did you have over the ball?</p>
  </div>","65","html-slider-response","56","660069","0.0-5.0-2.9","14","1","2025-07-09 08:41:22","01610cd0009c79a99da7d0a3353eb402","83.104.232.21","Mozilla/5.0 (Macintosh; Intel Mac OS X 10_15_7) AppleWebKit/537.36 (KHTML, like Gecko) Chrome/137.0.0.0 Safari/537.36","Macintosh","Chrome","137.0.0.0","OS X","10_15_7","https://app.prolific.com/","en-GB,en-US;q=0.9,en;q=0.8","6658ba167affbe300577b93d","683db7602f5db6a34d12d064","686e2b21037431b6681cc469","1","6658ba167affbe300577b93d","1","2025-07-09T08:52:24.276Z","","","","","","","","","","","ControlQ","","50","","","","","","","","","","","","","","","","","","","","","","","","","","","","",""
"2216","","<div style=""width:500px;"">
  <p>How would you describe your current emotional state?</p>
  </div>","47","html-slider-response","57","662286","0.0-5.0-3.9","14","1","2025-07-09 08:41:22","01610cd0009c79a99da7d0a3353eb402","83.104.232.21","Mozilla/5.0 (Macintosh; Intel Mac OS X 10_15_7) AppleWebKit/537.36 (KHTML, like Gecko) Chrome/137.0.0.0 Safari/537.36","Macintosh","Chrome","137.0.0.0","OS X","10_15_7","https://app.prolific.com/","en-GB,en-US;q=0.9,en;q=0.8","6658ba167affbe300577b93d","683db7602f5db6a34d12d064","686e2b21037431b6681cc469","1","6658ba167affbe300577b93d","1","2025-07-09T08:52:26.493Z","","","","","","","","","","","StressQ","","50","","","","","","","","","","","","","","","","","","","","","","","","","","","","",""
"2160","","<div style=""width:500px;"">
  <p>What best describes how you currently feel?</p>
  </div>","73","html-slider-response","58","664448","0.0-5.0-4.9","14","1","2025-07-09 08:41:22","01610cd0009c79a99da7d0a3353eb402","83.104.232.21","Mozilla/5.0 (Macintosh; Intel Mac OS X 10_15_7) AppleWebKit/537.36 (KHTML, like Gecko) Chrome/137.0.0.0 Safari/537.36","Macintosh","Chrome","137.0.0.0","OS X","10_15_7","https://app.prolific.com/","en-GB,en-US;q=0.9,en;q=0.8","6658ba167affbe300577b93d","683db7602f5db6a34d12d064","686e2b21037431b6681cc469","1","6658ba167affbe300577b93d","1","2025-07-09T08:52:28.655Z","","","","","","","","","","","MotivationQ","","50","","","","","","","","","","","","","","","","","","","","","","","","","","","","",""
"","","","","ctl-task-cpt","59","756090","0.0-5.0-0.10","14","1","2025-07-09 08:41:22","01610cd0009c79a99da7d0a3353eb402","83.104.232.21","Mozilla/5.0 (Macintosh; Intel Mac OS X 10_15_7) AppleWebKit/537.36 (KHTML, like Gecko) Chrome/137.0.0.0 Safari/537.36","Macintosh","Chrome","137.0.0.0","OS X","10_15_7","https://app.prolific.com/","en-GB,en-US;q=0.9,en;q=0.8","6658ba167affbe300577b93d","683db7602f5db6a34d12d064","686e2b21037431b6681cc469","1","6658ba167affbe300577b93d","1","2025-07-09T08:54:00.296Z","","","","","","","","","","","","","","win-only","1","g1:NE,g2:SW","0.5","11","0","666150.9","1308.7","6310.7","88610.5","1","4","4","6","2","4","4","47","43","0.3560606060606061","1113.5","3000","690","[""down"",""left""]","{""num_key_presses"":18,""num_perfect"":9,""num_errors"":0,""num_randdir"":9,""num_randdir_good_moves"":3,""num_whilered"":0,""num_whileblue"":0,""num_blue"":8,""num_good_moves"":12}","[692.2857142857143,692.0825892857143,0.5,692.2857142857143,692.0825892857143,104.5,692.2857142857143,692.0825892857143,207,692.2857142857143,692.0825892857143,311.2,692.2857142857143,692.0825892857143,419.3,692.2857142857143,692.0825892857143,528.2,692.2857142857143,692.0825892857143,636.3,468.2857142857143,910.0825892857143,740.2,218.28571428571428,1134.0825892857142,871.3,152.28571428571428,1194.0825892857142,974.2,108.28571428571429,1234.0825892857142,1082.6,108.28571428571429,1234.0825892857142,1195.9,108.28571428571429,1234.0825892857142,1308.4,108.28571428571429,1234.0825892857142,1419.1,108.28571428571429,1234.0825892857142,1537.9,108.28571428571429,1234.0825892857142,1643.2,108.28571428571429,1234.0825892857142,1758.2,108.28571428571429,1234.0825892857142,1869.2,108.28571428571429,1234.0825892857142,1976,108.28571428571429,1234.0825892857142,2077.5,108.28571428571429,1234.0825892857142,2192.3,108.28571428571429,1234.0825892857142,2301.4,108.28571428571429,1234.0825892857142,2402.6,108.28571428571429,1234.0825892857142,2521.7,108.28571428571429,1234.0825892857142,2624.9,108.28571428571429,1234.0825892857142,2729.6,108.28571428571429,1234.0825892857142,2842.4,108.28571428571429,1234.0825892857142,2953.8,108.28571428571429,1234.0825892857142,3062.6,108.28571428571429,1234.0825892857142,3171.7,108.28571428571429,1234.0825892857142,3272.5,108.28571428571429,1234.0825892857142,3389.6,108.28571428571429,1234.0825892857142,3505.7,108.28571428571429,1234.0825892857142,3612.7,108.28571428571429,1234.0825892857142,3722.3,108.28571428571429,1234.0825892857142,3823.6,108.28571428571429,1234.0825892857142,3931.2,108.28571428571429,1234.0825892857142,4043.8,108.28571428571429,1234.0825892857142,4144.5,108.28571428571429,1234.0825892857142,4252,108.28571428571429,1234.0825892857142,4361.1,108.28571428571429,1234.0825892857142,4471.5,108.28571428571429,1234.0825892857142,4580.6,108.28571428571429,1234.0825892857142,4685,108.28571428571429,1234.0825892857142,4796.1,108.28571428571429,1234.0825892857142,4901.5]","[4189.7,4189.7,1738.2,2027.5,424,""smooth"",""down"",""down"",""good_move"",6502.7,2309.6,1809.8,4193.1,499.8,""smooth"",""down"",""down"",""good_move"",9403.3,2899.2,2451.2,6504.3,447.8,""smooth"",""down"",""down"",""good_move"",13223.9,3818.8,3362.7,9405.1,456.1,""oops"",""left"",""right"",""bad_move"",16238.8,3013.7,2424.9,13225.1,588.8,""oops"",""left"",""left"",""good_move"",19394.8,3152.9,1785.3,16241.9,1367.6,""oops"",""left"",""up"",""bad_move"",22743.7,3344.1,2611.4,19399.6,732.7,""smooth"",""left"",""left"",""good_move"",25891.7,3146.8,2682.9,22744.9,463.9,""oops"",""left"",""up"",""bad_move"",32872.2,6979.8,2668.5,29776,427.7,""oops"",""left"",""right"",""bad_move"",35561.2,2688.4,2185.9,32872.8,502.5,""smooth"",""down"",""down"",""good_move"",42093.9,6531.3,2348.9,39272.3,472.7,""smooth"",""down"",""down"",""good_move"",45557.8,3463.7,3005.4,42094.1,458.3,""smooth"",""left"",""left"",""good_move"",49057.6,3499.4,2314.1,45558.2,1185.3,""oops"",""left"",""right"",""bad_move"",52165.6,3107.7,2360.8,49057.9,746.9,""oops"",""left"",""left"",""good_move"",55520.5,3353.9,2393.6,52166.6,960.3,""oops"",""left"",""right"",""bad_move"",62168.1,6643.1,2702.1,59058.8,407.2,""smooth"",""left"",""left"",""good_move"",68428.7,6260.4,1974.4,66056.9,397.4,""oops"",""left"",""left"",""good_move"",81993.8,13565,2268.4,79265.9,459.5,""smooth"",""left"",""left"",""good_move""]","",""
"2147","","<div style=""width:500px;"">
  <p>What determined the result of this run?</p>
  </div>","74","html-slider-response","60","758239","0.0-5.0-1.10","14","1","2025-07-09 08:41:22","01610cd0009c79a99da7d0a3353eb402","83.104.232.21","Mozilla/5.0 (Macintosh; Intel Mac OS X 10_15_7) AppleWebKit/537.36 (KHTML, like Gecko) Chrome/137.0.0.0 Safari/537.36","Macintosh","Chrome","137.0.0.0","OS X","10_15_7","https://app.prolific.com/","en-GB,en-US;q=0.9,en;q=0.8","6658ba167affbe300577b93d","683db7602f5db6a34d12d064","686e2b21037431b6681cc469","1","6658ba167affbe300577b93d","1","2025-07-09T08:54:02.445Z","","","","","","","","","","","AttribQ","","50","","","","","","","","","","","","","","","","","","","","","","","","","","","","",""
"2015","","<div style=""width:500px;"">
  <p>How much control did you have over the ball?</p>
  </div>","69","html-slider-response","61","760255","0.0-5.0-2.10","14","1","2025-07-09 08:41:22","01610cd0009c79a99da7d0a3353eb402","83.104.232.21","Mozilla/5.0 (Macintosh; Intel Mac OS X 10_15_7) AppleWebKit/537.36 (KHTML, like Gecko) Chrome/137.0.0.0 Safari/537.36","Macintosh","Chrome","137.0.0.0","OS X","10_15_7","https://app.prolific.com/","en-GB,en-US;q=0.9,en;q=0.8","6658ba167affbe300577b93d","683db7602f5db6a34d12d064","686e2b21037431b6681cc469","1","6658ba167affbe300577b93d","1","2025-07-09T08:54:04.461Z","","","","","","","","","","","ControlQ","","50","","","","","","","","","","","","","","","","","","","","","","","","","","","","",""
"1834","","<div style=""width:500px;"">
  <p>How would you describe your current emotional state?</p>
  </div>","45","html-slider-response","62","762091","0.0-5.0-3.10","14","1","2025-07-09 08:41:22","01610cd0009c79a99da7d0a3353eb402","83.104.232.21","Mozilla/5.0 (Macintosh; Intel Mac OS X 10_15_7) AppleWebKit/537.36 (KHTML, like Gecko) Chrome/137.0.0.0 Safari/537.36","Macintosh","Chrome","137.0.0.0","OS X","10_15_7","https://app.prolific.com/","en-GB,en-US;q=0.9,en;q=0.8","6658ba167affbe300577b93d","683db7602f5db6a34d12d064","686e2b21037431b6681cc469","1","6658ba167affbe300577b93d","1","2025-07-09T08:54:06.297Z","","","","","","","","","","","StressQ","","50","","","","","","","","","","","","","","","","","","","","","","","","","","","","",""
"1516","","<div style=""width:500px;"">
  <p>What best describes how you currently feel?</p>
  </div>","69","html-slider-response","63","763609","0.0-5.0-4.10","14","1","2025-07-09 08:41:22","01610cd0009c79a99da7d0a3353eb402","83.104.232.21","Mozilla/5.0 (Macintosh; Intel Mac OS X 10_15_7) AppleWebKit/537.36 (KHTML, like Gecko) Chrome/137.0.0.0 Safari/537.36","Macintosh","Chrome","137.0.0.0","OS X","10_15_7","https://app.prolific.com/","en-GB,en-US;q=0.9,en;q=0.8","6658ba167affbe300577b93d","683db7602f5db6a34d12d064","686e2b21037431b6681cc469","1","6658ba167affbe300577b93d","1","2025-07-09T08:54:07.816Z","","","","","","","","","","","MotivationQ","","50","","","","","","","","","","","","","","","","","","","","","","","","","","","","",""
"","","","","ctl-task-cpt","64","810817","0.0-5.0-0.11","14","1","2025-07-09 08:41:22","01610cd0009c79a99da7d0a3353eb402","83.104.232.21","Mozilla/5.0 (Macintosh; Intel Mac OS X 10_15_7) AppleWebKit/537.36 (KHTML, like Gecko) Chrome/137.0.0.0 Safari/537.36","Macintosh","Chrome","137.0.0.0","OS X","10_15_7","https://app.prolific.com/","en-GB,en-US;q=0.9,en;q=0.8","6658ba167affbe300577b93d","683db7602f5db6a34d12d064","686e2b21037431b6681cc469","1","6658ba167affbe300577b93d","1","2025-07-09T08:54:55.023Z","","","","","","","","","","","","","","win-only","2","g1:SE,g2:NW","0.6","12","0","765310.8","1429.9","6448","44170.8","1","4","8","6","2","8","8","55","47","0.4166666666666667","1321.2","3000","1930","[""left"",""up""]","{""num_key_presses"":8,""num_perfect"":5,""num_errors"":0,""num_randdir"":3,""num_randdir_good_moves"":2,""num_whilered"":0,""num_whileblue"":0,""num_blue"":3,""num_good_moves"":7}","[700.2857142857143,698.0825892857143,1.1,700.2857142857143,698.0825892857143,111.7,700.2857142857143,698.0825892857143,222.3,700.2857142857143,698.0825892857143,337.4,700.2857142857143,698.0825892857143,438.3,700.2857142857143,698.0825892857143,555.7,988.2857142857143,1064.0825892857142,664.2,694.2857142857143,454.0825892857143,785.1,516.2857142857143,264.0825892857143,888.3,402.2857142857143,238.08258928571428,993.2,192.28571428571428,192.08258928571428,1108.6,146.28571428571428,166.08258928571428,1212.2,146.28571428571428,166.08258928571428,1336.7,144.28571428571428,164.08258928571428,1442.7,144.28571428571428,166.08258928571428,1546.1,144.28571428571428,166.08258928571428,1660.1,144.28571428571428,166.08258928571428,1768.7,144.28571428571428,166.08258928571428,1894.3,144.28571428571428,166.08258928571428,1998.7,144.28571428571428,166.08258928571428,2111.4,144.28571428571428,166.08258928571428,2225.2,144.28571428571428,166.08258928571428,2336.7,144.28571428571428,166.08258928571428,2440.4,144.28571428571428,166.08258928571428,2545.7,144.28571428571428,166.08258928571428,2651.6,144.28571428571428,166.08258928571428,2753.5,144.28571428571428,166.08258928571428,2860.4,144.28571428571428,166.08258928571428,2963.2,144.28571428571428,166.08258928571428,3078.9,144.28571428571428,166.08258928571428,3180.3,144.28571428571428,166.08258928571428,3284.8,144.28571428571428,166.08258928571428,3395.7,144.28571428571428,166.08258928571428,3515.4,144.28571428571428,166.08258928571428,3632.5,144.28571428571428,166.08258928571428,3741.7,144.28571428571428,166.08258928571428,3853.5,144.28571428571428,166.08258928571428,3955.9,144.28571428571428,166.08258928571428,4069.8,144.28571428571428,166.08258928571428,4186.1,144.28571428571428,166.08258928571428,4293.5,144.28571428571428,166.08258928571428,4397.7,144.28571428571428,166.08258928571428,4514.4,144.28571428571428,166.08258928571428,4631,144.28571428571428,166.08258928571428,4734.5,144.28571428571428,166.08258928571428,4843,144.28571428571428,166.08258928571428,4949.2]","[1630.7,1630.7,1000,0,630.7,""smooth"",""up"",""up"",""good_move"",12303.1,10667.5,2714.2,9194.2,394.7,""oops"",""left"",""down"",""bad_move"",15994.3,3690.9,2855.7,12303.4,835.2,""smooth"",""left"",""left"",""good_move"",19789.8,3795.1,1735.3,15994.7,2059.8,""oops"",""left"",""up"",""good_move"",23524.8,3733.8,2117.6,19791,1616.2,""smooth"",""left"",""left"",""good_move"",26960.1,3434.9,2027.3,23525.2,1407.6,""oops"",""left"",""up"",""good_move"",30393.2,3431.7,1994,26961.5,1437.7,""smooth"",""left"",""left"",""good_move"",37380.3,6985.5,2566.8,34418.9,394.6,""smooth"",""up"",""up"",""good_move""]","",""
"3198","","<div style=""width:500px;"">
  <p>What determined the result of this run?</p>
  </div>","78","html-slider-response","65","814016","0.0-5.0-1.11","14","1","2025-07-09 08:41:22","01610cd0009c79a99da7d0a3353eb402","83.104.232.21","Mozilla/5.0 (Macintosh; Intel Mac OS X 10_15_7) AppleWebKit/537.36 (KHTML, like Gecko) Chrome/137.0.0.0 Safari/537.36","Macintosh","Chrome","137.0.0.0","OS X","10_15_7","https://app.prolific.com/","en-GB,en-US;q=0.9,en;q=0.8","6658ba167affbe300577b93d","683db7602f5db6a34d12d064","686e2b21037431b6681cc469","1","6658ba167affbe300577b93d","1","2025-07-09T08:54:58.222Z","","","","","","","","","","","AttribQ","","50","","","","","","","","","","","","","","","","","","","","","","","","","","","","",""
"1565","","<div style=""width:500px;"">
  <p>How much control did you have over the ball?</p>
  </div>","69","html-slider-response","66","815583","0.0-5.0-2.11","14","1","2025-07-09 08:41:22","01610cd0009c79a99da7d0a3353eb402","83.104.232.21","Mozilla/5.0 (Macintosh; Intel Mac OS X 10_15_7) AppleWebKit/537.36 (KHTML, like Gecko) Chrome/137.0.0.0 Safari/537.36","Macintosh","Chrome","137.0.0.0","OS X","10_15_7","https://app.prolific.com/","en-GB,en-US;q=0.9,en;q=0.8","6658ba167affbe300577b93d","683db7602f5db6a34d12d064","686e2b21037431b6681cc469","1","6658ba167affbe300577b93d","1","2025-07-09T08:54:59.789Z","","","","","","","","","","","ControlQ","","50","","","","","","","","","","","","","","","","","","","","","","","","","","","","",""
"8638","","<div style=""width:500px;"">
  <p>How would you describe your current emotional state?</p>
  </div>","45","html-slider-response","67","824224","0.0-5.0-3.11","14","1","2025-07-09 08:41:22","01610cd0009c79a99da7d0a3353eb402","83.104.232.21","Mozilla/5.0 (Macintosh; Intel Mac OS X 10_15_7) AppleWebKit/537.36 (KHTML, like Gecko) Chrome/137.0.0.0 Safari/537.36","Macintosh","Chrome","137.0.0.0","OS X","10_15_7","https://app.prolific.com/","en-GB,en-US;q=0.9,en;q=0.8","6658ba167affbe300577b93d","683db7602f5db6a34d12d064","686e2b21037431b6681cc469","1","6658ba167affbe300577b93d","1","2025-07-09T08:55:08.431Z","","","","","","","","","","","StressQ","","50","","","","","","","","","","","","","","","","","","","","","","","","","","","","",""
"2029","","<div style=""width:500px;"">
  <p>What best describes how you currently feel?</p>
  </div>","67","html-slider-response","68","826256","0.0-5.0-4.11","14","1","2025-07-09 08:41:22","01610cd0009c79a99da7d0a3353eb402","83.104.232.21","Mozilla/5.0 (Macintosh; Intel Mac OS X 10_15_7) AppleWebKit/537.36 (KHTML, like Gecko) Chrome/137.0.0.0 Safari/537.36","Macintosh","Chrome","137.0.0.0","OS X","10_15_7","https://app.prolific.com/","en-GB,en-US;q=0.9,en;q=0.8","6658ba167affbe300577b93d","683db7602f5db6a34d12d064","686e2b21037431b6681cc469","1","6658ba167affbe300577b93d","1","2025-07-09T08:55:10.462Z","","","","","","","","","","","MotivationQ","","50","","","","","","","","","","","","","","","","","","","","","","","","","","","","",""
"","","","","ctl-task-cpt","69","872551","0.0-5.0-0.12","14","1","2025-07-09 08:41:22","01610cd0009c79a99da7d0a3353eb402","83.104.232.21","Mozilla/5.0 (Macintosh; Intel Mac OS X 10_15_7) AppleWebKit/537.36 (KHTML, like Gecko) Chrome/137.0.0.0 Safari/537.36","Macintosh","Chrome","137.0.0.0","OS X","10_15_7","https://app.prolific.com/","en-GB,en-US;q=0.9,en;q=0.8","6658ba167affbe300577b93d","683db7602f5db6a34d12d064","686e2b21037431b6681cc469","1","6658ba167affbe300577b93d","1","2025-07-09T08:55:56.757Z","","","","","","","","","","","","","","win-only","0","g1:NW,g2:SE","0.7","13","0","827952.5","1564.4","6578.9","43258.9","1","4","8","6","2","8","8","63","55","0.4772727272727273","1012.8","3000","1945","[""down"",""right""]","{""num_key_presses"":10,""num_perfect"":7,""num_errors"":0,""num_randdir"":3,""num_randdir_good_moves"":1,""num_whilered"":0,""num_whileblue"":0,""num_blue"":2,""num_good_moves"":8}","[696.2857142857143,692.0825892857143,1.7,696.2857142857143,692.0825892857143,103.7,696.2857142857143,692.0825892857143,220.6,696.2857142857143,692.0825892857143,324.9,696.2857142857143,692.0825892857143,432,696.2857142857143,692.0825892857143,535.2,994.2857142857143,944.0825892857143,643,1198.2857142857142,1212.0825892857142,747.8,1196.2857142857142,1216.0825892857142,854,1214.2857142857142,1224.0825892857142,954.5,1226.2857142857142,1226.0825892857142,1072.8,1226.2857142857142,1226.0825892857142,1185.8,1226.2857142857142,1226.0825892857142,1290.8,1226.2857142857142,1226.0825892857142,1406.5,1226.2857142857142,1226.0825892857142,1506.9,1226.2857142857142,1226.0825892857142,1620.2,1226.2857142857142,1226.0825892857142,1740.2,1226.2857142857142,1226.0825892857142,1853.4,1226.2857142857142,1226.0825892857142,1965.3,1226.2857142857142,1226.0825892857142,2069.3,1226.2857142857142,1226.0825892857142,2184,1226.2857142857142,1226.0825892857142,2296.3,1226.2857142857142,1226.0825892857142,2410.3,1226.2857142857142,1226.0825892857142,2523,1226.2857142857142,1226.0825892857142,2626.5,1226.2857142857142,1226.0825892857142,2743.7,1226.2857142857142,1226.0825892857142,2849,1226.2857142857142,1226.0825892857142,2956.7,1226.2857142857142,1226.0825892857142,3083.4,1226.2857142857142,1226.0825892857142,3185.8,1226.2857142857142,1226.0825892857142,3299.6,1226.2857142857142,1226.0825892857142,3409.2,1226.2857142857142,1226.0825892857142,3523.4,1226.2857142857142,1226.0825892857142,3635.3,1226.2857142857142,1226.0825892857142,3742,1226.2857142857142,1226.0825892857142,3846.8,1226.2857142857142,1226.0825892857142,3958.3,1226.2857142857142,1226.0825892857142,4062.8,1226.2857142857142,1226.0825892857142,4179.5,1226.2857142857142,1226.0825892857142,4280.5,1226.2857142857142,1226.0825892857142,4387.8,1226.2857142857142,1226.0825892857142,4492.5,1226.2857142857142,1226.0825892857142,4612.7,1226.2857142857142,1226.0825892857142,4713.7,1226.2857142857142,1226.0825892857142,4834.3,1226.2857142857142,1226.0825892857142,4948.8]","[1434.6,1434.6,1000,0,434.6,""smooth"",""right"",""right"",""good_move"",4012.5,2577.1,2028.1,1435.4,549,""smooth"",""down"",""down"",""good_move"",7566.9,3550.8,3061.5,4016.1,489.3,""smooth"",""down"",""down"",""good_move"",11074.4,3506.9,3079.6,7568,426.8,""smooth"",""down"",""down"",""good_move"",19951.2,8876.5,1786.2,17693.7,471.3,""smooth"",""right"",""right"",""good_move"",23012.1,3060.4,2625.4,19951.9,434.9,""oops"",""right"",""up"",""bad_move"",26751,3738.3,2363.5,23012.7,1374.8,""oops"",""down"",""left"",""bad_move"",30477.2,3724.6,2787.6,26752.6,937,""oops"",""right"",""down"",""good_move"",33402.7,2923.8,2417.9,30478.9,505.9,""smooth"",""right"",""right"",""good_move"",36253.2,2847.3,2456.8,33405.9,390.5,""smooth"",""right"",""right"",""good_move""]","",""
"1733","","<div style=""width:500px;"">
  <p>What determined the result of this run?</p>
  </div>","71","html-slider-response","70","874286","0.0-5.0-1.12","14","1","2025-07-09 08:41:22","01610cd0009c79a99da7d0a3353eb402","83.104.232.21","Mozilla/5.0 (Macintosh; Intel Mac OS X 10_15_7) AppleWebKit/537.36 (KHTML, like Gecko) Chrome/137.0.0.0 Safari/537.36","Macintosh","Chrome","137.0.0.0","OS X","10_15_7","https://app.prolific.com/","en-GB,en-US;q=0.9,en;q=0.8","6658ba167affbe300577b93d","683db7602f5db6a34d12d064","686e2b21037431b6681cc469","1","6658ba167affbe300577b93d","1","2025-07-09T08:55:58.492Z","","","","","","","","","","","AttribQ","","50","","","","","","","","","","","","","","","","","","","","","","","","","","","","",""
"2112","","<div style=""width:500px;"">
  <p>How much control did you have over the ball?</p>
  </div>","69","html-slider-response","71","876400","0.0-5.0-2.12","14","1","2025-07-09 08:41:22","01610cd0009c79a99da7d0a3353eb402","83.104.232.21","Mozilla/5.0 (Macintosh; Intel Mac OS X 10_15_7) AppleWebKit/537.36 (KHTML, like Gecko) Chrome/137.0.0.0 Safari/537.36","Macintosh","Chrome","137.0.0.0","OS X","10_15_7","https://app.prolific.com/","en-GB,en-US;q=0.9,en;q=0.8","6658ba167affbe300577b93d","683db7602f5db6a34d12d064","686e2b21037431b6681cc469","1","6658ba167affbe300577b93d","1","2025-07-09T08:56:00.606Z","","","","","","","","","","","ControlQ","","50","","","","","","","","","","","","","","","","","","","","","","","","","","","","",""
"2360","","<div style=""width:500px;"">
  <p>How would you describe your current emotional state?</p>
  </div>","43","html-slider-response","72","878761","0.0-5.0-3.12","14","1","2025-07-09 08:41:22","01610cd0009c79a99da7d0a3353eb402","83.104.232.21","Mozilla/5.0 (Macintosh; Intel Mac OS X 10_15_7) AppleWebKit/537.36 (KHTML, like Gecko) Chrome/137.0.0.0 Safari/537.36","Macintosh","Chrome","137.0.0.0","OS X","10_15_7","https://app.prolific.com/","en-GB,en-US;q=0.9,en;q=0.8","6658ba167affbe300577b93d","683db7602f5db6a34d12d064","686e2b21037431b6681cc469","1","6658ba167affbe300577b93d","1","2025-07-09T08:56:02.967Z","","","","","","","","","","","StressQ","","50","","","","","","","","","","","","","","","","","","","","","","","","","","","","",""
"1248","","<div style=""width:500px;"">
  <p>What best describes how you currently feel?</p>
  </div>","76","html-slider-response","73","880010","0.0-5.0-4.12","14","1","2025-07-09 08:41:22","01610cd0009c79a99da7d0a3353eb402","83.104.232.21","Mozilla/5.0 (Macintosh; Intel Mac OS X 10_15_7) AppleWebKit/537.36 (KHTML, like Gecko) Chrome/137.0.0.0 Safari/537.36","Macintosh","Chrome","137.0.0.0","OS X","10_15_7","https://app.prolific.com/","en-GB,en-US;q=0.9,en;q=0.8","6658ba167affbe300577b93d","683db7602f5db6a34d12d064","686e2b21037431b6681cc469","1","6658ba167affbe300577b93d","1","2025-07-09T08:56:04.216Z","","","","","","","","","","","MotivationQ","","50","","","","","","","","","","","","","","","","","","","","","","","","","","","","",""
