"rt","response_timestamp","stimulus","response","trial_type","trial_index","time_elapsed","internal_node_id","run_id","condition","recorded_at","source_code_version","ip","user_agent","device","browser","browser_version","platform","platform_version","referer","accept_language","PROLIFIC_PID","STUDY_ID","SESSION_ID","WEEK","BATCH","prolific_id","week","batch","realtime","success","responses","item_order","radio_event_ids","radio_event_times","key_event_times","mouse_event_times","straightlining","zigzagging","honeypot","eventType","view_history","slider_start","which_type","canvas_config","goals_layout","control_level","trial_number","tutorial_trial_number","trial_start_time","phase1_start_time","phase2_start_time","phase3_start_time","goal_1_value","goal_1_distance","goal_2_value","goal_2_distance","goal_selected","outcome","outcome_total","participant_final_score","participant_initial_score","participant_final_score_prop","goal_choice_rt","allocated_time","allocated_time_remaining","goal_direction","counts","mouse_movements","key_presses","question_order","question_id"
"3956","1753256169351","<p style='font-size:40px;line-height:1.25'><strong>Welcome to the experiment!</strong></p><p style='font-size:1.1em;line-height:1.25'>Thank you for participanting in our experiment again! You will be asked to play the Dysfunctional Ball Game again. We will briefly recap the rules before we start.</p><p style='font-size:1.1em;line-height:1.25'>Press <strong>Next</strong> to continue.</p>","0","custom-html-button-response","0","3968","0.0-0.0","180","1","2025-07-23 07:35:53","1f75c3e559b7213887762d5229550c2b","41.13.16.20","Mozilla/5.0 (Windows NT 10.0; Win64; x64) AppleWebKit/537.36 (KHTML, like Gecko) Chrome/138.0.0.0 Safari/537.36","WebKit","Chrome","138.0.0.0","Windows","10.0","https://app.prolific.com/","en-ZA,en-GB;q=0.9,en-US;q=0.8,en;q=0.7,zu;q=0.6","5f3287b83428cb05746e2214","683dba2a8a9dda3513610c04","688090bad379e39d5f5f58e8","3","0","5f3287b83428cb05746e2214","3","0","2025-07-23T07:36:09.356Z","","","","","","","","","","","","","","","","","","","","","","","","","","","","","","","","","","","","","","","","","",""
"5060","","","","fullscreen","1","10057","0.0-1.0","180","1","2025-07-23 07:35:53","1f75c3e559b7213887762d5229550c2b","41.13.16.20","Mozilla/5.0 (Windows NT 10.0; Win64; x64) AppleWebKit/537.36 (KHTML, like Gecko) Chrome/138.0.0.0 Safari/537.36","WebKit","Chrome","138.0.0.0","Windows","10.0","https://app.prolific.com/","en-ZA,en-GB;q=0.9,en-US;q=0.8,en;q=0.7,zu;q=0.6","5f3287b83428cb05746e2214","683dba2a8a9dda3513610c04","688090bad379e39d5f5f58e8","3","0","5f3287b83428cb05746e2214","3","0","","true","","","","","","","","","","","","","","","","","","","","","","","","","","","","","","","","","","","","","","","","",""
"4954","1753256180400","<p style='font-size:1.1em;line-height:1.25'>In the following, we will ask you a few questions relating to your feelings in the last 24 hours.<br></p><p style='font-size:1.1em;line-height:1.25'>Press the <strong>Next</strong> button to continue.</p>","0","custom-html-button-response","2","15014","0.0-2.0-0.0","180","1","2025-07-23 07:35:53","1f75c3e559b7213887762d5229550c2b","41.13.16.20","Mozilla/5.0 (Windows NT 10.0; Win64; x64) AppleWebKit/537.36 (KHTML, like Gecko) Chrome/138.0.0.0 Safari/537.36","WebKit","Chrome","138.0.0.0","Windows","10.0","https://app.prolific.com/","en-ZA,en-GB;q=0.9,en-US;q=0.8,en;q=0.7,zu;q=0.6","5f3287b83428cb05746e2214","683dba2a8a9dda3513610c04","688090bad379e39d5f5f58e8","3","0","5f3287b83428cb05746e2214","3","0","2025-07-23T07:36:20.402Z","","","","","","","","","","","","","","","","","","","","","","","","","","","","","","","","","","","","","","","","","",""
"70734.39999999851","","","","survey-template","3","85768","0.0-2.0-1.0","180","1","2025-07-23 07:35:53","1f75c3e559b7213887762d5229550c2b","41.13.16.20","Mozilla/5.0 (Windows NT 10.0; Win64; x64) AppleWebKit/537.36 (KHTML, like Gecko) Chrome/138.0.0.0 Safari/537.36","WebKit","Chrome","138.0.0.0","Windows","10.0","https://app.prolific.com/","en-ZA,en-GB;q=0.9,en-US;q=0.8,en;q=0.7,zu;q=0.6","5f3287b83428cb05746e2214","683dba2a8a9dda3513610c04","688090bad379e39d5f5f58e8","3","0","5f3287b83428cb05746e2214","3","0","2025-07-23T07:37:31.156Z","","{""Q01"":""0"",""Q02"":""0"",""Q03"":""0"",""Q04"":""0"",""Q05"":""0"",""Q06"":""0"",""Q07"":""0"",""Q08"":""0"",""Q09"":""0"",""Q10"":""0"",""Q11"":""1"",""Q12"":""0"",""Q13"":""5"",""Q14"":""0"",""Q15"":""0"",""Q16"":""0"",""Q17"":""0"",""Q18"":""0"",""Q19"":""1"",""Q20"":""0"",""Q21"":""0"",""Q22"":""0""}","[0,1,2,3,4,5,6,7,8,9,10,11,12,13,14,15,16,17,18,19,20,21]","[""Q01"",""Q02"",""Q03"",""Q04"",""Q05"",""Q06"",""Q07"",""Q08"",""Q09"",""Q10"",""Q11"",""Q12"",""Q13"",""Q14"",""Q15"",""Q16"",""Q17"",""Q18"",""Q19"",""Q20"",""Q21"",""Q22""]","[2237.0999999940395,3414.1999999955297,4619.0999999940395,5921.79999999702,6968,8228.09999999404,9636.69999999553,10784.29999999702,15763.89999999851,16891.89999999851,19004.89999999851,20693.19999999553,23268.79999999702,30523.29999999702,31642.5,32917.89999999851,38106.5,39243.69999999553,43499.19999999553,46034.5,51001.79999999702,52641.5]","[]","[1,2237.0999999940395,3414.1999999955297,4619.0999999940395,5921.79999999702,6968,8228.09999999404,9636.69999999553,10784.29999999702,15763.89999999851,16891.89999999851,19004.89999999851,20693.19999999553,23268.79999999702,30523.29999999702,31642.5,32917.89999999851,38106.5,39243.69999999553,43499.19999999553,46034.5,51001.79999999702,52641.5,70716]","0.8636363636363636","0.2857142857142857","0","drsp","","","","","","","","","","","","","","","","","","","","","","","","","","","","","","",""
"14627.19999999553","","","","survey-template","4","100405","0.0-2.0-2.0","180","1","2025-07-23 07:35:53","1f75c3e559b7213887762d5229550c2b","41.13.16.20","Mozilla/5.0 (Windows NT 10.0; Win64; x64) AppleWebKit/537.36 (KHTML, like Gecko) Chrome/138.0.0.0 Safari/537.36","WebKit","Chrome","138.0.0.0","Windows","10.0","https://app.prolific.com/","en-ZA,en-GB;q=0.9,en-US;q=0.8,en;q=0.7,zu;q=0.6","5f3287b83428cb05746e2214","683dba2a8a9dda3513610c04","688090bad379e39d5f5f58e8","3","0","5f3287b83428cb05746e2214","3","0","2025-07-23T07:37:45.792Z","","{""Q01"":""2"",""Q02"":""4"",""Q03"":""0""}","[0,1,2]","[""Q01"",""Q02"",""Q03""]","[4017.7999999970198,9919.10000000149,12812]","[]","[4017.7999999970198,5704.89999999851,9919.10000000149,12812,14625]","0.3333333333333333","1","0","stress","","","","","","","","","","","","","","","","","","","","","","","","","","","","","","",""
"7455","","","","instructions","5","107865","0.0-3.0-0.0","180","1","2025-07-23 07:35:53","1f75c3e559b7213887762d5229550c2b","41.13.16.20","Mozilla/5.0 (Windows NT 10.0; Win64; x64) AppleWebKit/537.36 (KHTML, like Gecko) Chrome/138.0.0.0 Safari/537.36","WebKit","Chrome","138.0.0.0","Windows","10.0","https://app.prolific.com/","en-ZA,en-GB;q=0.9,en-US;q=0.8,en;q=0.7,zu;q=0.6","5f3287b83428cb05746e2214","683dba2a8a9dda3513610c04","688090bad379e39d5f5f58e8","3","0","5f3287b83428cb05746e2214","3","0","","","","","","","","","","","","","[{""page_index"":0,""viewing_time"":7454}]","","","","","","","","","","","","","","","","","","","","","","","","","","","","","",""
"6325","","<p>Before you start with this game please answer the following three questions yourself. </p>
  <p>Through this game, we measure several aspects of your cognitive performance, such as reaction times, multi-tasking capabilities </p>
  <p>and the ability to assess the situation you are in.</p>
  <p></p>
  <p><b>How good do you usually are in such tasks?</b></p>","100","html-slider-response","6","114392","0.0-4.0-0.0","180","1","2025-07-23 07:35:53","1f75c3e559b7213887762d5229550c2b","41.13.16.20","Mozilla/5.0 (Windows NT 10.0; Win64; x64) AppleWebKit/537.36 (KHTML, like Gecko) Chrome/138.0.0.0 Safari/537.36","WebKit","Chrome","138.0.0.0","Windows","10.0","https://app.prolific.com/","en-ZA,en-GB;q=0.9,en-US;q=0.8,en;q=0.7,zu;q=0.6","5f3287b83428cb05746e2214","683dba2a8a9dda3513610c04","688090bad379e39d5f5f58e8","3","0","5f3287b83428cb05746e2214","3","0","2025-07-23T07:37:59.779Z","","","","","","","","","","","PreSkillQ","","50","","","","","","","","","","","","","","","","","","","","","","","","","","","","",""
"6761","","<div style=""width:500px;"">
  <p>How well do you think you will perform in this task compared to other participants?</p>
  </div>","100","html-slider-response","7","121160","0.0-4.0-1.0","180","1","2025-07-23 07:35:53","1f75c3e559b7213887762d5229550c2b","41.13.16.20","Mozilla/5.0 (Windows NT 10.0; Win64; x64) AppleWebKit/537.36 (KHTML, like Gecko) Chrome/138.0.0.0 Safari/537.36","WebKit","Chrome","138.0.0.0","Windows","10.0","https://app.prolific.com/","en-ZA,en-GB;q=0.9,en-US;q=0.8,en;q=0.7,zu;q=0.6","5f3287b83428cb05746e2214","683dba2a8a9dda3513610c04","688090bad379e39d5f5f58e8","3","0","5f3287b83428cb05746e2214","3","0","2025-07-23T07:38:06.547Z","","","","","","","","","","","PrePerfQ","","50","","","","","","","","","","","","","","","","","","","","","","","","","","","","",""
"3948","","<div style=""width:500px;"">
  <p>What best describes how you currently feel?</p>
  </div>","100","html-slider-response","8","125114","0.0-4.0-2.0","180","1","2025-07-23 07:35:53","1f75c3e559b7213887762d5229550c2b","41.13.16.20","Mozilla/5.0 (Windows NT 10.0; Win64; x64) AppleWebKit/537.36 (KHTML, like Gecko) Chrome/138.0.0.0 Safari/537.36","WebKit","Chrome","138.0.0.0","Windows","10.0","https://app.prolific.com/","en-ZA,en-GB;q=0.9,en-US;q=0.8,en;q=0.7,zu;q=0.6","5f3287b83428cb05746e2214","683dba2a8a9dda3513610c04","688090bad379e39d5f5f58e8","3","0","5f3287b83428cb05746e2214","3","0","2025-07-23T07:38:10.501Z","","","","","","","","","","","PreMotivationQ","","50","","","","","","","","","","","","","","","","","","","","","","","","","","","","",""
"","","","","ctl-task-cpt","9","155978","0.0-5.0-0.0","180","1","2025-07-23 07:35:53","1f75c3e559b7213887762d5229550c2b","41.13.16.20","Mozilla/5.0 (Windows NT 10.0; Win64; x64) AppleWebKit/537.36 (KHTML, like Gecko) Chrome/138.0.0.0 Safari/537.36","WebKit","Chrome","138.0.0.0","Windows","10.0","https://app.prolific.com/","en-ZA,en-GB;q=0.9,en-US;q=0.8,en;q=0.7,zu;q=0.6","5f3287b83428cb05746e2214","683dba2a8a9dda3513610c04","688090bad379e39d5f5f58e8","3","0","5f3287b83428cb05746e2214","3","0","2025-07-23T07:38:41.365Z","","","","","","","","","","","","","","win-only","3","g1:SW,g2:NE","1","1","0","141858.8","4283.5","9287.7","27844.1","1","4","8","6","2","8","7","7","0","0.05303030303030303","2069.7","3000","295","[""up"",""right""]","{""num_key_presses"":7,""num_perfect"":6,""num_errors"":1,""num_randdir"":0,""num_randdir_good_moves"":0,""num_whilered"":0,""num_whileblue"":0,""num_blue"":0,""num_good_moves"":6}","[276.7142857142857,277.6205357142857,13.1,276.7142857142857,277.6205357142857,189.3,276.7142857142857,277.6205357142857,500.5,276.7142857142857,277.6205357142857,605.3,276.7142857142857,277.6205357142857,710.1,276.7142857142857,277.6205357142857,817.9,276.7142857142857,277.6205357142857,917.9,276.7142857142857,277.6205357142857,1028.2,319.7142857142857,213.62053571428572,1129.2,412.7142857142857,139.62053571428572,1230.9,448.7142857142857,113.62053571428572,1340.5,452.7142857142857,109.62053571428572,1443.4,476.7142857142857,70.62053571428572,1559.2,493.7142857142857,55.620535714285715,1675.5,493.7142857142857,55.620535714285715,1784.3,493.7142857142857,55.620535714285715,1884.5,493.7142857142857,55.620535714285715,1986.9,493.7142857142857,55.620535714285715,2089.6,493.7142857142857,55.620535714285715,2203.7,493.7142857142857,55.620535714285715,2308.9,493.7142857142857,55.620535714285715,2413.5,493.7142857142857,55.620535714285715,2513.9,493.7142857142857,55.620535714285715,2620.5,493.7142857142857,55.620535714285715,2725.5,493.7142857142857,55.620535714285715,2828.7,493.7142857142857,55.620535714285715,2935.9,493.7142857142857,55.620535714285715,3038,493.7142857142857,55.620535714285715,3140,493.7142857142857,55.620535714285715,3244,493.7142857142857,55.620535714285715,3344.4,493.7142857142857,55.620535714285715,3451.4,493.7142857142857,55.620535714285715,3553.1,493.7142857142857,55.620535714285715,3656.4,493.7142857142857,55.620535714285715,3758.5,493.7142857142857,55.620535714285715,3859.2,493.7142857142857,55.620535714285715,3964.1,493.7142857142857,55.620535714285715,4069.6,493.7142857142857,55.620535714285715,4172.2,493.7142857142857,55.620535714285715,4273.5,493.7142857142857,55.620535714285715,4374,493.7142857142857,55.620535714285715,4474.2,493.7142857142857,55.620535714285715,4574.6,493.7142857142857,55.620535714285715,4693.2,493.7142857142857,55.620535714285715,4801,493.7142857142857,55.620535714285715,4901]","[2590.5,2590.5,1000,0.1,1590.4,""smooth"",""right"",""right"",""good_move"",3132.2,539.9,2394.9,2592.6,-1855.2,""error"",""-"",""-"",""no_move"",6738.4,3605.3,2089.9,4139,509.5,""smooth"",""right"",""right"",""good_move"",9308.8,2568.3,2072.7,6740.6,495.6,""smooth"",""right"",""right"",""good_move"",12340.9,3027.3,2576.9,9313.7,450.4,""smooth"",""up"",""up"",""good_move"",15677,3333.7,2869.5,12343.3,464.2,""smooth"",""up"",""up"",""good_move"",18423.2,2736.8,2262.5,15686.5,474.3,""smooth"",""up"",""up"",""good_move""]","",""
"3717","","<div style=""width:500px;"">
  <p>What determined the result of this run?</p>
  </div>","99","html-slider-response","10","159701","0.0-5.0-1.0","180","1","2025-07-23 07:35:53","1f75c3e559b7213887762d5229550c2b","41.13.16.20","Mozilla/5.0 (Windows NT 10.0; Win64; x64) AppleWebKit/537.36 (KHTML, like Gecko) Chrome/138.0.0.0 Safari/537.36","WebKit","Chrome","138.0.0.0","Windows","10.0","https://app.prolific.com/","en-ZA,en-GB;q=0.9,en-US;q=0.8,en;q=0.7,zu;q=0.6","5f3287b83428cb05746e2214","683dba2a8a9dda3513610c04","688090bad379e39d5f5f58e8","3","0","5f3287b83428cb05746e2214","3","0","2025-07-23T07:38:45.088Z","","","","","","","","","","","AttribQ","","50","","","","","","","","","","","","","","","","","","","","","","","","","","","","",""
"4235","","<div style=""width:500px;"">
  <p>How much control did you have over the ball?</p>
  </div>","100","html-slider-response","11","163943","0.0-5.0-2.0","180","1","2025-07-23 07:35:53","1f75c3e559b7213887762d5229550c2b","41.13.16.20","Mozilla/5.0 (Windows NT 10.0; Win64; x64) AppleWebKit/537.36 (KHTML, like Gecko) Chrome/138.0.0.0 Safari/537.36","WebKit","Chrome","138.0.0.0","Windows","10.0","https://app.prolific.com/","en-ZA,en-GB;q=0.9,en-US;q=0.8,en;q=0.7,zu;q=0.6","5f3287b83428cb05746e2214","683dba2a8a9dda3513610c04","688090bad379e39d5f5f58e8","3","0","5f3287b83428cb05746e2214","3","0","2025-07-23T07:38:49.330Z","","","","","","","","","","","ControlQ","","50","","","","","","","","","","","","","","","","","","","","","","","","","","","","",""
"4336","","<div style=""width:500px;"">
  <p>How would you describe your current emotional state?</p>
  </div>","0","html-slider-response","12","168283","0.0-5.0-3.0","180","1","2025-07-23 07:35:53","1f75c3e559b7213887762d5229550c2b","41.13.16.20","Mozilla/5.0 (Windows NT 10.0; Win64; x64) AppleWebKit/537.36 (KHTML, like Gecko) Chrome/138.0.0.0 Safari/537.36","WebKit","Chrome","138.0.0.0","Windows","10.0","https://app.prolific.com/","en-ZA,en-GB;q=0.9,en-US;q=0.8,en;q=0.7,zu;q=0.6","5f3287b83428cb05746e2214","683dba2a8a9dda3513610c04","688090bad379e39d5f5f58e8","3","0","5f3287b83428cb05746e2214","3","0","2025-07-23T07:38:53.670Z","","","","","","","","","","","StressQ","","50","","","","","","","","","","","","","","","","","","","","","","","","","","","","",""
"3724","","<div style=""width:500px;"">
  <p>What best describes how you currently feel?</p>
  </div>","100","html-slider-response","13","172013","0.0-5.0-4.0","180","1","2025-07-23 07:35:53","1f75c3e559b7213887762d5229550c2b","41.13.16.20","Mozilla/5.0 (Windows NT 10.0; Win64; x64) AppleWebKit/537.36 (KHTML, like Gecko) Chrome/138.0.0.0 Safari/537.36","WebKit","Chrome","138.0.0.0","Windows","10.0","https://app.prolific.com/","en-ZA,en-GB;q=0.9,en-US;q=0.8,en;q=0.7,zu;q=0.6","5f3287b83428cb05746e2214","683dba2a8a9dda3513610c04","688090bad379e39d5f5f58e8","3","0","5f3287b83428cb05746e2214","3","0","2025-07-23T07:38:57.401Z","","","","","","","","","","","MotivationQ","","50","","","","","","","","","","","","","","","","","","","","","","","","","","","","",""
"","","","","ctl-task-cpt","14","207423","0.0-5.0-0.1","180","1","2025-07-23 07:35:53","1f75c3e559b7213887762d5229550c2b","41.13.16.20","Mozilla/5.0 (Windows NT 10.0; Win64; x64) AppleWebKit/537.36 (KHTML, like Gecko) Chrome/138.0.0.0 Safari/537.36","WebKit","Chrome","138.0.0.0","Windows","10.0","https://app.prolific.com/","en-ZA,en-GB;q=0.9,en-US;q=0.8,en;q=0.7,zu;q=0.6","5f3287b83428cb05746e2214","683dba2a8a9dda3513610c04","688090bad379e39d5f5f58e8","3","0","5f3287b83428cb05746e2214","3","0","2025-07-23T07:39:32.811Z","","","","","","","","","","","","","","win-only","1","g1:NE,g2:SW","0.9","2","0","188761.5","1838.8","6845","32381.7","1","4","4","6","2","4","4","11","7","0.08333333333333333","1713.5","3000","500","[""down"",""left""]","{""num_key_presses"":8,""num_perfect"":7,""num_errors"":0,""num_randdir"":1,""num_randdir_good_moves"":0,""num_whilered"":0,""num_whileblue"":0,""num_blue"":1,""num_good_moves"":7}","[277.7142857142857,281.6205357142857,0.7,277.7142857142857,281.6205357142857,107.3,277.7142857142857,281.6205357142857,212.4,277.7142857142857,281.6205357142857,313.9,277.7142857142857,281.6205357142857,422.6,277.7142857142857,281.6205357142857,529.2,277.7142857142857,281.6205357142857,633.4,277.7142857142857,281.6205357142857,738.9,228.71428571428572,315.6205357142857,841.9,134.71428571428572,428.6205357142857,961.1,115.71428571428572,459.6205357142857,1063.3,108.71428571428572,469.6205357142857,1169.6,94.71428571428572,478.6205357142857,1272.5,76.71428571428572,487.6205357142857,1382,72.71428571428572,490.6205357142857,1487.8,72.71428571428572,490.6205357142857,1589.1,72.71428571428572,490.6205357142857,1700.3,72.71428571428572,490.6205357142857,1811.7,72.71428571428572,490.6205357142857,1913,72.71428571428572,490.6205357142857,2014.9,72.71428571428572,490.6205357142857,2119.7,72.71428571428572,490.6205357142857,2225.1,72.71428571428572,490.6205357142857,2327.9,72.71428571428572,490.6205357142857,2428.3,72.71428571428572,490.6205357142857,2535.9,72.71428571428572,490.6205357142857,2639,72.71428571428572,490.6205357142857,2743.9,72.71428571428572,490.6205357142857,2850.6,72.71428571428572,490.6205357142857,2952.5,72.71428571428572,490.6205357142857,3056.5,72.71428571428572,490.6205357142857,3158.3,72.71428571428572,490.6205357142857,3258.7,72.71428571428572,490.6205357142857,3364,72.71428571428572,490.6205357142857,3475.3,72.71428571428572,490.6205357142857,3584.3,72.71428571428572,490.6205357142857,3687.2,72.71428571428572,490.6205357142857,3787.4,72.71428571428572,490.6205357142857,3887.4,72.71428571428572,490.6205357142857,4001.4,72.71428571428572,490.6205357142857,4103.7,72.71428571428572,490.6205357142857,4216.9,72.71428571428572,490.6205357142857,4318.2,72.71428571428572,490.6205357142857,4418.9,72.71428571428572,490.6205357142857,4523.9,72.71428571428572,490.6205357142857,4631,72.71428571428572,490.6205357142857,4744.3,72.71428571428572,490.6205357142857,4849.9,72.71428571428572,490.6205357142857,4957.6]","[1461.1,1461,1000,0.2,460.9,""smooth"",""down"",""down"",""good_move"",5266,3802.9,3222.7,1463.1,580.2,""smooth"",""down"",""down"",""good_move"",8096.9,2828.4,2329.4,5268.5,499,""oops"",""down"",""up"",""bad_move"",10631.6,2532.2,2027.1,8099.4,505.2,""smooth"",""left"",""left"",""good_move"",13712.4,3078.1,2631.6,10634.3,446.5,""smooth"",""left"",""left"",""good_move"",16375.2,2661,2224.1,13714.2,436.9,""smooth"",""down"",""down"",""good_move"",22199,5816.2,2132.7,19618.1,448.2,""smooth"",""left"",""left"",""good_move"",25384.2,3183.6,2725.7,22200.7,457.8,""smooth"",""down"",""down"",""good_move""]","",""
"4617","","<div style=""width:500px;"">
  <p>What determined the result of this run?</p>
  </div>","97","html-slider-response","15","212044","0.0-5.0-1.1","180","1","2025-07-23 07:35:53","1f75c3e559b7213887762d5229550c2b","41.13.16.20","Mozilla/5.0 (Windows NT 10.0; Win64; x64) AppleWebKit/537.36 (KHTML, like Gecko) Chrome/138.0.0.0 Safari/537.36","WebKit","Chrome","138.0.0.0","Windows","10.0","https://app.prolific.com/","en-ZA,en-GB;q=0.9,en-US;q=0.8,en;q=0.7,zu;q=0.6","5f3287b83428cb05746e2214","683dba2a8a9dda3513610c04","688090bad379e39d5f5f58e8","3","0","5f3287b83428cb05746e2214","3","0","2025-07-23T07:39:37.432Z","","","","","","","","","","","AttribQ","","50","","","","","","","","","","","","","","","","","","","","","","","","","","","","",""
"4773","","<div style=""width:500px;"">
  <p>How much control did you have over the ball?</p>
  </div>","100","html-slider-response","16","216826","0.0-5.0-2.1","180","1","2025-07-23 07:35:53","1f75c3e559b7213887762d5229550c2b","41.13.16.20","Mozilla/5.0 (Windows NT 10.0; Win64; x64) AppleWebKit/537.36 (KHTML, like Gecko) Chrome/138.0.0.0 Safari/537.36","WebKit","Chrome","138.0.0.0","Windows","10.0","https://app.prolific.com/","en-ZA,en-GB;q=0.9,en-US;q=0.8,en;q=0.7,zu;q=0.6","5f3287b83428cb05746e2214","683dba2a8a9dda3513610c04","688090bad379e39d5f5f58e8","3","0","5f3287b83428cb05746e2214","3","0","2025-07-23T07:39:42.213Z","","","","","","","","","","","ControlQ","","50","","","","","","","","","","","","","","","","","","","","","","","","","","","","",""
"4532","","<div style=""width:500px;"">
  <p>How would you describe your current emotional state?</p>
  </div>","0","html-slider-response","17","221366","0.0-5.0-3.1","180","1","2025-07-23 07:35:53","1f75c3e559b7213887762d5229550c2b","41.13.16.20","Mozilla/5.0 (Windows NT 10.0; Win64; x64) AppleWebKit/537.36 (KHTML, like Gecko) Chrome/138.0.0.0 Safari/537.36","WebKit","Chrome","138.0.0.0","Windows","10.0","https://app.prolific.com/","en-ZA,en-GB;q=0.9,en-US;q=0.8,en;q=0.7,zu;q=0.6","5f3287b83428cb05746e2214","683dba2a8a9dda3513610c04","688090bad379e39d5f5f58e8","3","0","5f3287b83428cb05746e2214","3","0","2025-07-23T07:39:46.753Z","","","","","","","","","","","StressQ","","50","","","","","","","","","","","","","","","","","","","","","","","","","","","","",""
"3481","","<div style=""width:500px;"">
  <p>What best describes how you currently feel?</p>
  </div>","100","html-slider-response","18","226289","0.0-5.0-4.1","180","1","2025-07-23 07:35:53","1f75c3e559b7213887762d5229550c2b","41.13.16.20","Mozilla/5.0 (Windows NT 10.0; Win64; x64) AppleWebKit/537.36 (KHTML, like Gecko) Chrome/138.0.0.0 Safari/537.36","WebKit","Chrome","138.0.0.0","Windows","10.0","https://app.prolific.com/","en-ZA,en-GB;q=0.9,en-US;q=0.8,en;q=0.7,zu;q=0.6","5f3287b83428cb05746e2214","683dba2a8a9dda3513610c04","688090bad379e39d5f5f58e8","3","0","5f3287b83428cb05746e2214","3","0","2025-07-23T07:39:51.676Z","","","","","","","","","","","MotivationQ","","50","","","","","","","","","","","","","","","","","","","","","","","","","","","","",""
"","","","","ctl-task-cpt","19","271885","0.0-5.0-0.2","180","1","2025-07-23 07:35:53","1f75c3e559b7213887762d5229550c2b","41.13.16.20","Mozilla/5.0 (Windows NT 10.0; Win64; x64) AppleWebKit/537.36 (KHTML, like Gecko) Chrome/138.0.0.0 Safari/537.36","WebKit","Chrome","138.0.0.0","Windows","10.0","https://app.prolific.com/","en-ZA,en-GB;q=0.9,en-US;q=0.8,en;q=0.7,zu;q=0.6","5f3287b83428cb05746e2214","683dba2a8a9dda3513610c04","688090bad379e39d5f5f58e8","3","0","5f3287b83428cb05746e2214","3","0","2025-07-23T07:40:37.272Z","","","","","","","","","","","","","","win-only","3","g1:SW,g2:NE","0.8","3","0","243022.8","1652.5","6661.1","42581","1","4","4","6","2","4","4","15","11","0.11363636363636363","1998.2","3000","340","[""up"",""right""]","{""num_key_presses"":10,""num_perfect"":8,""num_errors"":0,""num_randdir"":2,""num_randdir_good_moves"":0,""num_whilered"":0,""num_whileblue"":0,""num_blue"":2,""num_good_moves"":8}","[277.7142857142857,275.6205357142857,0.1,277.7142857142857,275.6205357142857,101.2,277.7142857142857,275.6205357142857,204.8,277.7142857142857,275.6205357142857,304.9,277.7142857142857,275.6205357142857,410.5,277.7142857142857,275.6205357142857,527.5,277.7142857142857,275.6205357142857,632,277.7142857142857,270.6205357142857,748.5,393.7142857142857,128.62053571428572,899.3,499.7142857142857,99.62053571428572,1005.9,499.7142857142857,99.62053571428572,1109.2,499.7142857142857,99.62053571428572,1211,499.7142857142857,99.62053571428572,1334.5,499.7142857142857,83.62053571428572,1478.4,499.7142857142857,65.62053571428572,1583.9,499.7142857142857,64.62053571428572,1698.1,499.7142857142857,64.62053571428572,1805.3,499.7142857142857,64.62053571428572,1913.2,499.7142857142857,64.62053571428572,2016.4,499.7142857142857,64.62053571428572,2136.8,499.7142857142857,64.62053571428572,2242.6,499.7142857142857,64.62053571428572,2344.7,499.7142857142857,64.62053571428572,2460.2,499.7142857142857,64.62053571428572,2560.5,499.7142857142857,64.62053571428572,2668.2,499.7142857142857,64.62053571428572,2768.5,499.7142857142857,64.62053571428572,2874.9,499.7142857142857,64.62053571428572,2978.1,499.7142857142857,64.62053571428572,3084.3,499.7142857142857,64.62053571428572,3184.3,499.7142857142857,64.62053571428572,3286.7,499.7142857142857,64.62053571428572,3394,499.7142857142857,64.62053571428572,3499.6,499.7142857142857,64.62053571428572,3602,499.7142857142857,64.62053571428572,3702.9,499.7142857142857,64.62053571428572,3819.9,499.7142857142857,64.62053571428572,3924.5,499.7142857142857,64.62053571428572,4028.4,499.7142857142857,64.62053571428572,4130.6,499.7142857142857,64.62053571428572,4232.2,499.7142857142857,64.62053571428572,4333.9,499.7142857142857,64.62053571428572,4434.1,499.7142857142857,64.62053571428572,4543.6,499.7142857142857,64.62053571428572,4649.3,499.7142857142857,64.62053571428572,4757.2,499.7142857142857,64.62053571428572,4863.7,499.7142857142857,64.62053571428572,4981.1]","[4302.5,4302.6,1645.2,2005.5,651.9,""smooth"",""right"",""right"",""good_move"",7503.9,3198.7,2706.9,4305.7,491.4,""smooth"",""right"",""right"",""good_move"",10267.9,2761.9,2315.3,7506.1,446.6,""smooth"",""right"",""right"",""good_move"",13553.5,3283.2,2806.4,10270.4,476.7,""smooth"",""up"",""up"",""good_move"",16272.4,2716.6,2282,13555.8,434.6,""smooth"",""up"",""up"",""good_move"",19771.1,3496.8,2971.7,16274.4,525.1,""oops"",""up"",""left"",""bad_move"",26263.3,6489.8,2185.3,23555.2,522.8,""oops"",""up"",""left"",""bad_move"",29427.5,3162.2,2567.3,26265.3,594.9,""smooth"",""right"",""right"",""good_move"",32902.4,3451.7,3007.1,29450.7,444.6,""smooth"",""right"",""right"",""good_move"",35738,2833.9,2371.3,32904.3,462.4,""smooth"",""up"",""up"",""good_move""]","",""
"4213","","<div style=""width:500px;"">
  <p>What determined the result of this run?</p>
  </div>","97","html-slider-response","20","276103","0.0-5.0-1.2","180","1","2025-07-23 07:35:53","1f75c3e559b7213887762d5229550c2b","41.13.16.20","Mozilla/5.0 (Windows NT 10.0; Win64; x64) AppleWebKit/537.36 (KHTML, like Gecko) Chrome/138.0.0.0 Safari/537.36","WebKit","Chrome","138.0.0.0","Windows","10.0","https://app.prolific.com/","en-ZA,en-GB;q=0.9,en-US;q=0.8,en;q=0.7,zu;q=0.6","5f3287b83428cb05746e2214","683dba2a8a9dda3513610c04","688090bad379e39d5f5f58e8","3","0","5f3287b83428cb05746e2214","3","0","2025-07-23T07:40:41.490Z","","","","","","","","","","","AttribQ","","50","","","","","","","","","","","","","","","","","","","","","","","","","","","","",""
"5042","","<div style=""width:500px;"">
  <p>How much control did you have over the ball?</p>
  </div>","97","html-slider-response","21","281154","0.0-5.0-2.2","180","1","2025-07-23 07:35:53","1f75c3e559b7213887762d5229550c2b","41.13.16.20","Mozilla/5.0 (Windows NT 10.0; Win64; x64) AppleWebKit/537.36 (KHTML, like Gecko) Chrome/138.0.0.0 Safari/537.36","WebKit","Chrome","138.0.0.0","Windows","10.0","https://app.prolific.com/","en-ZA,en-GB;q=0.9,en-US;q=0.8,en;q=0.7,zu;q=0.6","5f3287b83428cb05746e2214","683dba2a8a9dda3513610c04","688090bad379e39d5f5f58e8","3","0","5f3287b83428cb05746e2214","3","0","2025-07-23T07:40:46.543Z","","","","","","","","","","","ControlQ","","50","","","","","","","","","","","","","","","","","","","","","","","","","","","","",""
"3502","","<div style=""width:500px;"">
  <p>How would you describe your current emotional state?</p>
  </div>","0","html-slider-response","22","284674","0.0-5.0-3.2","180","1","2025-07-23 07:35:53","1f75c3e559b7213887762d5229550c2b","41.13.16.20","Mozilla/5.0 (Windows NT 10.0; Win64; x64) AppleWebKit/537.36 (KHTML, like Gecko) Chrome/138.0.0.0 Safari/537.36","WebKit","Chrome","138.0.0.0","Windows","10.0","https://app.prolific.com/","en-ZA,en-GB;q=0.9,en-US;q=0.8,en;q=0.7,zu;q=0.6","5f3287b83428cb05746e2214","683dba2a8a9dda3513610c04","688090bad379e39d5f5f58e8","3","0","5f3287b83428cb05746e2214","3","0","2025-07-23T07:40:50.065Z","","","","","","","","","","","StressQ","","50","","","","","","","","","","","","","","","","","","","","","","","","","","","","",""
"3684","","<div style=""width:500px;"">
  <p>What best describes how you currently feel?</p>
  </div>","100","html-slider-response","23","288379","0.0-5.0-4.2","180","1","2025-07-23 07:35:53","1f75c3e559b7213887762d5229550c2b","41.13.16.20","Mozilla/5.0 (Windows NT 10.0; Win64; x64) AppleWebKit/537.36 (KHTML, like Gecko) Chrome/138.0.0.0 Safari/537.36","WebKit","Chrome","138.0.0.0","Windows","10.0","https://app.prolific.com/","en-ZA,en-GB;q=0.9,en-US;q=0.8,en;q=0.7,zu;q=0.6","5f3287b83428cb05746e2214","683dba2a8a9dda3513610c04","688090bad379e39d5f5f58e8","3","0","5f3287b83428cb05746e2214","3","0","2025-07-23T07:40:53.766Z","","","","","","","","","","","MotivationQ","","50","","","","","","","","","","","","","","","","","","","","","","","","","","","","",""
"","","","","ctl-task-cpt","24","318585","0.0-5.0-0.3","180","1","2025-07-23 07:35:53","1f75c3e559b7213887762d5229550c2b","41.13.16.20","Mozilla/5.0 (Windows NT 10.0; Win64; x64) AppleWebKit/537.36 (KHTML, like Gecko) Chrome/138.0.0.0 Safari/537.36","WebKit","Chrome","138.0.0.0","Windows","10.0","https://app.prolific.com/","en-ZA,en-GB;q=0.9,en-US;q=0.8,en;q=0.7,zu;q=0.6","5f3287b83428cb05746e2214","683dba2a8a9dda3513610c04","688090bad379e39d5f5f58e8","3","0","5f3287b83428cb05746e2214","3","0","2025-07-23T07:41:23.973Z","","","","","","","","","","","","","","win-only","0","g1:NW,g2:SE","0.7","4","0","305121.1","1920.3","6966.7","27172.6","1","4","8","6","2","8","8","23","15","0.17424242424242425","1483.8","3000","1705","[""down"",""right""]","{""num_key_presses"":6,""num_perfect"":5,""num_errors"":0,""num_randdir"":1,""num_randdir_good_moves"":1,""num_whilered"":0,""num_whileblue"":0,""num_blue"":1,""num_good_moves"":6}","[277.7142857142857,276.6205357142857,0.2,277.7142857142857,276.6205357142857,134.5,277.7142857142857,276.6205357142857,257.2,277.7142857142857,276.6205357142857,363,277.7142857142857,276.6205357142857,477.1,277.7142857142857,276.6205357142857,588.8,365.7142857142857,335.6205357142857,698.7,482.7142857142857,461.6205357142857,846.6,487.7142857142857,470.6205357142857,949.6,492.7142857142857,478.6205357142857,1060.6,500.7142857142857,499.6205357142857,1166.1,500.7142857142857,500.6205357142857,1277.3,500.7142857142857,500.6205357142857,1381.9,500.7142857142857,500.6205357142857,1493,500.7142857142857,500.6205357142857,1613,500.7142857142857,500.6205357142857,1724.1,500.7142857142857,500.6205357142857,1833.6,500.7142857142857,500.6205357142857,1949.8,500.7142857142857,500.6205357142857,2057.9,500.7142857142857,500.6205357142857,2182.9,500.7142857142857,500.6205357142857,2286.4,500.7142857142857,500.6205357142857,2412.6,500.7142857142857,500.6205357142857,2519,500.7142857142857,500.6205357142857,2626.4,500.7142857142857,500.6205357142857,2743.3,500.7142857142857,500.6205357142857,2846.1,500.7142857142857,500.6205357142857,2952,500.7142857142857,500.6205357142857,3062.1,500.7142857142857,500.6205357142857,3167.9,500.7142857142857,500.6205357142857,3276.7,500.7142857142857,500.6205357142857,3393.7,500.7142857142857,500.6205357142857,3520,500.7142857142857,500.6205357142857,3665.9,500.7142857142857,500.6205357142857,3768.8,500.7142857142857,500.6205357142857,3881.9,500.7142857142857,500.6205357142857,3982.8,500.7142857142857,500.6205357142857,4086.5,500.7142857142857,500.6205357142857,4198.2,500.7142857142857,500.6205357142857,4300.8,500.7142857142857,500.6205357142857,4415.6,500.7142857142857,500.6205357142857,4536.7,500.7142857142857,500.6205357142857,4637,500.7142857142857,500.6205357142857,4861.7,500.7142857142857,500.6205357142857,4966.7]","[1714.6,1714.6,1000,0,714.6,""smooth"",""down"",""down"",""good_move"",4540.4,2803.5,2350.4,1736.9,453.2,""smooth"",""down"",""down"",""good_move"",8242.1,3701.4,3247,4540.8,454.4,""smooth"",""down"",""down"",""good_move"",11101,2858.7,2457.1,8242.4,401.5,""smooth"",""right"",""right"",""good_move"",14265.4,3164.3,2660.1,11101.3,504.1,""smooth"",""right"",""right"",""good_move"",20011.1,5745.5,2440.1,17074,497,""oops"",""right"",""right"",""good_move""]","",""
"4590","","<div style=""width:500px;"">
  <p>What determined the result of this run?</p>
  </div>","100","html-slider-response","25","323180","0.0-5.0-1.3","180","1","2025-07-23 07:35:53","1f75c3e559b7213887762d5229550c2b","41.13.16.20","Mozilla/5.0 (Windows NT 10.0; Win64; x64) AppleWebKit/537.36 (KHTML, like Gecko) Chrome/138.0.0.0 Safari/537.36","WebKit","Chrome","138.0.0.0","Windows","10.0","https://app.prolific.com/","en-ZA,en-GB;q=0.9,en-US;q=0.8,en;q=0.7,zu;q=0.6","5f3287b83428cb05746e2214","683dba2a8a9dda3513610c04","688090bad379e39d5f5f58e8","3","0","5f3287b83428cb05746e2214","3","0","2025-07-23T07:41:28.567Z","","","","","","","","","","","AttribQ","","50","","","","","","","","","","","","","","","","","","","","","","","","","","","","",""
"3113","","<div style=""width:500px;"">
  <p>How much control did you have over the ball?</p>
  </div>","100","html-slider-response","26","326299","0.0-5.0-2.3","180","1","2025-07-23 07:35:53","1f75c3e559b7213887762d5229550c2b","41.13.16.20","Mozilla/5.0 (Windows NT 10.0; Win64; x64) AppleWebKit/537.36 (KHTML, like Gecko) Chrome/138.0.0.0 Safari/537.36","WebKit","Chrome","138.0.0.0","Windows","10.0","https://app.prolific.com/","en-ZA,en-GB;q=0.9,en-US;q=0.8,en;q=0.7,zu;q=0.6","5f3287b83428cb05746e2214","683dba2a8a9dda3513610c04","688090bad379e39d5f5f58e8","3","0","5f3287b83428cb05746e2214","3","0","2025-07-23T07:41:31.687Z","","","","","","","","","","","ControlQ","","50","","","","","","","","","","","","","","","","","","","","","","","","","","","","",""
"4503","","<div style=""width:500px;"">
  <p>How would you describe your current emotional state?</p>
  </div>","0","html-slider-response","27","330812","0.0-5.0-3.3","180","1","2025-07-23 07:35:53","1f75c3e559b7213887762d5229550c2b","41.13.16.20","Mozilla/5.0 (Windows NT 10.0; Win64; x64) AppleWebKit/537.36 (KHTML, like Gecko) Chrome/138.0.0.0 Safari/537.36","WebKit","Chrome","138.0.0.0","Windows","10.0","https://app.prolific.com/","en-ZA,en-GB;q=0.9,en-US;q=0.8,en;q=0.7,zu;q=0.6","5f3287b83428cb05746e2214","683dba2a8a9dda3513610c04","688090bad379e39d5f5f58e8","3","0","5f3287b83428cb05746e2214","3","0","2025-07-23T07:41:36.199Z","","","","","","","","","","","StressQ","","50","","","","","","","","","","","","","","","","","","","","","","","","","","","","",""
"4986","","<div style=""width:500px;"">
  <p>What best describes how you currently feel?</p>
  </div>","100","html-slider-response","28","335804","0.0-5.0-4.3","180","1","2025-07-23 07:35:53","1f75c3e559b7213887762d5229550c2b","41.13.16.20","Mozilla/5.0 (Windows NT 10.0; Win64; x64) AppleWebKit/537.36 (KHTML, like Gecko) Chrome/138.0.0.0 Safari/537.36","WebKit","Chrome","138.0.0.0","Windows","10.0","https://app.prolific.com/","en-ZA,en-GB;q=0.9,en-US;q=0.8,en;q=0.7,zu;q=0.6","5f3287b83428cb05746e2214","683dba2a8a9dda3513610c04","688090bad379e39d5f5f58e8","3","0","5f3287b83428cb05746e2214","3","0","2025-07-23T07:41:41.192Z","","","","","","","","","","","MotivationQ","","50","","","","","","","","","","","","","","","","","","","","","","","","","","","","",""
"","","","","ctl-task-cpt","29","367556","0.0-5.0-0.4","180","1","2025-07-23 07:35:53","1f75c3e559b7213887762d5229550c2b","41.13.16.20","Mozilla/5.0 (Windows NT 10.0; Win64; x64) AppleWebKit/537.36 (KHTML, like Gecko) Chrome/138.0.0.0 Safari/537.36","WebKit","Chrome","138.0.0.0","Windows","10.0","https://app.prolific.com/","en-ZA,en-GB;q=0.9,en-US;q=0.8,en;q=0.7,zu;q=0.6","5f3287b83428cb05746e2214","683dba2a8a9dda3513610c04","688090bad379e39d5f5f58e8","3","0","5f3287b83428cb05746e2214","3","0","2025-07-23T07:42:12.943Z","","","","","","","","","","","","","","win-only","1","g1:NE,g2:SW","0.6","5","0","352542.6","1966.8","6980.5","28722.6","1","4","4","6","2","4","4","27","23","0.20454545454545456","1821.5","3000","2205","[""down"",""left""]","{""num_key_presses"":6,""num_perfect"":4,""num_errors"":0,""num_randdir"":2,""num_randdir_good_moves"":2,""num_whilered"":0,""num_whileblue"":0,""num_blue"":1,""num_good_moves"":6}","[278.7142857142857,278.6205357142857,5.2,278.7142857142857,278.6205357142857,121,278.7142857142857,278.6205357142857,221.7,278.7142857142857,278.6205357142857,325.5,278.7142857142857,278.6205357142857,425.8,278.7142857142857,278.6205357142857,547.6,278.7142857142857,278.6205357142857,649.2,160.71428571428572,368.6205357142857,758.8,55.714285714285715,496.6205357142857,942.3,6.714285714285715,585.6205357142857,1055.6,6.714285714285715,578.6205357142857,1164.1,38.714285714285715,527.6205357142857,1279.4,54.714285714285715,508.6205357142857,1385.3,58.714285714285715,501.6205357142857,1498.8,58.714285714285715,501.6205357142857,1607.8,58.714285714285715,501.6205357142857,1712.4,58.714285714285715,501.6205357142857,1829.6,58.714285714285715,501.6205357142857,1936.5,58.714285714285715,501.6205357142857,2047.7,58.714285714285715,501.6205357142857,2147.9,58.714285714285715,501.6205357142857,2268.8,58.714285714285715,501.6205357142857,2384.7,58.714285714285715,501.6205357142857,2503.7,58.714285714285715,501.6205357142857,2605,58.714285714285715,501.6205357142857,2714.1,58.714285714285715,501.6205357142857,2820.3,58.714285714285715,501.6205357142857,2922.1,58.714285714285715,501.6205357142857,3025.7,58.714285714285715,501.6205357142857,3151.1,58.714285714285715,501.6205357142857,3261.5,58.714285714285715,501.6205357142857,3362,58.714285714285715,501.6205357142857,3462.7,58.714285714285715,501.6205357142857,3568.5,58.714285714285715,501.6205357142857,3676,58.714285714285715,501.6205357142857,3787.9,58.714285714285715,501.6205357142857,3892.9,58.714285714285715,501.6205357142857,4000.7,58.714285714285715,501.6205357142857,4104.2,58.714285714285715,501.6205357142857,4213.8,58.714285714285715,501.6205357142857,4324.4,58.714285714285715,501.6205357142857,4431.9,58.714285714285715,501.6205357142857,4533.4,58.714285714285715,501.6205357142857,4687.6,58.714285714285715,501.6205357142857,4787.9,58.714285714285715,501.6205357142857,4891.6,58.714285714285715,501.6205357142857,4992.7]","[5129.3,5129.3,2643.1,2022.7,463.5,""oops"",""down"",""down"",""good_move"",8193.5,3058.8,2485.3,5134.7,573.5,""smooth"",""down"",""down"",""good_move"",10587.1,2381.8,1867.2,8205.3,514.6,""smooth"",""down"",""down"",""good_move"",14055.4,3464.5,2976.7,10590.9,487.8,""smooth"",""left"",""left"",""good_move"",17693.9,3631.8,2628.4,14062.1,1003.4,""oops"",""left"",""left"",""good_move"",21407.3,3711.3,2304.9,17696,1406.4,""smooth"",""left"",""left"",""good_move""]","",""
"4188","","<div style=""width:500px;"">
  <p>What determined the result of this run?</p>
  </div>","100","html-slider-response","30","371750","0.0-5.0-1.4","180","1","2025-07-23 07:35:53","1f75c3e559b7213887762d5229550c2b","41.13.16.20","Mozilla/5.0 (Windows NT 10.0; Win64; x64) AppleWebKit/537.36 (KHTML, like Gecko) Chrome/138.0.0.0 Safari/537.36","WebKit","Chrome","138.0.0.0","Windows","10.0","https://app.prolific.com/","en-ZA,en-GB;q=0.9,en-US;q=0.8,en;q=0.7,zu;q=0.6","5f3287b83428cb05746e2214","683dba2a8a9dda3513610c04","688090bad379e39d5f5f58e8","3","0","5f3287b83428cb05746e2214","3","0","2025-07-23T07:42:17.137Z","","","","","","","","","","","AttribQ","","50","","","","","","","","","","","","","","","","","","","","","","","","","","","","",""
"2766","","<div style=""width:500px;"">
  <p>How much control did you have over the ball?</p>
  </div>","100","html-slider-response","31","374529","0.0-5.0-2.4","180","1","2025-07-23 07:35:53","1f75c3e559b7213887762d5229550c2b","41.13.16.20","Mozilla/5.0 (Windows NT 10.0; Win64; x64) AppleWebKit/537.36 (KHTML, like Gecko) Chrome/138.0.0.0 Safari/537.36","WebKit","Chrome","138.0.0.0","Windows","10.0","https://app.prolific.com/","en-ZA,en-GB;q=0.9,en-US;q=0.8,en;q=0.7,zu;q=0.6","5f3287b83428cb05746e2214","683dba2a8a9dda3513610c04","688090bad379e39d5f5f58e8","3","0","5f3287b83428cb05746e2214","3","0","2025-07-23T07:42:19.916Z","","","","","","","","","","","ControlQ","","50","","","","","","","","","","","","","","","","","","","","","","","","","","","","",""
"3126","","<div style=""width:500px;"">
  <p>How would you describe your current emotional state?</p>
  </div>","0","html-slider-response","32","377659","0.0-5.0-3.4","180","1","2025-07-23 07:35:53","1f75c3e559b7213887762d5229550c2b","41.13.16.20","Mozilla/5.0 (Windows NT 10.0; Win64; x64) AppleWebKit/537.36 (KHTML, like Gecko) Chrome/138.0.0.0 Safari/537.36","WebKit","Chrome","138.0.0.0","Windows","10.0","https://app.prolific.com/","en-ZA,en-GB;q=0.9,en-US;q=0.8,en;q=0.7,zu;q=0.6","5f3287b83428cb05746e2214","683dba2a8a9dda3513610c04","688090bad379e39d5f5f58e8","3","0","5f3287b83428cb05746e2214","3","0","2025-07-23T07:42:23.048Z","","","","","","","","","","","StressQ","","50","","","","","","","","","","","","","","","","","","","","","","","","","","","","",""
"2751","","<div style=""width:500px;"">
  <p>What best describes how you currently feel?</p>
  </div>","100","html-slider-response","33","380417","0.0-5.0-4.4","180","1","2025-07-23 07:35:53","1f75c3e559b7213887762d5229550c2b","41.13.16.20","Mozilla/5.0 (Windows NT 10.0; Win64; x64) AppleWebKit/537.36 (KHTML, like Gecko) Chrome/138.0.0.0 Safari/537.36","WebKit","Chrome","138.0.0.0","Windows","10.0","https://app.prolific.com/","en-ZA,en-GB;q=0.9,en-US;q=0.8,en;q=0.7,zu;q=0.6","5f3287b83428cb05746e2214","683dba2a8a9dda3513610c04","688090bad379e39d5f5f58e8","3","0","5f3287b83428cb05746e2214","3","0","2025-07-23T07:42:25.805Z","","","","","","","","","","","MotivationQ","","50","","","","","","","","","","","","","","","","","","","","","","","","","","","","",""
"","","","","ctl-task-cpt","34","435154","0.0-5.0-0.5","180","1","2025-07-23 07:35:53","1f75c3e559b7213887762d5229550c2b","41.13.16.20","Mozilla/5.0 (Windows NT 10.0; Win64; x64) AppleWebKit/537.36 (KHTML, like Gecko) Chrome/138.0.0.0 Safari/537.36","WebKit","Chrome","138.0.0.0","Windows","10.0","https://app.prolific.com/","en-ZA,en-GB;q=0.9,en-US;q=0.8,en;q=0.7,zu;q=0.6","5f3287b83428cb05746e2214","683dba2a8a9dda3513610c04","688090bad379e39d5f5f58e8","3","0","5f3287b83428cb05746e2214","3","0","2025-07-23T07:43:20.541Z","","","","","","","","","","","","","","win-only","0","g1:NW,g2:SE","0.5","6","0","397154","2107.1","7116.3","51695.8","1","4","8","6","2","8","8","35","27","0.26515151515151514","1520.6","3000","1260","[""down"",""right""]","{""num_key_presses"":12,""num_perfect"":7,""num_errors"":0,""num_randdir"":5,""num_randdir_good_moves"":2,""num_whilered"":0,""num_whileblue"":0,""num_blue"":3,""num_good_moves"":9}","[277.7142857142857,273.6205357142857,3.1,277.7142857142857,273.6205357142857,101.3,277.7142857142857,273.6205357142857,207,277.7142857142857,273.6205357142857,339.4,277.7142857142857,273.6205357142857,453.5,279.7142857142857,273.6205357142857,587.3,421.7142857142857,348.6205357142857,696.7,481.7142857142857,442.6205357142857,820,488.7142857142857,461.6205357142857,920,496.7142857142857,483.6205357142857,1035.1,498.7142857142857,495.6205357142857,1149.2,498.7142857142857,499.6205357142857,1250.7,498.7142857142857,499.6205357142857,1372.6,498.7142857142857,499.6205357142857,1501,498.7142857142857,499.6205357142857,1616.8,498.7142857142857,499.6205357142857,1718.3,498.7142857142857,499.6205357142857,1825.5,498.7142857142857,499.6205357142857,1925.9,498.7142857142857,499.6205357142857,2047.9,498.7142857142857,499.6205357142857,2150.9,498.7142857142857,499.6205357142857,2269.9,498.7142857142857,499.6205357142857,2383.2,498.7142857142857,499.6205357142857,2489.3,498.7142857142857,499.6205357142857,2600.9,498.7142857142857,499.6205357142857,2712.8,498.7142857142857,499.6205357142857,2823.6,498.7142857142857,499.6205357142857,2933.7,498.7142857142857,499.6205357142857,3037.9,498.7142857142857,499.6205357142857,3154.5,498.7142857142857,499.6205357142857,3267.8,498.7142857142857,499.6205357142857,3372.4,498.7142857142857,499.6205357142857,3478.8,498.7142857142857,499.6205357142857,3600.1,498.7142857142857,499.6205357142857,3715.2,498.7142857142857,499.6205357142857,3835.8,498.7142857142857,499.6205357142857,3937,498.7142857142857,499.6205357142857,4049.8,498.7142857142857,499.6205357142857,4153.9,498.7142857142857,499.6205357142857,4258,498.7142857142857,499.6205357142857,4373.7,498.7142857142857,499.6205357142857,4479.4,498.7142857142857,499.6205357142857,4582.6,498.7142857142857,499.6205357142857,4683,498.7142857142857,499.6205357142857,4784.3,498.7142857142857,499.6205357142857,4896.9]","[1487.2,1487.3,1000,0,487.3,""smooth"",""down"",""down"",""good_move"",7484.7,5995.8,2177.4,4832.2,475.2,""oops"",""down"",""left"",""bad_move"",10933.8,3445.4,2872.7,7488.5,572.6,""oops"",""down"",""left"",""bad_move"",17794,6855.4,2074,15213.5,506.5,""smooth"",""down"",""down"",""good_move"",20362.2,2566.8,2036.8,17795.6,529.8,""smooth"",""down"",""down"",""good_move"",23031.6,2666.3,2222.5,20365.3,443.8,""smooth"",""right"",""right"",""good_move"",25566,2531.1,2108,23035,423.1,""oops"",""right"",""right"",""good_move"",31370.9,5795.8,2358.2,28578.7,434,""smooth"",""right"",""right"",""good_move"",35015.3,3640.4,3121.1,31374.9,519.3,""oops"",""right"",""right"",""good_move"",38079.7,3062.1,2397.1,35017.7,664.9,""oops"",""right"",""left"",""bad_move"",42128.6,4047,1981.3,38081.7,2065.7,""smooth"",""right"",""right"",""good_move"",44317.1,2186.4,1512.2,42130.8,674.1,""smooth"",""right"",""right"",""good_move""]","",""
"4622","","<div style=""width:500px;"">
  <p>What determined the result of this run?</p>
  </div>","89","html-slider-response","35","439780","0.0-5.0-1.5","180","1","2025-07-23 07:35:53","1f75c3e559b7213887762d5229550c2b","41.13.16.20","Mozilla/5.0 (Windows NT 10.0; Win64; x64) AppleWebKit/537.36 (KHTML, like Gecko) Chrome/138.0.0.0 Safari/537.36","WebKit","Chrome","138.0.0.0","Windows","10.0","https://app.prolific.com/","en-ZA,en-GB;q=0.9,en-US;q=0.8,en;q=0.7,zu;q=0.6","5f3287b83428cb05746e2214","683dba2a8a9dda3513610c04","688090bad379e39d5f5f58e8","3","0","5f3287b83428cb05746e2214","3","0","2025-07-23T07:43:25.169Z","","","","","","","","","","","AttribQ","","50","","","","","","","","","","","","","","","","","","","","","","","","","","","","",""
"3333","","<div style=""width:500px;"">
  <p>How much control did you have over the ball?</p>
  </div>","100","html-slider-response","36","443120","0.0-5.0-2.5","180","1","2025-07-23 07:35:53","1f75c3e559b7213887762d5229550c2b","41.13.16.20","Mozilla/5.0 (Windows NT 10.0; Win64; x64) AppleWebKit/537.36 (KHTML, like Gecko) Chrome/138.0.0.0 Safari/537.36","WebKit","Chrome","138.0.0.0","Windows","10.0","https://app.prolific.com/","en-ZA,en-GB;q=0.9,en-US;q=0.8,en;q=0.7,zu;q=0.6","5f3287b83428cb05746e2214","683dba2a8a9dda3513610c04","688090bad379e39d5f5f58e8","3","0","5f3287b83428cb05746e2214","3","0","2025-07-23T07:43:28.508Z","","","","","","","","","","","ControlQ","","50","","","","","","","","","","","","","","","","","","","","","","","","","","","","",""
"4505","","<div style=""width:500px;"">
  <p>How would you describe your current emotional state?</p>
  </div>","0","html-slider-response","37","447629","0.0-5.0-3.5","180","1","2025-07-23 07:35:53","1f75c3e559b7213887762d5229550c2b","41.13.16.20","Mozilla/5.0 (Windows NT 10.0; Win64; x64) AppleWebKit/537.36 (KHTML, like Gecko) Chrome/138.0.0.0 Safari/537.36","WebKit","Chrome","138.0.0.0","Windows","10.0","https://app.prolific.com/","en-ZA,en-GB;q=0.9,en-US;q=0.8,en;q=0.7,zu;q=0.6","5f3287b83428cb05746e2214","683dba2a8a9dda3513610c04","688090bad379e39d5f5f58e8","3","0","5f3287b83428cb05746e2214","3","0","2025-07-23T07:43:33.016Z","","","","","","","","","","","StressQ","","50","","","","","","","","","","","","","","","","","","","","","","","","","","","","",""
"3549","","<div style=""width:500px;"">
  <p>What best describes how you currently feel?</p>
  </div>","100","html-slider-response","38","451185","0.0-5.0-4.5","180","1","2025-07-23 07:35:53","1f75c3e559b7213887762d5229550c2b","41.13.16.20","Mozilla/5.0 (Windows NT 10.0; Win64; x64) AppleWebKit/537.36 (KHTML, like Gecko) Chrome/138.0.0.0 Safari/537.36","WebKit","Chrome","138.0.0.0","Windows","10.0","https://app.prolific.com/","en-ZA,en-GB;q=0.9,en-US;q=0.8,en;q=0.7,zu;q=0.6","5f3287b83428cb05746e2214","683dba2a8a9dda3513610c04","688090bad379e39d5f5f58e8","3","0","5f3287b83428cb05746e2214","3","0","2025-07-23T07:43:36.572Z","","","","","","","","","","","MotivationQ","","50","","","","","","","","","","","","","","","","","","","","","","","","","","","","",""
"","","","","ctl-task-cpt","39","510399","0.0-5.0-0.6","180","1","2025-07-23 07:35:53","1f75c3e559b7213887762d5229550c2b","41.13.16.20","Mozilla/5.0 (Windows NT 10.0; Win64; x64) AppleWebKit/537.36 (KHTML, like Gecko) Chrome/138.0.0.0 Safari/537.36","WebKit","Chrome","138.0.0.0","Windows","10.0","https://app.prolific.com/","en-ZA,en-GB;q=0.9,en-US;q=0.8,en;q=0.7,zu;q=0.6","5f3287b83428cb05746e2214","683dba2a8a9dda3513610c04","688090bad379e39d5f5f58e8","3","0","5f3287b83428cb05746e2214","3","0","2025-07-23T07:44:35.787Z","","","","","","","","","","","","","","win-only","1","g1:NE,g2:SW","0.4","7","0","467921","2389","7404.2","56166.7","1","4","8","6","2","8","8","43","35","0.32575757575757575","1557.8","3000","1330","[""down"",""left""]","{""num_key_presses"":12,""num_perfect"":5,""num_errors"":0,""num_randdir"":7,""num_randdir_good_moves"":4,""num_whilered"":0,""num_whileblue"":0,""num_blue"":2,""num_good_moves"":9}","[275.7142857142857,276.6205357142857,3.1,275.7142857142857,276.6205357142857,114.1,275.7142857142857,276.6205357142857,228.2,275.7142857142857,276.6205357142857,339.8,275.7142857142857,276.6205357142857,493.3,278.7142857142857,262.6205357142857,604.6,191.71428571428572,362.6205357142857,711.6,72.71428571428572,478.6205357142857,836.6,63.714285714285715,486.6205357142857,960.2,63.714285714285715,486.6205357142857,1061,62.714285714285715,487.6205357142857,1178,60.714285714285715,489.6205357142857,1297.9,60.714285714285715,489.6205357142857,1427.9,60.714285714285715,489.6205357142857,1535.2,60.714285714285715,489.6205357142857,1646.3,60.714285714285715,489.6205357142857,1768.9,60.714285714285715,489.6205357142857,1894,60.714285714285715,489.6205357142857,1995,60.714285714285715,489.6205357142857,2095.5,60.714285714285715,489.6205357142857,2200.8,60.714285714285715,489.6205357142857,2304,60.714285714285715,489.6205357142857,2412.6,60.714285714285715,489.6205357142857,2538.3,60.714285714285715,489.6205357142857,2653,60.714285714285715,489.6205357142857,2774.5,60.714285714285715,489.6205357142857,2878.5,60.714285714285715,489.6205357142857,2989.3,60.714285714285715,489.6205357142857,3123.7,60.714285714285715,489.6205357142857,3235.9,60.714285714285715,489.6205357142857,3348.4,60.714285714285715,489.6205357142857,3457.6,60.714285714285715,489.6205357142857,3570.8,60.714285714285715,489.6205357142857,3686.5,60.714285714285715,489.6205357142857,3798.3,60.714285714285715,489.6205357142857,3919.3,60.714285714285715,489.6205357142857,4029.7,60.714285714285715,489.6205357142857,4153.1,60.714285714285715,489.6205357142857,4256.7,60.714285714285715,489.6205357142857,4372,60.714285714285715,489.6205357142857,4490.6,60.714285714285715,489.6205357142857,4603.9,60.714285714285715,489.6205357142857,4716.4,60.714285714285715,489.6205357142857,4829,60.714285714285715,489.6205357142857,4952.1]","[1588.4,1588.4,1000,0,588.4,""smooth"",""down"",""down"",""good_move"",4332,2736.3,2230.5,1595.7,505.8,""smooth"",""down"",""down"",""good_move"",7476.4,3142.3,2645.6,4334.1,496.7,""smooth"",""down"",""down"",""good_move"",17639.5,10151.8,2094.3,14974.6,570.6,""oops"",""left"",""left"",""good_move"",22079.9,4406.9,2431.4,17673,1975.5,""smooth"",""left"",""left"",""good_move"",27043.5,4961.7,2737.6,22081.9,2224.1,""oops"",""left"",""right"",""bad_move"",30560.5,3511.6,2330.1,27048.9,1181.6,""oops"",""left"",""up"",""bad_move"",34458.9,3895.4,2567.1,30563.6,1328.2,""oops"",""left"",""down"",""good_move"",37319.3,2851.8,2346.7,34467.6,505,""oops"",""left"",""right"",""bad_move"",41541.7,4213.5,3671.3,37328.2,542.2,""oops"",""left"",""left"",""good_move"",45278.7,3730.6,2445,41548.1,1285.7,""oops"",""left"",""left"",""good_move"",48424.5,3139.6,2503.3,45284.9,636.4,""smooth"",""left"",""left"",""good_move""]","",""
"4197","","<div style=""width:500px;"">
  <p>What determined the result of this run?</p>
  </div>","88","html-slider-response","40","514605","0.0-5.0-1.6","180","1","2025-07-23 07:35:53","1f75c3e559b7213887762d5229550c2b","41.13.16.20","Mozilla/5.0 (Windows NT 10.0; Win64; x64) AppleWebKit/537.36 (KHTML, like Gecko) Chrome/138.0.0.0 Safari/537.36","WebKit","Chrome","138.0.0.0","Windows","10.0","https://app.prolific.com/","en-ZA,en-GB;q=0.9,en-US;q=0.8,en;q=0.7,zu;q=0.6","5f3287b83428cb05746e2214","683dba2a8a9dda3513610c04","688090bad379e39d5f5f58e8","3","0","5f3287b83428cb05746e2214","3","0","2025-07-23T07:44:39.992Z","","","","","","","","","","","AttribQ","","50","","","","","","","","","","","","","","","","","","","","","","","","","","","","",""
"3362","","<div style=""width:500px;"">
  <p>How much control did you have over the ball?</p>
  </div>","95","html-slider-response","41","517973","0.0-5.0-2.6","180","1","2025-07-23 07:35:53","1f75c3e559b7213887762d5229550c2b","41.13.16.20","Mozilla/5.0 (Windows NT 10.0; Win64; x64) AppleWebKit/537.36 (KHTML, like Gecko) Chrome/138.0.0.0 Safari/537.36","WebKit","Chrome","138.0.0.0","Windows","10.0","https://app.prolific.com/","en-ZA,en-GB;q=0.9,en-US;q=0.8,en;q=0.7,zu;q=0.6","5f3287b83428cb05746e2214","683dba2a8a9dda3513610c04","688090bad379e39d5f5f58e8","3","0","5f3287b83428cb05746e2214","3","0","2025-07-23T07:44:43.360Z","","","","","","","","","","","ControlQ","","50","","","","","","","","","","","","","","","","","","","","","","","","","","","","",""
"3041","","<div style=""width:500px;"">
  <p>How would you describe your current emotional state?</p>
  </div>","0","html-slider-response","42","521024","0.0-5.0-3.6","180","1","2025-07-23 07:35:53","1f75c3e559b7213887762d5229550c2b","41.13.16.20","Mozilla/5.0 (Windows NT 10.0; Win64; x64) AppleWebKit/537.36 (KHTML, like Gecko) Chrome/138.0.0.0 Safari/537.36","WebKit","Chrome","138.0.0.0","Windows","10.0","https://app.prolific.com/","en-ZA,en-GB;q=0.9,en-US;q=0.8,en;q=0.7,zu;q=0.6","5f3287b83428cb05746e2214","683dba2a8a9dda3513610c04","688090bad379e39d5f5f58e8","3","0","5f3287b83428cb05746e2214","3","0","2025-07-23T07:44:46.411Z","","","","","","","","","","","StressQ","","50","","","","","","","","","","","","","","","","","","","","","","","","","","","","",""
"2913","","<div style=""width:500px;"">
  <p>What best describes how you currently feel?</p>
  </div>","100","html-slider-response","43","523944","0.0-5.0-4.6","180","1","2025-07-23 07:35:53","1f75c3e559b7213887762d5229550c2b","41.13.16.20","Mozilla/5.0 (Windows NT 10.0; Win64; x64) AppleWebKit/537.36 (KHTML, like Gecko) Chrome/138.0.0.0 Safari/537.36","WebKit","Chrome","138.0.0.0","Windows","10.0","https://app.prolific.com/","en-ZA,en-GB;q=0.9,en-US;q=0.8,en;q=0.7,zu;q=0.6","5f3287b83428cb05746e2214","683dba2a8a9dda3513610c04","688090bad379e39d5f5f58e8","3","0","5f3287b83428cb05746e2214","3","0","2025-07-23T07:44:49.331Z","","","","","","","","","","","MotivationQ","","50","","","","","","","","","","","","","","","","","","","","","","","","","","","","",""
"","","","","ctl-task-cpt","44","635189","0.0-5.0-0.7","180","1","2025-07-23 07:35:53","1f75c3e559b7213887762d5229550c2b","41.13.16.20","Mozilla/5.0 (Windows NT 10.0; Win64; x64) AppleWebKit/537.36 (KHTML, like Gecko) Chrome/138.0.0.0 Safari/537.36","WebKit","Chrome","138.0.0.0","Windows","10.0","https://app.prolific.com/","en-ZA,en-GB;q=0.9,en-US;q=0.8,en;q=0.7,zu;q=0.6","5f3287b83428cb05746e2214","683dba2a8a9dda3513610c04","688090bad379e39d5f5f58e8","3","0","5f3287b83428cb05746e2214","3","0","2025-07-23T07:46:40.576Z","","","","","","","","","","","","","","win-only","3","g1:SW,g2:NE","0.3","8","0","540681.3","1807.6","6826.7","108210.4","1","4","4","6","2","4","4","47","43","0.3560606060606061","2326.8","3000","685","[""up"",""right""]","{""num_key_presses"":20,""num_perfect"":6,""num_errors"":0,""num_randdir"":14,""num_randdir_good_moves"":7,""num_whilered"":0,""num_whileblue"":0,""num_blue"":7,""num_good_moves"":13}","[276.7142857142857,268.6205357142857,0.2,276.7142857142857,268.6205357142857,106.7,276.7142857142857,268.6205357142857,222.6,276.7142857142857,268.6205357142857,323.5,276.7142857142857,268.6205357142857,435.9,276.7142857142857,268.6205357142857,553.2,276.7142857142857,268.6205357142857,682.7,276.7142857142857,268.6205357142857,786.5,276.7142857142857,268.6205357142857,918.8,276.7142857142857,268.6205357142857,1047.6,276.7142857142857,268.6205357142857,1193,276.7142857142857,268.6205357142857,1304.2,441.7142857142857,121.62053571428572,1429.9,472.7142857142857,52.620535714285715,1568.5,505.7142857142857,32.620535714285715,1680.9,513.7142857142857,26.620535714285715,1783.5,513.7142857142857,29.620535714285715,1903.6,509.7142857142857,48.620535714285715,2010.2,509.7142857142857,48.620535714285715,2122.4,509.7142857142857,48.620535714285715,2227.2,509.7142857142857,48.620535714285715,2362.1,509.7142857142857,48.620535714285715,2486.4,509.7142857142857,48.620535714285715,2615,509.7142857142857,48.620535714285715,2734.9,509.7142857142857,48.620535714285715,2843.4,509.7142857142857,48.620535714285715,2947.2,509.7142857142857,48.620535714285715,3052.6,509.7142857142857,48.620535714285715,3165.8,509.7142857142857,48.620535714285715,3279.8,509.7142857142857,48.620535714285715,3405.1,509.7142857142857,48.620535714285715,3521,509.7142857142857,48.620535714285715,3628.5,509.7142857142857,48.620535714285715,3742.9,509.7142857142857,48.620535714285715,3852.3,509.7142857142857,48.620535714285715,3953.2,509.7142857142857,48.620535714285715,4065.3,509.7142857142857,48.620535714285715,4169.3,509.7142857142857,48.620535714285715,4283.4,509.7142857142857,48.620535714285715,4393.3,509.7142857142857,48.620535714285715,4531.3,509.7142857142857,48.620535714285715,4642.6,509.7142857142857,48.620535714285715,4751.8,509.7142857142857,48.620535714285715,4853.6,509.7142857142857,48.620535714285715,4963.3]","[1630.4,1630.4,1000,0,630.4,""smooth"",""right"",""right"",""good_move"",5787.9,4155.5,3672,1632.4,483.5,""oops"",""up"",""left"",""bad_move"",10194.1,4401.9,2704.5,5792.2,1697.4,""oops"",""up"",""left"",""bad_move"",13953,3756.9,2509.9,10196.1,1247,""smooth"",""right"",""right"",""good_move"",16965.6,3010.8,2546.2,13954.8,464.6,""oops"",""right"",""right"",""good_move"",20303.1,3331.5,2799.3,16971.6,532.2,""oops"",""up"",""right"",""good_move"",22362.9,2057.9,1217.3,20305,840.6,""smooth"",""up"",""up"",""good_move"",27182,4816.5,2281.6,22365.5,2534.9,""oops"",""up"",""left"",""bad_move"",31495.2,4311.1,2777.3,27184.1,1533.8,""oops"",""up"",""left"",""bad_move"",38693.8,7192.8,2719,35499.9,475.1,""oops"",""right"",""down"",""bad_move"",45335,6633.1,2811.7,41990.8,532.5,""smooth"",""right"",""right"",""good_move"",48555,3218.3,2718.8,45336.7,499.5,""smooth"",""right"",""right"",""good_move"",55512.3,6945.2,2084.1,52927.8,500.4,""oops"",""up"",""up"",""good_move"",63613.5,8099.5,3135.7,59887.1,590.8,""oops"",""up"",""right"",""good_move"",67414.6,3784.9,3233.3,63629.7,551.6,""oops"",""up"",""up"",""good_move"",72564.5,5142.1,2241.2,67422.5,2900.8,""oops"",""up"",""down"",""bad_move"",84958.9,12386.5,2748.2,81539.3,671.4,""oops"",""up"",""left"",""bad_move"",89206.8,4243.2,2643.3,84963.7,1599.9,""smooth"",""up"",""up"",""good_move"",96866.4,7651.6,2028.1,94341.4,496.9,""oops"",""up"",""up"",""good_move"",100903.2,4035.7,3380,96867.5,655.7,""oops"",""right"",""right"",""good_move""]","",""
"4551","","<div style=""width:500px;"">
  <p>What determined the result of this run?</p>
  </div>","67","html-slider-response","45","639746","0.0-5.0-1.7","180","1","2025-07-23 07:35:53","1f75c3e559b7213887762d5229550c2b","41.13.16.20","Mozilla/5.0 (Windows NT 10.0; Win64; x64) AppleWebKit/537.36 (KHTML, like Gecko) Chrome/138.0.0.0 Safari/537.36","WebKit","Chrome","138.0.0.0","Windows","10.0","https://app.prolific.com/","en-ZA,en-GB;q=0.9,en-US;q=0.8,en;q=0.7,zu;q=0.6","5f3287b83428cb05746e2214","683dba2a8a9dda3513610c04","688090bad379e39d5f5f58e8","3","0","5f3287b83428cb05746e2214","3","0","2025-07-23T07:46:45.134Z","","","","","","","","","","","AttribQ","","50","","","","","","","","","","","","","","","","","","","","","","","","","","","","",""
"4994","","<div style=""width:500px;"">
  <p>How much control did you have over the ball?</p>
  </div>","68","html-slider-response","46","644745","0.0-5.0-2.7","180","1","2025-07-23 07:35:53","1f75c3e559b7213887762d5229550c2b","41.13.16.20","Mozilla/5.0 (Windows NT 10.0; Win64; x64) AppleWebKit/537.36 (KHTML, like Gecko) Chrome/138.0.0.0 Safari/537.36","WebKit","Chrome","138.0.0.0","Windows","10.0","https://app.prolific.com/","en-ZA,en-GB;q=0.9,en-US;q=0.8,en;q=0.7,zu;q=0.6","5f3287b83428cb05746e2214","683dba2a8a9dda3513610c04","688090bad379e39d5f5f58e8","3","0","5f3287b83428cb05746e2214","3","0","2025-07-23T07:46:50.132Z","","","","","","","","","","","ControlQ","","50","","","","","","","","","","","","","","","","","","","","","","","","","","","","",""
"3806","","<div style=""width:500px;"">
  <p>How would you describe your current emotional state?</p>
  </div>","66","html-slider-response","47","648557","0.0-5.0-3.7","180","1","2025-07-23 07:35:53","1f75c3e559b7213887762d5229550c2b","41.13.16.20","Mozilla/5.0 (Windows NT 10.0; Win64; x64) AppleWebKit/537.36 (KHTML, like Gecko) Chrome/138.0.0.0 Safari/537.36","WebKit","Chrome","138.0.0.0","Windows","10.0","https://app.prolific.com/","en-ZA,en-GB;q=0.9,en-US;q=0.8,en;q=0.7,zu;q=0.6","5f3287b83428cb05746e2214","683dba2a8a9dda3513610c04","688090bad379e39d5f5f58e8","3","0","5f3287b83428cb05746e2214","3","0","2025-07-23T07:46:53.944Z","","","","","","","","","","","StressQ","","50","","","","","","","","","","","","","","","","","","","","","","","","","","","","",""
"4872","","<div style=""width:500px;"">
  <p>What best describes how you currently feel?</p>
  </div>","85","html-slider-response","48","653445","0.0-5.0-4.7","180","1","2025-07-23 07:35:53","1f75c3e559b7213887762d5229550c2b","41.13.16.20","Mozilla/5.0 (Windows NT 10.0; Win64; x64) AppleWebKit/537.36 (KHTML, like Gecko) Chrome/138.0.0.0 Safari/537.36","WebKit","Chrome","138.0.0.0","Windows","10.0","https://app.prolific.com/","en-ZA,en-GB;q=0.9,en-US;q=0.8,en;q=0.7,zu;q=0.6","5f3287b83428cb05746e2214","683dba2a8a9dda3513610c04","688090bad379e39d5f5f58e8","3","0","5f3287b83428cb05746e2214","3","0","2025-07-23T07:46:58.832Z","","","","","","","","","","","MotivationQ","","50","","","","","","","","","","","","","","","","","","","","","","","","","","","","",""
"","","","","ctl-task-cpt","49","777654","0.0-5.0-0.8","180","1","2025-07-23 07:35:53","1f75c3e559b7213887762d5229550c2b","41.13.16.20","Mozilla/5.0 (Windows NT 10.0; Win64; x64) AppleWebKit/537.36 (KHTML, like Gecko) Chrome/138.0.0.0 Safari/537.36","WebKit","Chrome","138.0.0.0","Windows","10.0","https://app.prolific.com/","en-ZA,en-GB;q=0.9,en-US;q=0.8,en;q=0.7,zu;q=0.6","5f3287b83428cb05746e2214","683dba2a8a9dda3513610c04","688090bad379e39d5f5f58e8","3","0","5f3287b83428cb05746e2214","3","0","2025-07-23T07:49:03.041Z","","","","","","","","","","","","","","win-only","1","g1:NE,g2:SW","0.2","9","0","670179.9","1629.3","6645.5","121177.3","1","4","8","6","2","-8","-10","37","47","0.2803030303030303","1495.5","3000","-595","[""down"",""left""]","{""num_key_presses"":28,""num_perfect"":4,""num_errors"":2,""num_randdir"":22,""num_randdir_good_moves"":10,""num_whilered"":0,""num_whileblue"":1,""num_blue"":4,""num_good_moves"":14}","[278.7142857142857,278.6205357142857,0.9,278.7142857142857,278.6205357142857,118.8,278.7142857142857,278.6205357142857,221.3,278.7142857142857,278.6205357142857,340.6,278.7142857142857,278.6205357142857,451,278.7142857142857,278.6205357142857,554.9,222.71428571428572,329.6205357142857,675.1,123.71428571428572,434.6205357142857,791.4,88.71428571428572,476.6205357142857,900,79.71428571428572,490.6205357142857,1024.1,62.714285714285715,498.6205357142857,1138.9,61.714285714285715,498.6205357142857,1239.9,61.714285714285715,498.6205357142857,1350.5,61.714285714285715,498.6205357142857,1465.5,61.714285714285715,498.6205357142857,1569.8,61.714285714285715,498.6205357142857,1691.3,61.714285714285715,498.6205357142857,1798.3,61.714285714285715,498.6205357142857,1915.4,61.714285714285715,498.6205357142857,2041,61.714285714285715,498.6205357142857,2154.1,61.714285714285715,498.6205357142857,2254.6,61.714285714285715,498.6205357142857,2372,61.714285714285715,498.6205357142857,2474.6,61.714285714285715,498.6205357142857,2584,61.714285714285715,498.6205357142857,2684.2,61.714285714285715,498.6205357142857,2787.9,61.714285714285715,498.6205357142857,2891.6,61.714285714285715,498.6205357142857,2997.5,61.714285714285715,498.6205357142857,3119.8,61.714285714285715,498.6205357142857,3224.9,61.714285714285715,498.6205357142857,3337.3,61.714285714285715,498.6205357142857,3460.4,61.714285714285715,498.6205357142857,3573.7,61.714285714285715,498.6205357142857,3675.5,61.714285714285715,498.6205357142857,3786.9,61.714285714285715,498.6205357142857,3897.6,61.714285714285715,498.6205357142857,4035.3,61.714285714285715,498.6205357142857,4135.7,61.714285714285715,498.6205357142857,4244.2,61.714285714285715,498.6205357142857,4348.1,61.714285714285715,498.6205357142857,4452.1,61.714285714285715,498.6205357142857,4564.1,61.714285714285715,498.6205357142857,4670.8,61.714285714285715,498.6205357142857,4782.8,61.714285714285715,498.6205357142857,4893]","[1617.5,1617.5,1000,0,617.5,""smooth"",""down"",""down"",""good_move"",4162.3,2536.4,1976.3,1625.9,560.1,""oops"",""down"",""right"",""bad_move"",7142.1,2974.1,2447.8,4168,526.3,""smooth"",""down"",""down"",""good_move"",9848.9,2700.9,2139.8,7148,561.1,""oops"",""down"",""down"",""good_move"",15901.3,6049.9,2275.7,13122.6,503,""oops"",""left"",""left"",""good_move"",21691.3,5785.2,2208.3,15906.2,3576.9,""oops"",""left"",""up"",""bad_move"",28207.3,6513.2,2119.2,21694.1,4394,""oops"",""left"",""right"",""bad_move"",30688.5,2479.4,1693,28209.1,786.4,""oops"",""down"",""up"",""bad_move"",35230.1,4538.6,1718.9,30691.5,2819.7,""oops"",""left"",""up"",""bad_move"",39689.3,4448.6,1924.7,35240.9,2523.8,""oops"",""down"",""right"",""bad_move"",42757.8,3066.4,2576.9,39691.6,489.3,""oops"",""down"",""left"",""good_move"",46587.9,3828.1,2232.5,42759.8,1595.6,""oops"",""down"",""up"",""bad_move"",51124.4,4534.4,2450.4,46590.1,2083.9,""oops"",""down"",""up"",""bad_move"",56222,5079.1,2346.8,51143,2732.2,""oops"",""down"",""right"",""bad_move"",58779.2,2539.2,2027.4,56240.1,511.7,""oops"",""down"",""left"",""good_move"",62560.9,3775.6,3342.8,58785.3,432.8,""while_blue"",""down"",""right"",""bad_move"",65315.1,2745.4,2142.4,62569.7,603,""oops"",""down"",""down"",""good_move"",71215.8,5897.2,2268.5,68431.7,515.7,""smooth"",""down"",""down"",""good_move"",74163,2940.3,2405.3,71222.7,535,""smooth"",""down"",""down"",""good_move"",76769.4,2596.7,2106,74172.7,490.7,""oops"",""down"",""up"",""bad_move"",80855.6,4084,2505.9,76771.6,1578.1,""oops"",""down"",""down"",""good_move"",84186.8,3327.8,2808,80859.1,519.8,""oops"",""down"",""down"",""good_move"",87661.7,3471,2927.8,84190.8,543.2,""oops"",""down"",""left"",""good_move"",90853.9,3188.8,2791,87665.1,397.8,""oops"",""down"",""down"",""good_move"",93257.8,2397.1,2435.7,90860.7,-38.6,""error"",""-"",""-"",""no_move"",97742.7,4483.3,2689.3,94261.5,791.9,""oops"",""left"",""up"",""bad_move"",101909.2,4164.5,1898.1,97744.8,2266.3,""oops"",""left"",""up"",""bad_move"",110478.1,8565,3477.8,106459.1,541.2,""oops"",""left"",""left"",""good_move""]","",""
"4498","","<div style=""width:500px;"">
  <p>What determined the result of this run?</p>
  </div>","0","html-slider-response","50","782157","0.0-5.0-1.8","180","1","2025-07-23 07:35:53","1f75c3e559b7213887762d5229550c2b","41.13.16.20","Mozilla/5.0 (Windows NT 10.0; Win64; x64) AppleWebKit/537.36 (KHTML, like Gecko) Chrome/138.0.0.0 Safari/537.36","WebKit","Chrome","138.0.0.0","Windows","10.0","https://app.prolific.com/","en-ZA,en-GB;q=0.9,en-US;q=0.8,en;q=0.7,zu;q=0.6","5f3287b83428cb05746e2214","683dba2a8a9dda3513610c04","688090bad379e39d5f5f58e8","3","0","5f3287b83428cb05746e2214","3","0","2025-07-23T07:49:07.545Z","","","","","","","","","","","AttribQ","","50","","","","","","","","","","","","","","","","","","","","","","","","","","","","",""
"3367","","<div style=""width:500px;"">
  <p>How much control did you have over the ball?</p>
  </div>","0","html-slider-response","51","785529","0.0-5.0-2.8","180","1","2025-07-23 07:35:53","1f75c3e559b7213887762d5229550c2b","41.13.16.20","Mozilla/5.0 (Windows NT 10.0; Win64; x64) AppleWebKit/537.36 (KHTML, like Gecko) Chrome/138.0.0.0 Safari/537.36","WebKit","Chrome","138.0.0.0","Windows","10.0","https://app.prolific.com/","en-ZA,en-GB;q=0.9,en-US;q=0.8,en;q=0.7,zu;q=0.6","5f3287b83428cb05746e2214","683dba2a8a9dda3513610c04","688090bad379e39d5f5f58e8","3","0","5f3287b83428cb05746e2214","3","0","2025-07-23T07:49:10.916Z","","","","","","","","","","","ControlQ","","50","","","","","","","","","","","","","","","","","","","","","","","","","","","","",""
"3649","","<div style=""width:500px;"">
  <p>How would you describe your current emotional state?</p>
  </div>","100","html-slider-response","52","789185","0.0-5.0-3.8","180","1","2025-07-23 07:35:53","1f75c3e559b7213887762d5229550c2b","41.13.16.20","Mozilla/5.0 (Windows NT 10.0; Win64; x64) AppleWebKit/537.36 (KHTML, like Gecko) Chrome/138.0.0.0 Safari/537.36","WebKit","Chrome","138.0.0.0","Windows","10.0","https://app.prolific.com/","en-ZA,en-GB;q=0.9,en-US;q=0.8,en;q=0.7,zu;q=0.6","5f3287b83428cb05746e2214","683dba2a8a9dda3513610c04","688090bad379e39d5f5f58e8","3","0","5f3287b83428cb05746e2214","3","0","2025-07-23T07:49:14.573Z","","","","","","","","","","","StressQ","","50","","","","","","","","","","","","","","","","","","","","","","","","","","","","",""
"4795","","<div style=""width:500px;"">
  <p>What best describes how you currently feel?</p>
  </div>","65","html-slider-response","53","794008","0.0-5.0-4.8","180","1","2025-07-23 07:35:53","1f75c3e559b7213887762d5229550c2b","41.13.16.20","Mozilla/5.0 (Windows NT 10.0; Win64; x64) AppleWebKit/537.36 (KHTML, like Gecko) Chrome/138.0.0.0 Safari/537.36","WebKit","Chrome","138.0.0.0","Windows","10.0","https://app.prolific.com/","en-ZA,en-GB;q=0.9,en-US;q=0.8,en;q=0.7,zu;q=0.6","5f3287b83428cb05746e2214","683dba2a8a9dda3513610c04","688090bad379e39d5f5f58e8","3","0","5f3287b83428cb05746e2214","3","0","2025-07-23T07:49:19.395Z","","","","","","","","","","","MotivationQ","","50","","","","","","","","","","","","","","","","","","","","","","","","","","","","",""
"","","","","ctl-task-cpt","54","943490","0.0-5.0-0.9","180","1","2025-07-23 07:35:53","1f75c3e559b7213887762d5229550c2b","41.13.16.20","Mozilla/5.0 (Windows NT 10.0; Win64; x64) AppleWebKit/537.36 (KHTML, like Gecko) Chrome/138.0.0.0 Safari/537.36","WebKit","Chrome","138.0.0.0","Windows","10.0","https://app.prolific.com/","en-ZA,en-GB;q=0.9,en-US;q=0.8,en;q=0.7,zu;q=0.6","5f3287b83428cb05746e2214","683dba2a8a9dda3513610c04","688090bad379e39d5f5f58e8","3","0","5f3287b83428cb05746e2214","3","0","2025-07-23T07:51:48.878Z","","","","","","","","","","","","","","win-only","0","g1:NW,g2:SE","0.4","10","0","810755","1531.1","6589","146438.8","1","4","4","6","2","-4","-4","33","37","0.25","1524.2","3000","-720","[""down"",""right""]","{""num_key_presses"":27,""num_perfect"":11,""num_errors"":0,""num_randdir"":16,""num_randdir_good_moves"":5,""num_whilered"":0,""num_whileblue"":0,""num_blue"":9,""num_good_moves"":16}","[277.7142857142857,275.6205357142857,5.7,277.7142857142857,275.6205357142857,119.3,277.7142857142857,275.6205357142857,240,277.7142857142857,275.6205357142857,357.3,277.7142857142857,275.6205357142857,478.8,277.7142857142857,275.6205357142857,606.5,353.7142857142857,307.6205357142857,713.4,437.7142857142857,381.6205357142857,817.2,478.7142857142857,443.6205357142857,929.8,491.7142857142857,495.6205357142857,1036.9,495.7142857142857,504.6205357142857,1174,495.7142857142857,504.6205357142857,1306.3,495.7142857142857,504.6205357142857,1414.6,495.7142857142857,504.6205357142857,1562.4,495.7142857142857,504.6205357142857,1690.5,495.7142857142857,504.6205357142857,1806.3,495.7142857142857,504.6205357142857,1914.7,495.7142857142857,504.6205357142857,2039.4,495.7142857142857,504.6205357142857,2139.5,495.7142857142857,504.6205357142857,2261.9,495.7142857142857,504.6205357142857,2363.3,495.7142857142857,504.6205357142857,2496.8,495.7142857142857,504.6205357142857,2599.4,495.7142857142857,504.6205357142857,2706.5,495.7142857142857,504.6205357142857,2846.6,495.7142857142857,504.6205357142857,2947.8,495.7142857142857,504.6205357142857,3049.9,495.7142857142857,504.6205357142857,3165.7,495.7142857142857,504.6205357142857,3296.4,495.7142857142857,504.6205357142857,3398.6,495.7142857142857,504.6205357142857,3499.8,495.7142857142857,504.6205357142857,3600.4,495.7142857142857,504.6205357142857,3717.4,495.7142857142857,504.6205357142857,3820.5,495.7142857142857,504.6205357142857,3923.2,495.7142857142857,504.6205357142857,4025.7,495.7142857142857,504.6205357142857,4142.7,495.7142857142857,504.6205357142857,4254.3,495.7142857142857,504.6205357142857,4365.1,495.7142857142857,504.6205357142857,4473,495.7142857142857,504.6205357142857,4573,495.7142857142857,504.6205357142857,4682.6,495.7142857142857,504.6205357142857,4787,495.7142857142857,504.6205357142857,4920.6]","[1675.1,1675.1,1000,0,675.1,""smooth"",""down"",""down"",""good_move"",4093.1,2415,1924.3,1678.1,490.7,""oops"",""down"",""up"",""bad_move"",8430.8,4323.8,2701.2,4107,1622.6,""smooth"",""right"",""right"",""good_move"",11879.6,3439.9,2972.2,8439.7,467.7,""oops"",""right"",""left"",""bad_move"",15793.1,3897.3,3373.9,11895.9,523.3,""oops"",""down"",""left"",""bad_move"",20108.8,4312.8,2704,15796.1,1608.8,""oops"",""down"",""right"",""good_move"",23291.6,3174.5,2639.4,20117.1,535.1,""smooth"",""down"",""down"",""good_move"",34514.5,11217.7,2751.2,31201.5,561.8,""smooth"",""down"",""down"",""good_move"",37960.8,3444.8,2869.8,34516,575,""oops"",""down"",""up"",""bad_move"",41924.7,3945.2,2563.8,37979.5,1381.4,""oops"",""right"",""left"",""bad_move"",49838.1,7910.7,2466.5,46806,565.6,""oops"",""down"",""down"",""good_move"",52866.3,3024.3,2235.3,49842,789,""oops"",""down"",""up"",""bad_move"",57762.7,4894.1,2457,52868.6,2437.1,""smooth"",""right"",""right"",""good_move"",60583.9,2819.3,2354,57764.7,465.3,""smooth"",""right"",""right"",""good_move"",63918.4,3332.5,2817.5,60585.9,515,""oops"",""right"",""left"",""bad_move"",69967.6,6042.4,2615.5,63925.2,3426.9,""smooth"",""down"",""down"",""good_move"",74015.8,4046.6,3207.4,69969.2,839.2,""smooth"",""down"",""down"",""good_move"",77693.9,3673.7,3208.4,74020.2,465.3,""oops"",""right"",""right"",""good_move"",81159.2,3457,2969.7,77702.2,487.3,""oops"",""right"",""left"",""bad_move"",95567.4,14406.2,3455.2,91525.6,586.6,""oops"",""right"",""left"",""bad_move"",102979.8,7407.1,1982.9,100435.5,561.4,""oops"",""right"",""right"",""good_move"",105857.6,2874.3,2289,102983.4,585.2,""smooth"",""right"",""right"",""good_move"",113359.4,7496.9,3073.3,109754.4,531.7,""oops"",""right"",""up"",""bad_move"",122198.7,8836.7,2574.2,119080.2,544.4,""smooth"",""right"",""right"",""good_move"",125522.4,3320.8,2643.7,122201.6,677.1,""oops"",""right"",""left"",""bad_move"",129579.7,4055,2763.2,125524.7,1291.8,""smooth"",""down"",""down"",""good_move"",132663.8,3081.4,2641,129582.4,440.4,""oops"",""right"",""right"",""good_move""]","",""
"4305","","<div style=""width:500px;"">
  <p>What determined the result of this run?</p>
  </div>","1","html-slider-response","55","947800","0.0-5.0-1.9","180","1","2025-07-23 07:35:53","1f75c3e559b7213887762d5229550c2b","41.13.16.20","Mozilla/5.0 (Windows NT 10.0; Win64; x64) AppleWebKit/537.36 (KHTML, like Gecko) Chrome/138.0.0.0 Safari/537.36","WebKit","Chrome","138.0.0.0","Windows","10.0","https://app.prolific.com/","en-ZA,en-GB;q=0.9,en-US;q=0.8,en;q=0.7,zu;q=0.6","5f3287b83428cb05746e2214","683dba2a8a9dda3513610c04","688090bad379e39d5f5f58e8","3","0","5f3287b83428cb05746e2214","3","0","2025-07-23T07:51:53.187Z","","","","","","","","","","","AttribQ","","50","","","","","","","","","","","","","","","","","","","","","","","","","","","","",""
"3386","","<div style=""width:500px;"">
  <p>How much control did you have over the ball?</p>
  </div>","0","html-slider-response","56","951192","0.0-5.0-2.9","180","1","2025-07-23 07:35:53","1f75c3e559b7213887762d5229550c2b","41.13.16.20","Mozilla/5.0 (Windows NT 10.0; Win64; x64) AppleWebKit/537.36 (KHTML, like Gecko) Chrome/138.0.0.0 Safari/537.36","WebKit","Chrome","138.0.0.0","Windows","10.0","https://app.prolific.com/","en-ZA,en-GB;q=0.9,en-US;q=0.8,en;q=0.7,zu;q=0.6","5f3287b83428cb05746e2214","683dba2a8a9dda3513610c04","688090bad379e39d5f5f58e8","3","0","5f3287b83428cb05746e2214","3","0","2025-07-23T07:51:56.579Z","","","","","","","","","","","ControlQ","","50","","","","","","","","","","","","","","","","","","","","","","","","","","","","",""
"3721","","<div style=""width:500px;"">
  <p>How would you describe your current emotional state?</p>
  </div>","100","html-slider-response","57","954919","0.0-5.0-3.9","180","1","2025-07-23 07:35:53","1f75c3e559b7213887762d5229550c2b","41.13.16.20","Mozilla/5.0 (Windows NT 10.0; Win64; x64) AppleWebKit/537.36 (KHTML, like Gecko) Chrome/138.0.0.0 Safari/537.36","WebKit","Chrome","138.0.0.0","Windows","10.0","https://app.prolific.com/","en-ZA,en-GB;q=0.9,en-US;q=0.8,en;q=0.7,zu;q=0.6","5f3287b83428cb05746e2214","683dba2a8a9dda3513610c04","688090bad379e39d5f5f58e8","3","0","5f3287b83428cb05746e2214","3","0","2025-07-23T07:52:00.306Z","","","","","","","","","","","StressQ","","50","","","","","","","","","","","","","","","","","","","","","","","","","","","","",""
"4447","","<div style=""width:500px;"">
  <p>What best describes how you currently feel?</p>
  </div>","14","html-slider-response","58","959372","0.0-5.0-4.9","180","1","2025-07-23 07:35:53","1f75c3e559b7213887762d5229550c2b","41.13.16.20","Mozilla/5.0 (Windows NT 10.0; Win64; x64) AppleWebKit/537.36 (KHTML, like Gecko) Chrome/138.0.0.0 Safari/537.36","WebKit","Chrome","138.0.0.0","Windows","10.0","https://app.prolific.com/","en-ZA,en-GB;q=0.9,en-US;q=0.8,en;q=0.7,zu;q=0.6","5f3287b83428cb05746e2214","683dba2a8a9dda3513610c04","688090bad379e39d5f5f58e8","3","0","5f3287b83428cb05746e2214","3","0","2025-07-23T07:52:04.760Z","","","","","","","","","","","MotivationQ","","50","","","","","","","","","","","","","","","","","","","","","","","","","","","","",""
"","","","","ctl-task-cpt","59","1047522","0.0-5.0-0.10","180","1","2025-07-23 07:35:53","1f75c3e559b7213887762d5229550c2b","41.13.16.20","Mozilla/5.0 (Windows NT 10.0; Win64; x64) AppleWebKit/537.36 (KHTML, like Gecko) Chrome/138.0.0.0 Safari/537.36","WebKit","Chrome","138.0.0.0","Windows","10.0","https://app.prolific.com/","en-ZA,en-GB;q=0.9,en-US;q=0.8,en;q=0.7,zu;q=0.6","5f3287b83428cb05746e2214","683dba2a8a9dda3513610c04","688090bad379e39d5f5f58e8","3","0","5f3287b83428cb05746e2214","3","0","2025-07-23T07:53:32.909Z","","","","","","","","","","","","","","win-only","1","g1:NE,g2:SW","0.5","11","0","976108.5","2576.4","7601.8","85107.4","1","4","8","6","2","8","8","41","33","0.3106060606060606","1618.5","3000","1185","[""down"",""left""]","{""num_key_presses"":18,""num_perfect"":9,""num_errors"":0,""num_randdir"":9,""num_randdir_good_moves"":3,""num_whilered"":0,""num_whileblue"":0,""num_blue"":3,""num_good_moves"":12}","[278.7142857142857,275.6205357142857,1.1,278.7142857142857,275.6205357142857,100.2,278.7142857142857,275.6205357142857,228,278.7142857142857,275.6205357142857,349.6,278.7142857142857,275.6205357142857,461.8,278.7142857142857,275.6205357142857,563.5,278.7142857142857,275.6205357142857,685.5,278.7142857142857,275.6205357142857,810.4,134.71428571428572,368.6205357142857,916.7,76.71428571428572,455.6205357142857,1057.9,61.714285714285715,483.6205357142857,1181,60.714285714285715,486.6205357142857,1281.7,60.714285714285715,486.6205357142857,1381.7,60.714285714285715,486.6205357142857,1498.9,60.714285714285715,486.6205357142857,1599,60.714285714285715,486.6205357142857,1699,60.714285714285715,486.6205357142857,1823.3,60.714285714285715,486.6205357142857,1946.1,60.714285714285715,486.6205357142857,2085,60.714285714285715,486.6205357142857,2190.4,60.714285714285715,486.6205357142857,2319.9,60.714285714285715,486.6205357142857,2429.9,60.714285714285715,486.6205357142857,2533.4,60.714285714285715,486.6205357142857,2642.2,60.714285714285715,486.6205357142857,2744,60.714285714285715,486.6205357142857,2859.7,60.714285714285715,486.6205357142857,2964.6,60.714285714285715,486.6205357142857,3076,60.714285714285715,486.6205357142857,3195.7,60.714285714285715,486.6205357142857,3303.3,60.714285714285715,486.6205357142857,3413.9,60.714285714285715,486.6205357142857,3536,60.714285714285715,486.6205357142857,3649.4,60.714285714285715,486.6205357142857,3777.6,60.714285714285715,486.6205357142857,3883.9,60.714285714285715,486.6205357142857,3999,60.714285714285715,486.6205357142857,4106.4,60.714285714285715,486.6205357142857,4235.8,60.714285714285715,486.6205357142857,4365.1,60.714285714285715,486.6205357142857,4468.7,60.714285714285715,486.6205357142857,4581.5,60.714285714285715,486.6205357142857,4682.8,60.714285714285715,486.6205357142857,4804,60.714285714285715,486.6205357142857,4914.4]","[1597.6,1597.6,1000,0,597.6,""oops"",""down"",""right"",""bad_move"",12358.3,10759.1,2792.6,9012.3,553.4,""oops"",""down"",""left"",""good_move"",17001.6,4641.9,2333,12359.7,2309,""smooth"",""down"",""down"",""good_move"",19823.7,2813,2090.7,17010.8,722.3,""smooth"",""down"",""down"",""good_move"",25126.3,5300.6,2212,22463,451.3,""oops"",""down"",""right"",""bad_move"",28143.4,3015.1,2391.7,25128.4,623.3,""smooth"",""down"",""down"",""good_move"",31185.7,3040.5,2276.6,28145.2,763.9,""smooth"",""left"",""left"",""good_move"",37430.5,6242.8,2451.6,31187.9,3791,""oops"",""left"",""right"",""bad_move"",41222.6,3789,3243.2,37433.6,545.8,""smooth"",""left"",""left"",""good_move"",46086.5,4858.9,1337.9,41227.6,3521,""oops"",""left"",""up"",""bad_move"",50477.4,4386,2200.7,46091.5,2185.3,""oops"",""left"",""right"",""bad_move"",54097.8,3617.3,3059,50480.5,558.3,""oops"",""down"",""down"",""good_move"",56984.8,2877.7,2204.1,54107.2,673.5,""smooth"",""left"",""left"",""good_move"",61262.7,4276,2476.6,56986.7,1799.4,""smooth"",""left"",""left"",""good_move"",65707.4,4438.9,2536.2,61268.5,1902.7,""oops"",""left"",""right"",""bad_move"",68285.8,2574.6,1863.9,65711.2,710.7,""smooth"",""left"",""left"",""good_move"",72537.7,4245.6,2865.4,68292.2,1380.1,""oops"",""left"",""left"",""good_move"",77115.6,4572.1,2619.7,72544.2,1952.4,""smooth"",""left"",""left"",""good_move""]","",""
"4019","","<div style=""width:500px;"">
  <p>What determined the result of this run?</p>
  </div>","26","html-slider-response","60","1051544","0.0-5.0-1.10","180","1","2025-07-23 07:35:53","1f75c3e559b7213887762d5229550c2b","41.13.16.20","Mozilla/5.0 (Windows NT 10.0; Win64; x64) AppleWebKit/537.36 (KHTML, like Gecko) Chrome/138.0.0.0 Safari/537.36","WebKit","Chrome","138.0.0.0","Windows","10.0","https://app.prolific.com/","en-ZA,en-GB;q=0.9,en-US;q=0.8,en;q=0.7,zu;q=0.6","5f3287b83428cb05746e2214","683dba2a8a9dda3513610c04","688090bad379e39d5f5f58e8","3","0","5f3287b83428cb05746e2214","3","0","2025-07-23T07:53:36.931Z","","","","","","","","","","","AttribQ","","50","","","","","","","","","","","","","","","","","","","","","","","","","","","","",""
"3773","","<div style=""width:500px;"">
  <p>How much control did you have over the ball?</p>
  </div>","0","html-slider-response","61","1055323","0.0-5.0-2.10","180","1","2025-07-23 07:35:53","1f75c3e559b7213887762d5229550c2b","41.13.16.20","Mozilla/5.0 (Windows NT 10.0; Win64; x64) AppleWebKit/537.36 (KHTML, like Gecko) Chrome/138.0.0.0 Safari/537.36","WebKit","Chrome","138.0.0.0","Windows","10.0","https://app.prolific.com/","en-ZA,en-GB;q=0.9,en-US;q=0.8,en;q=0.7,zu;q=0.6","5f3287b83428cb05746e2214","683dba2a8a9dda3513610c04","688090bad379e39d5f5f58e8","3","0","5f3287b83428cb05746e2214","3","0","2025-07-23T07:53:40.710Z","","","","","","","","","","","ControlQ","","50","","","","","","","","","","","","","","","","","","","","","","","","","","","","",""
"3729","","<div style=""width:500px;"">
  <p>How would you describe your current emotional state?</p>
  </div>","99","html-slider-response","62","1059060","0.0-5.0-3.10","180","1","2025-07-23 07:35:53","1f75c3e559b7213887762d5229550c2b","41.13.16.20","Mozilla/5.0 (Windows NT 10.0; Win64; x64) AppleWebKit/537.36 (KHTML, like Gecko) Chrome/138.0.0.0 Safari/537.36","WebKit","Chrome","138.0.0.0","Windows","10.0","https://app.prolific.com/","en-ZA,en-GB;q=0.9,en-US;q=0.8,en;q=0.7,zu;q=0.6","5f3287b83428cb05746e2214","683dba2a8a9dda3513610c04","688090bad379e39d5f5f58e8","3","0","5f3287b83428cb05746e2214","3","0","2025-07-23T07:53:44.447Z","","","","","","","","","","","StressQ","","50","","","","","","","","","","","","","","","","","","","","","","","","","","","","",""
"4437","","<div style=""width:500px;"">
  <p>What best describes how you currently feel?</p>
  </div>","50","html-slider-response","63","1063511","0.0-5.0-4.10","180","1","2025-07-23 07:35:53","1f75c3e559b7213887762d5229550c2b","41.13.16.20","Mozilla/5.0 (Windows NT 10.0; Win64; x64) AppleWebKit/537.36 (KHTML, like Gecko) Chrome/138.0.0.0 Safari/537.36","WebKit","Chrome","138.0.0.0","Windows","10.0","https://app.prolific.com/","en-ZA,en-GB;q=0.9,en-US;q=0.8,en;q=0.7,zu;q=0.6","5f3287b83428cb05746e2214","683dba2a8a9dda3513610c04","688090bad379e39d5f5f58e8","3","0","5f3287b83428cb05746e2214","3","0","2025-07-23T07:53:48.899Z","","","","","","","","","","","MotivationQ","","50","","","","","","","","","","","","","","","","","","","","","","","","","","","","",""
"","","","","ctl-task-cpt","64","1109233","0.0-5.0-0.11","180","1","2025-07-23 07:35:53","1f75c3e559b7213887762d5229550c2b","41.13.16.20","Mozilla/5.0 (Windows NT 10.0; Win64; x64) AppleWebKit/537.36 (KHTML, like Gecko) Chrome/138.0.0.0 Safari/537.36","WebKit","Chrome","138.0.0.0","Windows","10.0","https://app.prolific.com/","en-ZA,en-GB;q=0.9,en-US;q=0.8,en;q=0.7,zu;q=0.6","5f3287b83428cb05746e2214","683dba2a8a9dda3513610c04","688090bad379e39d5f5f58e8","3","0","5f3287b83428cb05746e2214","3","0","2025-07-23T07:54:34.620Z","","","","","","","","","","","","","","win-only","3","g1:SW,g2:NE","0.6","12","0","1080251.6","1955","6985","42673.2","1","4","4","6","2","4","4","45","41","0.3409090909090909","1859.6","3000","2150","[""up"",""right""]","{""num_key_presses"":8,""num_perfect"":5,""num_errors"":0,""num_randdir"":3,""num_randdir_good_moves"":2,""num_whilered"":0,""num_whileblue"":0,""num_blue"":2,""num_good_moves"":7}","[276.7142857142857,282.6205357142857,3.8,276.7142857142857,282.6205357142857,117.5,276.7142857142857,282.6205357142857,252.6,276.7142857142857,282.6205357142857,353.3,276.7142857142857,282.6205357142857,465.4,276.7142857142857,282.6205357142857,580.6,282.7142857142857,278.6205357142857,711.4,383.7142857142857,166.62053571428572,834.3,383.7142857142857,166.62053571428572,965.3,383.7142857142857,165.62053571428572,1083.6,429.7142857142857,82.62053571428572,1202.2,464.7142857142857,59.620535714285715,1321.2,469.7142857142857,58.620535714285715,1432,478.7142857142857,56.620535714285715,1532.1,478.7142857142857,56.620535714285715,1664,478.7142857142857,56.620535714285715,1771.2,478.7142857142857,56.620535714285715,1896.1,478.7142857142857,56.620535714285715,1999.5,478.7142857142857,56.620535714285715,2141.2,478.7142857142857,56.620535714285715,2246.3,478.7142857142857,56.620535714285715,2351.3,478.7142857142857,56.620535714285715,2464.1,478.7142857142857,56.620535714285715,2568.8,478.7142857142857,56.620535714285715,2694.2,478.7142857142857,56.620535714285715,2810.3,478.7142857142857,56.620535714285715,2910.4,478.7142857142857,56.620535714285715,3048.6,478.7142857142857,56.620535714285715,3149,478.7142857142857,56.620535714285715,3277.5,478.7142857142857,56.620535714285715,3394.9,478.7142857142857,56.620535714285715,3519.1,478.7142857142857,56.620535714285715,3641.6,478.7142857142857,56.620535714285715,3763.7,478.7142857142857,56.620535714285715,3869.3,478.7142857142857,56.620535714285715,3979.2,478.7142857142857,56.620535714285715,4084.9,478.7142857142857,56.620535714285715,4199.5,478.7142857142857,56.620535714285715,4333.6,478.7142857142857,56.620535714285715,4436.4,478.7142857142857,56.620535714285715,4585.4,478.7142857142857,56.620535714285715,4690.4,478.7142857142857,56.620535714285715,4802.1,478.7142857142857,56.620535714285715,4946.4]","[5196,5196,2461.5,2019.4,715.1,""smooth"",""right"",""right"",""good_move"",10700.7,5502.8,1867.4,8333.1,500.2,""smooth"",""right"",""right"",""good_move"",13832.7,3127.7,2471,10705,656.7,""oops"",""right"",""right"",""good_move"",16412.2,2576.5,1715.3,13835.7,861.2,""oops"",""up"",""down"",""bad_move"",19574.7,3159.4,2537.7,16415.3,621.7,""smooth"",""up"",""up"",""good_move"",25674.2,6085.9,2252.4,19588.4,3833.5,""oops"",""up"",""up"",""good_move"",30180.6,4501.1,2614.6,25679.5,1886.5,""smooth"",""up"",""up"",""good_move"",35255.7,5072.4,2561.7,30183.3,2510.7,""smooth"",""up"",""up"",""good_move""]","",""
"5902","","<div style=""width:500px;"">
  <p>What determined the result of this run?</p>
  </div>","100","html-slider-response","65","1115146","0.0-5.0-1.11","180","1","2025-07-23 07:35:53","1f75c3e559b7213887762d5229550c2b","41.13.16.20","Mozilla/5.0 (Windows NT 10.0; Win64; x64) AppleWebKit/537.36 (KHTML, like Gecko) Chrome/138.0.0.0 Safari/537.36","WebKit","Chrome","138.0.0.0","Windows","10.0","https://app.prolific.com/","en-ZA,en-GB;q=0.9,en-US;q=0.8,en;q=0.7,zu;q=0.6","5f3287b83428cb05746e2214","683dba2a8a9dda3513610c04","688090bad379e39d5f5f58e8","3","0","5f3287b83428cb05746e2214","3","0","2025-07-23T07:54:40.533Z","","","","","","","","","","","AttribQ","","50","","","","","","","","","","","","","","","","","","","","","","","","","","","","",""
"4540","","<div style=""width:500px;"">
  <p>How much control did you have over the ball?</p>
  </div>","100","html-slider-response","66","1119692","0.0-5.0-2.11","180","1","2025-07-23 07:35:53","1f75c3e559b7213887762d5229550c2b","41.13.16.20","Mozilla/5.0 (Windows NT 10.0; Win64; x64) AppleWebKit/537.36 (KHTML, like Gecko) Chrome/138.0.0.0 Safari/537.36","WebKit","Chrome","138.0.0.0","Windows","10.0","https://app.prolific.com/","en-ZA,en-GB;q=0.9,en-US;q=0.8,en;q=0.7,zu;q=0.6","5f3287b83428cb05746e2214","683dba2a8a9dda3513610c04","688090bad379e39d5f5f58e8","3","0","5f3287b83428cb05746e2214","3","0","2025-07-23T07:54:45.080Z","","","","","","","","","","","ControlQ","","50","","","","","","","","","","","","","","","","","","","","","","","","","","","","",""
"3778","","<div style=""width:500px;"">
  <p>How would you describe your current emotional state?</p>
  </div>","100","html-slider-response","67","1123475","0.0-5.0-3.11","180","1","2025-07-23 07:35:53","1f75c3e559b7213887762d5229550c2b","41.13.16.20","Mozilla/5.0 (Windows NT 10.0; Win64; x64) AppleWebKit/537.36 (KHTML, like Gecko) Chrome/138.0.0.0 Safari/537.36","WebKit","Chrome","138.0.0.0","Windows","10.0","https://app.prolific.com/","en-ZA,en-GB;q=0.9,en-US;q=0.8,en;q=0.7,zu;q=0.6","5f3287b83428cb05746e2214","683dba2a8a9dda3513610c04","688090bad379e39d5f5f58e8","3","0","5f3287b83428cb05746e2214","3","0","2025-07-23T07:54:48.862Z","","","","","","","","","","","StressQ","","50","","","","","","","","","","","","","","","","","","","","","","","","","","","","",""
"13725","","<div style=""width:500px;"">
  <p>What best describes how you currently feel?</p>
  </div>","66","html-slider-response","68","1137206","0.0-5.0-4.11","180","1","2025-07-23 07:35:53","1f75c3e559b7213887762d5229550c2b","41.13.16.20","Mozilla/5.0 (Windows NT 10.0; Win64; x64) AppleWebKit/537.36 (KHTML, like Gecko) Chrome/138.0.0.0 Safari/537.36","WebKit","Chrome","138.0.0.0","Windows","10.0","https://app.prolific.com/","en-ZA,en-GB;q=0.9,en-US;q=0.8,en;q=0.7,zu;q=0.6","5f3287b83428cb05746e2214","683dba2a8a9dda3513610c04","688090bad379e39d5f5f58e8","3","0","5f3287b83428cb05746e2214","3","0","2025-07-23T07:55:02.593Z","","","","","","","","","","","MotivationQ","","50","","","","","","","","","","","","","","","","","","","","","","","","","","","","",""
"","","","","ctl-task-cpt","69","1195748","0.0-5.0-0.12","180","1","2025-07-23 07:35:53","1f75c3e559b7213887762d5229550c2b","41.13.16.20","Mozilla/5.0 (Windows NT 10.0; Win64; x64) AppleWebKit/537.36 (KHTML, like Gecko) Chrome/138.0.0.0 Safari/537.36","WebKit","Chrome","138.0.0.0","Windows","10.0","https://app.prolific.com/","en-ZA,en-GB;q=0.9,en-US;q=0.8,en;q=0.7,zu;q=0.6","5f3287b83428cb05746e2214","683dba2a8a9dda3513610c04","688090bad379e39d5f5f58e8","3","0","5f3287b83428cb05746e2214","3","0","2025-07-23T07:56:01.135Z","","","","","","","","","","","","","","win-only","2","g1:SE,g2:NW","0.7","13","0","1153940.8","2050.9","7069","55488.5","1","4","4","6","2","4","4","49","45","0.3712121212121212","1572.3","3000","2365","[""left"",""up""]","{""num_key_presses"":8,""num_perfect"":5,""num_errors"":0,""num_randdir"":3,""num_randdir_good_moves"":2,""num_whilered"":0,""num_whileblue"":0,""num_blue"":1,""num_good_moves"":7}","[278.7142857142857,276.6205357142857,4.1,278.7142857142857,276.6205357142857,116.7,278.7142857142857,276.6205357142857,218.9,278.7142857142857,276.6205357142857,332.2,278.7142857142857,276.6205357142857,457.1,278.7142857142857,276.6205357142857,576.5,278.7142857142857,276.6205357142857,688.8,226.71428571428572,234.62053571428572,815.1,95.71428571428572,131.62053571428572,928.3,57.714285714285715,78.62053571428572,1039.9,55.714285714285715,69.62053571428572,1149.7,53.714285714285715,63.620535714285715,1253.9,53.714285714285715,63.620535714285715,1359.5,53.714285714285715,63.620535714285715,1484.6,53.714285714285715,63.620535714285715,1609.2,53.714285714285715,63.620535714285715,1736.6,53.714285714285715,63.620535714285715,1881.4,53.714285714285715,63.620535714285715,1998.2,53.714285714285715,63.620535714285715,2143.6,53.714285714285715,63.620535714285715,2266.7,53.714285714285715,63.620535714285715,2385.3,53.714285714285715,63.620535714285715,2506.7,53.714285714285715,63.620535714285715,2637.5,53.714285714285715,63.620535714285715,2759.6,53.714285714285715,63.620535714285715,2861.9,53.714285714285715,63.620535714285715,2982.3,53.714285714285715,63.620535714285715,3114.6,53.714285714285715,63.620535714285715,3220.3,53.714285714285715,63.620535714285715,3342.9,53.714285714285715,63.620535714285715,3472.3,53.714285714285715,63.620535714285715,3581.6,53.714285714285715,63.620535714285715,3690.3,53.714285714285715,63.620535714285715,3795,53.714285714285715,63.620535714285715,3922.5,53.714285714285715,63.620535714285715,4047,53.714285714285715,63.620535714285715,4172.8,53.714285714285715,63.620535714285715,4297,53.714285714285715,63.620535714285715,4423.7,53.714285714285715,63.620535714285715,4530.3,53.714285714285715,63.620535714285715,4656.5,53.714285714285715,63.620535714285715,4787.4,53.714285714285715,63.620535714285715,4920.2]","[1668.9,1668.9,1000,0,668.9,""smooth"",""left"",""left"",""good_move"",12219.6,10547.6,2257.5,9435.4,526.8,""smooth"",""left"",""left"",""good_move"",17351.7,5129.8,1950.9,12221.9,3178.9,""oops"",""up"",""up"",""good_move"",23494.6,6138.1,2321.8,17356.5,3816.3,""smooth"",""up"",""up"",""good_move"",30720.4,7224.6,2862.3,23495.8,4362.3,""smooth"",""left"",""left"",""good_move"",37395.7,6674.1,1700.1,30721.6,4974,""oops"",""up"",""down"",""bad_move"",41298.4,3900.9,2959.4,37397.6,941.4,""smooth"",""up"",""up"",""good_move"",47697.9,6397.3,1925.5,41300.6,4471.8,""oops"",""up"",""up"",""good_move""]","",""
"6586","","<div style=""width:500px;"">
  <p>What determined the result of this run?</p>
  </div>","88","html-slider-response","70","1202343","0.0-5.0-1.12","180","1","2025-07-23 07:35:53","1f75c3e559b7213887762d5229550c2b","41.13.16.20","Mozilla/5.0 (Windows NT 10.0; Win64; x64) AppleWebKit/537.36 (KHTML, like Gecko) Chrome/138.0.0.0 Safari/537.36","WebKit","Chrome","138.0.0.0","Windows","10.0","https://app.prolific.com/","en-ZA,en-GB;q=0.9,en-US;q=0.8,en;q=0.7,zu;q=0.6","5f3287b83428cb05746e2214","683dba2a8a9dda3513610c04","688090bad379e39d5f5f58e8","3","0","5f3287b83428cb05746e2214","3","0","2025-07-23T07:56:07.731Z","","","","","","","","","","","AttribQ","","50","","","","","","","","","","","","","","","","","","","","","","","","","","","","",""
"8298","","<div style=""width:500px;"">
  <p>How much control did you have over the ball?</p>
  </div>","100","html-slider-response","71","1210652","0.0-5.0-2.12","180","1","2025-07-23 07:35:53","1f75c3e559b7213887762d5229550c2b","41.13.16.20","Mozilla/5.0 (Windows NT 10.0; Win64; x64) AppleWebKit/537.36 (KHTML, like Gecko) Chrome/138.0.0.0 Safari/537.36","WebKit","Chrome","138.0.0.0","Windows","10.0","https://app.prolific.com/","en-ZA,en-GB;q=0.9,en-US;q=0.8,en;q=0.7,zu;q=0.6","5f3287b83428cb05746e2214","683dba2a8a9dda3513610c04","688090bad379e39d5f5f58e8","3","0","5f3287b83428cb05746e2214","3","0","2025-07-23T07:56:16.040Z","","","","","","","","","","","ControlQ","","50","","","","","","","","","","","","","","","","","","","","","","","","","","","","",""
"3494","","<div style=""width:500px;"">
  <p>How would you describe your current emotional state?</p>
  </div>","63","html-slider-response","72","1214153","0.0-5.0-3.12","180","1","2025-07-23 07:35:53","1f75c3e559b7213887762d5229550c2b","41.13.16.20","Mozilla/5.0 (Windows NT 10.0; Win64; x64) AppleWebKit/537.36 (KHTML, like Gecko) Chrome/138.0.0.0 Safari/537.36","WebKit","Chrome","138.0.0.0","Windows","10.0","https://app.prolific.com/","en-ZA,en-GB;q=0.9,en-US;q=0.8,en;q=0.7,zu;q=0.6","5f3287b83428cb05746e2214","683dba2a8a9dda3513610c04","688090bad379e39d5f5f58e8","3","0","5f3287b83428cb05746e2214","3","0","2025-07-23T07:56:19.540Z","","","","","","","","","","","StressQ","","50","","","","","","","","","","","","","","","","","","","","","","","","","","","","",""
"8736","","<div style=""width:500px;"">
  <p>What best describes how you currently feel?</p>
