"rt","response_timestamp","stimulus","response","trial_type","trial_index","time_elapsed","internal_node_id","run_id","condition","recorded_at","source_code_version","ip","user_agent","device","browser","browser_version","platform","platform_version","referer","accept_language","PROLIFIC_PID","STUDY_ID","SESSION_ID","WEEK","BATCH","prolific_id","week","batch","realtime","success","responses","item_order","radio_event_ids","radio_event_times","key_event_times","mouse_event_times","straightlining","zigzagging","honeypot","eventType","view_history","slider_start","which_type","canvas_config","goals_layout","control_level","trial_number","tutorial_trial_number","trial_start_time","phase1_start_time","phase2_start_time","phase3_start_time","goal_1_value","goal_1_distance","goal_2_value","goal_2_distance","goal_selected","outcome","outcome_total","participant_final_score","participant_initial_score","participant_final_score_prop","goal_choice_rt","allocated_time","allocated_time_remaining","goal_direction","counts","mouse_movements","key_presses","question_order","question_id"
"31768","1752653878304","<p style='font-size:40px;line-height:1.25'><strong>Welcome to the experiment!</strong></p><p style='font-size:1.1em;line-height:1.25'>Thank you for participanting in our experiment again! You will be asked to play the Dysfunctional Ball Game again. We will briefly recap the rules before we start.</p><p style='font-size:1.1em;line-height:1.25'>Press <strong>Next</strong> to continue.</p>","0","custom-html-button-response","0","31769","0.0-0.0","40","1","2025-07-16 08:17:25","1f75c3e559b7213887762d5229550c2b","154.0.11.214","Mozilla/5.0 (Windows NT 10.0; Win64; x64) AppleWebKit/537.36 (KHTML, like Gecko) Chrome/138.0.0.0 Safari/537.36","WebKit","Chrome","138.0.0.0","Windows","10.0","https://app.prolific.com/","en-US,en;q=0.9","669a686f263cbcb8e321ed85","686e379bc37a29ffa5cdc956","68775ff2d5375e659ff2d332","1","1","669a686f263cbcb8e321ed85","1","1","2025-07-16T08:17:58.305Z","","","","","","","","","","","","","","","","","","","","","","","","","","","","","","","","","","","","","","","","","",""
"20365","","","","fullscreen","1","53142","0.0-1.0","40","1","2025-07-16 08:17:25","1f75c3e559b7213887762d5229550c2b","154.0.11.214","Mozilla/5.0 (Windows NT 10.0; Win64; x64) AppleWebKit/537.36 (KHTML, like Gecko) Chrome/138.0.0.0 Safari/537.36","WebKit","Chrome","138.0.0.0","Windows","10.0","https://app.prolific.com/","en-US,en;q=0.9","669a686f263cbcb8e321ed85","686e379bc37a29ffa5cdc956","68775ff2d5375e659ff2d332","1","1","669a686f263cbcb8e321ed85","1","1","","true","","","","","","","","","","","","","","","","","","","","","","","","","","","","","","","","","","","","","","","","",""
"2175","1752653901853","<p style='font-size:1.1em;line-height:1.25'>In the following, we will ask you a few questions relating to your feelings in the last 24 hours.<br></p><p style='font-size:1.1em;line-height:1.25'>Press the <strong>Next</strong> button to continue.</p>","0","custom-html-button-response","2","55319","0.0-2.0-0.0","40","1","2025-07-16 08:17:25","1f75c3e559b7213887762d5229550c2b","154.0.11.214","Mozilla/5.0 (Windows NT 10.0; Win64; x64) AppleWebKit/537.36 (KHTML, like Gecko) Chrome/138.0.0.0 Safari/537.36","WebKit","Chrome","138.0.0.0","Windows","10.0","https://app.prolific.com/","en-US,en;q=0.9","669a686f263cbcb8e321ed85","686e379bc37a29ffa5cdc956","68775ff2d5375e659ff2d332","1","1","669a686f263cbcb8e321ed85","1","1","2025-07-16T08:18:21.854Z","","","","","","","","","","","","","","","","","","","","","","","","","","","","","","","","","","","","","","","","","",""
"89445.70000004768","","","","survey-template","3","144770","0.0-2.0-1.0","40","1","2025-07-16 08:17:25","1f75c3e559b7213887762d5229550c2b","154.0.11.214","Mozilla/5.0 (Windows NT 10.0; Win64; x64) AppleWebKit/537.36 (KHTML, like Gecko) Chrome/138.0.0.0 Safari/537.36","WebKit","Chrome","138.0.0.0","Windows","10.0","https://app.prolific.com/","en-US,en;q=0.9","669a686f263cbcb8e321ed85","686e379bc37a29ffa5cdc956","68775ff2d5375e659ff2d332","1","1","669a686f263cbcb8e321ed85","1","1","2025-07-16T08:19:51.305Z","","{""Q01"":""2"",""Q02"":""2"",""Q03"":""2"",""Q04"":""1"",""Q05"":""2"",""Q06"":""3"",""Q07"":""3"",""Q08"":""2"",""Q09"":""3"",""Q10"":""2"",""Q11"":""3"",""Q12"":""3"",""Q13"":""5"",""Q14"":""2"",""Q15"":""3"",""Q16"":""3"",""Q17"":""2"",""Q18"":""2"",""Q19"":""3"",""Q20"":""3"",""Q21"":""3"",""Q22"":""3""}","[0,1,2,3,4,5,6,7,8,9,10,11,12,13,14,15,16,17,18,19,20,21]","[""Q01"",""Q02"",""Q03"",""Q04"",""Q05"",""Q06"",""Q07"",""Q08"",""Q09"",""Q10"",""Q11"",""Q12"",""Q13"",""Q14"",""Q15"",""Q16"",""Q17"",""Q18"",""Q19"",""Q19"",""Q20"",""Q21"",""Q22""]","[7458.399999976158,9054.899999976158,10847.899999976158,12399.899999976158,14132.200000047684,16916,19884.600000023842,23529.899999976158,27603.100000023842,34142.89999997616,37532.39999997616,39947.799999952316,44022.200000047684,46474.700000047684,51467.60000002384,55945.200000047684,67757.20000004768,71942.39999997616,79218.39999997616,82075.39999997616,85644.70000004768,87101,88300]","[]","[0,7458.399999976158,9054.899999976158,10847.899999976158,12399.899999976158,14132.200000047684,16916,19884.600000023842,23529.899999976158,27603.100000023842,34142.89999997616,37532.39999997616,39947.799999952316,44022.200000047684,46474.700000047684,51467.60000002384,55945.200000047684,67757.20000004768,71942.39999997616,79218.39999997616,82075.39999997616,85644.70000004768,87101,88300,89440.79999995232]","0.5","0.47619047619047616","0","drsp","","","","","","","","","","","","","","","","","","","","","","","","","","","","","","",""
"23347","","","","survey-template","4","168119","0.0-2.0-2.0","40","1","2025-07-16 08:17:25","1f75c3e559b7213887762d5229550c2b","154.0.11.214","Mozilla/5.0 (Windows NT 10.0; Win64; x64) AppleWebKit/537.36 (KHTML, like Gecko) Chrome/138.0.0.0 Safari/537.36","WebKit","Chrome","138.0.0.0","Windows","10.0","https://app.prolific.com/","en-US,en;q=0.9","669a686f263cbcb8e321ed85","686e379bc37a29ffa5cdc956","68775ff2d5375e659ff2d332","1","1","669a686f263cbcb8e321ed85","1","1","2025-07-16T08:20:14.654Z","","{""Q01"":""2"",""Q02"":""3"",""Q03"":""1""}","[0,1,2]","[""Q01"",""Q02"",""Q03""]","[3164.100000023842,9502.300000071526,21629.5]","[]","[3164.100000023842,9502.300000071526,21629.5,23346.200000047684]","0.6666666666666666","0.5","0","stress","","","","","","","","","","","","","","","","","","","","","","","","","","","","","","",""
"16843","","","","instructions","5","184963","0.0-3.0-0.0","40","1","2025-07-16 08:17:25","1f75c3e559b7213887762d5229550c2b","154.0.11.214","Mozilla/5.0 (Windows NT 10.0; Win64; x64) AppleWebKit/537.36 (KHTML, like Gecko) Chrome/138.0.0.0 Safari/537.36","WebKit","Chrome","138.0.0.0","Windows","10.0","https://app.prolific.com/","en-US,en;q=0.9","669a686f263cbcb8e321ed85","686e379bc37a29ffa5cdc956","68775ff2d5375e659ff2d332","1","1","669a686f263cbcb8e321ed85","1","1","","","","","","","","","","","","","[{""page_index"":0,""viewing_time"":16843}]","","","","","","","","","","","","","","","","","","","","","","","","","","","","","",""
"101682","","<p>Before you start with this game please answer the following three questions yourself. </p>
  <p>Through this game, we measure several aspects of your cognitive performance, such as reaction times, multi-tasking capabilities </p>
  <p>and the ability to assess the situation you are in.</p>
  <p></p>
  <p><b>How good do you usually are in such tasks?</b></p>","82","html-slider-response","6","286648","0.0-4.0-0.0","40","1","2025-07-16 08:17:25","1f75c3e559b7213887762d5229550c2b","154.0.11.214","Mozilla/5.0 (Windows NT 10.0; Win64; x64) AppleWebKit/537.36 (KHTML, like Gecko) Chrome/138.0.0.0 Safari/537.36","WebKit","Chrome","138.0.0.0","Windows","10.0","https://app.prolific.com/","en-US,en;q=0.9","669a686f263cbcb8e321ed85","686e379bc37a29ffa5cdc956","68775ff2d5375e659ff2d332","1","1","669a686f263cbcb8e321ed85","1","1","2025-07-16T08:22:13.183Z","","","","","","","","","","","PreSkillQ","","50","","","","","","","","","","","","","","","","","","","","","","","","","","","","",""
"125332","","<div style=""width:500px;"">
  <p>How well do you think you will perform in this task compared to other participants?</p>
  </div>","84","html-slider-response","7","411981","0.0-4.0-1.0","40","1","2025-07-16 08:17:25","1f75c3e559b7213887762d5229550c2b","154.0.11.214","Mozilla/5.0 (Windows NT 10.0; Win64; x64) AppleWebKit/537.36 (KHTML, like Gecko) Chrome/138.0.0.0 Safari/537.36","WebKit","Chrome","138.0.0.0","Windows","10.0","https://app.prolific.com/","en-US,en;q=0.9","669a686f263cbcb8e321ed85","686e379bc37a29ffa5cdc956","68775ff2d5375e659ff2d332","1","1","669a686f263cbcb8e321ed85","1","1","2025-07-16T08:24:18.516Z","","","","","","","","","","","PrePerfQ","","50","","","","","","","","","","","","","","","","","","","","","","","","","","","","",""
"4379","","<div style=""width:500px;"">
  <p>What best describes how you currently feel?</p>
  </div>","76","html-slider-response","8","416361","0.0-4.0-2.0","40","1","2025-07-16 08:17:25","1f75c3e559b7213887762d5229550c2b","154.0.11.214","Mozilla/5.0 (Windows NT 10.0; Win64; x64) AppleWebKit/537.36 (KHTML, like Gecko) Chrome/138.0.0.0 Safari/537.36","WebKit","Chrome","138.0.0.0","Windows","10.0","https://app.prolific.com/","en-US,en;q=0.9","669a686f263cbcb8e321ed85","686e379bc37a29ffa5cdc956","68775ff2d5375e659ff2d332","1","1","669a686f263cbcb8e321ed85","1","1","2025-07-16T08:24:22.896Z","","","","","","","","","","","PreMotivationQ","","50","","","","","","","","","","","","","","","","","","","","","","","","","","","","",""
"","","","","ctl-task-cpt","9","431741","0.0-5.0-0.0","40","1","2025-07-16 08:17:25","1f75c3e559b7213887762d5229550c2b","154.0.11.214","Mozilla/5.0 (Windows NT 10.0; Win64; x64) AppleWebKit/537.36 (KHTML, like Gecko) Chrome/138.0.0.0 Safari/537.36","WebKit","Chrome","138.0.0.0","Windows","10.0","https://app.prolific.com/","en-US,en;q=0.9","669a686f263cbcb8e321ed85","686e379bc37a29ffa5cdc956","68775ff2d5375e659ff2d332","1","1","669a686f263cbcb8e321ed85","1","1","2025-07-16T08:24:38.277Z","","","","","","","","","","","","","","win-only","1","g1:NE,g2:SW","1","1","0","418873.1","3344.5","8345.7","12367.4","1","4","4","6","2","-4","-4","0","0","0","2064.7","3000","-3000","[""down"",""left""]","{""num_key_presses"":0,""num_perfect"":0,""num_errors"":0,""num_randdir"":0,""num_randdir_good_moves"":0,""num_whilered"":0,""num_whileblue"":0,""num_blue"":0,""num_good_moves"":0}","[414.0714133126395,415.32142761775424,0.3,414.0714133126395,415.32142761775424,101.1,414.0714133126395,415.32142761775424,206.7,415.3214133126395,415.32142761775424,312.4,415.3214133126395,415.32142761775424,413,394.0714133126395,429.07142761775424,513.7,347.8214133126395,511.57142761775424,616.6,340.3214133126395,540.3214276177542,716.7,386.5714133126395,522.8214276177542,821.9,446.5714133126395,462.82142761775424,922.9,456.5714133126395,441.57142761775424,1026,462.8214133126395,427.82142761775424,1126.6,472.8214133126395,401.57142761775424,1227.1,472.8214133126395,397.82142761775424,1332.5,472.8214133126395,396.57142761775424,1437.4,400.3214133126395,447.82142761775424,1538.3,197.8214133126395,677.8214276177542,1641.1,151.5714133126395,731.5714276177542,1741.7,121.5714133126395,751.5714276177542,1847.2,107.8214133126395,751.5714276177542,1947.5,101.5714133126395,749.0714276177542,2051.9,101.5714133126395,749.0714276177542,2157,99.0714133126395,740.3214276177542,2263.4,109.0714133126395,736.5714276177542,2366.7,276.5714133126395,637.8214276177542,2472.5,506.5714133126395,456.57142761775424,2576,517.8214133126395,426.57142761775424,2676,516.5714133126395,425.32142761775424,2776.8,511.5714133126395,421.57142761775424,2877,501.5714133126395,414.07142761775424,2980.9,501.5714133126395,411.57142761775424,3082.9,501.5714133126395,409.07142761775424,3187.5,501.5714133126395,400.32142761775424,3291.8,501.5714133126395,391.57142761775424,3396.6,499.0714133126395,381.57142761775424,3496.7,499.0714133126395,381.57142761775424,3601.5,497.8214133126395,382.82142761775424,3702.5,496.5714133126395,395.32142761775424,3806.7,496.5714133126395,416.57142761775424,3913,496.5714133126395,422.82142761775424,4013.5,494.0714133126395,434.07142761775424,4116.6,486.5714133126395,446.57142761775424,4221.5,480.3214133126395,454.07142761775424,4326,469.0714133126395,457.82142761775424,4426.6,456.5714133126395,462.82142761775424,4526.6,441.5714133126395,471.57142761775424,4626.7,442.8214133126395,475.32142761775424,4727.4,429.0714133126395,484.07142761775424,4829.8,401.5714133126395,487.82142761775424,4932.6]","[]","",""
"10536","","<div style=""width:500px;"">
  <p>What determined the result of this run?</p>
  </div>","79","html-slider-response","10","442279","0.0-5.0-1.0","40","1","2025-07-16 08:17:25","1f75c3e559b7213887762d5229550c2b","154.0.11.214","Mozilla/5.0 (Windows NT 10.0; Win64; x64) AppleWebKit/537.36 (KHTML, like Gecko) Chrome/138.0.0.0 Safari/537.36","WebKit","Chrome","138.0.0.0","Windows","10.0","https://app.prolific.com/","en-US,en;q=0.9","669a686f263cbcb8e321ed85","686e379bc37a29ffa5cdc956","68775ff2d5375e659ff2d332","1","1","669a686f263cbcb8e321ed85","1","1","2025-07-16T08:24:48.815Z","","","","","","","","","","","AttribQ","","50","","","","","","","","","","","","","","","","","","","","","","","","","","","","",""
"19740","","<div style=""width:500px;"">
  <p>How much control did you have over the ball?</p>
  </div>","7","html-slider-response","11","462020","0.0-5.0-2.0","40","1","2025-07-16 08:17:25","1f75c3e559b7213887762d5229550c2b","154.0.11.214","Mozilla/5.0 (Windows NT 10.0; Win64; x64) AppleWebKit/537.36 (KHTML, like Gecko) Chrome/138.0.0.0 Safari/537.36","WebKit","Chrome","138.0.0.0","Windows","10.0","https://app.prolific.com/","en-US,en;q=0.9","669a686f263cbcb8e321ed85","686e379bc37a29ffa5cdc956","68775ff2d5375e659ff2d332","1","1","669a686f263cbcb8e321ed85","1","1","2025-07-16T08:25:08.555Z","","","","","","","","","","","ControlQ","","50","","","","","","","","","","","","","","","","","","","","","","","","","","","","",""
"6208","","<div style=""width:500px;"">
  <p>How would you describe your current emotional state?</p>
  </div>","36","html-slider-response","12","468229","0.0-5.0-3.0","40","1","2025-07-16 08:17:25","1f75c3e559b7213887762d5229550c2b","154.0.11.214","Mozilla/5.0 (Windows NT 10.0; Win64; x64) AppleWebKit/537.36 (KHTML, like Gecko) Chrome/138.0.0.0 Safari/537.36","WebKit","Chrome","138.0.0.0","Windows","10.0","https://app.prolific.com/","en-US,en;q=0.9","669a686f263cbcb8e321ed85","686e379bc37a29ffa5cdc956","68775ff2d5375e659ff2d332","1","1","669a686f263cbcb8e321ed85","1","1","2025-07-16T08:25:14.765Z","","","","","","","","","","","StressQ","","50","","","","","","","","","","","","","","","","","","","","","","","","","","","","",""
"5039","","<div style=""width:500px;"">
  <p>What best describes how you currently feel?</p>
  </div>","68","html-slider-response","13","473269","0.0-5.0-4.0","40","1","2025-07-16 08:17:25","1f75c3e559b7213887762d5229550c2b","154.0.11.214","Mozilla/5.0 (Windows NT 10.0; Win64; x64) AppleWebKit/537.36 (KHTML, like Gecko) Chrome/138.0.0.0 Safari/537.36","WebKit","Chrome","138.0.0.0","Windows","10.0","https://app.prolific.com/","en-US,en;q=0.9","669a686f263cbcb8e321ed85","686e379bc37a29ffa5cdc956","68775ff2d5375e659ff2d332","1","1","669a686f263cbcb8e321ed85","1","1","2025-07-16T08:25:19.804Z","","","","","","","","","","","MotivationQ","","50","","","","","","","","","","","","","","","","","","","","","","","","","","","","",""
"","","","","ctl-task-cpt","14","487186","0.0-5.0-0.1","40","1","2025-07-16 08:17:25","1f75c3e559b7213887762d5229550c2b","154.0.11.214","Mozilla/5.0 (Windows NT 10.0; Win64; x64) AppleWebKit/537.36 (KHTML, like Gecko) Chrome/138.0.0.0 Safari/537.36","WebKit","Chrome","138.0.0.0","Windows","10.0","https://app.prolific.com/","en-US,en;q=0.9","669a686f263cbcb8e321ed85","686e379bc37a29ffa5cdc956","68775ff2d5375e659ff2d332","1","1","669a686f263cbcb8e321ed85","1","1","2025-07-16T08:25:33.721Z","","","","","","","","","","","","","","win-only","2","g1:SE,g2:NW","0.9","2","0","475775.2","1866.7","6871.5","10901","1","4","8","6","1","-1","-1","0","0","0","1404.6","3000","-2990","[""down"",""right""]","{""num_key_presses"":0,""num_perfect"":0,""num_errors"":0,""num_randdir"":0,""num_randdir_good_moves"":0,""num_whilered"":0,""num_whileblue"":0,""num_blue"":0,""num_good_moves"":0}","[416.5714133126395,416.57142761775424,0.2,416.5714133126395,416.57142761775424,107.2,416.5714133126395,416.57142761775424,211.6,426.5714133126395,412.82142761775424,314.7,431.5714133126395,402.82142761775424,420,419.0714133126395,397.82142761775424,520,424.0714133126395,397.82142761775424,624.2,441.5714133126395,412.82142761775424,729.4,646.5714133126395,630.3214276177542,833.4,720.3214133126395,726.5714276177542,933.8,751.5714133126395,762.8214276177542,1034.5,751.5714133126395,762.8214276177542,1139.7,755.3214133126395,761.5714276177542,1244.8,755.3214133126395,759.0714276177542,1346.1,755.3214133126395,755.3214276177542,1449,754.0714133126395,755.3214276177542,1549.3,751.5714133126395,751.5714276177542,1649.4,726.5714133126395,744.0714276177542,1749.5,616.5714133126395,729.0714276177542,1849.6,541.5714133126395,696.5714276177542,1949.6,504.0714133126395,672.8214276177542,2054,500.3214133126395,666.5714276177542,2154.3,496.5714133126395,664.0714276177542,2254.8,496.5714133126395,664.0714276177542,2359.4,496.5714133126395,664.0714276177542,2464.5,494.0714133126395,652.8214276177542,2564.8,491.5714133126395,615.3214276177542,2669.7,491.5714133126395,592.8214276177542,2774.1,492.8214133126395,576.5714276177542,2879.4,492.8214133126395,569.0714276177542,2983.7,494.0714133126395,567.8214276177542,3084.2,494.0714133126395,566.5714276177542,3190.3,491.5714133126395,562.8214276177542,3295.4,489.0714133126395,551.5714276177542,3400.3,489.0714133126395,546.5714276177542,3504.2,489.0714133126395,542.8214276177542,3609.3,489.0714133126395,531.5714276177542,3716.1,489.0714133126395,526.5714276177542,3819.9,490.3214133126395,524.0714276177542,3921.1,490.3214133126395,521.5714276177542,4024.8,490.3214133126395,521.5714276177542,4129.1,491.5714133126395,521.5714276177542,4234,491.5714133126395,521.5714276177542,4334.7,491.5714133126395,521.5714276177542,4434.7,491.5714133126395,521.5714276177542,4536.1,491.5714133126395,521.5714276177542,4640,487.8214133126395,522.8214276177542,4744.8,487.8214133126395,524.0714276177542,4845.1,487.8214133126395,526.5714276177542,4945.1]","[]","",""
"3604","","<div style=""width:500px;"">
  <p>What determined the result of this run?</p>
  </div>","22","html-slider-response","15","490791","0.0-5.0-1.1","40","1","2025-07-16 08:17:25","1f75c3e559b7213887762d5229550c2b","154.0.11.214","Mozilla/5.0 (Windows NT 10.0; Win64; x64) AppleWebKit/537.36 (KHTML, like Gecko) Chrome/138.0.0.0 Safari/537.36","WebKit","Chrome","138.0.0.0","Windows","10.0","https://app.prolific.com/","en-US,en;q=0.9","669a686f263cbcb8e321ed85","686e379bc37a29ffa5cdc956","68775ff2d5375e659ff2d332","1","1","669a686f263cbcb8e321ed85","1","1","2025-07-16T08:25:37.326Z","","","","","","","","","","","AttribQ","","50","","","","","","","","","","","","","","","","","","","","","","","","","","","","",""
"3898","","<div style=""width:500px;"">
  <p>How much control did you have over the ball?</p>
  </div>","15","html-slider-response","16","494689","0.0-5.0-2.1","40","1","2025-07-16 08:17:25","1f75c3e559b7213887762d5229550c2b","154.0.11.214","Mozilla/5.0 (Windows NT 10.0; Win64; x64) AppleWebKit/537.36 (KHTML, like Gecko) Chrome/138.0.0.0 Safari/537.36","WebKit","Chrome","138.0.0.0","Windows","10.0","https://app.prolific.com/","en-US,en;q=0.9","669a686f263cbcb8e321ed85","686e379bc37a29ffa5cdc956","68775ff2d5375e659ff2d332","1","1","669a686f263cbcb8e321ed85","1","1","2025-07-16T08:25:41.224Z","","","","","","","","","","","ControlQ","","50","","","","","","","","","","","","","","","","","","","","","","","","","","","","",""
"6104","","<div style=""width:500px;"">
  <p>How would you describe your current emotional state?</p>
  </div>","79","html-slider-response","17","500794","0.0-5.0-3.1","40","1","2025-07-16 08:17:25","1f75c3e559b7213887762d5229550c2b","154.0.11.214","Mozilla/5.0 (Windows NT 10.0; Win64; x64) AppleWebKit/537.36 (KHTML, like Gecko) Chrome/138.0.0.0 Safari/537.36","WebKit","Chrome","138.0.0.0","Windows","10.0","https://app.prolific.com/","en-US,en;q=0.9","669a686f263cbcb8e321ed85","686e379bc37a29ffa5cdc956","68775ff2d5375e659ff2d332","1","1","669a686f263cbcb8e321ed85","1","1","2025-07-16T08:25:47.329Z","","","","","","","","","","","StressQ","","50","","","","","","","","","","","","","","","","","","","","","","","","","","","","",""
"2999","","<div style=""width:500px;"">
  <p>What best describes how you currently feel?</p>
  </div>","76","html-slider-response","18","503794","0.0-5.0-4.1","40","1","2025-07-16 08:17:25","1f75c3e559b7213887762d5229550c2b","154.0.11.214","Mozilla/5.0 (Windows NT 10.0; Win64; x64) AppleWebKit/537.36 (KHTML, like Gecko) Chrome/138.0.0.0 Safari/537.36","WebKit","Chrome","138.0.0.0","Windows","10.0","https://app.prolific.com/","en-US,en;q=0.9","669a686f263cbcb8e321ed85","686e379bc37a29ffa5cdc956","68775ff2d5375e659ff2d332","1","1","669a686f263cbcb8e321ed85","1","1","2025-07-16T08:25:50.329Z","","","","","","","","","","","MotivationQ","","50","","","","","","","","","","","","","","","","","","","","","","","","","","","","",""
"","","","","ctl-task-cpt","19","525606","0.0-5.0-0.2","40","1","2025-07-16 08:17:25","1f75c3e559b7213887762d5229550c2b","154.0.11.214","Mozilla/5.0 (Windows NT 10.0; Win64; x64) AppleWebKit/537.36 (KHTML, like Gecko) Chrome/138.0.0.0 Safari/537.36","WebKit","Chrome","138.0.0.0","Windows","10.0","https://app.prolific.com/","en-US,en;q=0.9","669a686f263cbcb8e321ed85","686e379bc37a29ffa5cdc956","68775ff2d5375e659ff2d332","1","1","669a686f263cbcb8e321ed85","1","1","2025-07-16T08:26:12.141Z","","","","","","","","","","","","","","win-only","1","g1:NE,g2:SW","0.8","3","0","506300.2","1234.2","6235.8","18792.6","1","4","4","6","1","1","1","1","0","0.007575757575757576","1357.4","3000","1435","[""up"",""right""]","{""num_key_presses"":4,""num_perfect"":3,""num_errors"":0,""num_randdir"":1,""num_randdir_good_moves"":1,""num_whilered"":0,""num_whileblue"":0,""num_blue"":1,""num_good_moves"":4}","[415.3214133126395,421.57142761775424,1.1,416.5714133126395,421.57142761775424,102.3,412.8214133126395,421.57142761775424,207.2,469.0714133126395,419.07142761775424,308.9,654.0714133126395,425.32142761775424,409.7,735.3214133126395,427.82142761775424,513.4,734.0714133126395,427.82142761775424,619.1,734.0714133126395,427.82142761775424,719.5,649.0714133126395,440.32142761775424,821.7,661.5714133126395,334.07142761775424,923.3,770.3214133126395,140.32142761775424,1033.3,774.0714133126395,136.57142761775424,1134.6,771.5714133126395,117.82142761775425,1239.7,772.8214133126395,106.57142761775425,1344.2,772.8214133126395,106.57142761775425,1446.5,780.3214133126395,106.57142761775425,1549.3,771.5714133126395,165.32142761775424,1651.7,736.5714133126395,257.82142761775424,1752.8,745.3214133126395,275.32142761775424,1856.6,755.3214133126395,281.57142761775424,1963,809.0714133126395,306.57142761775424,2071.3,809.0714133126395,306.57142761775424,2174.4,809.0714133126395,306.57142761775424,2281.1,809.0714133126395,306.57142761775424,2382.6,809.0714133126395,306.57142761775424,2489.7,809.0714133126395,306.57142761775424,2592,809.0714133126395,306.57142761775424,2701.2,809.0714133126395,306.57142761775424,2802.1,809.0714133126395,306.57142761775424,2902.9,809.0714133126395,306.57142761775424,3003.1,809.0714133126395,306.57142761775424,3106.5,809.0714133126395,306.57142761775424,3207.1,809.0714133126395,306.57142761775424,3311.8,809.0714133126395,306.57142761775424,3411.9,809.0714133126395,306.57142761775424,3512.2,809.0714133126395,306.57142761775424,3616.5,809.0714133126395,306.57142761775424,3723.3,809.0714133126395,306.57142761775424,3826.7,809.0714133126395,306.57142761775424,3927.3,809.0714133126395,306.57142761775424,4029.3,809.0714133126395,306.57142761775424,4133.3,809.0714133126395,306.57142761775424,4236.2,809.0714133126395,306.57142761775424,4336.4,809.0714133126395,306.57142761775424,4441.2,809.0714133126395,306.57142761775424,4542.7,809.0714133126395,306.57142761775424,4646.1,809.0714133126395,306.57142761775424,4747.3,809.0714133126395,306.57142761775424,4848.8,809.0714133126395,306.57142761775424,4951.5]","[1050.6,1050.7,1000,0,50.7,""smooth"",""up"",""up"",""good_move"",6337.5,5286.5,1718.9,4071.6,547.1,""smooth"",""up"",""up"",""good_move"",9237.8,2899.7,2400.1,6338.1,499.6,""smooth"",""right"",""right"",""good_move"",12463.9,3224.8,2630.4,9239.1,594.4,""oops"",""right"",""right"",""good_move""]","",""
"4163","","<div style=""width:500px;"">
  <p>What determined the result of this run?</p>
  </div>","79","html-slider-response","20","529771","0.0-5.0-1.2","40","1","2025-07-16 08:17:25","1f75c3e559b7213887762d5229550c2b","154.0.11.214","Mozilla/5.0 (Windows NT 10.0; Win64; x64) AppleWebKit/537.36 (KHTML, like Gecko) Chrome/138.0.0.0 Safari/537.36","WebKit","Chrome","138.0.0.0","Windows","10.0","https://app.prolific.com/","en-US,en;q=0.9","669a686f263cbcb8e321ed85","686e379bc37a29ffa5cdc956","68775ff2d5375e659ff2d332","1","1","669a686f263cbcb8e321ed85","1","1","2025-07-16T08:26:16.307Z","","","","","","","","","","","AttribQ","","50","","","","","","","","","","","","","","","","","","","","","","","","","","","","",""
"8805","","<div style=""width:500px;"">
  <p>How much control did you have over the ball?</p>
  </div>","84","html-slider-response","21","538581","0.0-5.0-2.2","40","1","2025-07-16 08:17:25","1f75c3e559b7213887762d5229550c2b","154.0.11.214","Mozilla/5.0 (Windows NT 10.0; Win64; x64) AppleWebKit/537.36 (KHTML, like Gecko) Chrome/138.0.0.0 Safari/537.36","WebKit","Chrome","138.0.0.0","Windows","10.0","https://app.prolific.com/","en-US,en;q=0.9","669a686f263cbcb8e321ed85","686e379bc37a29ffa5cdc956","68775ff2d5375e659ff2d332","1","1","669a686f263cbcb8e321ed85","1","1","2025-07-16T08:26:25.118Z","","","","","","","","","","","ControlQ","","50","","","","","","","","","","","","","","","","","","","","","","","","","","","","",""
"10905","","<div style=""width:500px;"">
  <p>How would you describe your current emotional state?</p>
  </div>","16","html-slider-response","22","549499","0.0-5.0-3.2","40","1","2025-07-16 08:17:25","1f75c3e559b7213887762d5229550c2b","154.0.11.214","Mozilla/5.0 (Windows NT 10.0; Win64; x64) AppleWebKit/537.36 (KHTML, like Gecko) Chrome/138.0.0.0 Safari/537.36","WebKit","Chrome","138.0.0.0","Windows","10.0","https://app.prolific.com/","en-US,en;q=0.9","669a686f263cbcb8e321ed85","686e379bc37a29ffa5cdc956","68775ff2d5375e659ff2d332","1","1","669a686f263cbcb8e321ed85","1","1","2025-07-16T08:26:36.035Z","","","","","","","","","","","StressQ","","50","","","","","","","","","","","","","","","","","","","","","","","","","","","","",""
"5834","","<div style=""width:500px;"">
  <p>What best describes how you currently feel?</p>
  </div>","88","html-slider-response","23","555347","0.0-5.0-4.2","40","1","2025-07-16 08:17:25","1f75c3e559b7213887762d5229550c2b","154.0.11.214","Mozilla/5.0 (Windows NT 10.0; Win64; x64) AppleWebKit/537.36 (KHTML, like Gecko) Chrome/138.0.0.0 Safari/537.36","WebKit","Chrome","138.0.0.0","Windows","10.0","https://app.prolific.com/","en-US,en;q=0.9","669a686f263cbcb8e321ed85","686e379bc37a29ffa5cdc956","68775ff2d5375e659ff2d332","1","1","669a686f263cbcb8e321ed85","1","1","2025-07-16T08:26:41.884Z","","","","","","","","","","","MotivationQ","","50","","","","","","","","","","","","","","","","","","","","","","","","","","","","",""
"","","","","ctl-task-cpt","24","585292","0.0-5.0-0.3","40","1","2025-07-16 08:17:25","1f75c3e559b7213887762d5229550c2b","154.0.11.214","Mozilla/5.0 (Windows NT 10.0; Win64; x64) AppleWebKit/537.36 (KHTML, like Gecko) Chrome/138.0.0.0 Safari/537.36","WebKit","Chrome","138.0.0.0","Windows","10.0","https://app.prolific.com/","en-US,en;q=0.9","669a686f263cbcb8e321ed85","686e379bc37a29ffa5cdc956","68775ff2d5375e659ff2d332","1","1","669a686f263cbcb8e321ed85","1","1","2025-07-16T08:27:11.828Z","","","","","","","","","","","","","","win-only","2","g1:SE,g2:NW","0.7","4","0","557867.4","1340.7","6342.7","26903.6","1","4","8","6","1","-1","-2","0","1","0","1623.6","3000","-2720","[""down"",""right""]","{""num_key_presses"":6,""num_perfect"":3,""num_errors"":1,""num_randdir"":2,""num_randdir_good_moves"":0,""num_whilered"":0,""num_whileblue"":0,""num_blue"":0,""num_good_moves"":3}","[412.8214133126395,411.57142761775424,0.6,411.5714133126395,411.57142761775424,102.6,411.5714133126395,411.57142761775424,207.6,421.5714133126395,405.32142761775424,322.3,520.3214133126395,355.32142761775424,422.5,520.3214133126395,296.57142761775424,523.1,431.5714133126395,300.32142761775424,623.6,546.5714133126395,485.32142761775424,723.8,569.0714133126395,536.5714276177542,823.8,567.8214133126395,539.0714276177542,927.6,557.8214133126395,540.3214276177542,1031.5,539.0714133126395,540.3214276177542,1139,721.5714133126395,702.8214276177542,1242.8,795.3214133126395,759.0714276177542,1343.5,780.3214133126395,760.3214276177542,1444,775.3214133126395,759.0714276177542,1544.6,770.3214133126395,751.5714276177542,1647.4,764.0714133126395,744.0714276177542,1749,761.5714133126395,744.0714276177542,1872,774.0714133126395,736.5714276177542,1980.2,826.5714133126395,666.5714276177542,2081.1,1074.0714133126396,525.3214276177542,2181.9,1076.5714133126396,497.82142761775424,2283.2,1074.0714133126396,495.32142761775424,2387.7,1074.0714133126396,495.32142761775424,2489.3,1074.0714133126396,495.32142761775424,2596.7,1074.0714133126396,495.32142761775424,2702.3,1074.0714133126396,495.32142761775424,2804.9,1074.0714133126396,495.32142761775424,2909.5,1074.0714133126396,495.32142761775424,3016.9,1074.0714133126396,495.32142761775424,3128.1,1074.0714133126396,495.32142761775424,3236.1,1074.0714133126396,495.32142761775424,3338.5,1074.0714133126396,495.32142761775424,3441.8,1074.0714133126396,495.32142761775424,3548.8,1074.0714133126396,495.32142761775424,3667.9,1074.0714133126396,495.32142761775424,3773,1074.0714133126396,495.32142761775424,3873.8,1074.0714133126396,495.32142761775424,3977.4,1074.0714133126396,495.32142761775424,4084.2,1074.0714133126396,495.32142761775424,4186.6,1074.0714133126396,495.32142761775424,4287.9,1074.0714133126396,495.32142761775424,4390.7,1074.0714133126396,495.32142761775424,4498.4,1074.0714133126396,495.32142761775424,4603.4,1074.0714133126396,495.32142761775424,4703.6,1074.0714133126396,495.32142761775424,4810.3,1074.0714133126396,495.32142761775424,4913]","[715.9,715.9,1000,0,-284.1,""error"",""-"",""-"",""no_move"",5195.7,4478.8,2964.9,1725.7,505.1,""smooth"",""down"",""down"",""good_move"",8222,3024.9,2521.2,5197.1,503.7,""oops"",""right"",""left"",""bad_move"",11758.1,3535.4,2694.8,8222.9,840.5,""smooth"",""down"",""down"",""good_move"",14343.1,2583.6,1938.2,11759.5,645.4,""smooth"",""right"",""right"",""good_move"",17714.8,3371.1,2660.5,14343.8,710.6,""oops"",""right"",""left"",""bad_move""]","",""
"12578","","<div style=""width:500px;"">
  <p>What determined the result of this run?</p>
  </div>","81","html-slider-response","25","597873","0.0-5.0-1.3","40","1","2025-07-16 08:17:25","1f75c3e559b7213887762d5229550c2b","154.0.11.214","Mozilla/5.0 (Windows NT 10.0; Win64; x64) AppleWebKit/537.36 (KHTML, like Gecko) Chrome/138.0.0.0 Safari/537.36","WebKit","Chrome","138.0.0.0","Windows","10.0","https://app.prolific.com/","en-US,en;q=0.9","669a686f263cbcb8e321ed85","686e379bc37a29ffa5cdc956","68775ff2d5375e659ff2d332","1","1","669a686f263cbcb8e321ed85","1","1","2025-07-16T08:27:24.410Z","","","","","","","","","","","AttribQ","","50","","","","","","","","","","","","","","","","","","","","","","","","","","","","",""
"8924","","<div style=""width:500px;"">
  <p>How much control did you have over the ball?</p>
  </div>","64","html-slider-response","26","606810","0.0-5.0-2.3","40","1","2025-07-16 08:17:25","1f75c3e559b7213887762d5229550c2b","154.0.11.214","Mozilla/5.0 (Windows NT 10.0; Win64; x64) AppleWebKit/537.36 (KHTML, like Gecko) Chrome/138.0.0.0 Safari/537.36","WebKit","Chrome","138.0.0.0","Windows","10.0","https://app.prolific.com/","en-US,en;q=0.9","669a686f263cbcb8e321ed85","686e379bc37a29ffa5cdc956","68775ff2d5375e659ff2d332","1","1","669a686f263cbcb8e321ed85","1","1","2025-07-16T08:27:33.346Z","","","","","","","","","","","ControlQ","","50","","","","","","","","","","","","","","","","","","","","","","","","","","","","",""
"9033","","<div style=""width:500px;"">
  <p>How would you describe your current emotional state?</p>
  </div>","41","html-slider-response","27","615854","0.0-5.0-3.3","40","1","2025-07-16 08:17:25","1f75c3e559b7213887762d5229550c2b","154.0.11.214","Mozilla/5.0 (Windows NT 10.0; Win64; x64) AppleWebKit/537.36 (KHTML, like Gecko) Chrome/138.0.0.0 Safari/537.36","WebKit","Chrome","138.0.0.0","Windows","10.0","https://app.prolific.com/","en-US,en;q=0.9","669a686f263cbcb8e321ed85","686e379bc37a29ffa5cdc956","68775ff2d5375e659ff2d332","1","1","669a686f263cbcb8e321ed85","1","1","2025-07-16T08:27:42.389Z","","","","","","","","","","","StressQ","","50","","","","","","","","","","","","","","","","","","","","","","","","","","","","",""
"2544","","<div style=""width:500px;"">
  <p>What best describes how you currently feel?</p>
  </div>","73","html-slider-response","28","618399","0.0-5.0-4.3","40","1","2025-07-16 08:17:25","1f75c3e559b7213887762d5229550c2b","154.0.11.214","Mozilla/5.0 (Windows NT 10.0; Win64; x64) AppleWebKit/537.36 (KHTML, like Gecko) Chrome/138.0.0.0 Safari/537.36","WebKit","Chrome","138.0.0.0","Windows","10.0","https://app.prolific.com/","en-US,en;q=0.9","669a686f263cbcb8e321ed85","686e379bc37a29ffa5cdc956","68775ff2d5375e659ff2d332","1","1","669a686f263cbcb8e321ed85","1","1","2025-07-16T08:27:44.934Z","","","","","","","","","","","MotivationQ","","50","","","","","","","","","","","","","","","","","","","","","","","","","","","","",""
"","","","","ctl-task-cpt","29","639374","0.0-5.0-0.4","40","1","2025-07-16 08:17:25","1f75c3e559b7213887762d5229550c2b","154.0.11.214","Mozilla/5.0 (Windows NT 10.0; Win64; x64) AppleWebKit/537.36 (KHTML, like Gecko) Chrome/138.0.0.0 Safari/537.36","WebKit","Chrome","138.0.0.0","Windows","10.0","https://app.prolific.com/","en-US,en;q=0.9","669a686f263cbcb8e321ed85","686e379bc37a29ffa5cdc956","68775ff2d5375e659ff2d332","1","1","669a686f263cbcb8e321ed85","1","1","2025-07-16T08:28:05.909Z","","","","","","","","","","","","","","win-only","2","g1:SE,g2:NW","0.6","5","0","620906.5","1026.7","6035.2","17955","1","4","8","6","1","1","1","1","0","0.007575757575757576","1535.3","3000","1700","[""down"",""right""]","{""num_key_presses"":4,""num_perfect"":3,""num_errors"":0,""num_randdir"":1,""num_randdir_good_moves"":1,""num_whilered"":0,""num_whileblue"":0,""num_blue"":0,""num_good_moves"":4}","[417.8214133126395,411.57142761775424,0.4,419.0714133126395,414.07142761775424,110.4,420.3214133126395,414.07142761775424,219,444.0714133126395,410.32142761775424,323.3,555.3214133126395,397.82142761775424,430.3,581.5714133126395,399.07142761775424,534.2,602.8214133126395,426.57142761775424,644.2,621.5714133126395,482.82142761775424,747.6,631.5714133126395,511.57142761775424,852.8,632.8214133126395,514.0714276177542,959.4,632.8214133126395,525.3214276177542,1059.7,684.0714133126395,626.5714276177542,1163,734.0714133126395,692.8214276177542,1267.6,741.5714133126395,722.8214276177542,1376.8,742.8214133126395,726.5714276177542,1480.5,744.0714133126395,727.8214276177542,1584.3,741.5714133126395,717.8214276177542,1694.3,751.5714133126395,709.0714276177542,1798.2,874.0714133126395,685.3214276177542,1899.3,926.5714133126395,667.8214276177542,2002,926.5714133126395,667.8214276177542,2104.3,926.5714133126395,667.8214276177542,2206.3,926.5714133126395,667.8214276177542,2310.4,926.5714133126395,667.8214276177542,2414.1,926.5714133126395,667.8214276177542,2516.3,926.5714133126395,667.8214276177542,2620.3,926.5714133126395,667.8214276177542,2725,926.5714133126395,667.8214276177542,2827.8,926.5714133126395,667.8214276177542,2929.3,926.5714133126395,667.8214276177542,3042.2,926.5714133126395,667.8214276177542,3147.4,926.5714133126395,667.8214276177542,3250.8,926.5714133126395,667.8214276177542,3353.3,926.5714133126395,667.8214276177542,3460.7,926.5714133126395,667.8214276177542,3562.4,926.5714133126395,667.8214276177542,3666,926.5714133126395,667.8214276177542,3768.7,926.5714133126395,667.8214276177542,3871.2,926.5714133126395,667.8214276177542,3979.9,926.5714133126395,667.8214276177542,4085.2,926.5714133126395,667.8214276177542,4193.2,926.5714133126395,667.8214276177542,4294.8,926.5714133126395,667.8214276177542,4401,926.5714133126395,667.8214276177542,4503.8,926.5714133126395,667.8214276177542,4614.9,926.5714133126395,667.8214276177542,4722,926.5714133126395,667.8214276177542,4822.4,926.5714133126395,667.8214276177542,4933.6]","[2291.7,2291.7,1000,0,1291.7,""oops"",""down"",""down"",""good_move"",5436.2,3142.9,2341.8,2293.3,801.1,""smooth"",""down"",""down"",""good_move"",8440.7,3004.3,2496.8,5436.4,507.5,""smooth"",""right"",""right"",""good_move"",11688.9,3247.3,2778.7,8441.6,468.6,""smooth"",""right"",""right"",""good_move""]","",""
"2888","","<div style=""width:500px;"">
  <p>What determined the result of this run?</p>
  </div>","69","html-slider-response","30","642263","0.0-5.0-1.4","40","1","2025-07-16 08:17:25","1f75c3e559b7213887762d5229550c2b","154.0.11.214","Mozilla/5.0 (Windows NT 10.0; Win64; x64) AppleWebKit/537.36 (KHTML, like Gecko) Chrome/138.0.0.0 Safari/537.36","WebKit","Chrome","138.0.0.0","Windows","10.0","https://app.prolific.com/","en-US,en;q=0.9","669a686f263cbcb8e321ed85","686e379bc37a29ffa5cdc956","68775ff2d5375e659ff2d332","1","1","669a686f263cbcb8e321ed85","1","1","2025-07-16T08:28:08.798Z","","","","","","","","","","","AttribQ","","50","","","","","","","","","","","","","","","","","","","","","","","","","","","","",""
"2374","","<div style=""width:500px;"">
  <p>How much control did you have over the ball?</p>
  </div>","79","html-slider-response","31","644639","0.0-5.0-2.4","40","1","2025-07-16 08:17:25","1f75c3e559b7213887762d5229550c2b","154.0.11.214","Mozilla/5.0 (Windows NT 10.0; Win64; x64) AppleWebKit/537.36 (KHTML, like Gecko) Chrome/138.0.0.0 Safari/537.36","WebKit","Chrome","138.0.0.0","Windows","10.0","https://app.prolific.com/","en-US,en;q=0.9","669a686f263cbcb8e321ed85","686e379bc37a29ffa5cdc956","68775ff2d5375e659ff2d332","1","1","669a686f263cbcb8e321ed85","1","1","2025-07-16T08:28:11.174Z","","","","","","","","","","","ControlQ","","50","","","","","","","","","","","","","","","","","","","","","","","","","","","","",""
"3672","","<div style=""width:500px;"">
  <p>How would you describe your current emotional state?</p>
  </div>","19","html-slider-response","32","648314","0.0-5.0-3.4","40","1","2025-07-16 08:17:25","1f75c3e559b7213887762d5229550c2b","154.0.11.214","Mozilla/5.0 (Windows NT 10.0; Win64; x64) AppleWebKit/537.36 (KHTML, like Gecko) Chrome/138.0.0.0 Safari/537.36","WebKit","Chrome","138.0.0.0","Windows","10.0","https://app.prolific.com/","en-US,en;q=0.9","669a686f263cbcb8e321ed85","686e379bc37a29ffa5cdc956","68775ff2d5375e659ff2d332","1","1","669a686f263cbcb8e321ed85","1","1","2025-07-16T08:28:14.849Z","","","","","","","","","","","StressQ","","50","","","","","","","","","","","","","","","","","","","","","","","","","","","","",""
"2287","","<div style=""width:500px;"">
  <p>What best describes how you currently feel?</p>
  </div>","71","html-slider-response","33","650602","0.0-5.0-4.4","40","1","2025-07-16 08:17:25","1f75c3e559b7213887762d5229550c2b","154.0.11.214","Mozilla/5.0 (Windows NT 10.0; Win64; x64) AppleWebKit/537.36 (KHTML, like Gecko) Chrome/138.0.0.0 Safari/537.36","WebKit","Chrome","138.0.0.0","Windows","10.0","https://app.prolific.com/","en-US,en;q=0.9","669a686f263cbcb8e321ed85","686e379bc37a29ffa5cdc956","68775ff2d5375e659ff2d332","1","1","669a686f263cbcb8e321ed85","1","1","2025-07-16T08:28:17.137Z","","","","","","","","","","","MotivationQ","","50","","","","","","","","","","","","","","","","","","","","","","","","","","","","",""
"","","","","ctl-task-cpt","34","695166","0.0-5.0-0.5","40","1","2025-07-16 08:17:25","1f75c3e559b7213887762d5229550c2b","154.0.11.214","Mozilla/5.0 (Windows NT 10.0; Win64; x64) AppleWebKit/537.36 (KHTML, like Gecko) Chrome/138.0.0.0 Safari/537.36","WebKit","Chrome","138.0.0.0","Windows","10.0","https://app.prolific.com/","en-US,en;q=0.9","669a686f263cbcb8e321ed85","686e379bc37a29ffa5cdc956","68775ff2d5375e659ff2d332","1","1","669a686f263cbcb8e321ed85","1","1","2025-07-16T08:29:01.701Z","","","","","","","","","","","","","","win-only","3","g1:SW,g2:NE","0.5","6","0","653108.5","1222.4","6227.9","41544.5","1","4","4","6","1","1","-2","0","1","0","1253.8","3000","395","[""down"",""left""]","{""num_key_presses"":12,""num_perfect"":4,""num_errors"":3,""num_randdir"":5,""num_randdir_good_moves"":2,""num_whilered"":0,""num_whileblue"":3,""num_blue"":3,""num_good_moves"":8}","[416.5714133126395,416.57142761775424,0.4,416.5714133126395,416.57142761775424,106.3,416.5714133126395,416.57142761775424,210.6,451.5714133126395,411.57142761775424,319,509.0714133126395,424.07142761775424,421.2,517.8214133126395,502.82142761775424,525.6,431.5714133126395,600.3214276177542,627.7,420.3214133126395,642.8214276177542,733.8,377.8214133126395,651.5714276177542,834.8,254.0714133126395,690.3214276177542,937.9,129.0714133126395,732.8214276177542,1040.8,81.5714133126395,749.0714276177542,1153.2,71.5714133126395,751.5714276177542,1256.4,71.5714133126395,747.8214276177542,1367.5,91.5714133126395,745.3214276177542,1477.2,176.5714133126395,716.5714276177542,1598.2,486.5714133126395,696.5714276177542,1719.8,1016.5714133126395,709.0714276177542,1826.3,1072.8214133126396,709.0714276177542,1941.2,1072.8214133126396,709.0714276177542,2049.6,1072.8214133126396,709.0714276177542,2165.2,1072.8214133126396,709.0714276177542,2272.3,1072.8214133126396,709.0714276177542,2374.1,1072.8214133126396,709.0714276177542,2480.9,1072.8214133126396,709.0714276177542,2590.3,1072.8214133126396,709.0714276177542,2697.9,1072.8214133126396,709.0714276177542,2805.1,1072.8214133126396,709.0714276177542,2909,1072.8214133126396,709.0714276177542,3009.9,1072.8214133126396,709.0714276177542,3118.4,1072.8214133126396,709.0714276177542,3226.8,1072.8214133126396,709.0714276177542,3327.3,1072.8214133126396,709.0714276177542,3439,1072.8214133126396,709.0714276177542,3550.8,1072.8214133126396,709.0714276177542,3657,1072.8214133126396,709.0714276177542,3763.8,1072.8214133126396,709.0714276177542,3866.5,1072.8214133126396,709.0714276177542,3976.7,1072.8214133126396,709.0714276177542,4090.7,1072.8214133126396,709.0714276177542,4195.7,1072.8214133126396,709.0714276177542,4302.1,1072.8214133126396,709.0714276177542,4406.3,1072.8214133126396,709.0714276177542,4507.8,1072.8214133126396,709.0714276177542,4615.9,1072.8214133126396,709.0714276177542,4719.2,1072.8214133126396,709.0714276177542,4830.7,1072.8214133126396,709.0714276177542,4933.1]","[1675.8,1675.8,1000,0,675.8,""oops"",""down"",""right"",""bad_move"",4489.2,2813,1954,1676.3,859,""oops"",""down"",""down"",""good_move"",7333.9,2843.8,1989.1,4490.2,854.7,""while_blue"",""down"",""down"",""good_move"",9758.3,2423.9,1914.8,7334.5,509,""oops"",""left"",""up"",""bad_move"",13212.9,3454.3,2873.3,9758.6,581,""smooth"",""left"",""left"",""good_move"",16085.1,2871.6,2258.9,13213.5,612.7,""oops"",""left"",""up"",""bad_move"",19085.3,2999.9,2476.1,16085.4,523.8,""smooth"",""down"",""down"",""good_move"",22933.1,3847.4,2346.3,19085.7,1501.1,""oops"",""down"",""down"",""good_move"",25791,2857.6,2220.1,22933.4,637.5,""while_blue"",""left"",""left"",""good_move"",29065.2,3274,2612.8,25791.3,661.1,""while_blue"",""left"",""right"",""bad_move"",31694.9,2628.4,2149.5,29066.5,478.9,""smooth"",""left"",""left"",""good_move"",35115.9,3420.8,2937.7,31695.1,483.1,""smooth"",""left"",""left"",""good_move""]","",""
"2997","","<div style=""width:500px;"">
  <p>What determined the result of this run?</p>
  </div>","76","html-slider-response","35","698166","0.0-5.0-1.5","40","1","2025-07-16 08:17:25","1f75c3e559b7213887762d5229550c2b","154.0.11.214","Mozilla/5.0 (Windows NT 10.0; Win64; x64) AppleWebKit/537.36 (KHTML, like Gecko) Chrome/138.0.0.0 Safari/537.36","WebKit","Chrome","138.0.0.0","Windows","10.0","https://app.prolific.com/","en-US,en;q=0.9","669a686f263cbcb8e321ed85","686e379bc37a29ffa5cdc956","68775ff2d5375e659ff2d332","1","1","669a686f263cbcb8e321ed85","1","1","2025-07-16T08:29:04.701Z","","","","","","","","","","","AttribQ","","50","","","","","","","","","","","","","","","","","","","","","","","","","","","","",""
"3061","","<div style=""width:500px;"">
  <p>How much control did you have over the ball?</p>
  </div>","80","html-slider-response","36","701228","0.0-5.0-2.5","40","1","2025-07-16 08:17:25","1f75c3e559b7213887762d5229550c2b","154.0.11.214","Mozilla/5.0 (Windows NT 10.0; Win64; x64) AppleWebKit/537.36 (KHTML, like Gecko) Chrome/138.0.0.0 Safari/537.36","WebKit","Chrome","138.0.0.0","Windows","10.0","https://app.prolific.com/","en-US,en;q=0.9","669a686f263cbcb8e321ed85","686e379bc37a29ffa5cdc956","68775ff2d5375e659ff2d332","1","1","669a686f263cbcb8e321ed85","1","1","2025-07-16T08:29:07.763Z","","","","","","","","","","","ControlQ","","50","","","","","","","","","","","","","","","","","","","","","","","","","","","","",""
"2676","","<div style=""width:500px;"">
  <p>How would you describe your current emotional state?</p>
  </div>","17","html-slider-response","37","703905","0.0-5.0-3.5","40","1","2025-07-16 08:17:25","1f75c3e559b7213887762d5229550c2b","154.0.11.214","Mozilla/5.0 (Windows NT 10.0; Win64; x64) AppleWebKit/537.36 (KHTML, like Gecko) Chrome/138.0.0.0 Safari/537.36","WebKit","Chrome","138.0.0.0","Windows","10.0","https://app.prolific.com/","en-US,en;q=0.9","669a686f263cbcb8e321ed85","686e379bc37a29ffa5cdc956","68775ff2d5375e659ff2d332","1","1","669a686f263cbcb8e321ed85","1","1","2025-07-16T08:29:10.440Z","","","","","","","","","","","StressQ","","50","","","","","","","","","","","","","","","","","","","","","","","","","","","","",""
"2398","","<div style=""width:500px;"">
  <p>What best describes how you currently feel?</p>
  </div>","76","html-slider-response","38","706304","0.0-5.0-4.5","40","1","2025-07-16 08:17:25","1f75c3e559b7213887762d5229550c2b","154.0.11.214","Mozilla/5.0 (Windows NT 10.0; Win64; x64) AppleWebKit/537.36 (KHTML, like Gecko) Chrome/138.0.0.0 Safari/537.36","WebKit","Chrome","138.0.0.0","Windows","10.0","https://app.prolific.com/","en-US,en;q=0.9","669a686f263cbcb8e321ed85","686e379bc37a29ffa5cdc956","68775ff2d5375e659ff2d332","1","1","669a686f263cbcb8e321ed85","1","1","2025-07-16T08:29:12.839Z","","","","","","","","","","","MotivationQ","","50","","","","","","","","","","","","","","","","","","","","","","","","","","","","",""
"","","","","ctl-task-cpt","39","761706","0.0-5.0-0.6","40","1","2025-07-16 08:17:25","1f75c3e559b7213887762d5229550c2b","154.0.11.214","Mozilla/5.0 (Windows NT 10.0; Win64; x64) AppleWebKit/537.36 (KHTML, like Gecko) Chrome/138.0.0.0 Safari/537.36","WebKit","Chrome","138.0.0.0","Windows","10.0","https://app.prolific.com/","en-US,en;q=0.9","669a686f263cbcb8e321ed85","686e379bc37a29ffa5cdc956","68775ff2d5375e659ff2d332","1","1","669a686f263cbcb8e321ed85","1","1","2025-07-16T08:30:08.241Z","","","","","","","","","","","","","","win-only","2","g1:SE,g2:NW","0.4","7","0","708810.3","1170.5","6179.6","52382.3","1","4","8","6","1","1","-2","0","0","0","1397","3000","455","[""down"",""right""]","{""num_key_presses"":14,""num_perfect"":5,""num_errors"":3,""num_randdir"":6,""num_randdir_good_moves"":3,""num_whilered"":0,""num_whileblue"":3,""num_blue"":3,""num_good_moves"":9}","[421.5714133126395,411.57142761775424,0.3,421.5714133126395,411.57142761775424,100.1,420.3214133126395,410.32142761775424,200.4,420.3214133126395,410.32142761775424,307.2,491.5714133126395,390.32142761775424,415,535.3214133126395,364.07142761775424,523.3,536.5714133126395,394.07142761775424,635.9,562.8214133126395,416.57142761775424,745.9,536.5714133126395,461.57142761775424,854.8,556.5714133126395,516.5714276177542,964.3,674.0714133126395,641.5714276177542,1074.7,732.8214133126395,717.8214276177542,1177.1,756.5714133126395,740.3214276177542,1279.6,761.5714133126395,747.8214276177542,1380.1,761.5714133126395,747.8214276177542,1493.8,761.5714133126395,745.3214276177542,1594,776.5714133126395,731.5714276177542,1703.6,839.0714133126395,586.5714276177542,1813,654.0714133126395,394.07142761775424,1922.7,811.5714133126395,330.32142761775424,2029.3,914.0714133126395,326.57142761775424,2135.1,1001.5714133126395,326.57142761775424,2244.4,1069.0714133126396,365.32142761775424,2357,1112.8214133126396,369.07142761775424,2462.5,1112.8214133126396,369.07142761775424,2578,1132.8214133126396,369.07142761775424,2678.6,1132.8214133126396,369.07142761775424,2784.3,1132.8214133126396,369.07142761775424,2888.2,1132.8214133126396,369.07142761775424,2994.1,1132.8214133126396,369.07142761775424,3096.8,1132.8214133126396,369.07142761775424,3201.5,1132.8214133126396,369.07142761775424,3302,1132.8214133126396,369.07142761775424,3407.5,1132.8214133126396,369.07142761775424,3516.7,1132.8214133126396,369.07142761775424,3628.5,1132.8214133126396,369.07142761775424,3729.4,1132.8214133126396,369.07142761775424,3831.5,1132.8214133126396,369.07142761775424,3940.8,1132.8214133126396,369.07142761775424,4041,1132.8214133126396,369.07142761775424,4146.5,1132.8214133126396,369.07142761775424,4253.9,1132.8214133126396,369.07142761775424,4363,1132.8214133126396,369.07142761775424,4474.6,1132.8214133126396,369.07142761775424,4584.4,1132.8214133126396,369.07142761775424,4695.8,1132.8214133126396,369.07142761775424,4804.4,1132.8214133126396,369.07142761775424,4911.3]","[1618.3,1618.3,1000,0,618.3,""smooth"",""down"",""down"",""good_move"",4685.2,3065.7,2562.8,1619.5,502.9,""oops"",""down"",""left"",""bad_move"",7878.2,3192.5,2548.9,4685.7,643.6,""while_blue"",""right"",""left"",""bad_move"",11501.8,3623.2,3212.9,7878.6,410.3,""oops"",""down"",""up"",""bad_move"",14262.3,2760.1,1643.9,11502.2,1116.2,""smooth"",""down"",""down"",""good_move"",18335.8,4073.3,3344.7,14262.5,728.6,""while_blue"",""down"",""down"",""good_move"",21944.4,3608.3,3025.4,18336.1,582.9,""oops"",""right"",""left"",""bad_move"",25192.8,3248.2,2701.2,21944.6,547,""smooth"",""right"",""right"",""good_move"",28814.7,3621.5,3088.9,25193.2,532.6,""oops"",""right"",""right"",""good_move"",32441.7,3626.7,3099.4,28815,527.3,""oops"",""right"",""right"",""good_move"",35333.2,2891.3,2061.8,32441.9,829.5,""while_blue"",""right"",""left"",""bad_move"",39722.3,4388.6,1763.8,35333.8,2624.8,""smooth"",""right"",""right"",""good_move"",42679.1,2956.3,2163.8,39722.8,792.5,""oops"",""right"",""right"",""good_move"",45934.2,3254.8,2653.4,42679.5,601.4,""smooth"",""right"",""right"",""good_move""]","",""
"5330","","<div style=""width:500px;"">
  <p>What determined the result of this run?</p>
  </div>","84","html-slider-response","40","767038","0.0-5.0-1.6","40","1","2025-07-16 08:17:25","1f75c3e559b7213887762d5229550c2b","154.0.11.214","Mozilla/5.0 (Windows NT 10.0; Win64; x64) AppleWebKit/537.36 (KHTML, like Gecko) Chrome/138.0.0.0 Safari/537.36","WebKit","Chrome","138.0.0.0","Windows","10.0","https://app.prolific.com/","en-US,en;q=0.9","669a686f263cbcb8e321ed85","686e379bc37a29ffa5cdc956","68775ff2d5375e659ff2d332","1","1","669a686f263cbcb8e321ed85","1","1","2025-07-16T08:30:13.573Z","","","","","","","","","","","AttribQ","","50","","","","","","","","","","","","","","","","","","","","","","","","","","","","",""
"2896","","<div style=""width:500px;"">
  <p>How much control did you have over the ball?</p>
  </div>","83","html-slider-response","41","769935","0.0-5.0-2.6","40","1","2025-07-16 08:17:25","1f75c3e559b7213887762d5229550c2b","154.0.11.214","Mozilla/5.0 (Windows NT 10.0; Win64; x64) AppleWebKit/537.36 (KHTML, like Gecko) Chrome/138.0.0.0 Safari/537.36","WebKit","Chrome","138.0.0.0","Windows","10.0","https://app.prolific.com/","en-US,en;q=0.9","669a686f263cbcb8e321ed85","686e379bc37a29ffa5cdc956","68775ff2d5375e659ff2d332","1","1","669a686f263cbcb8e321ed85","1","1","2025-07-16T08:30:16.470Z","","","","","","","","","","","ControlQ","","50","","","","","","","","","","","","","","","","","","","","","","","","","","","","",""
"3449","","<div style=""width:500px;"">
  <p>How would you describe your current emotional state?</p>
  </div>","8","html-slider-response","42","773385","0.0-5.0-3.6","40","1","2025-07-16 08:17:25","1f75c3e559b7213887762d5229550c2b","154.0.11.214","Mozilla/5.0 (Windows NT 10.0; Win64; x64) AppleWebKit/537.36 (KHTML, like Gecko) Chrome/138.0.0.0 Safari/537.36","WebKit","Chrome","138.0.0.0","Windows","10.0","https://app.prolific.com/","en-US,en;q=0.9","669a686f263cbcb8e321ed85","686e379bc37a29ffa5cdc956","68775ff2d5375e659ff2d332","1","1","669a686f263cbcb8e321ed85","1","1","2025-07-16T08:30:19.920Z","","","","","","","","","","","StressQ","","50","","","","","","","","","","","","","","","","","","","","","","","","","","","","",""
"3650","","<div style=""width:500px;"">
  <p>What best describes how you currently feel?</p>
  </div>","81","html-slider-response","43","777036","0.0-5.0-4.6","40","1","2025-07-16 08:17:25","1f75c3e559b7213887762d5229550c2b","154.0.11.214","Mozilla/5.0 (Windows NT 10.0; Win64; x64) AppleWebKit/537.36 (KHTML, like Gecko) Chrome/138.0.0.0 Safari/537.36","WebKit","Chrome","138.0.0.0","Windows","10.0","https://app.prolific.com/","en-US,en;q=0.9","669a686f263cbcb8e321ed85","686e379bc37a29ffa5cdc956","68775ff2d5375e659ff2d332","1","1","669a686f263cbcb8e321ed85","1","1","2025-07-16T08:30:23.571Z","","","","","","","","","","","MotivationQ","","50","","","","","","","","","","","","","","","","","","","","","","","","","","","","",""
"","","","","ctl-task-cpt","44","826776","0.0-5.0-0.7","40","1","2025-07-16 08:17:25","1f75c3e559b7213887762d5229550c2b","154.0.11.214","Mozilla/5.0 (Windows NT 10.0; Win64; x64) AppleWebKit/537.36 (KHTML, like Gecko) Chrome/138.0.0.0 Safari/537.36","WebKit","Chrome","138.0.0.0","Windows","10.0","https://app.prolific.com/","en-US,en;q=0.9","669a686f263cbcb8e321ed85","686e379bc37a29ffa5cdc956","68775ff2d5375e659ff2d332","1","1","669a686f263cbcb8e321ed85","1","1","2025-07-16T08:31:13.311Z","","","","","","","","","","","","","","win-only","1","g1:NE,g2:SW","0.3","8","0","779542.5","2205.2","7206.2","46712.2","1","4","4","6","1","-1","-4","0","0","0","1485","3000","-865","[""up"",""right""]","{""num_key_presses"":10,""num_perfect"":2,""num_errors"":3,""num_randdir"":5,""num_randdir_good_moves"":2,""num_whilered"":0,""num_whileblue"":3,""num_blue"":3,""num_good_moves"":5}","[416.5714133126395,414.07142761775424,0.3,415.3214133126395,412.82142761775424,109,415.3214133126395,412.82142761775424,212.3,430.3214133126395,411.57142761775424,319.7,477.8214133126395,407.82142761775424,430.8,490.3214133126395,409.07142761775424,542.6,404.0714133126395,509.07142761775424,647.7,346.5714133126395,575.3214276177542,754.2,500.3214133126395,436.57142761775424,860.1,656.5714133126395,167.82142761775424,966.9,674.0714133126395,141.57142761775424,1072.7,690.3214133126395,121.57142761775425,1186.9,761.5714133126395,86.57142761775425,1298.5,761.5714133126395,85.32142761775425,1407.4,761.5714133126395,85.32142761775425,1519.3,761.5714133126395,85.32142761775425,1622.7,761.5714133126395,89.07142761775425,1723,760.3214133126395,134.07142761775424,1823.7,841.5714133126395,196.57142761775424,1926,965.3214133126395,256.57142761775424,2026.7,1106.5714133126396,264.07142761775424,2128.1,991.5714133126395,271.57142761775424,2229.1,1064.0714133126396,267.82142761775424,2340.8,1064.0714133126396,267.82142761775424,2445.5,1071.5714133126396,269.07142761775424,2550.3,1071.5714133126396,269.07142761775424,2664.7,1071.5714133126396,269.07142761775424,2774.9,1071.5714133126396,269.07142761775424,2878.7,1071.5714133126396,269.07142761775424,2992,1071.5714133126396,269.07142761775424,3099.3,1071.5714133126396,269.07142761775424,3201.7,1071.5714133126396,269.07142761775424,3308.9,1071.5714133126396,269.07142761775424,3412.3,1071.5714133126396,269.07142761775424,3516,1071.5714133126396,269.07142761775424,3619.8,1071.5714133126396,269.07142761775424,3731.4,1071.5714133126396,269.07142761775424,3846,1071.5714133126396,269.07142761775424,3946.2,1071.5714133126396,269.07142761775424,4047.8,1071.5714133126396,269.07142761775424,4152.4,1071.5714133126396,269.07142761775424,4262.4,1071.5714133126396,269.07142761775424,4374.6,1071.5714133126396,269.07142761775424,4486,1071.5714133126396,269.07142761775424,4597.8,1071.5714133126396,269.07142761775424,4702.5,1071.5714133126396,269.07142761775424,4803.9,1071.5714133126396,269.07142761775424,4908.2]","[1549.5,1549.6,1011,0,538.6,""while_blue"",""up"",""left"",""bad_move"",4661.6,3111.8,2470.4,1549.8,641.4,""while_blue"",""up"",""down"",""bad_move"",7393.6,2731.3,2146,4662.4,585.2,""oops"",""up"",""up"",""good_move"",10670,3276,2595.9,7394,680.1,""oops"",""up"",""down"",""bad_move"",14000.2,3329.5,2712.9,10670.7,616.6,""while_blue"",""up"",""up"",""good_move"",17202.4,3201.8,2243.6,14000.8,958.1,""oops"",""up"",""right"",""good_move"",20359.5,3155.7,2197.6,17203.9,958.1,""smooth"",""up"",""up"",""good_move"",24625.5,4265.5,2220.2,20360,2045.3,""oops"",""up"",""down"",""bad_move"",27770.4,3144.6,2577.1,24625.8,567.5,""smooth"",""up"",""up"",""good_move"",31246.4,3475.7,2397.4,27770.7,1078.3,""oops"",""up"",""down"",""bad_move""]","",""
"21419","","<div style=""width:500px;"">
  <p>What determined the result of this run?</p>
  </div>","80","html-slider-response","45","848197","0.0-5.0-1.7","40","1","2025-07-16 08:17:25","1f75c3e559b7213887762d5229550c2b","154.0.11.214","Mozilla/5.0 (Windows NT 10.0; Win64; x64) AppleWebKit/537.36 (KHTML, like Gecko) Chrome/138.0.0.0 Safari/537.36","WebKit","Chrome","138.0.0.0","Windows","10.0","https://app.prolific.com/","en-US,en;q=0.9","669a686f263cbcb8e321ed85","686e379bc37a29ffa5cdc956","68775ff2d5375e659ff2d332","1","1","669a686f263cbcb8e321ed85","1","1","2025-07-16T08:31:34.732Z","","","","","","","","","","","AttribQ","","50","","","","","","","","","","","","","","","","","","","","","","","","","","","","",""
"3102","","<div style=""width:500px;"">
  <p>How much control did you have over the ball?</p>
  </div>","79","html-slider-response","46","851301","0.0-5.0-2.7","40","1","2025-07-16 08:17:25","1f75c3e559b7213887762d5229550c2b","154.0.11.214","Mozilla/5.0 (Windows NT 10.0; Win64; x64) AppleWebKit/537.36 (KHTML, like Gecko) Chrome/138.0.0.0 Safari/537.36","WebKit","Chrome","138.0.0.0","Windows","10.0","https://app.prolific.com/","en-US,en;q=0.9","669a686f263cbcb8e321ed85","686e379bc37a29ffa5cdc956","68775ff2d5375e659ff2d332","1","1","669a686f263cbcb8e321ed85","1","1","2025-07-16T08:31:37.836Z","","","","","","","","","","","ControlQ","","50","","","","","","","","","","","","","","","","","","","","","","","","","","","","",""
"4963","","<div style=""width:500px;"">
  <p>How would you describe your current emotional state?</p>
  </div>","18","html-slider-response","47","856267","0.0-5.0-3.7","40","1","2025-07-16 08:17:25","1f75c3e559b7213887762d5229550c2b","154.0.11.214","Mozilla/5.0 (Windows NT 10.0; Win64; x64) AppleWebKit/537.36 (KHTML, like Gecko) Chrome/138.0.0.0 Safari/537.36","WebKit","Chrome","138.0.0.0","Windows","10.0","https://app.prolific.com/","en-US,en;q=0.9","669a686f263cbcb8e321ed85","686e379bc37a29ffa5cdc956","68775ff2d5375e659ff2d332","1","1","669a686f263cbcb8e321ed85","1","1","2025-07-16T08:31:42.803Z","","","","","","","","","","","StressQ","","50","","","","","","","","","","","","","","","","","","","","","","","","","","","","",""
"3925","","<div style=""width:500px;"">
  <p>What best describes how you currently feel?</p>
  </div>","75","html-slider-response","48","860198","0.0-5.0-4.7","40","1","2025-07-16 08:17:25","1f75c3e559b7213887762d5229550c2b","154.0.11.214","Mozilla/5.0 (Windows NT 10.0; Win64; x64) AppleWebKit/537.36 (KHTML, like Gecko) Chrome/138.0.0.0 Safari/537.36","WebKit","Chrome","138.0.0.0","Windows","10.0","https://app.prolific.com/","en-US,en;q=0.9","669a686f263cbcb8e321ed85","686e379bc37a29ffa5cdc956","68775ff2d5375e659ff2d332","1","1","669a686f263cbcb8e321ed85","1","1","2025-07-16T08:31:46.733Z","","","","","","","","","","","MotivationQ","","50","","","","","","","","","","","","","","","","","","","","","","","","","","","","",""
"","","","","ctl-task-cpt","49","958506","0.0-5.0-0.8","40","1","2025-07-16 08:17:25","1f75c3e559b7213887762d5229550c2b","154.0.11.214","Mozilla/5.0 (Windows NT 10.0; Win64; x64) AppleWebKit/537.36 (KHTML, like Gecko) Chrome/138.0.0.0 Safari/537.36","WebKit","Chrome","138.0.0.0","Windows","10.0","https://app.prolific.com/","en-US,en;q=0.9","669a686f263cbcb8e321ed85","686e379bc37a29ffa5cdc956","68775ff2d5375e659ff2d332","1","1","669a686f263cbcb8e321ed85","1","1","2025-07-16T08:33:25.042Z","","","","","","","","","","","","","","win-only","1","g1:NE,g2:SW","0.2","9","0","862708","1772.6","6781.7","95277.4","1","4","4","6","1","1","-7","0","0","0","1440.9","3000","95","[""up"",""right""]","{""num_key_presses"":26,""num_perfect"":3,""num_errors"":8,""num_randdir"":15,""num_randdir_good_moves"":9,""num_whilered"":0,""num_whileblue"":6,""num_blue"":7,""num_good_moves"":14}","[416.5714133126395,411.57142761775424,0.2,417.8214133126395,412.82142761775424,120.1,419.0714133126395,415.32142761775424,234.5,421.5714133126395,414.07142761775424,345.3,466.5714133126395,400.32142761775424,456.2,472.8214133126395,397.82142761775424,567.6,511.5714133126395,386.57142761775424,679.9,674.0714133126395,239.07142761775424,797.9,647.8214133126395,190.32142761775424,915,696.5714133126395,131.57142761775424,1034,754.0714133126395,82.82142761775425,1148.7,761.5714133126395,84.07142761775425,1275.9,761.5714133126395,92.82142761775425,1391.1,761.5714133126395,92.82142761775425,1510.2,756.5714133126395,86.57142761775425,1633.1,706.5714133126395,127.82142761775425,1747.2,656.5714133126395,251.57142761775424,1856.8,722.8214133126395,304.07142761775424,1964.4,727.8214133126395,310.32142761775424,2065.2,727.8214133126395,310.32142761775424,2180.9,720.3214133126395,344.07142761775424,2303.7,721.5714133126395,605.3214276177542,2412.8,731.5714133126395,665.3214276177542,2539.9,709.0714133126395,695.3214276177542,2646,704.0714133126395,714.0714276177542,2767,704.0714133126395,714.0714276177542,2880.7,704.0714133126395,714.0714276177542,2982.4,704.0714133126395,714.0714276177542,3088.8,704.0714133126395,714.0714276177542,3190.5,704.0714133126395,714.0714276177542,3309.2,704.0714133126395,714.0714276177542,3418.9,704.0714133126395,714.0714276177542,3531.3,704.0714133126395,714.0714276177542,3646.2,704.0714133126395,714.0714276177542,3759.8,704.0714133126395,714.0714276177542,3885.9,704.0714133126395,714.0714276177542,4005.8,704.0714133126395,714.0714276177542,4129.3,704.0714133126395,714.0714276177542,4235.3,704.0714133126395,714.0714276177542,4342.3,704.0714133126395,714.0714276177542,4459.8,704.0714133126395,714.0714276177542,4572.5,704.0714133126395,714.0714276177542,4685,704.0714133126395,714.0714276177542,4797.8,704.0714133126395,714.0714276177542,4915.8]","[1634.6,1634.6,1007.6,0,627,""while_blue"",""up"",""up"",""good_move"",6427.7,4792.7,4329.4,1635,463.3,""while_blue"",""up"",""left"",""bad_move"",10771.9,4343.8,2253.7,6428.1,2090.1,""oops"",""up"",""down"",""bad_move"",13782.5,3010.3,2128.2,10772.2,882.1,""oops"",""up"",""right"",""good_move"",17122.9,3340.1,2820.3,13782.8,519.8,""while_blue"",""up"",""right"",""good_move"",19709.1,2586.1,1861.4,17123,724.7,""oops"",""up"",""up"",""good_move"",23241.8,3532.5,3099.5,19709.3,433,""oops"",""up"",""left"",""bad_move"",25863.8,2621.9,1796.6,23242,825.2,""oops"",""up"",""left"",""bad_move"",28882,3018,2389.7,25864,628.3,""while_blue"",""up"",""down"",""bad_move"",31863.5,2981.1,2383.6,28882.4,597.5,""while_blue"",""up"",""right"",""good_move"",35051.9,3187.9,2504.4,31864,683.5,""smooth"",""up"",""up"",""good_move"",37929.5,2877.3,3222.9,35052.2,-345.6,""error"",""-"",""-"",""no_move"",42008.8,4079,2513,38945.3,550.5,""oops"",""up"",""up"",""good_move"",45386,3376.9,2701.9,42009.1,675,""while_blue"",""right"",""down"",""bad_move"",47889,2502.7,1659.2,45386.3,843.5,""oops"",""right"",""right"",""good_move"",50956.6,3067.3,2622.7,47889.3,444.6,""oops"",""right"",""left"",""bad_move"",54864.6,3907.8,2902.7,50956.8,1005.1,""smooth"",""left"",""left"",""bad_move"",58845.3,3980.5,2093.2,54864.8,1887.3,""oops"",""up"",""right"",""good_move"",62559.4,3713.8,2966,58845.6,747.8,""oops"",""up"",""left"",""bad_move"",66486.3,3926.6,1752.6,62559.7,2174,""oops"",""up"",""up"",""good_move"",70374.9,3887.8,2218.5,66487.2,1669.2,""oops"",""right"",""left"",""bad_move"",74778.6,4403.4,2675.5,70375.2,1727.9,""oops"",""right"",""right"",""good_move"",78505.1,3726.2,2488.8,78132.2,-2115.9,""error"",""-"",""-"",""no_move"",82108.7,3603.3,2144,79506.3,458.5,""oops"",""right"",""right"",""good_move"",85455.6,3346.5,2693.6,82109.1,652.9,""oops"",""right"",""right"",""good_move"",88062.6,2606.9,2118.6,85455.7,488.3,""smooth"",""right"",""right"",""good_move""]","",""
"2383","","<div style=""width:500px;"">
  <p>What determined the result of this run?</p>
  </div>","72","html-slider-response","50","960891","0.0-5.0-1.8","40","1","2025-07-16 08:17:25","1f75c3e559b7213887762d5229550c2b","154.0.11.214","Mozilla/5.0 (Windows NT 10.0; Win64; x64) AppleWebKit/537.36 (KHTML, like Gecko) Chrome/138.0.0.0 Safari/537.36","WebKit","Chrome","138.0.0.0","Windows","10.0","https://app.prolific.com/","en-US,en;q=0.9","669a686f263cbcb8e321ed85","686e379bc37a29ffa5cdc956","68775ff2d5375e659ff2d332","1","1","669a686f263cbcb8e321ed85","1","1","2025-07-16T08:33:27.426Z","","","","","","","","","","","AttribQ","","50","","","","","","","","","","","","","","","","","","","","","","","","","","","","",""
"2751","","<div style=""width:500px;"">
  <p>How much control did you have over the ball?</p>
  </div>","40","html-slider-response","51","963643","0.0-5.0-2.8","40","1","2025-07-16 08:17:25","1f75c3e559b7213887762d5229550c2b","154.0.11.214","Mozilla/5.0 (Windows NT 10.0; Win64; x64) AppleWebKit/537.36 (KHTML, like Gecko) Chrome/138.0.0.0 Safari/537.36","WebKit","Chrome","138.0.0.0","Windows","10.0","https://app.prolific.com/","en-US,en;q=0.9","669a686f263cbcb8e321ed85","686e379bc37a29ffa5cdc956","68775ff2d5375e659ff2d332","1","1","669a686f263cbcb8e321ed85","1","1","2025-07-16T08:33:30.178Z","","","","","","","","","","","ControlQ","","50","","","","","","","","","","","","","","","","","","","","","","","","","","","","",""
"3186","","<div style=""width:500px;"">
  <p>How would you describe your current emotional state?</p>
  </div>","67","html-slider-response","52","966830","0.0-5.0-3.8","40","1","2025-07-16 08:17:25","1f75c3e559b7213887762d5229550c2b","154.0.11.214","Mozilla/5.0 (Windows NT 10.0; Win64; x64) AppleWebKit/537.36 (KHTML, like Gecko) Chrome/138.0.0.0 Safari/537.36","WebKit","Chrome","138.0.0.0","Windows","10.0","https://app.prolific.com/","en-US,en;q=0.9","669a686f263cbcb8e321ed85","686e379bc37a29ffa5cdc956","68775ff2d5375e659ff2d332","1","1","669a686f263cbcb8e321ed85","1","1","2025-07-16T08:33:33.366Z","","","","","","","","","","","StressQ","","50","","","","","","","","","","","","","","","","","","","","","","","","","","","","",""
"3255","","<div style=""width:500px;"">
  <p>What best describes how you currently feel?</p>
  </div>","64","html-slider-response","53","970086","0.0-5.0-4.8","40","1","2025-07-16 08:17:25","1f75c3e559b7213887762d5229550c2b","154.0.11.214","Mozilla/5.0 (Windows NT 10.0; Win64; x64) AppleWebKit/537.36 (KHTML, like Gecko) Chrome/138.0.0.0 Safari/537.36","WebKit","Chrome","138.0.0.0","Windows","10.0","https://app.prolific.com/","en-US,en;q=0.9","669a686f263cbcb8e321ed85","686e379bc37a29ffa5cdc956","68775ff2d5375e659ff2d332","1","1","669a686f263cbcb8e321ed85","1","1","2025-07-16T08:33:36.621Z","","","","","","","","","","","MotivationQ","","50","","","","","","","","","","","","","","","","","","","","","","","","","","","","",""
"","","","","ctl-task-cpt","54","1038365","0.0-5.0-0.9","40","1","2025-07-16 08:17:25","1f75c3e559b7213887762d5229550c2b","154.0.11.214","Mozilla/5.0 (Windows NT 10.0; Win64; x64) AppleWebKit/537.36 (KHTML, like Gecko) Chrome/138.0.0.0 Safari/537.36","WebKit","Chrome","138.0.0.0","Windows","10.0","https://app.prolific.com/","en-US,en;q=0.9","669a686f263cbcb8e321ed85","686e379bc37a29ffa5cdc956","68775ff2d5375e659ff2d332","1","1","669a686f263cbcb8e321ed85","1","1","2025-07-16T08:34:44.900Z","","","","","","","","","","","","","","win-only","0","g1:NW,g2:SE","0.4","10","0","972593.4","1575.2","6590.4","65241.7","1","4","8","6","1","1","-4","0","0","0","1654","3000","635","[""left"",""up""]","{""num_key_presses"":19,""num_perfect"":7,""num_errors"":5,""num_randdir"":7,""num_randdir_good_moves"":1,""num_whilered"":0,""num_whileblue"":4,""num_blue"":4,""num_good_moves"":11}","[416.5714133126395,414.07142761775424,0.2,421.5714133126395,414.07142761775424,110.7,421.5714133126395,414.07142761775424,217.7,449.0714133126395,404.07142761775424,327.5,444.0714133126395,400.32142761775424,441.9,449.0714133126395,434.07142761775424,544.9,455.3214133126395,464.07142761775424,650.3,519.0714133126395,514.0714276177542,751.6,492.8214133126395,472.82142761775424,852.9,316.5714133126395,285.32142761775424,956.1,230.3214133126395,202.82142761775424,1061.2,176.5714133126395,151.57142761775424,1166.4,150.3214133126395,96.57142761775425,1268.9,122.8214133126395,70.32142761775425,1372.2,104.0714133126395,70.32142761775425,1496.7,100.3214133126395,69.07142761775425,1612,99.0714133126395,69.07142761775425,1726.6,99.0714133126395,69.07142761775425,1834.9,102.8214133126395,75.32142761775425,1937.8,250.3214133126395,85.32142761775425,2041.2,294.0714133126395,100.32142761775425,2149.5,305.3214133126395,106.57142761775425,2250.8,325.3214133126395,201.57142761775424,2352.9,306.5714133126395,306.57142761775424,2458.9,226.5714133126395,411.57142761775424,2564.8,229.0714133126395,390.32142761775424,2665.4,406.5714133126395,242.82142761775424,2770.2,406.5714133126395,242.82142761775424,2876.4,406.5714133126395,242.82142761775424,2985.8,406.5714133126395,242.82142761775424,3095.3,406.5714133126395,242.82142761775424,3204,406.5714133126395,242.82142761775424,3312.9,406.5714133126395,242.82142761775424,3421.8,406.5714133126395,242.82142761775424,3529.1,406.5714133126395,242.82142761775424,3636.8,406.5714133126395,242.82142761775424,3746.5,406.5714133126395,242.82142761775424,3853.9,406.5714133126395,242.82142761775424,3960.5,406.5714133126395,242.82142761775424,4062,406.5714133126395,242.82142761775424,4165.9,406.5714133126395,242.82142761775424,4269.6,406.5714133126395,242.82142761775424,4378.4,406.5714133126395,242.82142761775424,4488.7,406.5714133126395,242.82142761775424,4596.7,406.5714133126395,242.82142761775424,4701.7,406.5714133126395,242.82142761775424,4803.1,406.5714133126395,242.82142761775424,4914.6]","[1828.1,1828.1,1000,0,828.1,""oops"",""left"",""down"",""bad_move"",4866,3037.3,2372.4,1828.7,664.9,""while_blue"",""left"",""left"",""good_move"",8033.6,3167.1,2501.8,4866.5,665.3,""while_blue"",""left"",""left"",""good_move"",11039.3,3005.5,2334.2,8033.8,671.3,""oops"",""up"",""down"",""bad_move"",14191.9,3152.1,2688.2,11039.8,463.9,""smooth"",""up"",""up"",""good_move"",17439.5,3247.2,1751.8,14192.3,1495.4,""smooth"",""up"",""up"",""good_move"",20565.9,3126,2291,17439.9,835,""oops"",""up"",""right"",""bad_move"",23546.5,2980.3,2463,20566.2,517.3,""smooth"",""up"",""up"",""good_move"",26806.9,3259.9,2836.4,23547,423.5,""oops"",""up"",""down"",""bad_move"",29961.3,3154.2,2652.1,26807.1,502.1,""while_blue"",""up"",""right"",""bad_move"",32827.2,2865.8,2111.5,29961.4,754.3,""oops"",""up"",""right"",""bad_move"",35863.3,3035.7,2561.5,32827.6,474.2,""smooth"",""up"",""up"",""good_move"",38731.6,2867.9,1977.3,35863.7,890.6,""oops"",""up"",""down"",""bad_move"",40842,2110.1,2752.3,38731.9,-642.2,""error"",""-"",""-"",""no_move"",45144.7,4302.4,2929.4,41850.1,365.2,""while_blue"",""up"",""left"",""good_move"",48141.8,2996.6,2528,45145.2,468.6,""smooth"",""up"",""up"",""good_move"",51779.5,3637.6,3175.3,48141.9,462.3,""oops"",""up"",""left"",""good_move"",54948.5,3168.7,1958.6,51779.8,1210.1,""smooth"",""up"",""up"",""good_move"",58281.4,3332.6,2158.4,54948.8,1174.2,""smooth"",""left"",""left"",""good_move""]","",""
"3720","","<div style=""width:500px;"">
  <p>What determined the result of this run?</p>
  </div>","73","html-slider-response","55","1042086","0.0-5.0-1.9","40","1","2025-07-16 08:17:25","1f75c3e559b7213887762d5229550c2b","154.0.11.214","Mozilla/5.0 (Windows NT 10.0; Win64; x64) AppleWebKit/537.36 (KHTML, like Gecko) Chrome/138.0.0.0 Safari/537.36","WebKit","Chrome","138.0.0.0","Windows","10.0","https://app.prolific.com/","en-US,en;q=0.9","669a686f263cbcb8e321ed85","686e379bc37a29ffa5cdc956","68775ff2d5375e659ff2d332","1","1","669a686f263cbcb8e321ed85","1","1","2025-07-16T08:34:48.621Z","","","","","","","","","","","AttribQ","","50","","","","","","","","","","","","","","","","","","","","","","","","","","","","",""
"3606","","<div style=""width:500px;"">
  <p>How much control did you have over the ball?</p>
  </div>","77","html-slider-response","56","1045693","0.0-5.0-2.9","40","1","2025-07-16 08:17:25","1f75c3e559b7213887762d5229550c2b","154.0.11.214","Mozilla/5.0 (Windows NT 10.0; Win64; x64) AppleWebKit/537.36 (KHTML, like Gecko) Chrome/138.0.0.0 Safari/537.36","WebKit","Chrome","138.0.0.0","Windows","10.0","https://app.prolific.com/","en-US,en;q=0.9","669a686f263cbcb8e321ed85","686e379bc37a29ffa5cdc956","68775ff2d5375e659ff2d332","1","1","669a686f263cbcb8e321ed85","1","1","2025-07-16T08:34:52.228Z","","","","","","","","","","","ControlQ","","50","","","","","","","","","","","","","","","","","","","","","","","","","","","","",""
"3995","","<div style=""width:500px;"">
  <p>How would you describe your current emotional state?</p>
  </div>","38","html-slider-response","57","1049691","0.0-5.0-3.9","40","1","2025-07-16 08:17:25","1f75c3e559b7213887762d5229550c2b","154.0.11.214","Mozilla/5.0 (Windows NT 10.0; Win64; x64) AppleWebKit/537.36 (KHTML, like Gecko) Chrome/138.0.0.0 Safari/537.36","WebKit","Chrome","138.0.0.0","Windows","10.0","https://app.prolific.com/","en-US,en;q=0.9","669a686f263cbcb8e321ed85","686e379bc37a29ffa5cdc956","68775ff2d5375e659ff2d332","1","1","669a686f263cbcb8e321ed85","1","1","2025-07-16T08:34:56.226Z","","","","","","","","","","","StressQ","","50","","","","","","","","","","","","","","","","","","","","","","","","","","","","",""
"2030","","<div style=""width:500px;"">
  <p>What best describes how you currently feel?</p>
  </div>","77","html-slider-response","58","1051723","0.0-5.0-4.9","40","1","2025-07-16 08:17:25","1f75c3e559b7213887762d5229550c2b","154.0.11.214","Mozilla/5.0 (Windows NT 10.0; Win64; x64) AppleWebKit/537.36 (KHTML, like Gecko) Chrome/138.0.0.0 Safari/537.36","WebKit","Chrome","138.0.0.0","Windows","10.0","https://app.prolific.com/","en-US,en;q=0.9","669a686f263cbcb8e321ed85","686e379bc37a29ffa5cdc956","68775ff2d5375e659ff2d332","1","1","669a686f263cbcb8e321ed85","1","1","2025-07-16T08:34:58.258Z","","","","","","","","","","","MotivationQ","","50","","","","","","","","","","","","","","","","","","","","","","","","","","","","",""
"","","","","ctl-task-cpt","59","1093563","0.0-5.0-0.10","40","1","2025-07-16 08:17:25","1f75c3e559b7213887762d5229550c2b","154.0.11.214","Mozilla/5.0 (Windows NT 10.0; Win64; x64) AppleWebKit/537.36 (KHTML, like Gecko) Chrome/138.0.0.0 Safari/537.36","WebKit","Chrome","138.0.0.0","Windows","10.0","https://app.prolific.com/","en-US,en;q=0.9","669a686f263cbcb8e321ed85","686e379bc37a29ffa5cdc956","68775ff2d5375e659ff2d332","1","1","669a686f263cbcb8e321ed85","1","1","2025-07-16T08:35:40.098Z","","","","","","","","","","","","","","win-only","2","g1:SE,g2:NW","0.5","11","0","1054229.4","1462.9","6471.5","38800.5","1","4","8","6","1","1","0","0","0","0","1360.9","3000","1410","[""down"",""right""]","{""num_key_presses"":10,""num_perfect"":5,""num_errors"":1,""num_randdir"":4,""num_randdir_good_moves"":2,""num_whilered"":0,""num_whileblue"":1,""num_blue"":1,""num_good_moves"":7}","[415.3214133126395,411.57142761775424,0.2,416.5714133126395,411.57142761775424,105.8,416.5714133126395,411.57142761775424,220.8,415.3214133126395,406.57142761775424,325.5,401.5714133126395,390.32142761775424,428.7,405.3214133126395,376.57142761775424,533.2,476.5714133126395,395.32142761775424,642.1,547.8214133126395,470.32142761775424,756.6,630.3214133126395,616.5714276177542,863.8,791.5714133126395,821.5714276177542,966.8,800.3214133126395,816.5714276177542,1067.5,791.5714133126395,802.8214276177542,1167.7,772.8214133126395,775.3214276177542,1278.4,769.0714133126395,772.8214276177542,1380,767.8214133126395,772.8214276177542,1480.2,766.5714133126395,772.8214276177542,1584,761.5714133126395,761.5714276177542,1691.8,706.5714133126395,596.5714276177542,1802.2,729.0714133126395,400.32142761775424,1911.4,746.5714133126395,386.57142761775424,2016.7,819.0714133126395,379.07142761775424,2126.9,832.8214133126395,379.07142761775424,2229.2,821.5714133126395,360.32142761775424,2341.7,820.3214133126395,356.57142761775424,2441.9,820.3214133126395,356.57142761775424,2542.3,820.3214133126395,356.57142761775424,2646.4,820.3214133126395,356.57142761775424,2750.6,820.3214133126395,356.57142761775424,2863.5,820.3214133126395,356.57142761775424,2976.3,820.3214133126395,356.57142761775424,3077.1,820.3214133126395,356.57142761775424,3179,820.3214133126395,356.57142761775424,3279.4,820.3214133126395,356.57142761775424,3380.4,820.3214133126395,356.57142761775424,3482.2,820.3214133126395,356.57142761775424,3583.7,820.3214133126395,356.57142761775424,3685.8,820.3214133126395,356.57142761775424,3791.1,820.3214133126395,356.57142761775424,3896.5,820.3214133126395,356.57142761775424,4002.7,820.3214133126395,356.57142761775424,4106.2,820.3214133126395,356.57142761775424,4215.1,820.3214133126395,356.57142761775424,4315.3,820.3214133126395,356.57142761775424,4424.1,820.3214133126395,356.57142761775424,4526.2,820.3214133126395,356.57142761775424,4631,820.3214133126395,356.57142761775424,4737.3,820.3214133126395,356.57142761775424,4842.2,820.3214133126395,356.57142761775424,4954.1]","[1450.5,1450.5,1000,0,450.5,""oops"",""down"",""right"",""good_move"",4657.6,3206.7,2760.1,1450.9,446.6,""smooth"",""down"",""down"",""good_move"",7371.4,2713.5,2119.5,4657.9,594,""smooth"",""right"",""right"",""good_move"",10175.5,2803.8,2277.1,7371.7,526.7,""oops"",""down"",""left"",""bad_move"",13670.5,3494.5,2319.5,10176,1175,""smooth"",""down"",""down"",""good_move"",16996.5,3325.8,2758,13670.7,567.8,""while_blue"",""right"",""left"",""bad_move"",20739.6,3742.8,2314.7,16996.8,1428.1,""oops"",""right"",""left"",""bad_move"",25439.2,4699.5,1966.4,20739.7,2733.1,""smooth"",""right"",""right"",""good_move"",28452.8,3013.4,2345.7,25439.4,667.7,""oops"",""right"",""right"",""good_move"",32047.1,3594,2387.3,28453.1,1206.7,""smooth"",""right"",""right"",""good_move""]","",""
"2640","","<div style=""width:500px;"">
  <p>What determined the result of this run?</p>
  </div>","73","html-slider-response","60","1096205","0.0-5.0-1.10","40","1","2025-07-16 08:17:25","1f75c3e559b7213887762d5229550c2b","154.0.11.214","Mozilla/5.0 (Windows NT 10.0; Win64; x64) AppleWebKit/537.36 (KHTML, like Gecko) Chrome/138.0.0.0 Safari/537.36","WebKit","Chrome","138.0.0.0","Windows","10.0","https://app.prolific.com/","en-US,en;q=0.9","669a686f263cbcb8e321ed85","686e379bc37a29ffa5cdc956","68775ff2d5375e659ff2d332","1","1","669a686f263cbcb8e321ed85","1","1","2025-07-16T08:35:42.740Z","","","","","","","","","","","AttribQ","","50","","","","","","","","","","","","","","","","","","","","","","","","","","","","",""
"1754","","<div style=""width:500px;"">
  <p>How much control did you have over the ball?</p>
  </div>","77","html-slider-response","61","1097960","0.0-5.0-2.10","40","1","2025-07-16 08:17:25","1f75c3e559b7213887762d5229550c2b","154.0.11.214","Mozilla/5.0 (Windows NT 10.0; Win64; x64) AppleWebKit/537.36 (KHTML, like Gecko) Chrome/138.0.0.0 Safari/537.36","WebKit","Chrome","138.0.0.0","Windows","10.0","https://app.prolific.com/","en-US,en;q=0.9","669a686f263cbcb8e321ed85","686e379bc37a29ffa5cdc956","68775ff2d5375e659ff2d332","1","1","669a686f263cbcb8e321ed85","1","1","2025-07-16T08:35:44.495Z","","","","","","","","","","","ControlQ","","50","","","","","","","","","","","","","","","","","","","","","","","","","","","","",""
"3142","","<div style=""width:500px;"">
  <p>How would you describe your current emotional state?</p>
  </div>","41","html-slider-response","62","1101103","0.0-5.0-3.10","40","1","2025-07-16 08:17:25","1f75c3e559b7213887762d5229550c2b","154.0.11.214","Mozilla/5.0 (Windows NT 10.0; Win64; x64) AppleWebKit/537.36 (KHTML, like Gecko) Chrome/138.0.0.0 Safari/537.36","WebKit","Chrome","138.0.0.0","Windows","10.0","https://app.prolific.com/","en-US,en;q=0.9","669a686f263cbcb8e321ed85","686e379bc37a29ffa5cdc956","68775ff2d5375e659ff2d332","1","1","669a686f263cbcb8e321ed85","1","1","2025-07-16T08:35:47.638Z","","","","","","","","","","","StressQ","","50","","","","","","","","","","","","","","","","","","","","","","","","","","","","",""
"13672","","<div style=""width:500px;"">
  <p>What best describes how you currently feel?</p>
  </div>","74","html-slider-response","63","1114776","0.0-5.0-4.10","40","1","2025-07-16 08:17:25","1f75c3e559b7213887762d5229550c2b","154.0.11.214","Mozilla/5.0 (Windows NT 10.0; Win64; x64) AppleWebKit/537.36 (KHTML, like Gecko) Chrome/138.0.0.0 Safari/537.36","WebKit","Chrome","138.0.0.0","Windows","10.0","https://app.prolific.com/","en-US,en;q=0.9","669a686f263cbcb8e321ed85","686e379bc37a29ffa5cdc956","68775ff2d5375e659ff2d332","1","1","669a686f263cbcb8e321ed85","1","1","2025-07-16T08:36:01.311Z","","","","","","","","","","","MotivationQ","","50","","","","","","","","","","","","","","","","","","","","","","","","","","","","",""
"","","","","ctl-task-cpt","64","1146713","0.0-5.0-0.11","40","1","2025-07-16 08:17:25","1f75c3e559b7213887762d5229550c2b","154.0.11.214","Mozilla/5.0 (Windows NT 10.0; Win64; x64) AppleWebKit/537.36 (KHTML, like Gecko) Chrome/138.0.0.0 Safari/537.36","WebKit","Chrome","138.0.0.0","Windows","10.0","https://app.prolific.com/","en-US,en;q=0.9","669a686f263cbcb8e321ed85","686e379bc37a29ffa5cdc956","68775ff2d5375e659ff2d332","1","1","669a686f263cbcb8e321ed85","1","1","2025-07-16T08:36:33.248Z","","","","","","","","","","","","","","win-only","3","g1:SW,g2:NE","0.6","12","0","1117283.3","1386.3","6392.8","28903.7","1","4","4","6","1","1","1","1","0","0.007575757575757576","1153.2","3000","2175","[""down"",""left""]","{""num_key_presses"":6,""num_perfect"":4,""num_errors"":0,""num_randdir"":2,""num_randdir_good_moves"":1,""num_whilered"":0,""num_whileblue"":0,""num_blue"":0,""num_good_moves"":5}","[420.3214133126395,415.32142761775424,0.3,421.5714133126395,411.57142761775424,105.2,421.5714133126395,410.32142761775424,228.4,422.8214133126395,407.82142761775424,335.2,422.8214133126395,406.57142761775424,436,369.0714133126395,525.3214276177542,549.7,245.3214133126395,599.0714276177542,658,109.0714133126395,657.8214276177542,767,89.0714133126395,694.0714276177542,879.6,74.0714133126395,724.0714276177542,986.4,64.0714133126395,736.5714276177542,1097,61.57141331263951,745.3214276177542,1204.2,60.32141331263951,745.3214276177542,1306,60.32141331263951,745.3214276177542,1425.5,127.8214133126395,757.8214276177542,1536.5,180.3214133126395,731.5714276177542,1645.6,187.8214133126395,724.0714276177542,1764.1,187.8214133126395,724.0714276177542,1889.8,187.8214133126395,724.0714276177542,1991.9,306.5714133126395,651.5714276177542,2103.6,399.0714133126395,666.5714276177542,2212.5,606.5714133126395,716.5714276177542,2323.3,671.5714133126395,731.5714276177542,2428.9,671.5714133126395,731.5714276177542,2551.9,671.5714133126395,731.5714276177542,2672.9,671.5714133126395,731.5714276177542,2779.2,671.5714133126395,731.5714276177542,2901.8,671.5714133126395,731.5714276177542,3003.5,671.5714133126395,731.5714276177542,3128.5,671.5714133126395,731.5714276177542,3230.4,671.5714133126395,731.5714276177542,3353.2,671.5714133126395,731.5714276177542,3454.7,671.5714133126395,731.5714276177542,3580.1,671.5714133126395,731.5714276177542,3709.4,671.5714133126395,731.5714276177542,3810.6,671.5714133126395,731.5714276177542,3922.3,671.5714133126395,731.5714276177542,4030.5,671.5714133126395,731.5714276177542,4139.3,671.5714133126395,731.5714276177542,4243.7,671.5714133126395,731.5714276177542,4370.4,671.5714133126395,731.5714276177542,4493.6,671.5714133126395,731.5714276177542,4597.6,671.5714133126395,731.5714276177542,4718.8,671.5714133126395,731.5714276177542,4837.9,671.5714133126395,731.5714276177542,4957.5]","[1645.2,1645.2,1000,0,645.2,""oops"",""down"",""down"",""good_move"",5878.7,4233.2,2740,1645.5,1493.2,""oops"",""down"",""up"",""bad_move"",10769.6,4890.6,2304.2,5879,2586.5,""smooth"",""down"",""down"",""good_move"",13943.1,3173.3,2581.9,10769.8,591.4,""smooth"",""down"",""down"",""good_move"",17055.9,3112.6,2182.8,13943.3,929.8,""smooth"",""left"",""left"",""good_move"",22016.2,4959.9,3007.7,17056.3,1952.2,""smooth"",""left"",""left"",""good_move""]","",""
"2657","","<div style=""width:500px;"">
  <p>What determined the result of this run?</p>
  </div>","78","html-slider-response","65","1149372","0.0-5.0-1.11","40","1","2025-07-16 08:17:25","1f75c3e559b7213887762d5229550c2b","154.0.11.214","Mozilla/5.0 (Windows NT 10.0; Win64; x64) AppleWebKit/537.36 (KHTML, like Gecko) Chrome/138.0.0.0 Safari/537.36","WebKit","Chrome","138.0.0.0","Windows","10.0","https://app.prolific.com/","en-US,en;q=0.9","669a686f263cbcb8e321ed85","686e379bc37a29ffa5cdc956","68775ff2d5375e659ff2d332","1","1","669a686f263cbcb8e321ed85","1","1","2025-07-16T08:36:35.908Z","","","","","","","","","","","AttribQ","","50","","","","","","","","","","","","","","","","","","","","","","","","","","","","",""
"2909","","<div style=""width:500px;"">
  <p>How much control did you have over the ball?</p>
  </div>","75","html-slider-response","66","1152283","0.0-5.0-2.11","40","1","2025-07-16 08:17:25","1f75c3e559b7213887762d5229550c2b","154.0.11.214","Mozilla/5.0 (Windows NT 10.0; Win64; x64) AppleWebKit/537.36 (KHTML, like Gecko) Chrome/138.0.0.0 Safari/537.36","WebKit","Chrome","138.0.0.0","Windows","10.0","https://app.prolific.com/","en-US,en;q=0.9","669a686f263cbcb8e321ed85","686e379bc37a29ffa5cdc956","68775ff2d5375e659ff2d332","1","1","669a686f263cbcb8e321ed85","1","1","2025-07-16T08:36:38.818Z","","","","","","","","","","","ControlQ","","50","","","","","","","","","","","","","","","","","","","","","","","","","","","","",""
"3860","","<div style=""width:500px;"">
  <p>How would you describe your current emotional state?</p>
  </div>","17","html-slider-response","67","1156145","0.0-5.0-3.11","40","1","2025-07-16 08:17:25","1f75c3e559b7213887762d5229550c2b","154.0.11.214","Mozilla/5.0 (Windows NT 10.0; Win64; x64) AppleWebKit/537.36 (KHTML, like Gecko) Chrome/138.0.0.0 Safari/537.36","WebKit","Chrome","138.0.0.0","Windows","10.0","https://app.prolific.com/","en-US,en;q=0.9","669a686f263cbcb8e321ed85","686e379bc37a29ffa5cdc956","68775ff2d5375e659ff2d332","1","1","669a686f263cbcb8e321ed85","1","1","2025-07-16T08:36:42.680Z","","","","","","","","","","","StressQ","","50","","","","","","","","","","","","","","","","","","","","","","","","","","","","",""
"2721","","<div style=""width:500px;"">
  <p>What best describes how you currently feel?</p>
  </div>","76","html-slider-response","68","1158867","0.0-5.0-4.11","40","1","2025-07-16 08:17:25","1f75c3e559b7213887762d5229550c2b","154.0.11.214","Mozilla/5.0 (Windows NT 10.0; Win64; x64) AppleWebKit/537.36 (KHTML, like Gecko) Chrome/138.0.0.0 Safari/537.36","WebKit","Chrome","138.0.0.0","Windows","10.0","https://app.prolific.com/","en-US,en;q=0.9","669a686f263cbcb8e321ed85","686e379bc37a29ffa5cdc956","68775ff2d5375e659ff2d332","1","1","669a686f263cbcb8e321ed85","1","1","2025-07-16T08:36:45.403Z","","","","","","","","","","","MotivationQ","","50","","","","","","","","","","","","","","","","","","","","","","","","","","","","",""
"","","","","ctl-task-cpt","69","1194415","0.0-5.0-0.12","40","1","2025-07-16 08:17:25","1f75c3e559b7213887762d5229550c2b","154.0.11.214","Mozilla/5.0 (Windows NT 10.0; Win64; x64) AppleWebKit/537.36 (KHTML, like Gecko) Chrome/138.0.0.0 Safari/537.36","WebKit","Chrome","138.0.0.0","Windows","10.0","https://app.prolific.com/","en-US,en;q=0.9","669a686f263cbcb8e321ed85","686e379bc37a29ffa5cdc956","68775ff2d5375e659ff2d332","1","1","669a686f263cbcb8e321ed85","1","1","2025-07-16T08:37:20.950Z","","","","","","","","","","","","","","win-only","3","g1:SW,g2:NE","0.7","13","0","1161373.9","1409.3","6419.8","32521.3","1","4","8","6","1","1","-1","0","1","0","1157.6","3000","2050","[""down"",""left""]","{""num_key_presses"":8,""num_perfect"":5,""num_errors"":2,""num_randdir"":1,""num_randdir_good_moves"":0,""num_whilered"":0,""num_whileblue"":2,""num_blue"":2,""num_good_moves"":6}","[420.3214133126395,421.57142761775424,0.1,420.3214133126395,421.57142761775424,103.3,420.3214133126395,421.57142761775424,207.9,410.3214133126395,430.32142761775424,315.9,334.0714133126395,526.5714276177542,418.4,332.8214133126395,571.5714276177542,520.6,321.5714133126395,586.5714276177542,639.7,236.5714133126395,647.8214276177542,758.6,130.3214133126395,687.8214276177542,863.8,79.0714133126395,732.8214276177542,963.8,60.32141331263951,735.3214276177542,1081.8,60.32141331263951,735.3214276177542,1198.8,61.57141331263951,731.5714276177542,1299.7,86.5714133126395,721.5714276177542,1419.3,281.5714133126395,682.8214276177542,1524.4,322.8214133126395,701.5714276177542,1630.1,326.5714133126395,700.3214276177542,1740.7,326.5714133126395,700.3214276177542,1843.3,34.07141331263951,596.5714276177542,1959.1,-430.9285866873605,600.3214276177542,2063.5,-543.4285866873605,486.57142761775424,2171.2,-543.4285866873605,377.82142761775424,2273.7,-543.4285866873605,377.82142761775424,2382.9,-543.4285866873605,377.82142761775424,2483.5,-543.4285866873605,377.82142761775424,2596.4,-543.4285866873605,377.82142761775424,2704.2,-543.4285866873605,377.82142761775424,2814.9,-543.4285866873605,377.82142761775424,2921.5,-543.4285866873605,377.82142761775424,3029.9,-543.4285866873605,377.82142761775424,3138.4,-543.4285866873605,377.82142761775424,3241.6,-543.4285866873605,377.82142761775424,3348.5,-543.4285866873605,377.82142761775424,3451.6,-543.4285866873605,377.82142761775424,3564.1,-543.4285866873605,377.82142761775424,3674,-543.4285866873605,377.82142761775424,3783.7,-543.4285866873605,377.82142761775424,3896.8,-543.4285866873605,377.82142761775424,4006,-543.4285866873605,377.82142761775424,4106.1,-543.4285866873605,377.82142761775424,4221.1,-543.4285866873605,377.82142761775424,4329.6,-543.4285866873605,377.82142761775424,4439.6,-543.4285866873605,377.82142761775424,4551.3,-543.4285866873605,377.82142761775424,4664.5,-543.4285866873605,377.82142761775424,4774.3,-543.4285866873605,377.82142761775424,4887.7,-543.4285866873605,377.82142761775424,4994.2]","[1617.5,1617.5,1000,0,617.5,""smooth"",""down"",""down"",""good_move"",4685.8,3067.6,2549.3,1618.3,518.2,""smooth"",""down"",""down"",""good_move"",8128.4,3442.4,2976.9,4686.1,465.4,""oops"",""left"",""up"",""bad_move"",11877.2,3748.2,2464.9,8129,1283.3,""smooth"",""left"",""left"",""good_move"",15450.2,3572.8,3042.6,11877.4,530.2,""while_blue"",""left"",""up"",""bad_move"",18664,3213.2,2809,15450.8,404.2,""while_blue"",""down"",""left"",""good_move"",22255.6,3591.1,2316.6,18664.5,1274.5,""smooth"",""down"",""down"",""good_move"",25750.8,3494.8,2822.3,22256,672.5,""smooth"",""down"",""down"",""good_move""]","",""
"2409","","<div style=""width:500px;"">
  <p>What determined the result of this run?</p>
  </div>","79","html-slider-response","70","1196826","0.0-5.0-1.12","40","1","2025-07-16 08:17:25","1f75c3e559b7213887762d5229550c2b","154.0.11.214","Mozilla/5.0 (Windows NT 10.0; Win64; x64) AppleWebKit/537.36 (KHTML, like Gecko) Chrome/138.0.0.0 Safari/537.36","WebKit","Chrome","138.0.0.0","Windows","10.0","https://app.prolific.com/","en-US,en;q=0.9","669a686f263cbcb8e321ed85","686e379bc37a29ffa5cdc956","68775ff2d5375e659ff2d332","1","1","669a686f263cbcb8e321ed85","1","1","2025-07-16T08:37:23.361Z","","","","","","","","","","","AttribQ","","50","","","","","","","","","","","","","","","","","","","","","","","","","","","","",""
"1782","","<div style=""width:500px;"">
  <p>How much control did you have over the ball?</p>
  </div>","79","html-slider-response","71","1198610","0.0-5.0-2.12","40","1","2025-07-16 08:17:25","1f75c3e559b7213887762d5229550c2b","154.0.11.214","Mozilla/5.0 (Windows NT 10.0; Win64; x64) AppleWebKit/537.36 (KHTML, like Gecko) Chrome/138.0.0.0 Safari/537.36","WebKit","Chrome","138.0.0.0","Windows","10.0","https://app.prolific.com/","en-US,en;q=0.9","669a686f263cbcb8e321ed85","686e379bc37a29ffa5cdc956","68775ff2d5375e659ff2d332","1","1","669a686f263cbcb8e321ed85","1","1","2025-07-16T08:37:25.145Z","","","","","","","","","","","ControlQ","","50","","","","","","","","","","","","","","","","","","","","","","","","","","","","",""
"3149","","<div style=""width:500px;"">
  <p>How would you describe your current emotional state?</p>
  </div>","8","html-slider-response","72","1201760","0.0-5.0-3.12","40","1","2025-07-16 08:17:25","1f75c3e559b7213887762d5229550c2b","154.0.11.214","Mozilla/5.0 (Windows NT 10.0; Win64; x64) AppleWebKit/537.36 (KHTML, like Gecko) Chrome/138.0.0.0 Safari/537.36","WebKit","Chrome","138.0.0.0","Windows","10.0","https://app.prolific.com/","en-US,en;q=0.9","669a686f263cbcb8e321ed85","686e379bc37a29ffa5cdc956","68775ff2d5375e659ff2d332","1","1","669a686f263cbcb8e321ed85","1","1","2025-07-16T08:37:28.295Z","","","","","","","","","","","StressQ","","50","","","","","","","","","","","","","","","","","","","","","","","","","","","","",""
"2930","","<div style=""width:500px;"">
  <p>What best describes how you currently feel?</p>
  </div>","91","html-slider-response","73","1204691","0.0-5.0-4.12","40","1","2025-07-16 08:17:25","1f75c3e559b7213887762d5229550c2b","154.0.11.214","Mozilla/5.0 (Windows NT 10.0; Win64; x64) AppleWebKit/537.36 (KHTML, like Gecko) Chrome/138.0.0.0 Safari/537.36","WebKit","Chrome","138.0.0.0","Windows","10.0","https://app.prolific.com/","en-US,en;q=0.9","669a686f263cbcb8e321ed85","686e379bc37a29ffa5cdc956","68775ff2d5375e659ff2d332","1","1","669a686f263cbcb8e321ed85","1","1","2025-07-16T08:37:31.226Z","","","","","","","","","","","MotivationQ","","50","","","","","","","","","","","","","","","","","","","","","","","","","","","","",""
"","","","","ctl-task-cpt","74","1229847","0.0-5.0-0.13","40","1","2025-07-16 08:17:25","1f75c3e559b7213887762d5229550c2b","154.0.11.214","Mozilla/5.0 (Windows NT 10.0; Win64; x64) AppleWebKit/537.36 (KHTML, like Gecko) Chrome/138.0.0.0 Safari/537.36","WebKit","Chrome","138.0.0.0","Windows","10.0","https://app.prolific.com/","en-US,en;q=0.9","669a686f263cbcb8e321ed85","686e379bc37a29ffa5cdc956","68775ff2d5375e659ff2d332","1","1","669a686f263cbcb8e321ed85","1","1","2025-07-16T08:37:56.382Z","","","","","","","","","","","","","","win-only","0","g1:NW,g2:SE","0.8","14","0","1207198.2","1973.3","6989.5","22120.7","1","4","4","6","1","1","0","0","0","0","1394.7","3000","2200","[""left"",""up""]","{""num_key_presses"":4,""num_perfect"":3,""num_errors"":1,""num_randdir"":0,""num_randdir_good_moves"":0,""num_whilered"":0,""num_whileblue"":1,""num_blue"":1,""num_good_moves"":4}","[420.3214133126395,406.57142761775424,0.2,421.5714133126395,402.82142761775424,106.5,419.0714133126395,406.57142761775424,227,416.5714133126395,411.57142761775424,338,524.0714133126395,557.8214276177542,463.8,492.8214133126395,529.0714276177542,563.8,284.0714133126395,286.57142761775424,683,241.5714133126395,231.57142761775424,786.5,191.5714133126395,181.57142761775424,908.6,120.3214133126395,124.07142761775425,1027.1,95.3214133126395,96.57142761775425,1148.9,84.0714133126395,95.32142761775425,1263.4,80.3214133126395,92.82142761775425,1372.6,80.3214133126395,91.57142761775425,1494.3,82.8214133126395,97.82142761775425,1610.2,147.8214133126395,157.82142761775424,1732.3,164.0714133126395,175.32142761775424,1843.5,164.0714133126395,175.32142761775424,1952.5,164.0714133126395,175.32142761775424,2072.9,164.0714133126395,175.32142761775424,2176.1,164.0714133126395,175.32142761775424,2284.2,164.0714133126395,175.32142761775424,2391.6,164.0714133126395,175.32142761775424,2496,164.0714133126395,175.32142761775424,2600.3,164.0714133126395,175.32142761775424,2706.9,164.0714133126395,175.32142761775424,2816.3,164.0714133126395,175.32142761775424,2925.2,164.0714133126395,175.32142761775424,3030,164.0714133126395,175.32142761775424,3138.1,164.0714133126395,175.32142761775424,3241.7,164.0714133126395,175.32142761775424,3346,164.0714133126395,175.32142761775424,3451.8,164.0714133126395,175.32142761775424,3567.8,164.0714133126395,175.32142761775424,3675.1,164.0714133126395,175.32142761775424,3783,164.0714133126395,175.32142761775424,3893.4,164.0714133126395,175.32142761775424,4004.5,164.0714133126395,175.32142761775424,4114.9,164.0714133126395,175.32142761775424,4223.9,164.0714133126395,175.32142761775424,4332.5,164.0714133126395,175.32142761775424,4441.7,164.0714133126395,175.32142761775424,4545.6,164.0714133126395,175.32142761775424,4653.4,164.0714133126395,175.32142761775424,4763,164.0714133126395,175.32142761775424,4880.6,164.0714133126395,175.32142761775424,4994.8]","[1591.4,1591.4,1000,0,591.4,""smooth"",""left"",""left"",""good_move"",5607.6,4015.8,2254.9,1591.8,1760.9,""smooth"",""left"",""left"",""good_move"",10439.5,4831.7,2546.7,5607.9,2284.9,""smooth"",""up"",""up"",""good_move"",14799.2,4359.5,3629.5,10439.9,729.9,""while_blue"",""up"",""up"",""good_move""]","",""
"3592","","<div style=""width:500px;"">
  <p>What determined the result of this run?</p>
  </div>","79","html-slider-response","75","1233440","0.0-5.0-1.13","40","1","2025-07-16 08:17:25","1f75c3e559b7213887762d5229550c2b","154.0.11.214","Mozilla/5.0 (Windows NT 10.0; Win64; x64) AppleWebKit/537.36 (KHTML, like Gecko) Chrome/138.0.0.0 Safari/537.36","WebKit","Chrome","138.0.0.0","Windows","10.0","https://app.prolific.com/","en-US,en;q=0.9","669a686f263cbcb8e321ed85","686e379bc37a29ffa5cdc956","68775ff2d5375e659ff2d332","1","1","669a686f263cbcb8e321ed85","1","1","2025-07-16T08:37:59.975Z","","","","","","","","","","","AttribQ","","50","","","","","","","","","","","","","","","","","","","","","","","","","","","","",""
"2265","","<div style=""width:500px;"">
  <p>How much control did you have over the ball?</p>
  </div>","85","html-slider-response","76","1235706","0.0-5.0-2.13","40","1","2025-07-16 08:17:25","1f75c3e559b7213887762d5229550c2b","154.0.11.214","Mozilla/5.0 (Windows NT 10.0; Win64; x64) AppleWebKit/537.36 (KHTML, like Gecko) Chrome/138.0.0.0 Safari/537.36","WebKit","Chrome","138.0.0.0","Windows","10.0","https://app.prolific.com/","en-US,en;q=0.9","669a686f263cbcb8e321ed85","686e379bc37a29ffa5cdc956","68775ff2d5375e659ff2d332","1","1","669a686f263cbcb8e321ed85","1","1","2025-07-16T08:38:02.241Z","","","","","","","","","","","ControlQ","","50","","","","","","","","","","","","","","","","","","","","","","","","","","","","",""
"3703","","<div style=""width:500px;"">
