"rt","response_timestamp","stimulus","response","trial_type","trial_index","time_elapsed","internal_node_id","run_id","condition","recorded_at","source_code_version","ip","user_agent","device","browser","browser_version","platform","platform_version","referer","accept_language","PROLIFIC_PID","STUDY_ID","SESSION_ID","WEEK","prolific_id","week","realtime","success","responses","item_order","radio_event_ids","radio_event_times","key_event_times","mouse_event_times","straightlining","zigzagging","honeypot","eventType","view_history","slider_start","which_type","canvas_config","goals_layout","control_level","trial_number","tutorial_trial_number","trial_start_time","phase1_start_time","phase2_start_time","phase3_start_time","goal_1_value","goal_1_distance","goal_2_value","goal_2_distance","goal_selected","outcome","outcome_total","participant_final_score","participant_initial_score","participant_final_score_prop","goal_choice_rt","allocated_time","allocated_time_remaining","goal_direction","counts","mouse_movements","key_presses","question_order","question_id"
"60083","1752060725524","<p style='font-size:40px;line-height:1.25'><strong>Welcome to the experiment!</strong></p><p style='font-size:1.1em;line-height:1.25'>Thank you for participanting in our experiment again! You will be asked to play the Dysfunctional Ball Game again. We will briefly recap the rules before we start.</p><p style='font-size:1.1em;line-height:1.25'>Press <strong>Next</strong> to continue.</p>","0","custom-html-button-response","0","60086","0.0-0.0","29","1","2025-07-09 11:31:05","01610cd0009c79a99da7d0a3353eb402","82.53.76.206","Mozilla/5.0 (Windows NT 10.0; Win64; x64) AppleWebKit/537.36 (KHTML, like Gecko) Chrome/137.0.0.0 Safari/537.36","WebKit","Chrome","137.0.0.0","Windows","10.0","https://app.prolific.com/","it-IT,it;q=0.9,en-US;q=0.8,en;q=0.7","672f7b856c1ce6995a666bc6","683db7602f5db6a34d12d064","686e52d4daec7f57b46bf7cd","1","672f7b856c1ce6995a666bc6","1","2025-07-09T11:32:05.525Z","","","","","","","","","","","","","","","","","","","","","","","","","","","","","","","","","","","","","","","","","",""
"81369","","","","fullscreen","1","142457","0.0-1.0","29","1","2025-07-09 11:31:05","01610cd0009c79a99da7d0a3353eb402","82.53.76.206","Mozilla/5.0 (Windows NT 10.0; Win64; x64) AppleWebKit/537.36 (KHTML, like Gecko) Chrome/137.0.0.0 Safari/537.36","WebKit","Chrome","137.0.0.0","Windows","10.0","https://app.prolific.com/","it-IT,it;q=0.9,en-US;q=0.8,en;q=0.7","672f7b856c1ce6995a666bc6","683db7602f5db6a34d12d064","686e52d4daec7f57b46bf7cd","1","672f7b856c1ce6995a666bc6","1","","true","","","","","","","","","","","","","","","","","","","","","","","","","","","","","","","","","","","","","","","","",""
"6687","1752060814584","<p style='font-size:1.1em;line-height:1.25'>In the following, we will ask you a few questions relating to your feelings in the last 24 hours.<br></p><p style='font-size:1.1em;line-height:1.25'>Press the <strong>Next</strong> button to continue.</p>","0","custom-html-button-response","2","149146","0.0-2.0-0.0","29","1","2025-07-09 11:31:05","01610cd0009c79a99da7d0a3353eb402","82.53.76.206","Mozilla/5.0 (Windows NT 10.0; Win64; x64) AppleWebKit/537.36 (KHTML, like Gecko) Chrome/137.0.0.0 Safari/537.36","WebKit","Chrome","137.0.0.0","Windows","10.0","https://app.prolific.com/","it-IT,it;q=0.9,en-US;q=0.8,en;q=0.7","672f7b856c1ce6995a666bc6","683db7602f5db6a34d12d064","686e52d4daec7f57b46bf7cd","1","672f7b856c1ce6995a666bc6","1","2025-07-09T11:33:34.585Z","","","","","","","","","","","","","","","","","","","","","","","","","","","","","","","","","","","","","","","","","",""
"100619.40000003576","","","","survey-template","3","249769","0.0-2.0-1.0","29","1","2025-07-09 11:31:05","01610cd0009c79a99da7d0a3353eb402","82.53.76.206","Mozilla/5.0 (Windows NT 10.0; Win64; x64) AppleWebKit/537.36 (KHTML, like Gecko) Chrome/137.0.0.0 Safari/537.36","WebKit","Chrome","137.0.0.0","Windows","10.0","https://app.prolific.com/","it-IT,it;q=0.9,en-US;q=0.8,en;q=0.7","672f7b856c1ce6995a666bc6","683db7602f5db6a34d12d064","686e52d4daec7f57b46bf7cd","1","672f7b856c1ce6995a666bc6","1","2025-07-09T11:35:15.208Z","","{""Q01"":""0"",""Q02"":""0"",""Q03"":""0"",""Q04"":""1"",""Q05"":""0"",""Q06"":""0"",""Q07"":""2"",""Q08"":""0"",""Q09"":""1"",""Q10"":""1"",""Q11"":""2"",""Q12"":""1"",""Q13"":""5"",""Q14"":""2"",""Q15"":""3"",""Q16"":""3"",""Q17"":""1"",""Q18"":""0"",""Q19"":""1"",""Q20"":""0"",""Q21"":""1"",""Q22"":""1""}","[0,1,2,3,4,5,6,7,8,9,10,11,12,13,14,15,16,17,18,19,20,21]","[""Q01"",""Q02"",""Q03"",""Q04"",""Q05"",""Q06"",""Q07"",""Q08"",""Q09"",""Q10"",""Q11"",""Q12"",""Q13"",""Q14"",""Q15"",""Q16"",""Q17"",""Q18"",""Q19"",""Q19"",""Q20"",""Q21"",""Q22"",""Q22""]","[6204.800000011921,7363.600000023842,10299.400000035763,11835.699999988079,17633.69999998808,18509.400000035763,22371.600000023842,23607.600000023842,26215.400000035763,28109.100000023842,29817.69999998808,33470.19999998808,34943.90000003576,40284,41930.10000002384,44837.69999998808,48810.10000002384,50696.10000002384,55090.90000003576,56019.30000001192,61733.30000001192,65307.40000003576,71107.10000002384,76301.60000002384]","[]","[0.19999998807907104,105.90000003576279,6204.800000011921,7363.600000023842,8516,9036,10299.400000035763,11835.699999988079,13421.400000035763,15925.400000035763,16813.900000035763,17633.69999998808,18509.400000035763,22371.600000023842,23607.600000023842,26215.400000035763,28109.100000023842,29817.69999998808,33470.19999998808,34943.90000003576,40284,41930.10000002384,44837.69999998808,48318.10000002384,48810.10000002384,50696.10000002384,55090.90000003576,56019.30000001192,61733.30000001192,65307.40000003576,71107.10000002384,76301.60000002384,100616.19999998808]","0.36363636363636365","0.47619047619047616","0","drsp","","","","","","","","","","","","","","","","","","","","","","","","","","","","","","",""
"35421.30000001192","","","","survey-template","4","285192","0.0-2.0-2.0","29","1","2025-07-09 11:31:05","01610cd0009c79a99da7d0a3353eb402","82.53.76.206","Mozilla/5.0 (Windows NT 10.0; Win64; x64) AppleWebKit/537.36 (KHTML, like Gecko) Chrome/137.0.0.0 Safari/537.36","WebKit","Chrome","137.0.0.0","Windows","10.0","https://app.prolific.com/","it-IT,it;q=0.9,en-US;q=0.8,en;q=0.7","672f7b856c1ce6995a666bc6","683db7602f5db6a34d12d064","686e52d4daec7f57b46bf7cd","1","672f7b856c1ce6995a666bc6","1","2025-07-09T11:35:50.631Z","","{""Q01"":""1"",""Q02"":""2"",""Q03"":""1""}","[0,1,2]","[""Q01"",""Q02"",""Q03""]","[27097.100000023842,29329.5,34655.10000002384]","[]","[27097.100000023842,29329.5,34655.10000002384,35420.80000001192]","0.6666666666666666","0","0","stress","","","","","","","","","","","","","","","","","","","","","","","","","","","","","","",""
"14437","","","","instructions","5","299630","0.0-3.0-0.0","29","1","2025-07-09 11:31:05","01610cd0009c79a99da7d0a3353eb402","82.53.76.206","Mozilla/5.0 (Windows NT 10.0; Win64; x64) AppleWebKit/537.36 (KHTML, like Gecko) Chrome/137.0.0.0 Safari/537.36","WebKit","Chrome","137.0.0.0","Windows","10.0","https://app.prolific.com/","it-IT,it;q=0.9,en-US;q=0.8,en;q=0.7","672f7b856c1ce6995a666bc6","683db7602f5db6a34d12d064","686e52d4daec7f57b46bf7cd","1","672f7b856c1ce6995a666bc6","1","","","","","","","","","","","","","[{""page_index"":0,""viewing_time"":14437}]","","","","","","","","","","","","","","","","","","","","","","","","","","","","","",""
"4789","","<p>Before you start with this game please answer the following three questions yourself. </p>
  <p>Through this game, we measure several aspects of your cognitive performance, such as reaction times, multi-tasking capabilities </p>
  <p>and the ability to assess the situation you are in.</p>
  <p></p>
  <p><b>How good do you usually are in such tasks?</b></p>","56","html-slider-response","6","304420","0.0-4.0-0.0","29","1","2025-07-09 11:31:05","01610cd0009c79a99da7d0a3353eb402","82.53.76.206","Mozilla/5.0 (Windows NT 10.0; Win64; x64) AppleWebKit/537.36 (KHTML, like Gecko) Chrome/137.0.0.0 Safari/537.36","WebKit","Chrome","137.0.0.0","Windows","10.0","https://app.prolific.com/","it-IT,it;q=0.9,en-US;q=0.8,en;q=0.7","672f7b856c1ce6995a666bc6","683db7602f5db6a34d12d064","686e52d4daec7f57b46bf7cd","1","672f7b856c1ce6995a666bc6","1","2025-07-09T11:36:09.859Z","","","","","","","","","","","PreSkillQ","","50","","","","","","","","","","","","","","","","","","","","","","","","","","","","",""
"3971","","<div style=""width:500px;"">
  <p>How well do you think you will perform in this task compared to other participants?</p>
  </div>","49","html-slider-response","7","308392","0.0-4.0-1.0","29","1","2025-07-09 11:31:05","01610cd0009c79a99da7d0a3353eb402","82.53.76.206","Mozilla/5.0 (Windows NT 10.0; Win64; x64) AppleWebKit/537.36 (KHTML, like Gecko) Chrome/137.0.0.0 Safari/537.36","WebKit","Chrome","137.0.0.0","Windows","10.0","https://app.prolific.com/","it-IT,it;q=0.9,en-US;q=0.8,en;q=0.7","672f7b856c1ce6995a666bc6","683db7602f5db6a34d12d064","686e52d4daec7f57b46bf7cd","1","672f7b856c1ce6995a666bc6","1","2025-07-09T11:36:13.831Z","","","","","","","","","","","PrePerfQ","","50","","","","","","","","","","","","","","","","","","","","","","","","","","","","",""
"5277","","<div style=""width:500px;"">
  <p>What best describes how you currently feel?</p>
  </div>","43","html-slider-response","8","313670","0.0-4.0-2.0","29","1","2025-07-09 11:31:05","01610cd0009c79a99da7d0a3353eb402","82.53.76.206","Mozilla/5.0 (Windows NT 10.0; Win64; x64) AppleWebKit/537.36 (KHTML, like Gecko) Chrome/137.0.0.0 Safari/537.36","WebKit","Chrome","137.0.0.0","Windows","10.0","https://app.prolific.com/","it-IT,it;q=0.9,en-US;q=0.8,en;q=0.7","672f7b856c1ce6995a666bc6","683db7602f5db6a34d12d064","686e52d4daec7f57b46bf7cd","1","672f7b856c1ce6995a666bc6","1","2025-07-09T11:36:19.109Z","","","","","","","","","","","PreMotivationQ","","50","","","","","","","","","","","","","","","","","","","","","","","","","","","","",""
"","","","","ctl-task-cpt","9","340577","0.0-5.0-0.0","29","1","2025-07-09 11:31:05","01610cd0009c79a99da7d0a3353eb402","82.53.76.206","Mozilla/5.0 (Windows NT 10.0; Win64; x64) AppleWebKit/537.36 (KHTML, like Gecko) Chrome/137.0.0.0 Safari/537.36","WebKit","Chrome","137.0.0.0","Windows","10.0","https://app.prolific.com/","it-IT,it;q=0.9,en-US;q=0.8,en;q=0.7","672f7b856c1ce6995a666bc6","683db7602f5db6a34d12d064","686e52d4daec7f57b46bf7cd","1","672f7b856c1ce6995a666bc6","1","2025-07-09T11:36:46.016Z","","","","","","","","","","","","","","win-only","2","g1:SE,g2:NW","1","1","0","315602.2","2418.7","7421.6","23899.4","1","4","4","6","2","4","4","4","0","0.030303030303030304","2131.8","3000","1190","[""left"",""up""]","{""num_key_presses"":6,""num_perfect"":6,""num_errors"":0,""num_randdir"":0,""num_randdir_good_moves"":0,""num_whilered"":0,""num_whileblue"":0,""num_blue"":0,""num_good_moves"":6}","[419.0714133126395,411.57142761775424,0.3,419.0714133126395,411.57142761775424,105.8,419.0714133126395,411.57142761775424,209.8,419.0714133126395,411.57142761775424,313.9,419.0714133126395,411.57142761775424,418.6,419.0714133126395,411.57142761775424,522.5,419.0714133126395,411.57142761775424,624.6,431.5714133126395,417.82142761775424,731,481.5714133126395,465.32142761775424,834.9,486.5714133126395,471.57142761775424,939.2,501.5714133126395,494.07142761775424,1043.3,540.3214133126395,539.0714276177542,1147.5,565.3214133126395,571.5714276177542,1248.7,611.5714133126395,611.5714276177542,1348.9,546.5714133126395,520.3214276177542,1453,402.8214133126395,334.07142761775424,1557.7,202.8214133126395,90.32142761775425,1659.4,60.32141331263951,1.571427617754253,1766.6,1.571413312639507,-2.178572382245747,1870.2,11.571413312639507,22.821427617754253,1975.3,74.0714133126395,76.57142761775425,2078.4,74.0714133126395,76.57142761775425,2183,74.0714133126395,77.82142761775425,2285.5,200.3214133126395,126.57142761775425,2389.8,391.5714133126395,182.82142761775424,2494.5,394.0714133126395,186.57142761775424,2598.9,406.5714133126395,206.57142761775424,2703.1,416.5714133126395,221.57142761775424,2806.7,416.5714133126395,221.57142761775424,2911,416.5714133126395,221.57142761775424,3015.6,416.5714133126395,221.57142761775424,3119.1,416.5714133126395,221.57142761775424,3223.1,416.5714133126395,221.57142761775424,3328.2,416.5714133126395,221.57142761775424,3431.5,416.5714133126395,221.57142761775424,3536.5,416.5714133126395,221.57142761775424,3640.4,416.5714133126395,221.57142761775424,3743.7,416.5714133126395,221.57142761775424,3848.7,416.5714133126395,221.57142761775424,3952.8,416.5714133126395,221.57142761775424,4056.2,416.5714133126395,221.57142761775424,4157,416.5714133126395,221.57142761775424,4258.6,416.5714133126395,221.57142761775424,4360.8,416.5714133126395,221.57142761775424,4463.2,416.5714133126395,221.57142761775424,4563.3,416.5714133126395,221.57142761775424,4668.4,416.5714133126395,221.57142761775424,4771.7,416.5714133126395,221.57142761775424,4876.3,416.5714133126395,221.57142761775424,4980.6]","[1338.1,1338,1000,0.1,338,""smooth"",""up"",""up"",""good_move"",4083.1,2744.7,2448.2,1338.4,296.6,""smooth"",""left"",""left"",""good_move"",7255.2,3171.3,2815.1,4083.9,356.2,""smooth"",""up"",""up"",""good_move"",10174.8,2919.4,2581.6,7255.4,337.8,""smooth"",""left"",""left"",""good_move"",12959.4,2784.4,2482.5,10175,301.9,""smooth"",""up"",""up"",""good_move"",16385.4,3425.7,3074.3,12959.7,351.4,""smooth"",""left"",""left"",""good_move""]","",""
"3251","","<div style=""width:500px;"">
  <p>What determined the result of this run?</p>
  </div>","53","html-slider-response","10","343830","0.0-5.0-1.0","29","1","2025-07-09 11:31:05","01610cd0009c79a99da7d0a3353eb402","82.53.76.206","Mozilla/5.0 (Windows NT 10.0; Win64; x64) AppleWebKit/537.36 (KHTML, like Gecko) Chrome/137.0.0.0 Safari/537.36","WebKit","Chrome","137.0.0.0","Windows","10.0","https://app.prolific.com/","it-IT,it;q=0.9,en-US;q=0.8,en;q=0.7","672f7b856c1ce6995a666bc6","683db7602f5db6a34d12d064","686e52d4daec7f57b46bf7cd","1","672f7b856c1ce6995a666bc6","1","2025-07-09T11:36:49.269Z","","","","","","","","","","","AttribQ","","50","","","","","","","","","","","","","","","","","","","","","","","","","","","","",""
"4338","","<div style=""width:500px;"">
  <p>How much control did you have over the ball?</p>
  </div>","69","html-slider-response","11","348169","0.0-5.0-2.0","29","1","2025-07-09 11:31:05","01610cd0009c79a99da7d0a3353eb402","82.53.76.206","Mozilla/5.0 (Windows NT 10.0; Win64; x64) AppleWebKit/537.36 (KHTML, like Gecko) Chrome/137.0.0.0 Safari/537.36","WebKit","Chrome","137.0.0.0","Windows","10.0","https://app.prolific.com/","it-IT,it;q=0.9,en-US;q=0.8,en;q=0.7","672f7b856c1ce6995a666bc6","683db7602f5db6a34d12d064","686e52d4daec7f57b46bf7cd","1","672f7b856c1ce6995a666bc6","1","2025-07-09T11:36:53.608Z","","","","","","","","","","","ControlQ","","50","","","","","","","","","","","","","","","","","","","","","","","","","","","","",""
"3225","","<div style=""width:500px;"">
  <p>How would you describe your current emotional state?</p>
  </div>","39","html-slider-response","12","351396","0.0-5.0-3.0","29","1","2025-07-09 11:31:05","01610cd0009c79a99da7d0a3353eb402","82.53.76.206","Mozilla/5.0 (Windows NT 10.0; Win64; x64) AppleWebKit/537.36 (KHTML, like Gecko) Chrome/137.0.0.0 Safari/537.36","WebKit","Chrome","137.0.0.0","Windows","10.0","https://app.prolific.com/","it-IT,it;q=0.9,en-US;q=0.8,en;q=0.7","672f7b856c1ce6995a666bc6","683db7602f5db6a34d12d064","686e52d4daec7f57b46bf7cd","1","672f7b856c1ce6995a666bc6","1","2025-07-09T11:36:56.835Z","","","","","","","","","","","StressQ","","50","","","","","","","","","","","","","","","","","","","","","","","","","","","","",""
"3763","","<div style=""width:500px;"">
  <p>What best describes how you currently feel?</p>
  </div>","62","html-slider-response","13","355160","0.0-5.0-4.0","29","1","2025-07-09 11:31:05","01610cd0009c79a99da7d0a3353eb402","82.53.76.206","Mozilla/5.0 (Windows NT 10.0; Win64; x64) AppleWebKit/537.36 (KHTML, like Gecko) Chrome/137.0.0.0 Safari/537.36","WebKit","Chrome","137.0.0.0","Windows","10.0","https://app.prolific.com/","it-IT,it;q=0.9,en-US;q=0.8,en;q=0.7","672f7b856c1ce6995a666bc6","683db7602f5db6a34d12d064","686e52d4daec7f57b46bf7cd","1","672f7b856c1ce6995a666bc6","1","2025-07-09T11:37:00.599Z","","","","","","","","","","","MotivationQ","","50","","","","","","","","","","","","","","","","","","","","","","","","","","","","",""
"","","","","ctl-task-cpt","14","379350","0.0-5.0-0.1","29","1","2025-07-09 11:31:05","01610cd0009c79a99da7d0a3353eb402","82.53.76.206","Mozilla/5.0 (Windows NT 10.0; Win64; x64) AppleWebKit/537.36 (KHTML, like Gecko) Chrome/137.0.0.0 Safari/537.36","WebKit","Chrome","137.0.0.0","Windows","10.0","https://app.prolific.com/","it-IT,it;q=0.9,en-US;q=0.8,en;q=0.7","672f7b856c1ce6995a666bc6","683db7602f5db6a34d12d064","686e52d4daec7f57b46bf7cd","1","672f7b856c1ce6995a666bc6","1","2025-07-09T11:37:24.789Z","","","","","","","","","","","","","","win-only","0","g1:NW,g2:SE","0.9","2","0","357090.6","1159.6","6163","21176.6","1","4","8","6","1","1","0","4","4","0.030303030303030304","1658.8","3000","1295","[""left"",""up""]","{""num_key_presses"":6,""num_perfect"":5,""num_errors"":1,""num_randdir"":0,""num_randdir_good_moves"":0,""num_whilered"":0,""num_whileblue"":1,""num_blue"":1,""num_good_moves"":5}","[415.3214133126395,425.32142761775424,0.2,415.3214133126395,425.32142761775424,100.7,415.3214133126395,425.32142761775424,204.1,415.3214133126395,425.32142761775424,309.7,415.3214133126395,425.32142761775424,411.6,415.3214133126395,425.32142761775424,518.6,415.3214133126395,426.57142761775424,620.8,431.5714133126395,431.57142761775424,723,676.5714133126395,631.5714276177542,825.8,741.5714133126395,726.5714276177542,926.9,739.0714133126395,745.3214276177542,1031.2,739.0714133126395,745.3214276177542,1131.2,355.3214133126395,394.07142761775424,1238.4,90.3214133126395,150.32142761775424,1343.2,56.57141331263951,109.07142761775425,1448.1,51.57141331263951,101.57142761775425,1551.7,51.57141331263951,101.57142761775425,1656.1,51.57141331263951,101.57142761775425,1760.8,76.5714133126395,116.57142761775425,1862.5,166.5714133126395,145.32142761775424,1967.1,176.5714133126395,147.82142761775424,2072.5,176.5714133126395,147.82142761775424,2177,176.5714133126395,147.82142761775424,2278.9,176.5714133126395,147.82142761775424,2384.5,176.5714133126395,147.82142761775424,2488.8,176.5714133126395,147.82142761775424,2593.1,176.5714133126395,147.82142761775424,2697.2,176.5714133126395,147.82142761775424,2801.1,176.5714133126395,147.82142761775424,2905.9,176.5714133126395,147.82142761775424,3008,176.5714133126395,147.82142761775424,3113.3,176.5714133126395,147.82142761775424,3217.8,176.5714133126395,147.82142761775424,3322.3,176.5714133126395,147.82142761775424,3423.2,176.5714133126395,147.82142761775424,3530.1,176.5714133126395,147.82142761775424,3636.8,176.5714133126395,147.82142761775424,3740.4,176.5714133126395,147.82142761775424,3843.1,176.5714133126395,147.82142761775424,3947.4,176.5714133126395,147.82142761775424,4051.9,176.5714133126395,147.82142761775424,4156.7,176.5714133126395,147.82142761775424,4259.3,176.5714133126395,147.82142761775424,4361.2,176.5714133126395,147.82142761775424,4461.7,176.5714133126395,147.82142761775424,4563.9,176.5714133126395,147.82142761775424,4670.4,176.5714133126395,147.82142761775424,4771.6,176.5714133126395,147.82142761775424,4878.5,176.5714133126395,147.82142761775424,4981.5]","[1347.5,1347.5,1000,0,347.5,""smooth"",""up"",""up"",""good_move"",4501.6,3154,2825.1,1347.7,328.9,""smooth"",""left"",""left"",""good_move"",7806.7,3304.8,2946.3,4501.9,358.5,""smooth"",""up"",""up"",""good_move"",10076.8,2269.8,1928,7807,341.8,""while_blue"",""left"",""down"",""bad_move"",12775.3,2698.1,2290.6,10077.2,407.5,""smooth"",""left"",""left"",""good_move"",14918.6,2142.5,1804.4,12776.2,338,""smooth"",""up"",""up"",""good_move""]","",""
"3481","","<div style=""width:500px;"">
  <p>What determined the result of this run?</p>
  </div>","64","html-slider-response","15","382832","0.0-5.0-1.1","29","1","2025-07-09 11:31:05","01610cd0009c79a99da7d0a3353eb402","82.53.76.206","Mozilla/5.0 (Windows NT 10.0; Win64; x64) AppleWebKit/537.36 (KHTML, like Gecko) Chrome/137.0.0.0 Safari/537.36","WebKit","Chrome","137.0.0.0","Windows","10.0","https://app.prolific.com/","it-IT,it;q=0.9,en-US;q=0.8,en;q=0.7","672f7b856c1ce6995a666bc6","683db7602f5db6a34d12d064","686e52d4daec7f57b46bf7cd","1","672f7b856c1ce6995a666bc6","1","2025-07-09T11:37:28.271Z","","","","","","","","","","","AttribQ","","50","","","","","","","","","","","","","","","","","","","","","","","","","","","","",""
"2050","","<div style=""width:500px;"">
  <p>How much control did you have over the ball?</p>
  </div>","65","html-slider-response","16","384884","0.0-5.0-2.1","29","1","2025-07-09 11:31:05","01610cd0009c79a99da7d0a3353eb402","82.53.76.206","Mozilla/5.0 (Windows NT 10.0; Win64; x64) AppleWebKit/537.36 (KHTML, like Gecko) Chrome/137.0.0.0 Safari/537.36","WebKit","Chrome","137.0.0.0","Windows","10.0","https://app.prolific.com/","it-IT,it;q=0.9,en-US;q=0.8,en;q=0.7","672f7b856c1ce6995a666bc6","683db7602f5db6a34d12d064","686e52d4daec7f57b46bf7cd","1","672f7b856c1ce6995a666bc6","1","2025-07-09T11:37:30.323Z","","","","","","","","","","","ControlQ","","50","","","","","","","","","","","","","","","","","","","","","","","","","","","","",""
"1335","","<div style=""width:500px;"">
  <p>How would you describe your current emotional state?</p>
  </div>","67","html-slider-response","17","386220","0.0-5.0-3.1","29","1","2025-07-09 11:31:05","01610cd0009c79a99da7d0a3353eb402","82.53.76.206","Mozilla/5.0 (Windows NT 10.0; Win64; x64) AppleWebKit/537.36 (KHTML, like Gecko) Chrome/137.0.0.0 Safari/537.36","WebKit","Chrome","137.0.0.0","Windows","10.0","https://app.prolific.com/","it-IT,it;q=0.9,en-US;q=0.8,en;q=0.7","672f7b856c1ce6995a666bc6","683db7602f5db6a34d12d064","686e52d4daec7f57b46bf7cd","1","672f7b856c1ce6995a666bc6","1","2025-07-09T11:37:31.659Z","","","","","","","","","","","StressQ","","50","","","","","","","","","","","","","","","","","","","","","","","","","","","","",""
"1549","","<div style=""width:500px;"">
  <p>What best describes how you currently feel?</p>
  </div>","65","html-slider-response","18","387770","0.0-5.0-4.1","29","1","2025-07-09 11:31:05","01610cd0009c79a99da7d0a3353eb402","82.53.76.206","Mozilla/5.0 (Windows NT 10.0; Win64; x64) AppleWebKit/537.36 (KHTML, like Gecko) Chrome/137.0.0.0 Safari/537.36","WebKit","Chrome","137.0.0.0","Windows","10.0","https://app.prolific.com/","it-IT,it;q=0.9,en-US;q=0.8,en;q=0.7","672f7b856c1ce6995a666bc6","683db7602f5db6a34d12d064","686e52d4daec7f57b46bf7cd","1","672f7b856c1ce6995a666bc6","1","2025-07-09T11:37:33.209Z","","","","","","","","","","","MotivationQ","","50","","","","","","","","","","","","","","","","","","","","","","","","","","","","",""
"","","","","ctl-task-cpt","19","410387","0.0-5.0-0.2","29","1","2025-07-09 11:31:05","01610cd0009c79a99da7d0a3353eb402","82.53.76.206","Mozilla/5.0 (Windows NT 10.0; Win64; x64) AppleWebKit/537.36 (KHTML, like Gecko) Chrome/137.0.0.0 Safari/537.36","WebKit","Chrome","137.0.0.0","Windows","10.0","https://app.prolific.com/","it-IT,it;q=0.9,en-US;q=0.8,en;q=0.7","672f7b856c1ce6995a666bc6","683db7602f5db6a34d12d064","686e52d4daec7f57b46bf7cd","1","672f7b856c1ce6995a666bc6","1","2025-07-09T11:37:55.826Z","","","","","","","","","","","","","","win-only","2","g1:SE,g2:NW","0.8","3","0","389701.8","906.7","5909.1","19611.8","1","4","4","6","1","1","1","5","4","0.03787878787878788","2167.7","3000","1665","[""down"",""right""]","{""num_key_presses"":4,""num_perfect"":2,""num_errors"":0,""num_randdir"":2,""num_randdir_good_moves"":2,""num_whilered"":0,""num_whileblue"":0,""num_blue"":1,""num_good_moves"":4}","[420.3214133126395,417.82142761775424,0.1,420.3214133126395,417.82142761775424,105.9,420.3214133126395,417.82142761775424,210.3,420.3214133126395,417.82142761775424,314.6,420.3214133126395,417.82142761775424,419.1,421.5714133126395,417.82142761775424,524.3,430.3214133126395,420.32142761775424,627.2,375.3214133126395,324.07142761775424,729,321.5714133126395,249.07142761775424,835.7,319.0714133126395,245.32142761775424,939.6,261.5714133126395,162.82142761775424,1041.6,209.0714133126395,122.82142761775425,1147.3,181.5714133126395,111.57142761775425,1253.2,147.8214133126395,100.32142761775425,1356.2,140.3214133126395,96.57142761775425,1459.6,382.8214133126395,370.32142761775424,1559.7,827.8214133126395,771.5714276177542,1660.3,845.3214133126395,821.5714276177542,1765.2,854.0714133126395,845.3214276177542,1866.3,836.5714133126395,822.8214276177542,1972.7,796.5714133126395,791.5714276177542,2076.2,786.5714133126395,786.5714276177542,2182.1,786.5714133126395,786.5714276177542,2286,874.0714133126395,757.8214276177542,2388.9,1031.5714133126396,711.5714276177542,2488.9,1040.3214133126396,691.5714276177542,2592.2,1040.3214133126396,690.3214276177542,2694,1040.3214133126396,690.3214276177542,2799.6,1040.3214133126396,690.3214276177542,2902.9,1040.3214133126396,690.3214276177542,3003,1040.3214133126396,690.3214276177542,3106,1040.3214133126396,690.3214276177542,3208.8,1040.3214133126396,690.3214276177542,3313.2,1040.3214133126396,690.3214276177542,3415.7,1040.3214133126396,690.3214276177542,3515.7,1040.3214133126396,690.3214276177542,3619.8,1040.3214133126396,690.3214276177542,3723.8,1040.3214133126396,690.3214276177542,3823.8,1040.3214133126396,690.3214276177542,3924.8,1040.3214133126396,690.3214276177542,4024.8,1040.3214133126396,690.3214276177542,4125.4,1040.3214133126396,690.3214276177542,4231.4,1040.3214133126396,690.3214276177542,4334.6,1040.3214133126396,690.3214276177542,4438.7,1040.3214133126396,690.3214276177542,4541.6,1040.3214133126396,690.3214276177542,4647.4,1040.3214133126396,690.3214276177542,4749.6,1040.3214133126396,690.3214276177542,4855.7,1040.3214133126396,690.3214276177542,4959.7]","[5005.6,5005.6,2703.5,2011.1,291,""smooth"",""down"",""down"",""good_move"",7974.5,2968.4,2547.3,5006.1,421.1,""oops"",""down"",""right"",""good_move"",10960.1,2985.3,2589.8,7974.8,395.5,""smooth"",""down"",""down"",""good_move"",13611.4,2651,2337.5,10960.4,313.5,""oops"",""right"",""right"",""good_move""]","",""
"4177","","<div style=""width:500px;"">
  <p>What determined the result of this run?</p>
  </div>","57","html-slider-response","20","414565","0.0-5.0-1.2","29","1","2025-07-09 11:31:05","01610cd0009c79a99da7d0a3353eb402","82.53.76.206","Mozilla/5.0 (Windows NT 10.0; Win64; x64) AppleWebKit/537.36 (KHTML, like Gecko) Chrome/137.0.0.0 Safari/537.36","WebKit","Chrome","137.0.0.0","Windows","10.0","https://app.prolific.com/","it-IT,it;q=0.9,en-US;q=0.8,en;q=0.7","672f7b856c1ce6995a666bc6","683db7602f5db6a34d12d064","686e52d4daec7f57b46bf7cd","1","672f7b856c1ce6995a666bc6","1","2025-07-09T11:38:00.004Z","","","","","","","","","","","AttribQ","","50","","","","","","","","","","","","","","","","","","","","","","","","","","","","",""
"2816","","<div style=""width:500px;"">
  <p>How much control did you have over the ball?</p>
  </div>","60","html-slider-response","21","417382","0.0-5.0-2.2","29","1","2025-07-09 11:31:05","01610cd0009c79a99da7d0a3353eb402","82.53.76.206","Mozilla/5.0 (Windows NT 10.0; Win64; x64) AppleWebKit/537.36 (KHTML, like Gecko) Chrome/137.0.0.0 Safari/537.36","WebKit","Chrome","137.0.0.0","Windows","10.0","https://app.prolific.com/","it-IT,it;q=0.9,en-US;q=0.8,en;q=0.7","672f7b856c1ce6995a666bc6","683db7602f5db6a34d12d064","686e52d4daec7f57b46bf7cd","1","672f7b856c1ce6995a666bc6","1","2025-07-09T11:38:02.821Z","","","","","","","","","","","ControlQ","","50","","","","","","","","","","","","","","","","","","","","","","","","","","","","",""
"3434","","<div style=""width:500px;"">
  <p>How would you describe your current emotional state?</p>
  </div>","35","html-slider-response","22","420817","0.0-5.0-3.2","29","1","2025-07-09 11:31:05","01610cd0009c79a99da7d0a3353eb402","82.53.76.206","Mozilla/5.0 (Windows NT 10.0; Win64; x64) AppleWebKit/537.36 (KHTML, like Gecko) Chrome/137.0.0.0 Safari/537.36","WebKit","Chrome","137.0.0.0","Windows","10.0","https://app.prolific.com/","it-IT,it;q=0.9,en-US;q=0.8,en;q=0.7","672f7b856c1ce6995a666bc6","683db7602f5db6a34d12d064","686e52d4daec7f57b46bf7cd","1","672f7b856c1ce6995a666bc6","1","2025-07-09T11:38:06.256Z","","","","","","","","","","","StressQ","","50","","","","","","","","","","","","","","","","","","","","","","","","","","","","",""
"2328","","<div style=""width:500px;"">
  <p>What best describes how you currently feel?</p>
  </div>","65","html-slider-response","23","423146","0.0-5.0-4.2","29","1","2025-07-09 11:31:05","01610cd0009c79a99da7d0a3353eb402","82.53.76.206","Mozilla/5.0 (Windows NT 10.0; Win64; x64) AppleWebKit/537.36 (KHTML, like Gecko) Chrome/137.0.0.0 Safari/537.36","WebKit","Chrome","137.0.0.0","Windows","10.0","https://app.prolific.com/","it-IT,it;q=0.9,en-US;q=0.8,en;q=0.7","672f7b856c1ce6995a666bc6","683db7602f5db6a34d12d064","686e52d4daec7f57b46bf7cd","1","672f7b856c1ce6995a666bc6","1","2025-07-09T11:38:08.585Z","","","","","","","","","","","MotivationQ","","50","","","","","","","","","","","","","","","","","","","","","","","","","","","","",""
"","","","","ctl-task-cpt","24","449688","0.0-5.0-0.3","29","1","2025-07-09 11:31:05","01610cd0009c79a99da7d0a3353eb402","82.53.76.206","Mozilla/5.0 (Windows NT 10.0; Win64; x64) AppleWebKit/537.36 (KHTML, like Gecko) Chrome/137.0.0.0 Safari/537.36","WebKit","Chrome","137.0.0.0","Windows","10.0","https://app.prolific.com/","it-IT,it;q=0.9,en-US;q=0.8,en;q=0.7","672f7b856c1ce6995a666bc6","683db7602f5db6a34d12d064","686e52d4daec7f57b46bf7cd","1","672f7b856c1ce6995a666bc6","1","2025-07-09T11:38:35.127Z","","","","","","","","","","","","","","win-only","2","g1:SE,g2:NW","0.7","4","0","425077.8","875.8","5882.3","23532.7","1","4","8","6","1","1","1","6","5","0.045454545454545456","1583.9","3000","1190","[""down"",""right""]","{""num_key_presses"":6,""num_perfect"":4,""num_errors"":0,""num_randdir"":2,""num_randdir_good_moves"":1,""num_whilered"":0,""num_whileblue"":0,""num_blue"":1,""num_good_moves"":5}","[419.0714133126395,416.57142761775424,0.3,419.0714133126395,416.57142761775424,101.7,419.0714133126395,416.57142761775424,202.4,419.0714133126395,411.57142761775424,304.1,421.5714133126395,387.82142761775424,404.9,419.0714133126395,344.07142761775424,505.7,292.8214133126395,189.07142761775424,609.7,264.0714133126395,167.82142761775424,713.4,241.5714133126395,157.82142761775424,814.5,231.5714133126395,157.82142761775424,915.6,260.3214133126395,180.32142761775424,1020.5,465.3214133126395,406.57142761775424,1122,717.8214133126395,695.3214276177542,1227.7,735.3214133126395,725.3214276177542,1332.3,741.5714133126395,731.5714276177542,1435.1,746.5714133126395,739.0714276177542,1540.8,746.5714133126395,739.0714276177542,1645,755.3214133126395,726.5714276177542,1750,841.5714133126395,684.0714276177542,1853.2,945.3214133126395,666.5714276177542,1957.6,979.0714133126395,656.5714276177542,2061.9,989.0714133126395,654.0714276177542,2165.1,989.0714133126395,654.0714276177542,2271.6,989.0714133126395,654.0714276177542,2375.3,989.0714133126395,654.0714276177542,2478.1,989.0714133126395,654.0714276177542,2582,989.0714133126395,654.0714276177542,2682,989.0714133126395,654.0714276177542,2783.6,989.0714133126395,654.0714276177542,2886.8,989.0714133126395,654.0714276177542,2993,989.0714133126395,654.0714276177542,3095.4,989.0714133126395,654.0714276177542,3195.5,989.0714133126395,654.0714276177542,3298.5,989.0714133126395,654.0714276177542,3403.6,989.0714133126395,654.0714276177542,3506.2,989.0714133126395,654.0714276177542,3611.5,989.0714133126395,654.0714276177542,3715.5,989.0714133126395,654.0714276177542,3819.7,989.0714133126395,654.0714276177542,3922,989.0714133126395,654.0714276177542,4027,989.0714133126395,654.0714276177542,4131.7,989.0714133126395,654.0714276177542,4235.1,989.0714133126395,654.0714276177542,4337.8,989.0714133126395,654.0714276177542,4442.9,989.0714133126395,654.0714276177542,4548.5,989.0714133126395,654.0714276177542,4651.6,989.0714133126395,654.0714276177542,4755.7,989.0714133126395,654.0714276177542,4860.3,989.0714133126395,654.0714276177542,4963.5]","[1355.8,1355.9,1000,0,355.9,""smooth"",""right"",""right"",""good_move"",4341.4,2984.8,2674.3,1356.7,310.4,""smooth"",""down"",""down"",""good_move"",7234.7,2892.8,2536.3,4341.9,356.5,""oops"",""down"",""up"",""bad_move"",9888.1,2652.8,2361.3,7235.3,291.5,""smooth"",""down"",""down"",""good_move"",15395.9,5507.6,2242.5,12833.1,320.3,""smooth"",""down"",""down"",""good_move"",17556.3,2160.3,1829.1,15396,331.2,""oops"",""right"",""right"",""good_move""]","",""
"3912","","<div style=""width:500px;"">
  <p>What determined the result of this run?</p>
  </div>","67","html-slider-response","25","453602","0.0-5.0-1.3","29","1","2025-07-09 11:31:05","01610cd0009c79a99da7d0a3353eb402","82.53.76.206","Mozilla/5.0 (Windows NT 10.0; Win64; x64) AppleWebKit/537.36 (KHTML, like Gecko) Chrome/137.0.0.0 Safari/537.36","WebKit","Chrome","137.0.0.0","Windows","10.0","https://app.prolific.com/","it-IT,it;q=0.9,en-US;q=0.8,en;q=0.7","672f7b856c1ce6995a666bc6","683db7602f5db6a34d12d064","686e52d4daec7f57b46bf7cd","1","672f7b856c1ce6995a666bc6","1","2025-07-09T11:38:39.041Z","","","","","","","","","","","AttribQ","","50","","","","","","","","","","","","","","","","","","","","","","","","","","","","",""
"2425","","<div style=""width:500px;"">
  <p>How much control did you have over the ball?</p>
  </div>","66","html-slider-response","26","456028","0.0-5.0-2.3","29","1","2025-07-09 11:31:05","01610cd0009c79a99da7d0a3353eb402","82.53.76.206","Mozilla/5.0 (Windows NT 10.0; Win64; x64) AppleWebKit/537.36 (KHTML, like Gecko) Chrome/137.0.0.0 Safari/537.36","WebKit","Chrome","137.0.0.0","Windows","10.0","https://app.prolific.com/","it-IT,it;q=0.9,en-US;q=0.8,en;q=0.7","672f7b856c1ce6995a666bc6","683db7602f5db6a34d12d064","686e52d4daec7f57b46bf7cd","1","672f7b856c1ce6995a666bc6","1","2025-07-09T11:38:41.467Z","","","","","","","","","","","ControlQ","","50","","","","","","","","","","","","","","","","","","","","","","","","","","","","",""
"2770","","<div style=""width:500px;"">
  <p>How would you describe your current emotional state?</p>
  </div>","46","html-slider-response","27","458799","0.0-5.0-3.3","29","1","2025-07-09 11:31:05","01610cd0009c79a99da7d0a3353eb402","82.53.76.206","Mozilla/5.0 (Windows NT 10.0; Win64; x64) AppleWebKit/537.36 (KHTML, like Gecko) Chrome/137.0.0.0 Safari/537.36","WebKit","Chrome","137.0.0.0","Windows","10.0","https://app.prolific.com/","it-IT,it;q=0.9,en-US;q=0.8,en;q=0.7","672f7b856c1ce6995a666bc6","683db7602f5db6a34d12d064","686e52d4daec7f57b46bf7cd","1","672f7b856c1ce6995a666bc6","1","2025-07-09T11:38:44.238Z","","","","","","","","","","","StressQ","","50","","","","","","","","","","","","","","","","","","","","","","","","","","","","",""
"1804","","<div style=""width:500px;"">
  <p>What best describes how you currently feel?</p>
  </div>","65","html-slider-response","28","460604","0.0-5.0-4.3","29","1","2025-07-09 11:31:05","01610cd0009c79a99da7d0a3353eb402","82.53.76.206","Mozilla/5.0 (Windows NT 10.0; Win64; x64) AppleWebKit/537.36 (KHTML, like Gecko) Chrome/137.0.0.0 Safari/537.36","WebKit","Chrome","137.0.0.0","Windows","10.0","https://app.prolific.com/","it-IT,it;q=0.9,en-US;q=0.8,en;q=0.7","672f7b856c1ce6995a666bc6","683db7602f5db6a34d12d064","686e52d4daec7f57b46bf7cd","1","672f7b856c1ce6995a666bc6","1","2025-07-09T11:38:46.044Z","","","","","","","","","","","MotivationQ","","50","","","","","","","","","","","","","","","","","","","","","","","","","","","","",""
"","","","","ctl-task-cpt","29","503180","0.0-5.0-0.4","29","1","2025-07-09 11:31:05","01610cd0009c79a99da7d0a3353eb402","82.53.76.206","Mozilla/5.0 (Windows NT 10.0; Win64; x64) AppleWebKit/537.36 (KHTML, like Gecko) Chrome/137.0.0.0 Safari/537.36","WebKit","Chrome","137.0.0.0","Windows","10.0","https://app.prolific.com/","it-IT,it;q=0.9,en-US;q=0.8,en;q=0.7","672f7b856c1ce6995a666bc6","683db7602f5db6a34d12d064","686e52d4daec7f57b46bf7cd","1","672f7b856c1ce6995a666bc6","1","2025-07-09T11:39:28.619Z","","","","","","","","","","","","","","win-only","0","g1:NW,g2:SE","0.6","5","0","462536.2","946.5","5947.5","39564.2","1","4","4","6","2","-4","-4","2","6","0.015151515151515152","1153.3","3000","-2950","[""down"",""right""]","{""num_key_presses"":9,""num_perfect"":6,""num_errors"":0,""num_randdir"":3,""num_randdir_good_moves"":1,""num_whilered"":0,""num_whileblue"":0,""num_blue"":2,""num_good_moves"":7}","[425.3214133126395,420.32142761775424,0.3,425.3214133126395,420.32142761775424,100.2,425.3214133126395,420.32142761775424,200.6,424.0714133126395,420.32142761775424,305,402.8214133126395,345.32142761775424,408.8,369.0714133126395,296.57142761775424,509.6,369.0714133126395,295.32142761775424,612.3,700.3214133126395,659.0714276177542,715.2,844.0714133126395,802.8214276177542,815.6,846.5714133126395,814.0714276177542,922.7,827.8214133126395,806.5714276177542,1027.3,806.5714133126395,786.5714276177542,1132.1,806.5714133126395,786.5714276177542,1237.8,881.5714133126395,685.3214276177542,1340.6,927.8214133126395,656.5714276177542,1440.8,944.0714133126395,646.5714276177542,1542,944.0714133126395,646.5714276177542,1645.3,944.0714133126395,646.5714276177542,1750.7,944.0714133126395,646.5714276177542,1854.5,944.0714133126395,646.5714276177542,1958,944.0714133126395,646.5714276177542,2059.8,944.0714133126395,646.5714276177542,2161,944.0714133126395,646.5714276177542,2261.6,944.0714133126395,646.5714276177542,2367.1,944.0714133126395,646.5714276177542,2471.2,944.0714133126395,646.5714276177542,2575,944.0714133126395,646.5714276177542,2679.9,944.0714133126395,646.5714276177542,2784.2,944.0714133126395,646.5714276177542,2884.5,944.0714133126395,646.5714276177542,2984.8,944.0714133126395,646.5714276177542,3092.6,944.0714133126395,646.5714276177542,3194.5,944.0714133126395,646.5714276177542,3298.8,944.0714133126395,646.5714276177542,3401.7,944.0714133126395,646.5714276177542,3505.4,944.0714133126395,646.5714276177542,3610.6,944.0714133126395,646.5714276177542,3714.1,944.0714133126395,646.5714276177542,3814.4,944.0714133126395,646.5714276177542,3914.9,944.0714133126395,646.5714276177542,4020,944.0714133126395,646.5714276177542,4124.6,944.0714133126395,646.5714276177542,4225.8,944.0714133126395,646.5714276177542,4332.3,944.0714133126395,646.5714276177542,4436.5,944.0714133126395,646.5714276177542,4541.5,944.0714133126395,646.5714276177542,4644.8,944.0714133126395,646.5714276177542,4749,944.0714133126395,646.5714276177542,4849,944.0714133126395,646.5714276177542,4950]","[4144.4,4144.4,1843.4,2011.4,289.6,""oops"",""down"",""right"",""good_move"",7242.6,3097.7,2738.6,4144.9,359.1,""smooth"",""down"",""down"",""good_move"",10674.7,3431.8,3100.8,7242.9,331,""smooth"",""down"",""down"",""good_move"",13045.9,2370.7,2035,10675.2,335.7,""oops"",""right"",""left"",""bad_move"",16269.1,3222.9,2940.3,13046.3,282.5,""oops"",""right"",""up"",""bad_move"",19110.5,2841,2537.5,16269.6,303.5,""smooth"",""right"",""right"",""good_move"",25093.3,5982.2,2144.4,22659.7,289.3,""smooth"",""right"",""right"",""good_move"",28706.1,3612.2,3219.8,25093.9,392.4,""smooth"",""down"",""down"",""good_move"",31464.6,2758.1,2351.7,28706.5,406.4,""smooth"",""right"",""right"",""good_move""]","",""
"3039","","<div style=""width:500px;"">
  <p>What determined the result of this run?</p>
  </div>","44","html-slider-response","30","506221","0.0-5.0-1.4","29","1","2025-07-09 11:31:05","01610cd0009c79a99da7d0a3353eb402","82.53.76.206","Mozilla/5.0 (Windows NT 10.0; Win64; x64) AppleWebKit/537.36 (KHTML, like Gecko) Chrome/137.0.0.0 Safari/537.36","WebKit","Chrome","137.0.0.0","Windows","10.0","https://app.prolific.com/","it-IT,it;q=0.9,en-US;q=0.8,en;q=0.7","672f7b856c1ce6995a666bc6","683db7602f5db6a34d12d064","686e52d4daec7f57b46bf7cd","1","672f7b856c1ce6995a666bc6","1","2025-07-09T11:39:31.660Z","","","","","","","","","","","AttribQ","","50","","","","","","","","","","","","","","","","","","","","","","","","","","","","",""
"3972","","<div style=""width:500px;"">
  <p>How much control did you have over the ball?</p>
  </div>","39","html-slider-response","31","510194","0.0-5.0-2.4","29","1","2025-07-09 11:31:05","01610cd0009c79a99da7d0a3353eb402","82.53.76.206","Mozilla/5.0 (Windows NT 10.0; Win64; x64) AppleWebKit/537.36 (KHTML, like Gecko) Chrome/137.0.0.0 Safari/537.36","WebKit","Chrome","137.0.0.0","Windows","10.0","https://app.prolific.com/","it-IT,it;q=0.9,en-US;q=0.8,en;q=0.7","672f7b856c1ce6995a666bc6","683db7602f5db6a34d12d064","686e52d4daec7f57b46bf7cd","1","672f7b856c1ce6995a666bc6","1","2025-07-09T11:39:35.633Z","","","","","","","","","","","ControlQ","","50","","","","","","","","","","","","","","","","","","","","","","","","","","","","",""
"2686","","<div style=""width:500px;"">
  <p>How would you describe your current emotional state?</p>
  </div>","56","html-slider-response","32","512882","0.0-5.0-3.4","29","1","2025-07-09 11:31:05","01610cd0009c79a99da7d0a3353eb402","82.53.76.206","Mozilla/5.0 (Windows NT 10.0; Win64; x64) AppleWebKit/537.36 (KHTML, like Gecko) Chrome/137.0.0.0 Safari/537.36","WebKit","Chrome","137.0.0.0","Windows","10.0","https://app.prolific.com/","it-IT,it;q=0.9,en-US;q=0.8,en;q=0.7","672f7b856c1ce6995a666bc6","683db7602f5db6a34d12d064","686e52d4daec7f57b46bf7cd","1","672f7b856c1ce6995a666bc6","1","2025-07-09T11:39:38.321Z","","","","","","","","","","","StressQ","","50","","","","","","","","","","","","","","","","","","","","","","","","","","","","",""
"1656","","<div style=""width:500px;"">
  <p>What best describes how you currently feel?</p>
  </div>","64","html-slider-response","33","514539","0.0-5.0-4.4","29","1","2025-07-09 11:31:05","01610cd0009c79a99da7d0a3353eb402","82.53.76.206","Mozilla/5.0 (Windows NT 10.0; Win64; x64) AppleWebKit/537.36 (KHTML, like Gecko) Chrome/137.0.0.0 Safari/537.36","WebKit","Chrome","137.0.0.0","Windows","10.0","https://app.prolific.com/","it-IT,it;q=0.9,en-US;q=0.8,en;q=0.7","672f7b856c1ce6995a666bc6","683db7602f5db6a34d12d064","686e52d4daec7f57b46bf7cd","1","672f7b856c1ce6995a666bc6","1","2025-07-09T11:39:39.978Z","","","","","","","","","","","MotivationQ","","50","","","","","","","","","","","","","","","","","","","","","","","","","","","","",""
"","","","","ctl-task-cpt","34","560124","0.0-5.0-0.5","29","1","2025-07-09 11:31:05","01610cd0009c79a99da7d0a3353eb402","82.53.76.206","Mozilla/5.0 (Windows NT 10.0; Win64; x64) AppleWebKit/537.36 (KHTML, like Gecko) Chrome/137.0.0.0 Safari/537.36","WebKit","Chrome","137.0.0.0","Windows","10.0","https://app.prolific.com/","it-IT,it;q=0.9,en-US;q=0.8,en;q=0.7","672f7b856c1ce6995a666bc6","683db7602f5db6a34d12d064","686e52d4daec7f57b46bf7cd","1","672f7b856c1ce6995a666bc6","1","2025-07-09T11:40:25.563Z","","","","","","","","","","","","","","win-only","1","g1:NE,g2:SW","0.5","6","0","516470.7","2654.9","7656.8","42568.4","1","4","8","6","2","-8","-9","0","2","0","1436.9","3000","-2825","[""down"",""left""]","{""num_key_presses"":11,""num_perfect"":5,""num_errors"":1,""num_randdir"":5,""num_randdir_good_moves"":2,""num_whilered"":0,""num_whileblue"":1,""num_blue"":2,""num_good_moves"":8}","[406.5714133126395,411.57142761775424,0.4,406.5714133126395,411.57142761775424,106.3,406.5714133126395,411.57142761775424,207.2,409.0714133126395,410.32142761775424,309.7,531.5714133126395,311.57142761775424,412.2,582.8214133126395,196.57142761775424,519.1,580.3214133126395,189.07142761775424,620.1,280.3214133126395,497.82142761775424,722,176.5714133126395,610.3214276177542,825.5,171.5714133126395,615.3214276177542,925.6,165.3214133126395,635.3214276177542,1026,131.5714133126395,679.0714276177542,1128.5,97.8214133126395,716.5714276177542,1232.6,86.5714133126395,721.5714276177542,1335.6,82.8214133126395,722.8214276177542,1438,82.8214133126395,722.8214276177542,1542.8,115.3214133126395,726.5714276177542,1647.6,591.5714133126395,636.5714276177542,1751.2,911.5714133126395,516.5714276177542,1852.4,964.0714133126395,472.82142761775424,1952.9,976.5714133126395,464.07142761775424,2056.8,976.5714133126395,464.07142761775424,2162.1,976.5714133126395,464.07142761775424,2266.8,976.5714133126395,464.07142761775424,2369.3,976.5714133126395,464.07142761775424,2471.9,976.5714133126395,464.07142761775424,2577.4,976.5714133126395,464.07142761775424,2682.1,976.5714133126395,464.07142761775424,2787.7,976.5714133126395,464.07142761775424,2891.1,976.5714133126395,464.07142761775424,2992,976.5714133126395,464.07142761775424,3092.1,976.5714133126395,464.07142761775424,3196.7,976.5714133126395,464.07142761775424,3297.6,976.5714133126395,464.07142761775424,3398,976.5714133126395,464.07142761775424,3501.9,976.5714133126395,464.07142761775424,3606.7,976.5714133126395,464.07142761775424,3711.4,976.5714133126395,464.07142761775424,3813.1,976.5714133126395,464.07142761775424,3918,976.5714133126395,464.07142761775424,4022.5,976.5714133126395,464.07142761775424,4124.5,976.5714133126395,464.07142761775424,4225.3,976.5714133126395,464.07142761775424,4328.1,976.5714133126395,464.07142761775424,4431.7,976.5714133126395,464.07142761775424,4534.4,976.5714133126395,464.07142761775424,4640,976.5714133126395,464.07142761775424,4741.6,976.5714133126395,464.07142761775424,4841.8,976.5714133126395,464.07142761775424,4945.6]","[1344.5,1344.5,1000,0,344.5,""oops"",""down"",""up"",""bad_move"",4349.8,3005,2688.4,1344.8,316.6,""smooth"",""left"",""left"",""good_move"",7169.9,2819.6,2548.6,4350.3,271,""oops"",""down"",""left"",""good_move"",10465.6,3295.6,3016.3,7170,279.3,""smooth"",""down"",""down"",""good_move"",13325.9,2859.9,2581.2,10466,278.7,""smooth"",""down"",""down"",""good_move"",19167.9,5841.7,2055,16837.2,275.7,""smooth"",""down"",""down"",""good_move"",21199.7,2031.5,1686.8,19168.2,344.7,""smooth"",""down"",""down"",""good_move"",23103.8,1903.9,1604.2,21199.9,299.7,""oops"",""left"",""right"",""bad_move"",25642.6,2538.6,2259.2,23104,279.4,""oops"",""left"",""up"",""bad_move"",28648.5,3005.2,2705.9,25643.3,299.3,""oops"",""left"",""down"",""good_move"",32462.9,3814,3532.2,28648.9,281.8,""while_blue"",""left"",""left"",""good_move""]","",""
"10245","","<div style=""width:500px;"">
  <p>What determined the result of this run?</p>
  </div>","35","html-slider-response","35","570370","0.0-5.0-1.5","29","1","2025-07-09 11:31:05","01610cd0009c79a99da7d0a3353eb402","82.53.76.206","Mozilla/5.0 (Windows NT 10.0; Win64; x64) AppleWebKit/537.36 (KHTML, like Gecko) Chrome/137.0.0.0 Safari/537.36","WebKit","Chrome","137.0.0.0","Windows","10.0","https://app.prolific.com/","it-IT,it;q=0.9,en-US;q=0.8,en;q=0.7","672f7b856c1ce6995a666bc6","683db7602f5db6a34d12d064","686e52d4daec7f57b46bf7cd","1","672f7b856c1ce6995a666bc6","1","2025-07-09T11:40:35.809Z","","","","","","","","","","","AttribQ","","50","","","","","","","","","","","","","","","","","","","","","","","","","","","","",""
"1548","","<div style=""width:500px;"">
  <p>How much control did you have over the ball?</p>
  </div>","58","html-slider-response","36","571920","0.0-5.0-2.5","29","1","2025-07-09 11:31:05","01610cd0009c79a99da7d0a3353eb402","82.53.76.206","Mozilla/5.0 (Windows NT 10.0; Win64; x64) AppleWebKit/537.36 (KHTML, like Gecko) Chrome/137.0.0.0 Safari/537.36","WebKit","Chrome","137.0.0.0","Windows","10.0","https://app.prolific.com/","it-IT,it;q=0.9,en-US;q=0.8,en;q=0.7","672f7b856c1ce6995a666bc6","683db7602f5db6a34d12d064","686e52d4daec7f57b46bf7cd","1","672f7b856c1ce6995a666bc6","1","2025-07-09T11:40:37.359Z","","","","","","","","","","","ControlQ","","50","","","","","","","","","","","","","","","","","","","","","","","","","","","","",""
"3919","","<div style=""width:500px;"">
  <p>How would you describe your current emotional state?</p>
  </div>","64","html-slider-response","37","575841","0.0-5.0-3.5","29","1","2025-07-09 11:31:05","01610cd0009c79a99da7d0a3353eb402","82.53.76.206","Mozilla/5.0 (Windows NT 10.0; Win64; x64) AppleWebKit/537.36 (KHTML, like Gecko) Chrome/137.0.0.0 Safari/537.36","WebKit","Chrome","137.0.0.0","Windows","10.0","https://app.prolific.com/","it-IT,it;q=0.9,en-US;q=0.8,en;q=0.7","672f7b856c1ce6995a666bc6","683db7602f5db6a34d12d064","686e52d4daec7f57b46bf7cd","1","672f7b856c1ce6995a666bc6","1","2025-07-09T11:40:41.281Z","","","","","","","","","","","StressQ","","50","","","","","","","","","","","","","","","","","","","","","","","","","","","","",""
"1557","","<div style=""width:500px;"">
  <p>What best describes how you currently feel?</p>
  </div>","62","html-slider-response","38","577400","0.0-5.0-4.5","29","1","2025-07-09 11:31:05","01610cd0009c79a99da7d0a3353eb402","82.53.76.206","Mozilla/5.0 (Windows NT 10.0; Win64; x64) AppleWebKit/537.36 (KHTML, like Gecko) Chrome/137.0.0.0 Safari/537.36","WebKit","Chrome","137.0.0.0","Windows","10.0","https://app.prolific.com/","it-IT,it;q=0.9,en-US;q=0.8,en;q=0.7","672f7b856c1ce6995a666bc6","683db7602f5db6a34d12d064","686e52d4daec7f57b46bf7cd","1","672f7b856c1ce6995a666bc6","1","2025-07-09T11:40:42.840Z","","","","","","","","","","","MotivationQ","","50","","","","","","","","","","","","","","","","","","","","","","","","","","","","",""
"","","","","ctl-task-cpt","39","640495","0.0-5.0-0.6","29","1","2025-07-09 11:31:05","01610cd0009c79a99da7d0a3353eb402","82.53.76.206","Mozilla/5.0 (Windows NT 10.0; Win64; x64) AppleWebKit/537.36 (KHTML, like Gecko) Chrome/137.0.0.0 Safari/537.36","WebKit","Chrome","137.0.0.0","Windows","10.0","https://app.prolific.com/","it-IT,it;q=0.9,en-US;q=0.8,en;q=0.7","672f7b856c1ce6995a666bc6","683db7602f5db6a34d12d064","686e52d4daec7f57b46bf7cd","1","672f7b856c1ce6995a666bc6","1","2025-07-09T11:41:45.934Z","","","","","","","","","","","","","","win-only","3","g1:SW,g2:NE","0.4","7","0","579332.5","1270.3","6273.5","60081.4","1","4","8","6","2","-8","-16","0","0","0","1460.1","3000","-2750","[""up"",""right""]","{""num_key_presses"":20,""num_perfect"":4,""num_errors"":8,""num_randdir"":6,""num_randdir_good_moves"":3,""num_whilered"":2,""num_whileblue"":3,""num_blue"":5,""num_good_moves"":8}","[415.3214133126395,424.07142761775424,0.2,415.3214133126395,424.07142761775424,100.5,417.8214133126395,420.32142761775424,201.3,432.8214133126395,389.07142761775424,302.3,501.5714133126395,272.82142761775424,408.3,584.0714133126395,186.57142761775424,510.7,606.5714133126395,164.07142761775424,616,622.8214133126395,144.07142761775424,717.2,622.8214133126395,144.07142761775424,817.2,596.5714133126395,169.07142761775424,919.5,575.3214133126395,186.57142761775424,1023.7,581.5714133126395,176.57142761775424,1128.1,674.0714133126395,117.82142761775425,1230.3,741.5714133126395,101.57142761775425,1330.4,741.5714133126395,101.57142761775425,1432.8,741.5714133126395,101.57142761775425,1535.9,741.5714133126395,101.57142761775425,1642.4,770.3214133126395,111.57142761775425,1748.3,820.3214133126395,132.82142761775424,1854.7,826.5714133126395,137.82142761775424,1956.7,874.0714133126395,171.57142761775424,2060.2,936.5714133126395,200.32142761775424,2162.9,951.5714133126395,209.07142761775424,2268.1,957.8214133126395,214.07142761775424,2370.5,957.8214133126395,214.07142761775424,2475.2,957.8214133126395,214.07142761775424,2576.6,957.8214133126395,214.07142761775424,2683.8,957.8214133126395,214.07142761775424,2788,957.8214133126395,214.07142761775424,2891.6,957.8214133126395,214.07142761775424,2991.7,957.8214133126395,214.07142761775424,3092.9,957.8214133126395,214.07142761775424,3195.8,957.8214133126395,214.07142761775424,3297.4,957.8214133126395,214.07142761775424,3397.5,957.8214133126395,214.07142761775424,3502.9,957.8214133126395,214.07142761775424,3605.9,957.8214133126395,214.07142761775424,3710.4,957.8214133126395,214.07142761775424,3815.3,957.8214133126395,214.07142761775424,3918.6,957.8214133126395,214.07142761775424,4023.1,957.8214133126395,214.07142761775424,4127.6,957.8214133126395,214.07142761775424,4230.8,957.8214133126395,214.07142761775424,4336.1,957.8214133126395,214.07142761775424,4440.4,957.8214133126395,214.07142761775424,4543.6,957.8214133126395,214.07142761775424,4647.8,957.8214133126395,214.07142761775424,4753.1,957.8214133126395,214.07142761775424,4856.4,957.8214133126395,214.07142761775424,4960.9]","[1348.5,1348.6,1000,0,348.6,""oops"",""right"",""left"",""bad_move"",4978.4,3629.4,3281.4,1349,348,""smooth"",""up"",""up"",""good_move"",7397.8,2419.1,2097.3,4978.7,321.8,""smooth"",""up"",""up"",""good_move"",10667,3268.9,3006.2,7398.1,262.7,""oops"",""right"",""down"",""bad_move"",13655.2,2987.8,2684.6,10667.4,303.2,""while_blue"",""right"",""up"",""good_move"",16562.7,2907.1,2576,13655.7,331.1,""smooth"",""right"",""right"",""good_move"",19728.2,3165,2871.6,16563.2,293.4,""while_blue"",""right"",""left"",""bad_move"",25848.6,6119.9,2170,23377.5,301.1,""oops"",""right"",""up"",""good_move"",28640.1,2789.9,2429.2,25850.2,360.7,""smooth"",""right"",""right"",""good_move"",31773.9,3133.3,2847.6,28640.6,285.7,""oops"",""right"",""right"",""good_move"",34358,2583.9,2242.4,31774.1,341.5,""oops"",""right"",""right"",""good_move"",34621.9,263.4,2406.5,34358.5,-2143.1,""error"",""-"",""-"",""no_move"",35147.7,525.5,2406.5,34358.5,-1617.3,""while_red"",""-"",""-"",""no_move"",35665.2,1043,1835.2,35626.8,-1796.8,""error"",""-"",""-"",""no_move"",37001.5,1336.3,2351.7,36667.8,-2017.9,""error"",""-"",""-"",""no_move"",41369,4367.1,3112,38007,250,""oops"",""right"",""down"",""bad_move"",42182.1,812.8,2705.1,41369.3,-1892.3,""error"",""-"",""-"",""no_move"",42658,475.5,2705.1,41369.3,-1416.4,""while_red"",""-"",""-"",""no_move"",43546.3,1363.8,2528.9,43186.7,-2169.3,""error"",""-"",""-"",""no_move"",47538.2,3991.7,2703.7,44548.4,286.1,""while_blue"",""right"",""left"",""bad_move""]","",""
"84023","","<div style=""width:500px;"">
  <p>What determined the result of this run?</p>
  </div>","72","html-slider-response","40","724518","0.0-5.0-1.6","29","1","2025-07-09 11:31:05","01610cd0009c79a99da7d0a3353eb402","82.53.76.206","Mozilla/5.0 (Windows NT 10.0; Win64; x64) AppleWebKit/537.36 (KHTML, like Gecko) Chrome/137.0.0.0 Safari/537.36","WebKit","Chrome","137.0.0.0","Windows","10.0","https://app.prolific.com/","it-IT,it;q=0.9,en-US;q=0.8,en;q=0.7","672f7b856c1ce6995a666bc6","683db7602f5db6a34d12d064","686e52d4daec7f57b46bf7cd","1","672f7b856c1ce6995a666bc6","1","2025-07-09T11:43:09.957Z","","","","","","","","","","","AttribQ","","50","","","","","","","","","","","","","","","","","","","","","","","","","","","","",""
"6041","","<div style=""width:500px;"">
  <p>How much control did you have over the ball?</p>
  </div>","38","html-slider-response","41","730560","0.0-5.0-2.6","29","1","2025-07-09 11:31:05","01610cd0009c79a99da7d0a3353eb402","82.53.76.206","Mozilla/5.0 (Windows NT 10.0; Win64; x64) AppleWebKit/537.36 (KHTML, like Gecko) Chrome/137.0.0.0 Safari/537.36","WebKit","Chrome","137.0.0.0","Windows","10.0","https://app.prolific.com/","it-IT,it;q=0.9,en-US;q=0.8,en;q=0.7","672f7b856c1ce6995a666bc6","683db7602f5db6a34d12d064","686e52d4daec7f57b46bf7cd","1","672f7b856c1ce6995a666bc6","1","2025-07-09T11:43:15.999Z","","","","","","","","","","","ControlQ","","50","","","","","","","","","","","","","","","","","","","","","","","","","","","","",""
"1754","","<div style=""width:500px;"">
  <p>How would you describe your current emotional state?</p>
  </div>","59","html-slider-response","42","732316","0.0-5.0-3.6","29","1","2025-07-09 11:31:05","01610cd0009c79a99da7d0a3353eb402","82.53.76.206","Mozilla/5.0 (Windows NT 10.0; Win64; x64) AppleWebKit/537.36 (KHTML, like Gecko) Chrome/137.0.0.0 Safari/537.36","WebKit","Chrome","137.0.0.0","Windows","10.0","https://app.prolific.com/","it-IT,it;q=0.9,en-US;q=0.8,en;q=0.7","672f7b856c1ce6995a666bc6","683db7602f5db6a34d12d064","686e52d4daec7f57b46bf7cd","1","672f7b856c1ce6995a666bc6","1","2025-07-09T11:43:17.755Z","","","","","","","","","","","StressQ","","50","","","","","","","","","","","","","","","","","","","","","","","","","","","","",""
"1799","","<div style=""width:500px;"">
  <p>What best describes how you currently feel?</p>
  </div>","68","html-slider-response","43","734115","0.0-5.0-4.6","29","1","2025-07-09 11:31:05","01610cd0009c79a99da7d0a3353eb402","82.53.76.206","Mozilla/5.0 (Windows NT 10.0; Win64; x64) AppleWebKit/537.36 (KHTML, like Gecko) Chrome/137.0.0.0 Safari/537.36","WebKit","Chrome","137.0.0.0","Windows","10.0","https://app.prolific.com/","it-IT,it;q=0.9,en-US;q=0.8,en;q=0.7","672f7b856c1ce6995a666bc6","683db7602f5db6a34d12d064","686e52d4daec7f57b46bf7cd","1","672f7b856c1ce6995a666bc6","1","2025-07-09T11:43:19.555Z","","","","","","","","","","","MotivationQ","","50","","","","","","","","","","","","","","","","","","","","","","","","","","","","",""
"","","","","ctl-task-cpt","44","775262","0.0-5.0-0.7","29","1","2025-07-09 11:31:05","01610cd0009c79a99da7d0a3353eb402","82.53.76.206","Mozilla/5.0 (Windows NT 10.0; Win64; x64) AppleWebKit/537.36 (KHTML, like Gecko) Chrome/137.0.0.0 Safari/537.36","WebKit","Chrome","137.0.0.0","Windows","10.0","https://app.prolific.com/","it-IT,it;q=0.9,en-US;q=0.8,en;q=0.7","672f7b856c1ce6995a666bc6","683db7602f5db6a34d12d064","686e52d4daec7f57b46bf7cd","1","672f7b856c1ce6995a666bc6","1","2025-07-09T11:44:00.701Z","","","","","","","","","","","","","","win-only","2","g1:SE,g2:NW","0.3","8","0","736049","2076.4","7078.3","38130.1","1","4","4","6","2","-4","-4","0","0","0","1807.1","3000","-2920","[""left"",""up""]","{""num_key_presses"":8,""num_perfect"":2,""num_errors"":0,""num_randdir"":6,""num_randdir_good_moves"":1,""num_whilered"":0,""num_whileblue"":0,""num_blue"":2,""num_good_moves"":2}","[420.3214133126395,411.57142761775424,0.9,420.3214133126395,411.57142761775424,100.2,420.3214133126395,411.57142761775424,201.6,420.3214133126395,411.57142761775424,305.6,421.5714133126395,406.57142761775424,412.8,422.8214133126395,389.07142761775424,514.1,424.0714133126395,350.32142761775424,616.4,397.8214133126395,292.82142761775424,722.4,397.8214133126395,292.82142761775424,827.1,397.8214133126395,292.82142761775424,932.9,397.8214133126395,292.82142761775424,1034.4,397.8214133126395,292.82142761775424,1138.1,397.8214133126395,292.82142761775424,1240,312.8214133126395,235.32142761775424,1342.6,61.57141331263951,16.571427617754253,1446.5,51.57141331263951,11.571427617754253,1546.5,44.07141331263951,20.321427617754253,1648,41.57141331263951,66.57142761775425,1749.3,44.07141331263951,72.82142761775425,1849.6,44.07141331263951,72.82142761775425,1953.4,255.3214133126395,32.82142761775425,2055.3,545.3214133126395,111.57142761775425,2159.2,545.3214133126395,111.57142761775425,2263.5,545.3214133126395,111.57142761775425,2367.7,545.3214133126395,111.57142761775425,2471.4,545.3214133126395,111.57142761775425,2576.4,545.3214133126395,111.57142761775425,2681.8,545.3214133126395,111.57142761775425,2783.7,545.3214133126395,111.57142761775425,2888.3,545.3214133126395,111.57142761775425,2992.4,545.3214133126395,111.57142761775425,3096.4,545.3214133126395,111.57142761775425,3201.9,545.3214133126395,111.57142761775425,3305.9,545.3214133126395,111.57142761775425,3410.8,545.3214133126395,111.57142761775425,3512.9,545.3214133126395,111.57142761775425,3616.8,545.3214133126395,111.57142761775425,3724.6,545.3214133126395,111.57142761775425,3825.1,545.3214133126395,111.57142761775425,3933,545.3214133126395,111.57142761775425,4033.8,545.3214133126395,111.57142761775425,4137.9,545.3214133126395,111.57142761775425,4240.5,545.3214133126395,111.57142761775425,4341.3,545.3214133126395,111.57142761775425,4443.8,545.3214133126395,111.57142761775425,4547.8,545.3214133126395,111.57142761775425,4652.7,545.3214133126395,111.57142761775425,4756.8,545.3214133126395,111.57142761775425,4860.9,545.3214133126395,111.57142761775425,4965.3]","[1343.1,1343.1,1000,0,343.1,""oops"",""left"",""down"",""bad_move"",7702.5,6358.8,2505.5,4891.7,305.3,""oops"",""up"",""down"",""bad_move"",10645,2942.3,2598.8,7702.7,343.5,""oops"",""left"",""left"",""good_move"",13255.7,2610.3,2171.3,10645.4,439,""oops"",""left"",""right"",""bad_move"",16445.4,3189.4,2875.9,13256,313.5,""smooth"",""up"",""up"",""good_move"",18842.7,2396.6,2062.1,16446.2,334.4,""oops"",""up"",""right"",""bad_move"",25577,6733.9,2753.6,22529.6,293.8,""smooth"",""right"",""right"",""bad_move"",28503.7,2926.4,2491.9,25577.3,434.5,""oops"",""up"",""down"",""bad_move""]","",""
"6095","","<div style=""width:500px;"">
  <p>What determined the result of this run?</p>
  </div>","38","html-slider-response","45","781359","0.0-5.0-1.7","29","1","2025-07-09 11:31:05","01610cd0009c79a99da7d0a3353eb402","82.53.76.206","Mozilla/5.0 (Windows NT 10.0; Win64; x64) AppleWebKit/537.36 (KHTML, like Gecko) Chrome/137.0.0.0 Safari/537.36","WebKit","Chrome","137.0.0.0","Windows","10.0","https://app.prolific.com/","it-IT,it;q=0.9,en-US;q=0.8,en;q=0.7","672f7b856c1ce6995a666bc6","683db7602f5db6a34d12d064","686e52d4daec7f57b46bf7cd","1","672f7b856c1ce6995a666bc6","1","2025-07-09T11:44:06.798Z","","","","","","","","","","","AttribQ","","50","","","","","","","","","","","","","","","","","","","","","","","","","","","","",""
"2718","","<div style=""width:500px;"">
  <p>How much control did you have over the ball?</p>
  </div>","31","html-slider-response","46","784078","0.0-5.0-2.7","29","1","2025-07-09 11:31:05","01610cd0009c79a99da7d0a3353eb402","82.53.76.206","Mozilla/5.0 (Windows NT 10.0; Win64; x64) AppleWebKit/537.36 (KHTML, like Gecko) Chrome/137.0.0.0 Safari/537.36","WebKit","Chrome","137.0.0.0","Windows","10.0","https://app.prolific.com/","it-IT,it;q=0.9,en-US;q=0.8,en;q=0.7","672f7b856c1ce6995a666bc6","683db7602f5db6a34d12d064","686e52d4daec7f57b46bf7cd","1","672f7b856c1ce6995a666bc6","1","2025-07-09T11:44:09.517Z","","","","","","","","","","","ControlQ","","50","","","","","","","","","","","","","","","","","","","","","","","","","","","","",""
"3030","","<div style=""width:500px;"">
  <p>How would you describe your current emotional state?</p>
  </div>","60","html-slider-response","47","787109","0.0-5.0-3.7","29","1","2025-07-09 11:31:05","01610cd0009c79a99da7d0a3353eb402","82.53.76.206","Mozilla/5.0 (Windows NT 10.0; Win64; x64) AppleWebKit/537.36 (KHTML, like Gecko) Chrome/137.0.0.0 Safari/537.36","WebKit","Chrome","137.0.0.0","Windows","10.0","https://app.prolific.com/","it-IT,it;q=0.9,en-US;q=0.8,en;q=0.7","672f7b856c1ce6995a666bc6","683db7602f5db6a34d12d064","686e52d4daec7f57b46bf7cd","1","672f7b856c1ce6995a666bc6","1","2025-07-09T11:44:12.549Z","","","","","","","","","","","StressQ","","50","","","","","","","","","","","","","","","","","","","","","","","","","","","","",""
"1864","","<div style=""width:500px;"">
  <p>What best describes how you currently feel?</p>
  </div>","31","html-slider-response","48","788976","0.0-5.0-4.7","29","1","2025-07-09 11:31:05","01610cd0009c79a99da7d0a3353eb402","82.53.76.206","Mozilla/5.0 (Windows NT 10.0; Win64; x64) AppleWebKit/537.36 (KHTML, like Gecko) Chrome/137.0.0.0 Safari/537.36","WebKit","Chrome","137.0.0.0","Windows","10.0","https://app.prolific.com/","it-IT,it;q=0.9,en-US;q=0.8,en;q=0.7","672f7b856c1ce6995a666bc6","683db7602f5db6a34d12d064","686e52d4daec7f57b46bf7cd","1","672f7b856c1ce6995a666bc6","1","2025-07-09T11:44:14.415Z","","","","","","","","","","","MotivationQ","","50","","","","","","","","","","","","","","","","","","","","","","","","","","","","",""
"","","","","ctl-task-cpt","49","827304","0.0-5.0-0.8","29","1","2025-07-09 11:31:05","01610cd0009c79a99da7d0a3353eb402","82.53.76.206","Mozilla/5.0 (Windows NT 10.0; Win64; x64) AppleWebKit/537.36 (KHTML, like Gecko) Chrome/137.0.0.0 Safari/537.36","WebKit","Chrome","137.0.0.0","Windows","10.0","https://app.prolific.com/","it-IT,it;q=0.9,en-US;q=0.8,en;q=0.7","672f7b856c1ce6995a666bc6","683db7602f5db6a34d12d064","686e52d4daec7f57b46bf7cd","1","672f7b856c1ce6995a666bc6","1","2025-07-09T11:44:52.743Z","","","","","","","","","","","","","","win-only","2","g1:SE,g2:NW","0.2","9","0","790907.2","2740.8","7744.6","35306.1","1","4","8","6","2","-8","-8","0","0","0","1230","3000","-2795","[""left"",""up""]","{""num_key_presses"":9,""num_perfect"":2,""num_errors"":0,""num_randdir"":7,""num_randdir_good_moves"":4,""num_whilered"":0,""num_whileblue"":0,""num_blue"":0,""num_good_moves"":6}","[421.5714133126395,411.57142761775424,0.7,421.5714133126395,411.57142761775424,103.8,421.5714133126395,411.57142761775424,206.5,426.5714133126395,406.57142761775424,306.5,431.5714133126395,400.32142761775424,408.3,436.5714133126395,356.57142761775424,511.7,311.5714133126395,107.82142761775425,615.8,284.0714133126395,81.57142761775425,721,216.5714133126395,60.32142761775425,825.2,205.3214133126395,62.82142761775425,925.6,191.5714133126395,65.32142761775425,1026.7,76.5714133126395,85.32142761775425,1131.4,75.3214133126395,84.07142761775425,1231.5,75.3214133126395,84.07142761775425,1332.2,95.3214133126395,104.07142761775425,1437,299.0714133126395,260.32142761775424,1541.7,441.5714133126395,336.57142761775424,1644.9,480.3214133126395,361.57142761775424,1749.1,499.0714133126395,376.57142761775424,1851.7,499.0714133126395,376.57142761775424,1957.4,499.0714133126395,376.57142761775424,2060.1,499.0714133126395,376.57142761775424,2161.4,499.0714133126395,376.57142761775424,2268.6,499.0714133126395,376.57142761775424,2373.8,499.0714133126395,376.57142761775424,2477.7,499.0714133126395,376.57142761775424,2582.8,499.0714133126395,376.57142761775424,2686.3,499.0714133126395,376.57142761775424,2791,499.0714133126395,376.57142761775424,2894.9,499.0714133126395,376.57142761775424,2998,499.0714133126395,376.57142761775424,3102.2,499.0714133126395,376.57142761775424,3208.3,499.0714133126395,376.57142761775424,3310.3,499.0714133126395,376.57142761775424,3415.9,499.0714133126395,376.57142761775424,3520.7,499.0714133126395,376.57142761775424,3628.7,499.0714133126395,376.57142761775424,3729.3,499.0714133126395,376.57142761775424,3833.9,499.0714133126395,376.57142761775424,3935.4,499.0714133126395,376.57142761775424,4037.3,499.0714133126395,376.57142761775424,4143.3,499.0714133126395,376.57142761775424,4245,499.0714133126395,376.57142761775424,4351.6,499.0714133126395,376.57142761775424,4457.1,499.0714133126395,376.57142761775424,4560.6,499.0714133126395,376.57142761775424,4663.8,499.0714133126395,376.57142761775424,4763.8,499.0714133126395,376.57142761775424,4866.5,499.0714133126395,376.57142761775424,4969.8]","[1716.4,1716.4,1000,0,716.4,""oops"",""up"",""left"",""good_move"",4240.5,2523.6,2236.8,1716.9,286.8,""oops"",""up"",""up"",""good_move"",6597.9,2357.1,2048,4240.8,309.1,""oops"",""up"",""left"",""good_move"",9795.5,3197.4,2893,6598.1,304.4,""oops"",""up"",""left"",""good_move"",12332.3,2536.4,2253.1,9795.9,283.3,""oops"",""up"",""down"",""bad_move"",15684.8,3352.2,3073,12332.6,279.2,""smooth"",""up"",""up"",""good_move"",18476.4,2791.2,2453.6,15685.4,337.5,""smooth"",""up"",""up"",""good_move"",21656.8,3179.9,2848.5,18476.9,331.4,""oops"",""up"",""down"",""bad_move"",25046.2,3388.7,3080.3,21657.5,308.5,""oops"",""up"",""down"",""bad_move""]","",""
"3332","","<div style=""width:500px;"">
  <p>What determined the result of this run?</p>
  </div>","41","html-slider-response","50","830637","0.0-5.0-1.8","29","1","2025-07-09 11:31:05","01610cd0009c79a99da7d0a3353eb402","82.53.76.206","Mozilla/5.0 (Windows NT 10.0; Win64; x64) AppleWebKit/537.36 (KHTML, like Gecko) Chrome/137.0.0.0 Safari/537.36","WebKit","Chrome","137.0.0.0","Windows","10.0","https://app.prolific.com/","it-IT,it;q=0.9,en-US;q=0.8,en;q=0.7","672f7b856c1ce6995a666bc6","683db7602f5db6a34d12d064","686e52d4daec7f57b46bf7cd","1","672f7b856c1ce6995a666bc6","1","2025-07-09T11:44:56.076Z","","","","","","","","","","","AttribQ","","50","","","","","","","","","","","","","","","","","","","","","","","","","","","","",""
"3586","","<div style=""width:500px;"">
  <p>How much control did you have over the ball?</p>
  </div>","41","html-slider-response","51","834226","0.0-5.0-2.8","29","1","2025-07-09 11:31:05","01610cd0009c79a99da7d0a3353eb402","82.53.76.206","Mozilla/5.0 (Windows NT 10.0; Win64; x64) AppleWebKit/537.36 (KHTML, like Gecko) Chrome/137.0.0.0 Safari/537.36","WebKit","Chrome","137.0.0.0","Windows","10.0","https://app.prolific.com/","it-IT,it;q=0.9,en-US;q=0.8,en;q=0.7","672f7b856c1ce6995a666bc6","683db7602f5db6a34d12d064","686e52d4daec7f57b46bf7cd","1","672f7b856c1ce6995a666bc6","1","2025-07-09T11:44:59.665Z","","","","","","","","","","","ControlQ","","50","","","","","","","","","","","","","","","","","","","","","","","","","","","","",""
"4310","","<div style=""width:500px;"">
  <p>How would you describe your current emotional state?</p>
  </div>","70","html-slider-response","52","838538","0.0-5.0-3.8","29","1","2025-07-09 11:31:05","01610cd0009c79a99da7d0a3353eb402","82.53.76.206","Mozilla/5.0 (Windows NT 10.0; Win64; x64) AppleWebKit/537.36 (KHTML, like Gecko) Chrome/137.0.0.0 Safari/537.36","WebKit","Chrome","137.0.0.0","Windows","10.0","https://app.prolific.com/","it-IT,it;q=0.9,en-US;q=0.8,en;q=0.7","672f7b856c1ce6995a666bc6","683db7602f5db6a34d12d064","686e52d4daec7f57b46bf7cd","1","672f7b856c1ce6995a666bc6","1","2025-07-09T11:45:03.977Z","","","","","","","","","","","StressQ","","50","","","","","","","","","","","","","","","","","","","","","","","","","","","","",""
"2018","","<div style=""width:500px;"">
  <p>What best describes how you currently feel?</p>
  </div>","22","html-slider-response","53","840557","0.0-5.0-4.8","29","1","2025-07-09 11:31:05","01610cd0009c79a99da7d0a3353eb402","82.53.76.206","Mozilla/5.0 (Windows NT 10.0; Win64; x64) AppleWebKit/537.36 (KHTML, like Gecko) Chrome/137.0.0.0 Safari/537.36","WebKit","Chrome","137.0.0.0","Windows","10.0","https://app.prolific.com/","it-IT,it;q=0.9,en-US;q=0.8,en;q=0.7","672f7b856c1ce6995a666bc6","683db7602f5db6a34d12d064","686e52d4daec7f57b46bf7cd","1","672f7b856c1ce6995a666bc6","1","2025-07-09T11:45:05.996Z","","","","","","","","","","","MotivationQ","","50","","","","","","","","","","","","","","","","","","","","","","","","","","","","",""
"","","","","ctl-task-cpt","54","894532","0.0-5.0-0.9","29","1","2025-07-09 11:31:05","01610cd0009c79a99da7d0a3353eb402","82.53.76.206","Mozilla/5.0 (Windows NT 10.0; Win64; x64) AppleWebKit/537.36 (KHTML, like Gecko) Chrome/137.0.0.0 Safari/537.36","WebKit","Chrome","137.0.0.0","Windows","10.0","https://app.prolific.com/","it-IT,it;q=0.9,en-US;q=0.8,en;q=0.7","672f7b856c1ce6995a666bc6","683db7602f5db6a34d12d064","686e52d4daec7f57b46bf7cd","1","672f7b856c1ce6995a666bc6","1","2025-07-09T11:45:59.971Z","","","","","","","","","","","","","","win-only","3","g1:SW,g2:NE","0.4","10","0","842490.2","2295.8","7300","50953.5","1","4","4","6","2","-4","-4","0","0","0","838.1","3000","-2920","[""up"",""right""]","{""num_key_presses"":8,""num_perfect"":3,""num_errors"":0,""num_randdir"":5,""num_randdir_good_moves"":2,""num_whilered"":0,""num_whileblue"":0,""num_blue"":6,""num_good_moves"":5}","[412.8214133126395,417.82142761775424,1.1,412.8214133126395,417.82142761775424,102,424.0714133126395,406.57142761775424,202.5,480.3214133126395,296.57142761775424,304.7,552.8214133126395,190.32142761775424,412.9,524.0714133126395,236.57142761775424,514.3,694.0714133126395,124.07142761775425,614.6,754.0714133126395,92.82142761775425,715.5,755.3214133126395,92.82142761775425,815.6,755.3214133126395,92.82142761775425,916.1,746.5714133126395,140.32142761775424,1016.1,826.5714133126395,266.57142761775424,1118.3,959.0714133126395,306.57142761775424,1221,971.5714133126395,306.57142761775424,1326.1,986.5714133126395,301.57142761775424,1427.3,987.8214133126395,301.57142761775424,1533.4,987.8214133126395,301.57142761775424,1637.3,987.8214133126395,301.57142761775424,1742.7,987.8214133126395,301.57142761775424,1846.8,987.8214133126395,301.57142761775424,1950.9,987.8214133126395,301.57142761775424,2056.3,987.8214133126395,301.57142761775424,2158.3,987.8214133126395,301.57142761775424,2258.2,987.8214133126395,301.57142761775424,2359.2,987.8214133126395,301.57142761775424,2461.4,987.8214133126395,301.57142761775424,2564.8,987.8214133126395,301.57142761775424,2665,987.8214133126395,301.57142761775424,2769.5,987.8214133126395,301.57142761775424,2873.6,987.8214133126395,301.57142761775424,2978.4,987.8214133126395,301.57142761775424,3082,987.8214133126395,301.57142761775424,3187.9,987.8214133126395,301.57142761775424,3291.5,987.8214133126395,301.57142761775424,3395.7,987.8214133126395,301.57142761775424,3498.8,987.8214133126395,301.57142761775424,3601.8,987.8214133126395,301.57142761775424,3706.6,987.8214133126395,301.57142761775424,3811.4,987.8214133126395,301.57142761775424,3916.2,987.8214133126395,301.57142761775424,4019.2,987.8214133126395,301.57142761775424,4120.5,987.8214133126395,301.57142761775424,4220.8,987.8214133126395,301.57142761775424,4321.1,987.8214133126395,301.57142761775424,4422,987.8214133126395,301.57142761775424,4525,987.8214133126395,301.57142761775424,4625.7,987.8214133126395,301.57142761775424,4726.2,987.8214133126395,301.57142761775424,4831.8,987.8214133126395,301.57142761775424,4934.5]","[1509.1,1509.1,1000,0,509.1,""oops"",""up"",""left"",""bad_move"",3544.7,2035.1,1697,1509.7,338,""smooth"",""up"",""up"",""good_move"",9983.6,6438.2,2319.6,7301.6,362.4,""smooth"",""right"",""right"",""good_move"",12417.8,2433.4,2092.9,9984.4,340.5,""oops"",""right"",""down"",""bad_move"",15321.9,2903.8,2613.4,12418.1,290.4,""oops"",""up"",""up"",""good_move"",17750.3,2428,2091.6,15322.4,336.4,""oops"",""up"",""up"",""good_move"",20764.2,3013,2582.1,17751.2,430.9,""oops"",""up"",""down"",""bad_move"",41649.8,20884.8,2894.3,38342.4,413.1,""smooth"",""right"",""right"",""good_move""]","",""
"3426","","<div style=""width:500px;"">
  <p>What determined the result of this run?</p>
  </div>","28","html-slider-response","55","897959","0.0-5.0-1.9","29","1","2025-07-09 11:31:05","01610cd0009c79a99da7d0a3353eb402","82.53.76.206","Mozilla/5.0 (Windows NT 10.0; Win64; x64) AppleWebKit/537.36 (KHTML, like Gecko) Chrome/137.0.0.0 Safari/537.36","WebKit","Chrome","137.0.0.0","Windows","10.0","https://app.prolific.com/","it-IT,it;q=0.9,en-US;q=0.8,en;q=0.7","672f7b856c1ce6995a666bc6","683db7602f5db6a34d12d064","686e52d4daec7f57b46bf7cd","1","672f7b856c1ce6995a666bc6","1","2025-07-09T11:46:03.398Z","","","","","","","","","","","AttribQ","","50","","","","","","","","","","","","","","","","","","","","","","","","","","","","",""
"2842","","<div style=""width:500px;"">
  <p>How much control did you have over the ball?</p>
  </div>","28","html-slider-response","56","900804","0.0-5.0-2.9","29","1","2025-07-09 11:31:05","01610cd0009c79a99da7d0a3353eb402","82.53.76.206","Mozilla/5.0 (Windows NT 10.0; Win64; x64) AppleWebKit/537.36 (KHTML, like Gecko) Chrome/137.0.0.0 Safari/537.36","WebKit","Chrome","137.0.0.0","Windows","10.0","https://app.prolific.com/","it-IT,it;q=0.9,en-US;q=0.8,en;q=0.7","672f7b856c1ce6995a666bc6","683db7602f5db6a34d12d064","686e52d4daec7f57b46bf7cd","1","672f7b856c1ce6995a666bc6","1","2025-07-09T11:46:06.243Z","","","","","","","","","","","ControlQ","","50","","","","","","","","","","","","","","","","","","","","","","","","","","","","",""
"1893","","<div style=""width:500px;"">
  <p>How would you describe your current emotional state?</p>
  </div>","70","html-slider-response","57","902700","0.0-5.0-3.9","29","1","2025-07-09 11:31:05","01610cd0009c79a99da7d0a3353eb402","82.53.76.206","Mozilla/5.0 (Windows NT 10.0; Win64; x64) AppleWebKit/537.36 (KHTML, like Gecko) Chrome/137.0.0.0 Safari/537.36","WebKit","Chrome","137.0.0.0","Windows","10.0","https://app.prolific.com/","it-IT,it;q=0.9,en-US;q=0.8,en;q=0.7","672f7b856c1ce6995a666bc6","683db7602f5db6a34d12d064","686e52d4daec7f57b46bf7cd","1","672f7b856c1ce6995a666bc6","1","2025-07-09T11:46:08.139Z","","","","","","","","","","","StressQ","","50","","","","","","","","","","","","","","","","","","","","","","","","","","","","",""
"1712","","<div style=""width:500px;"">
  <p>What best describes how you currently feel?</p>
  </div>","30","html-slider-response","58","904414","0.0-5.0-4.9","29","1","2025-07-09 11:31:05","01610cd0009c79a99da7d0a3353eb402","82.53.76.206","Mozilla/5.0 (Windows NT 10.0; Win64; x64) AppleWebKit/537.36 (KHTML, like Gecko) Chrome/137.0.0.0 Safari/537.36","WebKit","Chrome","137.0.0.0","Windows","10.0","https://app.prolific.com/","it-IT,it;q=0.9,en-US;q=0.8,en;q=0.7","672f7b856c1ce6995a666bc6","683db7602f5db6a34d12d064","686e52d4daec7f57b46bf7cd","1","672f7b856c1ce6995a666bc6","1","2025-07-09T11:46:09.853Z","","","","","","","","","","","MotivationQ","","50","","","","","","","","","","","","","","","","","","","","","","","","","","","","",""
"","","","","ctl-task-cpt","59","937247","0.0-5.0-0.10","29","1","2025-07-09 11:31:05","01610cd0009c79a99da7d0a3353eb402","82.53.76.206","Mozilla/5.0 (Windows NT 10.0; Win64; x64) AppleWebKit/537.36 (KHTML, like Gecko) Chrome/137.0.0.0 Safari/537.36","WebKit","Chrome","137.0.0.0","Windows","10.0","https://app.prolific.com/","it-IT,it;q=0.9,en-US;q=0.8,en;q=0.7","672f7b856c1ce6995a666bc6","683db7602f5db6a34d12d064","686e52d4daec7f57b46bf7cd","1","672f7b856c1ce6995a666bc6","1","2025-07-09T11:46:42.686Z","","","","","","","","","","","","","","win-only","3","g1:SW,g2:NE","0.5","11","0","906345.5","751.1","5752.2","29811.3","1","4","8","6","2","8","8","8","0","0.06060606060606061","787.1","3000","1120","[""up"",""right""]","{""num_key_presses"":6,""num_perfect"":3,""num_errors"":0,""num_randdir"":3,""num_randdir_good_moves"":3,""num_whilered"":0,""num_whileblue"":0,""num_blue"":2,""num_good_moves"":6}","[417.8214133126395,414.07142761775424,0.5,421.5714133126395,412.82142761775424,100.3,440.3214133126395,357.82142761775424,201.1,586.5714133126395,206.57142761775424,306.3,692.8214133126395,142.82142761775424,409.5,697.8214133126395,126.57142761775425,514.1,717.8214133126395,86.57142761775425,615.2,766.5714133126395,51.57142761775425,722.9,772.8214133126395,51.57142761775425,825.9,772.8214133126395,51.57142761775425,926.2,786.5714133126395,131.57142761775424,1029.1,1104.0714133126396,379.07142761775424,1131.6,1146.5714133126396,385.32142761775424,1236,1146.5714133126396,385.32142761775424,1336.3,1146.5714133126396,385.32142761775424,1436.6,1146.5714133126396,385.32142761775424,1540.8,1146.5714133126396,385.32142761775424,1644.8,1146.5714133126396,385.32142761775424,1749,1146.5714133126396,385.32142761775424,1850,1146.5714133126396,385.32142761775424,1952,1146.5714133126396,385.32142761775424,2055.9,1146.5714133126396,385.32142761775424,2158.6,1146.5714133126396,385.32142761775424,2262.7,1146.5714133126396,385.32142761775424,2366.1,1146.5714133126396,385.32142761775424,2471.2,1146.5714133126396,385.32142761775424,2576.7,1146.5714133126396,385.32142761775424,2680.9,1146.5714133126396,385.32142761775424,2784,1146.5714133126396,385.32142761775424,2888.4,1146.5714133126396,385.32142761775424,2989.1,1146.5714133126396,385.32142761775424,3089.1,1146.5714133126396,385.32142761775424,3189.1,1146.5714133126396,385.32142761775424,3289.9,1146.5714133126396,385.32142761775424,3393.6,1146.5714133126396,385.32142761775424,3495.9,1146.5714133126396,385.32142761775424,3596.5,1146.5714133126396,385.32142761775424,3696.8,1146.5714133126396,385.32142761775424,3799.6,1146.5714133126396,385.32142761775424,3901,1146.5714133126396,385.32142761775424,4004.9,1146.5714133126396,385.32142761775424,4105.5,1146.5714133126396,385.32142761775424,4210.3,1146.5714133126396,385.32142761775424,4311.3,1146.5714133126396,385.32142761775424,4415.2,1146.5714133126396,385.32142761775424,4519.4,1146.5714133126396,385.32142761775424,4619.6,1146.5714133126396,385.32142761775424,4721.4,1146.5714133126396,385.32142761775424,4827.2,1146.5714133126396,385.32142761775424,4930]","[1375.9,1375.9,1000,0,375.9,""smooth"",""right"",""right"",""good_move"",8106.9,6730.2,2834.7,4961.7,310.5,""oops"",""right"",""up"",""good_move"",10663.4,2556,2213.3,8107.4,342.7,""smooth"",""right"",""right"",""good_move"",13489.7,2825.9,2501.8,10663.8,324.1,""oops"",""up"",""up"",""good_move"",20882.1,7391.7,2815,17759.3,307.8,""smooth"",""up"",""up"",""good_move"",23967.5,3085.2,2759,20882.3,326.2,""oops"",""right"",""right"",""good_move""]","",""
"23991","","<div style=""width:500px;"">
  <p>What determined the result of this run?</p>
  </div>","61","html-slider-response","60","961239","0.0-5.0-1.10","29","1","2025-07-09 11:31:05","01610cd0009c79a99da7d0a3353eb402","82.53.76.206","Mozilla/5.0 (Windows NT 10.0; Win64; x64) AppleWebKit/537.36 (KHTML, like Gecko) Chrome/137.0.0.0 Safari/537.36","WebKit","Chrome","137.0.0.0","Windows","10.0","https://app.prolific.com/","it-IT,it;q=0.9,en-US;q=0.8,en;q=0.7","672f7b856c1ce6995a666bc6","683db7602f5db6a34d12d064","686e52d4daec7f57b46bf7cd","1","672f7b856c1ce6995a666bc6","1","2025-07-09T11:47:06.678Z","","","","","","","","","","","AttribQ","","50","","","","","","","","","","","","","","","","","","","","","","","","","","","","",""
"14746","","<div style=""width:500px;"">
  <p>How much control did you have over the ball?</p>
  </div>","62","html-slider-response","61","975986","0.0-5.0-2.10","29","1","2025-07-09 11:31:05","01610cd0009c79a99da7d0a3353eb402","82.53.76.206","Mozilla/5.0 (Windows NT 10.0; Win64; x64) AppleWebKit/537.36 (KHTML, like Gecko) Chrome/137.0.0.0 Safari/537.36","WebKit","Chrome","137.0.0.0","Windows","10.0","https://app.prolific.com/","it-IT,it;q=0.9,en-US;q=0.8,en;q=0.7","672f7b856c1ce6995a666bc6","683db7602f5db6a34d12d064","686e52d4daec7f57b46bf7cd","1","672f7b856c1ce6995a666bc6","1","2025-07-09T11:47:21.425Z","","","","","","","","","","","ControlQ","","50","","","","","","","","","","","","","","","","","","","","","","","","","","","","",""
"18075","","<div style=""width:500px;"">
  <p>How would you describe your current emotional state?</p>
  </div>","62","html-slider-response","62","994062","0.0-5.0-3.10","29","1","2025-07-09 11:31:05","01610cd0009c79a99da7d0a3353eb402","82.53.76.206","Mozilla/5.0 (Windows NT 10.0; Win64; x64) AppleWebKit/537.36 (KHTML, like Gecko) Chrome/137.0.0.0 Safari/537.36","WebKit","Chrome","137.0.0.0","Windows","10.0","https://app.prolific.com/","it-IT,it;q=0.9,en-US;q=0.8,en;q=0.7","672f7b856c1ce6995a666bc6","683db7602f5db6a34d12d064","686e52d4daec7f57b46bf7cd","1","672f7b856c1ce6995a666bc6","1","2025-07-09T11:47:39.501Z","","","","","","","","","","","StressQ","","50","","","","","","","","","","","","","","","","","","","","","","","","","","","","",""
"2343","","<div style=""width:500px;"">
  <p>What best describes how you currently feel?</p>
  </div>","26","html-slider-response","63","996406","0.0-5.0-4.10","29","1","2025-07-09 11:31:05","01610cd0009c79a99da7d0a3353eb402","82.53.76.206","Mozilla/5.0 (Windows NT 10.0; Win64; x64) AppleWebKit/537.36 (KHTML, like Gecko) Chrome/137.0.0.0 Safari/537.36","WebKit","Chrome","137.0.0.0","Windows","10.0","https://app.prolific.com/","it-IT,it;q=0.9,en-US;q=0.8,en;q=0.7","672f7b856c1ce6995a666bc6","683db7602f5db6a34d12d064","686e52d4daec7f57b46bf7cd","1","672f7b856c1ce6995a666bc6","1","2025-07-09T11:47:41.845Z","","","","","","","","","","","MotivationQ","","50","","","","","","","","","","","","","","","","","","","","","","","","","","","","",""
"","","","","ctl-task-cpt","64","1020791","0.0-5.0-0.11","29","1","2025-07-09 11:31:05","01610cd0009c79a99da7d0a3353eb402","82.53.76.206","Mozilla/5.0 (Windows NT 10.0; Win64; x64) AppleWebKit/537.36 (KHTML, like Gecko) Chrome/137.0.0.0 Safari/537.36","WebKit","Chrome","137.0.0.0","Windows","10.0","https://app.prolific.com/","it-IT,it;q=0.9,en-US;q=0.8,en;q=0.7","672f7b856c1ce6995a666bc6","683db7602f5db6a34d12d064","686e52d4daec7f57b46bf7cd","1","672f7b856c1ce6995a666bc6","1","2025-07-09T11:48:06.230Z","","","","","","","","","","","","","","win-only","3","g1:SW,g2:NE","0.6","12","0","998337.4","1576.5","6582.4","21361.8","1","4","4","6","1","1","1","9","8","0.06818181818181818","1735.9","3000","2325","[""down"",""left""]","{""num_key_presses"":4,""num_perfect"":3,""num_errors"":0,""num_randdir"":1,""num_randdir_good_moves"":1,""num_whilered"":0,""num_whileblue"":0,""num_blue"":1,""num_good_moves"":4}","[415.3214133126395,415.32142761775424,0.2,415.3214133126395,415.32142761775424,106.3,415.3214133126395,415.32142761775424,214.4,415.3214133126395,415.32142761775424,330.4,415.3214133126395,415.32142761775424,431.6,415.3214133126395,415.32142761775424,539.8,414.0714133126395,417.82142761775424,645.4,414.0714133126395,420.32142761775424,749.3,409.0714133126395,425.32142761775424,853.1,350.3214133126395,465.32142761775424,964.4,304.0714133126395,507.82142761775424,1068.4,217.8214133126395,566.5714276177542,1174.1,166.5714133126395,610.3214276177542,1284.1,150.3214133126395,631.5714276177542,1394.1,141.5714133126395,665.3214276177542,1504.5,125.3214133126395,705.3214276177542,1615.1,122.8214133126395,711.5714276177542,1720.5,122.8214133126395,711.5714276177542,1828.9,122.8214133126395,711.5714276177542,1937,162.8214133126395,705.3214276177542,2047.8,330.3214133126395,690.3214276177542,2157.5,451.5714133126395,689.0714276177542,2266.7,535.3214133126395,684.0714276177542,2374.7,614.0714133126395,682.8214276177542,2475.8,641.5714133126395,687.8214276177542,2582.2,641.5714133126395,687.8214276177542,2688.6,641.5714133126395,687.8214276177542,2794.5,641.5714133126395,687.8214276177542,2898.1,641.5714133126395,687.8214276177542,3001.4,641.5714133126395,687.8214276177542,3102,641.5714133126395,687.8214276177542,3207.6,641.5714133126395,687.8214276177542,3309.5,641.5714133126395,687.8214276177542,3411.7,641.5714133126395,687.8214276177542,3516,641.5714133126395,687.8214276177542,3623.4,641.5714133126395,687.8214276177542,3729.7,641.5714133126395,687.8214276177542,3830.3,641.5714133126395,687.8214276177542,3942.2,641.5714133126395,687.8214276177542,4045.8,641.5714133126395,687.8214276177542,4151.6,641.5714133126395,687.8214276177542,4260.3,641.5714133126395,687.8214276177542,4363.9,641.5714133126395,687.8214276177542,4464.8,641.5714133126395,687.8214276177542,4565.3,641.5714133126395,687.8214276177542,4673.2,641.5714133126395,687.8214276177542,4775.6,641.5714133126395,687.8214276177542,4880,641.5714133126395,687.8214276177542,4986.4]","[4835.3,4835.3,2387.1,2002.3,445.9,""oops"",""down"",""down"",""good_move"",7878.1,3042.5,2717.3,4835.6,325.2,""smooth"",""down"",""down"",""good_move"",11541,3662.8,3283,7878.2,379.8,""smooth"",""left"",""left"",""good_move"",14563.8,3022.5,2661.7,11541.3,360.8,""smooth"",""left"",""left"",""good_move""]","",""
"2322","","<div style=""width:500px;"">
  <p>What determined the result of this run?</p>
  </div>","86","html-slider-response","65","1023114","0.0-5.0-1.11","29","1","2025-07-09 11:31:05","01610cd0009c79a99da7d0a3353eb402","82.53.76.206","Mozilla/5.0 (Windows NT 10.0; Win64; x64) AppleWebKit/537.36 (KHTML, like Gecko) Chrome/137.0.0.0 Safari/537.36","WebKit","Chrome","137.0.0.0","Windows","10.0","https://app.prolific.com/","it-IT,it;q=0.9,en-US;q=0.8,en;q=0.7","672f7b856c1ce6995a666bc6","683db7602f5db6a34d12d064","686e52d4daec7f57b46bf7cd","1","672f7b856c1ce6995a666bc6","1","2025-07-09T11:48:08.553Z","","","","","","","","","","","AttribQ","","50","","","","","","","","","","","","","","","","","","","","","","","","","","","","",""
"1614","","<div style=""width:500px;"">
  <p>How much control did you have over the ball?</p>
  </div>","87","html-slider-response","66","1024730","0.0-5.0-2.11","29","1","2025-07-09 11:31:05","01610cd0009c79a99da7d0a3353eb402","82.53.76.206","Mozilla/5.0 (Windows NT 10.0; Win64; x64) AppleWebKit/537.36 (KHTML, like Gecko) Chrome/137.0.0.0 Safari/537.36","WebKit","Chrome","137.0.0.0","Windows","10.0","https://app.prolific.com/","it-IT,it;q=0.9,en-US;q=0.8,en;q=0.7","672f7b856c1ce6995a666bc6","683db7602f5db6a34d12d064","686e52d4daec7f57b46bf7cd","1","672f7b856c1ce6995a666bc6","1","2025-07-09T11:48:10.169Z","","","","","","","","","","","ControlQ","","50","","","","","","","","","","","","","","","","","","","","","","","","","","","","",""
"2166","","<div style=""width:500px;"">
  <p>How would you describe your current emotional state?</p>
  </div>","64","html-slider-response","67","1026898","0.0-5.0-3.11","29","1","2025-07-09 11:31:05","01610cd0009c79a99da7d0a3353eb402","82.53.76.206","Mozilla/5.0 (Windows NT 10.0; Win64; x64) AppleWebKit/537.36 (KHTML, like Gecko) Chrome/137.0.0.0 Safari/537.36","WebKit","Chrome","137.0.0.0","Windows","10.0","https://app.prolific.com/","it-IT,it;q=0.9,en-US;q=0.8,en;q=0.7","672f7b856c1ce6995a666bc6","683db7602f5db6a34d12d064","686e52d4daec7f57b46bf7cd","1","672f7b856c1ce6995a666bc6","1","2025-07-09T11:48:12.337Z","","","","","","","","","","","StressQ","","50","","","","","","","","","","","","","","","","","","","","","","","","","","","","",""
"2336","","<div style=""width:500px;"">
  <p>What best describes how you currently feel?</p>
  </div>","19","html-slider-response","68","1029236","0.0-5.0-4.11","29","1","2025-07-09 11:31:05","01610cd0009c79a99da7d0a3353eb402","82.53.76.206","Mozilla/5.0 (Windows NT 10.0; Win64; x64) AppleWebKit/537.36 (KHTML, like Gecko) Chrome/137.0.0.0 Safari/537.36","WebKit","Chrome","137.0.0.0","Windows","10.0","https://app.prolific.com/","it-IT,it;q=0.9,en-US;q=0.8,en;q=0.7","672f7b856c1ce6995a666bc6","683db7602f5db6a34d12d064","686e52d4daec7f57b46bf7cd","1","672f7b856c1ce6995a666bc6","1","2025-07-09T11:48:14.675Z","","","","","","","","","","","MotivationQ","","50","","","","","","","","","","","","","","","","","","","","","","","","","","","","",""
"","","","","ctl-task-cpt","69","1075002","0.0-5.0-0.12","29","1","2025-07-09 11:31:05","01610cd0009c79a99da7d0a3353eb402","82.53.76.206","Mozilla/5.0 (Windows NT 10.0; Win64; x64) AppleWebKit/537.36 (KHTML, like Gecko) Chrome/137.0.0.0 Safari/537.36","WebKit","Chrome","137.0.0.0","Windows","10.0","https://app.prolific.com/","it-IT,it;q=0.9,en-US;q=0.8,en;q=0.7","672f7b856c1ce6995a666bc6","683db7602f5db6a34d12d064","686e52d4daec7f57b46bf7cd","1","672f7b856c1ce6995a666bc6","1","2025-07-09T11:49:00.441Z","","","","","","","","","","","","","","win-only","0","g1:NW,g2:SE","0.7","13","0","1031167.4","663.2","5672.3","42747.9","1","4","8","6","1","1","1","10","9","0.07575757575757576","1466.9","3000","1865","[""left"",""up""]","{""num_key_presses"":8,""num_perfect"":6,""num_errors"":0,""num_randdir"":2,""num_randdir_good_moves"":0,""num_whilered"":0,""num_whileblue"":0,""num_blue"":4,""num_good_moves"":6}","[416.5714133126395,411.57142761775424,0.3,416.5714133126395,411.57142761775424,100.5,417.8214133126395,405.32142761775424,201,416.5714133126395,374.07142761775424,307.7,410.3214133126395,374.07142761775424,409,559.0714133126395,437.82142761775424,510.5,706.5714133126395,580.3214276177542,620.2,691.5714133126395,584.0714276177542,721.5,690.3214133126395,586.5714276177542,825,584.0714133126395,546.5714276177542,936.2,-53.42858668736049,135.32142761775424,1042,-108.4285866873605,76.57142761775425,1148.4,-89.6785866873605,57.82142761775425,1260.8,1.571413312639507,61.57142761775425,1368.3,11.571413312639507,61.57142761775425,1478.4,11.571413312639507,61.57142761775425,1580.9,92.8214133126395,106.57142761775425,1682.6,480.3214133126395,222.82142761775424,1789.9,641.5714133126395,266.57142761775424,1891.9,666.5714133126395,271.57142761775424,1999,915.3214133126395,301.57142761775424,2102.5,1045.3214133126396,320.32142761775424,2213.5,1042.8214133126396,317.82142761775424,2325.5,1041.5714133126396,315.32142761775424,2431.9,1041.5714133126396,315.32142761775424,2538.6,1041.5714133126396,315.32142761775424,2642.5,1041.5714133126396,315.32142761775424,2742.6,1041.5714133126396,315.32142761775424,2853.3,1041.5714133126396,315.32142761775424,2954.2,1041.5714133126396,315.32142761775424,3062.5,1041.5714133126396,315.32142761775424,3167.3,1041.5714133126396,315.32142761775424,3268.8,1041.5714133126396,315.32142761775424,3371.8,1041.5714133126396,315.32142761775424,3474.6,1041.5714133126396,315.32142761775424,3578,1041.5714133126396,315.32142761775424,3683.1,1041.5714133126396,315.32142761775424,3783.7,1041.5714133126396,315.32142761775424,3893.9,1041.5714133126396,315.32142761775424,3999.3,1041.5714133126396,315.32142761775424,4101.7,1041.5714133126396,315.32142761775424,4206.6,1041.5714133126396,315.32142761775424,4313,1041.5714133126396,315.32142761775424,4413,1041.5714133126396,315.32142761775424,4520,1041.5714133126396,315.32142761775424,4628.5,1041.5714133126396,315.32142761775424,4729,1041.5714133126396,315.32142761775424,4837.4,1041.5714133126396,315.32142761775424,4937.9]","[1339.1,1339.1,1000,0,339.1,""smooth"",""up"",""up"",""good_move"",12254.5,10915,3360.9,8563.9,329.7,""oops"",""left"",""right"",""bad_move"",22257.6,10002.7,3078.5,18878.9,300.2,""smooth"",""left"",""left"",""good_move"",25011.6,2753.7,2401.1,22257.9,352.6,""smooth"",""left"",""left"",""good_move"",27908,2896.3,2568.7,25011.7,327.6,""oops"",""up"",""down"",""bad_move"",30477.6,2569,2222.9,27908.6,346.1,""smooth"",""up"",""up"",""good_move"",32993.8,2515.8,2198.4,30478,317.4,""smooth"",""up"",""up"",""good_move"",36897,3902.9,3562.1,32994.1,340.8,""smooth"",""left"",""left"",""good_move""]","",""
"2877","","<div style=""width:500px;"">
  <p>What determined the result of this run?</p>
  </div>","57","html-slider-response","70","1077880","0.0-5.0-1.12","29","1","2025-07-09 11:31:05","01610cd0009c79a99da7d0a3353eb402","82.53.76.206","Mozilla/5.0 (Windows NT 10.0; Win64; x64) AppleWebKit/537.36 (KHTML, like Gecko) Chrome/137.0.0.0 Safari/537.36","WebKit","Chrome","137.0.0.0","Windows","10.0","https://app.prolific.com/","it-IT,it;q=0.9,en-US;q=0.8,en;q=0.7","672f7b856c1ce6995a666bc6","683db7602f5db6a34d12d064","686e52d4daec7f57b46bf7cd","1","672f7b856c1ce6995a666bc6","1","2025-07-09T11:49:03.319Z","","","","","","","","","","","AttribQ","","50","","","","","","","","","","","","","","","","","","","","","","","","","","","","",""
"2125","","<div style=""width:500px;"">
  <p>How much control did you have over the ball?</p>
  </div>","58","html-slider-response","71","1080006","0.0-5.0-2.12","29","1","2025-07-09 11:31:05","01610cd0009c79a99da7d0a3353eb402","82.53.76.206","Mozilla/5.0 (Windows NT 10.0; Win64; x64) AppleWebKit/537.36 (KHTML, like Gecko) Chrome/137.0.0.0 Safari/537.36","WebKit","Chrome","137.0.0.0","Windows","10.0","https://app.prolific.com/","it-IT,it;q=0.9,en-US;q=0.8,en;q=0.7","672f7b856c1ce6995a666bc6","683db7602f5db6a34d12d064","686e52d4daec7f57b46bf7cd","1","672f7b856c1ce6995a666bc6","1","2025-07-09T11:49:05.445Z","","","","","","","","","","","ControlQ","","50","","","","","","","","","","","","","","","","","","","","","","","","","","","","",""
"2107","","<div style=""width:500px;"">
  <p>How would you describe your current emotional state?</p>
  </div>","64","html-slider-response","72","1082114","0.0-5.0-3.12","29","1","2025-07-09 11:31:05","01610cd0009c79a99da7d0a3353eb402","82.53.76.206","Mozilla/5.0 (Windows NT 10.0; Win64; x64) AppleWebKit/537.36 (KHTML, like Gecko) Chrome/137.0.0.0 Safari/537.36","WebKit","Chrome","137.0.0.0","Windows","10.0","https://app.prolific.com/","it-IT,it;q=0.9,en-US;q=0.8,en;q=0.7","672f7b856c1ce6995a666bc6","683db7602f5db6a34d12d064","686e52d4daec7f57b46bf7cd","1","672f7b856c1ce6995a666bc6","1","2025-07-09T11:49:07.553Z","","","","","","","","","","","StressQ","","50","","","","","","","","","","","","","","","","","","","","","","","","","","","","",""
"2004","","<div style=""width:500px;"">
  <p>What best describes how you currently feel?</p>
  </div>","24","html-slider-response","73","1084119","0.0-5.0-4.12","29","1","2025-07-09 11:31:05","01610cd0009c79a99da7d0a3353eb402","82.53.76.206","Mozilla/5.0 (Windows NT 10.0; Win64; x64) AppleWebKit/537.36 (KHTML, like Gecko) Chrome/137.0.0.0 Safari/537.36","WebKit","Chrome","137.0.0.0","Windows","10.0","https://app.prolific.com/","it-IT,it;q=0.9,en-US;q=0.8,en;q=0.7","672f7b856c1ce6995a666bc6","683db7602f5db6a34d12d064","686e52d4daec7f57b46bf7cd","1","672f7b856c1ce6995a666bc6","1","2025-07-09T11:49:09.558Z","","","","","","","","","","","MotivationQ","","50","","","","","","","","","","","","","","","","","","","","","","","","","","","","",""
"","","","","ctl-task-cpt","74","1129648","0.0-5.0-0.13","29","1","2025-07-09 11:31:05","01610cd0009c79a99da7d0a3353eb402","82.53.76.206","Mozilla/5.0 (Windows NT 10.0; Win64; x64) AppleWebKit/537.36 (KHTML, like Gecko) Chrome/137.0.0.0 Safari/537.36","WebKit","Chrome","137.0.0.0","Windows","10.0","https://app.prolific.com/","it-IT,it;q=0.9,en-US;q=0.8,en;q=0.7","672f7b856c1ce6995a666bc6","683db7602f5db6a34d12d064","686e52d4daec7f57b46bf7cd","1","672f7b856c1ce6995a666bc6","1","2025-07-09T11:49:55.087Z","","","","","","","","","","","","","","win-only","1","g1:NE,g2:SW","0.8","14","0","1086050.5","638.3","5641","42511.1","1","4","4","6","2","4","4","14","10","0.10606060606060606","2060.1","3000","1480","[""down"",""left""]","{""num_key_presses"":10,""num_perfect"":8,""num_errors"":0,""num_randdir"":2,""num_randdir_good_moves"":0,""num_whilered"":0,""num_whileblue"":0,""num_blue"":3,""num_good_moves"":8}","[420.3214133126395,416.57142761775424,0.2,420.3214133126395,416.57142761775424,102.5,427.8214133126395,382.82142761775424,213.7,477.8214133126395,274.07142761775424,316.9,511.5714133126395,251.57142761775424,425.8,506.5714133126395,256.57142761775424,536.4,225.3214133126395,572.8214276177542,644.6,115.3214133126395,657.8214276177542,747.3,111.5714133126395,674.0714276177542,852.9,101.5714133126395,724.0714276177542,965.1,99.0714133126395,727.8214276177542,1070.9,119.0714133126395,714.0714276177542,1170.9,436.5714133126395,427.82142761775424,1275.2,681.5714133126395,180.32142761775424,1383.4,724.0714133126395,144.07142761775424,1483.5,629.0714133126395,241.57142761775424,1588.1,180.3214133126395,611.5714276177542,1691.9,100.3214133126395,717.8214276177542,1802.7,87.8214133126395,734.0714276177542,1902.9,87.8214133126395,735.3214276177542,2014.4,87.8214133126395,735.3214276177542,2120.3,102.8214133126395,711.5714276177542,2223.3,324.0714133126395,511.57142761775424,2324.7,441.5714133126395,477.82142761775424,2435.1,481.5714133126395,494.07142761775424,2538,605.3214133126395,526.5714276177542,2646.6,737.8214133126395,581.5714276177542,2758.3,847.8214133126395,601.5714276177542,2865.1,895.3214133126395,589.0714276177542,2970.9,946.5714133126395,571.5714276177542,3073.7,956.5714133126395,571.5714276177542,3176.9,956.5714133126395,571.5714276177542,3287.9,956.5714133126395,571.5714276177542,3395.5,956.5714133126395,571.5714276177542,3511.5,956.5714133126395,571.5714276177542,3614.9,956.5714133126395,571.5714276177542,3716.4,956.5714133126395,571.5714276177542,3832,956.5714133126395,571.5714276177542,3932.1,956.5714133126395,571.5714276177542,4032.3,956.5714133126395,571.5714276177542,4141.6,956.5714133126395,571.5714276177542,4247.1,956.5714133126395,571.5714276177542,4357.9,956.5714133126395,571.5714276177542,4469.4,956.5714133126395,571.5714276177542,4575.3,956.5714133126395,571.5714276177542,4676.4,956.5714133126395,571.5714276177542,4779.9,956.5714133126395,571.5714276177542,4883.5,956.5714133126395,571.5714276177542,4987.2]","[1554.4,1554.4,1000,0,554.4,""smooth"",""down"",""down"",""good_move"",4141.7,2586.8,2249.3,1554.9,337.5,""smooth"",""left"",""left"",""good_move"",7190.8,3048.6,2719.5,4142.2,329.1,""oops"",""down"",""up"",""bad_move"",15241.1,8049.8,3554.2,11381.8,305.1,""oops"",""down"",""up"",""bad_move"",22327.6,7086.4,2708.3,19260,359.3,""smooth"",""left"",""left"",""good_move"",24456.4,2128.3,1534.9,22328.1,593.4,""smooth"",""down"",""down"",""good_move"",26530,2073.3,1771.9,24456.8,301.5,""smooth"",""down"",""down"",""good_move"",28455.4,1924.9,1615,26530.5,309.9,""smooth"",""down"",""down"",""good_move"",34087.3,5631.6,2143.6,31602.1,341.6,""smooth"",""down"",""down"",""good_move"",36639.9,2552.5,2225.8,34087.4,326.7,""smooth"",""left"",""left"",""good_move""]","",""
"1517","","<div style=""width:500px;"">
