"rt","response_timestamp","stimulus","response","trial_type","trial_index","time_elapsed","internal_node_id","run_id","condition","recorded_at","source_code_version","ip","user_agent","device","browser","browser_version","platform","platform_version","referer","accept_language","PROLIFIC_PID","STUDY_ID","SESSION_ID","WEEK","BATCH","prolific_id","week","batch","realtime","success","responses","item_order","radio_event_ids","radio_event_times","key_event_times","mouse_event_times","straightlining","zigzagging","honeypot","eventType","view_history","slider_start","which_type","canvas_config","goals_layout","control_level","trial_number","tutorial_trial_number","trial_start_time","phase1_start_time","phase2_start_time","phase3_start_time","goal_1_value","goal_1_distance","goal_2_value","goal_2_distance","goal_selected","outcome","outcome_total","participant_final_score","participant_initial_score","participant_final_score_prop","goal_choice_rt","allocated_time","allocated_time_remaining","goal_direction","counts","mouse_movements","key_presses","question_order","question_id"
"2653","1753866627679","<p style='font-size:40px;line-height:1.25'><strong>Welcome to the experiment!</strong></p><p style='font-size:1.1em;line-height:1.25'>Thank you for participanting in our experiment again! You will be asked to play the Dysfunctional Ball Game again. We will briefly recap the rules before we start.</p><p style='font-size:1.1em;line-height:1.25'>Press <strong>Next</strong> to continue.</p>","0","custom-html-button-response","0","2658","0.0-0.0","280","1","2025-07-30 09:10:23","1f75c3e559b7213887762d5229550c2b","41.115.106.151","Mozilla/5.0 (Windows NT 10.0; Win64; x64) AppleWebKit/537.36 (KHTML, like Gecko) Chrome/138.0.0.0 Safari/537.36","WebKit","Chrome","138.0.0.0","Windows","10.0","https://app.prolific.com/","en-GB,en-US;q=0.9,en;q=0.8","67b89f64c09d83ec36fdd403","6877631c9844ddd5501205fc","6889dde9a4e2f6f63337139b","3","1","67b89f64c09d83ec36fdd403","3","1","2025-07-30T09:10:27.682Z","","","","","","","","","","","","","","","","","","","","","","","","","","","","","","","","","","","","","","","","","",""
"6530","","","","fullscreen","1","10207","0.0-1.0","280","1","2025-07-30 09:10:23","1f75c3e559b7213887762d5229550c2b","41.115.106.151","Mozilla/5.0 (Windows NT 10.0; Win64; x64) AppleWebKit/537.36 (KHTML, like Gecko) Chrome/138.0.0.0 Safari/537.36","WebKit","Chrome","138.0.0.0","Windows","10.0","https://app.prolific.com/","en-GB,en-US;q=0.9,en;q=0.8","67b89f64c09d83ec36fdd403","6877631c9844ddd5501205fc","6889dde9a4e2f6f63337139b","3","1","67b89f64c09d83ec36fdd403","3","1","","true","","","","","","","","","","","","","","","","","","","","","","","","","","","","","","","","","","","","","","","","",""
"7270","1753866642502","<p style='font-size:1.1em;line-height:1.25'>In the following, we will ask you a few questions relating to your feelings in the last 24 hours.<br></p><p style='font-size:1.1em;line-height:1.25'>Press the <strong>Next</strong> button to continue.</p>","0","custom-html-button-response","2","17479","0.0-2.0-0.0","280","1","2025-07-30 09:10:23","1f75c3e559b7213887762d5229550c2b","41.115.106.151","Mozilla/5.0 (Windows NT 10.0; Win64; x64) AppleWebKit/537.36 (KHTML, like Gecko) Chrome/138.0.0.0 Safari/537.36","WebKit","Chrome","138.0.0.0","Windows","10.0","https://app.prolific.com/","en-GB,en-US;q=0.9,en;q=0.8","67b89f64c09d83ec36fdd403","6877631c9844ddd5501205fc","6889dde9a4e2f6f63337139b","3","1","67b89f64c09d83ec36fdd403","3","1","2025-07-30T09:10:42.503Z","","","","","","","","","","","","","","","","","","","","","","","","","","","","","","","","","","","","","","","","","",""
"158990.10000000003","","","","survey-template","3","176474","0.0-2.0-1.0","280","1","2025-07-30 09:10:23","1f75c3e559b7213887762d5229550c2b","41.115.106.151","Mozilla/5.0 (Windows NT 10.0; Win64; x64) AppleWebKit/537.36 (KHTML, like Gecko) Chrome/138.0.0.0 Safari/537.36","WebKit","Chrome","138.0.0.0","Windows","10.0","https://app.prolific.com/","en-GB,en-US;q=0.9,en;q=0.8","67b89f64c09d83ec36fdd403","6877631c9844ddd5501205fc","6889dde9a4e2f6f63337139b","3","1","67b89f64c09d83ec36fdd403","3","1","2025-07-30T09:13:21.498Z","","{""Q01"":""2"",""Q02"":""1"",""Q03"":""0"",""Q04"":""3"",""Q05"":""2"",""Q06"":""0"",""Q07"":""1"",""Q08"":""0"",""Q09"":""0"",""Q10"":""0"",""Q11"":""1"",""Q12"":""3"",""Q13"":""5"",""Q14"":""3"",""Q15"":""2"",""Q16"":""0"",""Q17"":""0"",""Q18"":""0"",""Q19"":""0"",""Q20"":""0"",""Q21"":""0"",""Q22"":""0""}","[0,1,2,3,4,5,6,7,8,9,10,11,12,13,14,15,16,17,18,19,20,21]","[""Q01"",""Q02"",""Q03"",""Q04"",""Q05"",""Q06"",""Q07"",""Q07"",""Q08"",""Q10"",""Q09"",""Q09"",""Q13"",""Q14"",""Q15"",""Q16"",""Q17"",""Q18"",""Q19"",""Q20"",""Q21"",""Q22"",""Q12"",""Q11""]","[9413.600000000006,10124.300000000017,14751.900000000023,18171.400000000023,20829.70000000001,29817.300000000017,33990.90000000002,35594.80000000002,39466.5,46156,53361.70000000001,55843.5,61745.40000000002,66515.60000000003,75111.60000000003,83437.40000000002,87252.79999999999,88931.5,100113.29999999999,109170.10000000003,119315.20000000001,121422.20000000001,137321.40000000002,142669.7]","[]","[0.20000000001164153,7409.5,9413.600000000006,10124.300000000017,14751.900000000023,18171.400000000023,20829.70000000001,29817.300000000017,33990.90000000002,35594.80000000002,37530.100000000006,39466.5,46156,51748.100000000006,53361.70000000001,55843.5,61745.40000000002,66515.60000000003,73149.40000000002,75111.60000000003,82737.79999999999,83437.40000000002,87252.79999999999,88931.5,100113.29999999999,109170.10000000003,119315.20000000001,121422.20000000001,131849.60000000003,137321.40000000002,142669.7,158983.8]","0.5454545454545454","0.3333333333333333","0","drsp","","","","","","","","","","","","","","","","","","","","","","","","","","","","","","",""
"14185.200000000012","","","","survey-template","4","190662","0.0-2.0-2.0","280","1","2025-07-30 09:10:23","1f75c3e559b7213887762d5229550c2b","41.115.106.151","Mozilla/5.0 (Windows NT 10.0; Win64; x64) AppleWebKit/537.36 (KHTML, like Gecko) Chrome/138.0.0.0 Safari/537.36","WebKit","Chrome","138.0.0.0","Windows","10.0","https://app.prolific.com/","en-GB,en-US;q=0.9,en;q=0.8","67b89f64c09d83ec36fdd403","6877631c9844ddd5501205fc","6889dde9a4e2f6f63337139b","3","1","67b89f64c09d83ec36fdd403","3","1","2025-07-30T09:13:35.686Z","","{""Q01"":""0"",""Q02"":""2"",""Q03"":""0""}","[0,1,2]","[""Q01"",""Q02"",""Q03""]","[6843.100000000035,7983.100000000035,13072.700000000012]","[]","[3959.5,6096.799999999988,6843.100000000035,7983.100000000035,13072.700000000012,14183.400000000023]","0.6666666666666666","0","0","stress","","","","","","","","","","","","","","","","","","","","","","","","","","","","","","",""
"169774","","","","instructions","5","360438","0.0-3.0-0.0","280","1","2025-07-30 09:10:23","1f75c3e559b7213887762d5229550c2b","41.115.106.151","Mozilla/5.0 (Windows NT 10.0; Win64; x64) AppleWebKit/537.36 (KHTML, like Gecko) Chrome/138.0.0.0 Safari/537.36","WebKit","Chrome","138.0.0.0","Windows","10.0","https://app.prolific.com/","en-GB,en-US;q=0.9,en;q=0.8","67b89f64c09d83ec36fdd403","6877631c9844ddd5501205fc","6889dde9a4e2f6f63337139b","3","1","67b89f64c09d83ec36fdd403","3","1","","","","","","","","","","","","","[{""page_index"":0,""viewing_time"":169773}]","","","","","","","","","","","","","","","","","","","","","","","","","","","","","",""
"11242","","<p>Before you start with this game please answer the following three questions yourself. </p>
  <p>Through this game, we measure several aspects of your cognitive performance, such as reaction times, multi-tasking capabilities </p>
  <p>and the ability to assess the situation you are in.</p>
  <p></p>
  <p><b>How good do you usually are in such tasks?</b></p>","63","html-slider-response","6","371683","0.0-4.0-0.0","280","1","2025-07-30 09:10:23","1f75c3e559b7213887762d5229550c2b","41.115.106.151","Mozilla/5.0 (Windows NT 10.0; Win64; x64) AppleWebKit/537.36 (KHTML, like Gecko) Chrome/138.0.0.0 Safari/537.36","WebKit","Chrome","138.0.0.0","Windows","10.0","https://app.prolific.com/","en-GB,en-US;q=0.9,en;q=0.8","67b89f64c09d83ec36fdd403","6877631c9844ddd5501205fc","6889dde9a4e2f6f63337139b","3","1","67b89f64c09d83ec36fdd403","3","1","2025-07-30T09:16:36.707Z","","","","","","","","","","","PreSkillQ","","50","","","","","","","","","","","","","","","","","","","","","","","","","","","","",""
"5475","","<div style=""width:500px;"">
  <p>How well do you think you will perform in this task compared to other participants?</p>
  </div>","77","html-slider-response","7","377160","0.0-4.0-1.0","280","1","2025-07-30 09:10:23","1f75c3e559b7213887762d5229550c2b","41.115.106.151","Mozilla/5.0 (Windows NT 10.0; Win64; x64) AppleWebKit/537.36 (KHTML, like Gecko) Chrome/138.0.0.0 Safari/537.36","WebKit","Chrome","138.0.0.0","Windows","10.0","https://app.prolific.com/","en-GB,en-US;q=0.9,en;q=0.8","67b89f64c09d83ec36fdd403","6877631c9844ddd5501205fc","6889dde9a4e2f6f63337139b","3","1","67b89f64c09d83ec36fdd403","3","1","2025-07-30T09:16:42.185Z","","","","","","","","","","","PrePerfQ","","50","","","","","","","","","","","","","","","","","","","","","","","","","","","","",""
"7892","","<div style=""width:500px;"">
  <p>What best describes how you currently feel?</p>
  </div>","39","html-slider-response","8","385054","0.0-4.0-2.0","280","1","2025-07-30 09:10:23","1f75c3e559b7213887762d5229550c2b","41.115.106.151","Mozilla/5.0 (Windows NT 10.0; Win64; x64) AppleWebKit/537.36 (KHTML, like Gecko) Chrome/138.0.0.0 Safari/537.36","WebKit","Chrome","138.0.0.0","Windows","10.0","https://app.prolific.com/","en-GB,en-US;q=0.9,en;q=0.8","67b89f64c09d83ec36fdd403","6877631c9844ddd5501205fc","6889dde9a4e2f6f63337139b","3","1","67b89f64c09d83ec36fdd403","3","1","2025-07-30T09:16:50.079Z","","","","","","","","","","","PreMotivationQ","","50","","","","","","","","","","","","","","","","","","","","","","","","","","","","",""
"","","","","ctl-task-cpt","9","408024","0.0-5.0-0.0","280","1","2025-07-30 09:10:23","1f75c3e559b7213887762d5229550c2b","41.115.106.151","Mozilla/5.0 (Windows NT 10.0; Win64; x64) AppleWebKit/537.36 (KHTML, like Gecko) Chrome/138.0.0.0 Safari/537.36","WebKit","Chrome","138.0.0.0","Windows","10.0","https://app.prolific.com/","en-GB,en-US;q=0.9,en;q=0.8","67b89f64c09d83ec36fdd403","6877631c9844ddd5501205fc","6889dde9a4e2f6f63337139b","3","1","67b89f64c09d83ec36fdd403","3","1","2025-07-30T09:17:13.048Z","","","","","","","","","","","","","","win-only","2","g1:SE,g2:NW","1","1","0","387829.8","6538.6","11544.5","19958.7","1","4","4","6","2","-4","-4","0","0","0","4877.7","3000","-2190","[""left"",""up""]","{""num_key_presses"":0,""num_perfect"":0,""num_errors"":0,""num_randdir"":0,""num_randdir_good_moves"":0,""num_whilered"":0,""num_whileblue"":0,""num_blue"":1,""num_good_moves"":0}","[409.57142857142856,419.47767857142856,0.4,409.57142857142856,419.47767857142856,108.3,409.57142857142856,419.47767857142856,208.3,409.57142857142856,419.47767857142856,314.7,409.57142857142856,419.47767857142856,422.6,409.57142857142856,419.47767857142856,528.9,411.57142857142856,423.47767857142856,633.4,418.57142857142856,443.47767857142856,739,420.57142857142856,451.47767857142856,843.6,427.57142857142856,464.47767857142856,946.9,432.57142857142856,476.47767857142856,1055.1,433.57142857142856,477.47767857142856,1155.6,433.57142857142856,477.47767857142856,1259.5,433.57142857142856,477.47767857142856,1361.6,433.57142857142856,477.47767857142856,1463.2,440.57142857142856,496.47767857142856,1563.2,445.57142857142856,506.47767857142856,1666.3,445.57142857142856,506.47767857142856,1770.9,445.57142857142856,506.47767857142856,1871.3,473.57142857142856,500.47767857142856,1977.7,473.57142857142856,500.47767857142856,2087.5,473.57142857142856,500.47767857142856,2192.3,473.57142857142856,500.47767857142856,2294,473.57142857142856,500.47767857142856,2404.4,473.57142857142856,500.47767857142856,2508.3,475.57142857142856,506.47767857142856,2609.6,475.57142857142856,556.4776785714286,2712.9,477.57142857142856,600.4776785714286,2826.6,477.57142857142856,609.4776785714286,2927.1,477.57142857142856,609.4776785714286,3028.1,477.57142857142856,610.4776785714286,3133.1,477.57142857142856,611.4776785714286,3233.5,468.57142857142856,597.4776785714286,3337.8,459.57142857142856,500.47767857142856,3442.9,459.57142857142856,485.47767857142856,3554.8,459.57142857142856,485.47767857142856,3655.9,462.57142857142856,479.47767857142856,3760.1,469.57142857142856,478.47767857142856,3862.7,478.57142857142856,492.47767857142856,3968.4,427.57142857142856,504.47767857142856,4075.6,424.57142857142856,503.47767857142856,4182.1,423.57142857142856,503.47767857142856,4289.9,350.57142857142856,446.47767857142856,4394.1,239.57142857142856,306.47767857142856,4494.3,178.57142857142856,227.47767857142856,4598.1,108.57142857142857,130.47767857142856,4699.5,83.57142857142857,109.47767857142857,4803,83.57142857142857,109.47767857142857,4908.9]","[]","",""
"65932","","<div style=""width:500px;"">
  <p>What determined the result of this run?</p>
  </div>","36","html-slider-response","10","473958","0.0-5.0-1.0","280","1","2025-07-30 09:10:23","1f75c3e559b7213887762d5229550c2b","41.115.106.151","Mozilla/5.0 (Windows NT 10.0; Win64; x64) AppleWebKit/537.36 (KHTML, like Gecko) Chrome/138.0.0.0 Safari/537.36","WebKit","Chrome","138.0.0.0","Windows","10.0","https://app.prolific.com/","en-GB,en-US;q=0.9,en;q=0.8","67b89f64c09d83ec36fdd403","6877631c9844ddd5501205fc","6889dde9a4e2f6f63337139b","3","1","67b89f64c09d83ec36fdd403","3","1","2025-07-30T09:18:18.982Z","","","","","","","","","","","AttribQ","","50","","","","","","","","","","","","","","","","","","","","","","","","","","","","",""
"4043","","<div style=""width:500px;"">
  <p>How much control did you have over the ball?</p>
  </div>","16","html-slider-response","11","478002","0.0-5.0-2.0","280","1","2025-07-30 09:10:23","1f75c3e559b7213887762d5229550c2b","41.115.106.151","Mozilla/5.0 (Windows NT 10.0; Win64; x64) AppleWebKit/537.36 (KHTML, like Gecko) Chrome/138.0.0.0 Safari/537.36","WebKit","Chrome","138.0.0.0","Windows","10.0","https://app.prolific.com/","en-GB,en-US;q=0.9,en;q=0.8","67b89f64c09d83ec36fdd403","6877631c9844ddd5501205fc","6889dde9a4e2f6f63337139b","3","1","67b89f64c09d83ec36fdd403","3","1","2025-07-30T09:18:23.027Z","","","","","","","","","","","ControlQ","","50","","","","","","","","","","","","","","","","","","","","","","","","","","","","",""
"6562","","<div style=""width:500px;"">
  <p>How would you describe your current emotional state?</p>
  </div>","40","html-slider-response","12","484566","0.0-5.0-3.0","280","1","2025-07-30 09:10:23","1f75c3e559b7213887762d5229550c2b","41.115.106.151","Mozilla/5.0 (Windows NT 10.0; Win64; x64) AppleWebKit/537.36 (KHTML, like Gecko) Chrome/138.0.0.0 Safari/537.36","WebKit","Chrome","138.0.0.0","Windows","10.0","https://app.prolific.com/","en-GB,en-US;q=0.9,en;q=0.8","67b89f64c09d83ec36fdd403","6877631c9844ddd5501205fc","6889dde9a4e2f6f63337139b","3","1","67b89f64c09d83ec36fdd403","3","1","2025-07-30T09:18:29.590Z","","","","","","","","","","","StressQ","","50","","","","","","","","","","","","","","","","","","","","","","","","","","","","",""
"4740","","<div style=""width:500px;"">
  <p>What best describes how you currently feel?</p>
  </div>","25","html-slider-response","13","489309","0.0-5.0-4.0","280","1","2025-07-30 09:10:23","1f75c3e559b7213887762d5229550c2b","41.115.106.151","Mozilla/5.0 (Windows NT 10.0; Win64; x64) AppleWebKit/537.36 (KHTML, like Gecko) Chrome/138.0.0.0 Safari/537.36","WebKit","Chrome","138.0.0.0","Windows","10.0","https://app.prolific.com/","en-GB,en-US;q=0.9,en;q=0.8","67b89f64c09d83ec36fdd403","6877631c9844ddd5501205fc","6889dde9a4e2f6f63337139b","3","1","67b89f64c09d83ec36fdd403","3","1","2025-07-30T09:18:34.333Z","","","","","","","","","","","MotivationQ","","50","","","","","","","","","","","","","","","","","","","","","","","","","","","","",""
"","","","","ctl-task-cpt","14","508375","0.0-5.0-0.1","280","1","2025-07-30 09:10:23","1f75c3e559b7213887762d5229550c2b","41.115.106.151","Mozilla/5.0 (Windows NT 10.0; Win64; x64) AppleWebKit/537.36 (KHTML, like Gecko) Chrome/138.0.0.0 Safari/537.36","WebKit","Chrome","138.0.0.0","Windows","10.0","https://app.prolific.com/","en-GB,en-US;q=0.9,en;q=0.8","67b89f64c09d83ec36fdd403","6877631c9844ddd5501205fc","6889dde9a4e2f6f63337139b","3","1","67b89f64c09d83ec36fdd403","3","1","2025-07-30T09:18:53.399Z","","","","","","","","","","","","","","win-only","2","g1:SE,g2:NW","0.9","2","0","492082.6","5852.9","10859.1","16052.9","1","4","8","6","2","-8","-8","0","0","0","5006.1","3000","-2155","[""left"",""up""]","{""num_key_presses"":0,""num_perfect"":0,""num_errors"":0,""num_randdir"":0,""num_randdir_good_moves"":0,""num_whilered"":0,""num_whileblue"":0,""num_blue"":0,""num_good_moves"":0}","[418.57142857142856,413.47767857142856,0.4,418.57142857142856,413.47767857142856,103.2,418.57142857142856,413.47767857142856,204,418.57142857142856,413.47767857142856,313.5,418.57142857142856,413.47767857142856,421.3,418.57142857142856,413.47767857142856,525.4,418.57142857142856,413.47767857142856,628.9,418.57142857142856,413.47767857142856,731.1,420.57142857142856,416.47767857142856,831.2,423.57142857142856,421.47767857142856,935.7,439.57142857142856,446.47767857142856,1046.9,468.57142857142856,474.47767857142856,1150.2,477.57142857142856,481.47767857142856,1253.4,478.57142857142856,482.47767857142856,1356.9,478.57142857142856,482.47767857142856,1456.9,478.57142857142856,484.47767857142856,1561.9,478.57142857142856,484.47767857142856,1664.6,478.57142857142856,484.47767857142856,1774.6,478.57142857142856,484.47767857142856,1881.4,479.57142857142856,487.47767857142856,1989.3,479.57142857142856,487.47767857142856,2092.7,479.57142857142856,487.47767857142856,2193,479.57142857142856,487.47767857142856,2294,479.57142857142856,487.47767857142856,2397.7,479.57142857142856,487.47767857142856,2502.6,480.57142857142856,488.47767857142856,2612.2,480.57142857142856,488.47767857142856,2718.1,480.57142857142856,488.47767857142856,2821.3,480.57142857142856,488.47767857142856,2921.6,480.57142857142856,488.47767857142856,3029.6,480.57142857142856,488.47767857142856,3136,480.57142857142856,488.47767857142856,3240.9,480.57142857142856,488.47767857142856,3346.5,480.57142857142856,488.47767857142856,3449.6,480.57142857142856,488.47767857142856,3555.8,480.57142857142856,488.47767857142856,3657.6,480.57142857142856,488.47767857142856,3762.4,480.57142857142856,488.47767857142856,3869,480.57142857142856,488.47767857142856,3972.5,480.57142857142856,488.47767857142856,4083.1,480.57142857142856,488.47767857142856,4190,480.57142857142856,488.47767857142856,4290.1,480.57142857142856,488.47767857142856,4396.9,481.57142857142856,488.47767857142856,4502.5,483.57142857142856,490.47767857142856,4608.1,483.57142857142856,490.47767857142856,4712.4,483.57142857142856,490.47767857142856,4812.7,483.57142857142856,490.47767857142856,4913.1]","[]","",""
"18495","","<div style=""width:500px;"">
  <p>What determined the result of this run?</p>
  </div>","44","html-slider-response","15","526872","0.0-5.0-1.1","280","1","2025-07-30 09:10:23","1f75c3e559b7213887762d5229550c2b","41.115.106.151","Mozilla/5.0 (Windows NT 10.0; Win64; x64) AppleWebKit/537.36 (KHTML, like Gecko) Chrome/138.0.0.0 Safari/537.36","WebKit","Chrome","138.0.0.0","Windows","10.0","https://app.prolific.com/","en-GB,en-US;q=0.9,en;q=0.8","67b89f64c09d83ec36fdd403","6877631c9844ddd5501205fc","6889dde9a4e2f6f63337139b","3","1","67b89f64c09d83ec36fdd403","3","1","2025-07-30T09:19:11.896Z","","","","","","","","","","","AttribQ","","50","","","","","","","","","","","","","","","","","","","","","","","","","","","","",""
"2116","","<div style=""width:500px;"">
  <p>How much control did you have over the ball?</p>
  </div>","28","html-slider-response","16","528989","0.0-5.0-2.1","280","1","2025-07-30 09:10:23","1f75c3e559b7213887762d5229550c2b","41.115.106.151","Mozilla/5.0 (Windows NT 10.0; Win64; x64) AppleWebKit/537.36 (KHTML, like Gecko) Chrome/138.0.0.0 Safari/537.36","WebKit","Chrome","138.0.0.0","Windows","10.0","https://app.prolific.com/","en-GB,en-US;q=0.9,en;q=0.8","67b89f64c09d83ec36fdd403","6877631c9844ddd5501205fc","6889dde9a4e2f6f63337139b","3","1","67b89f64c09d83ec36fdd403","3","1","2025-07-30T09:19:14.014Z","","","","","","","","","","","ControlQ","","50","","","","","","","","","","","","","","","","","","","","","","","","","","","","",""
"2739","","<div style=""width:500px;"">
  <p>How would you describe your current emotional state?</p>
  </div>","18","html-slider-response","17","531730","0.0-5.0-3.1","280","1","2025-07-30 09:10:23","1f75c3e559b7213887762d5229550c2b","41.115.106.151","Mozilla/5.0 (Windows NT 10.0; Win64; x64) AppleWebKit/537.36 (KHTML, like Gecko) Chrome/138.0.0.0 Safari/537.36","WebKit","Chrome","138.0.0.0","Windows","10.0","https://app.prolific.com/","en-GB,en-US;q=0.9,en;q=0.8","67b89f64c09d83ec36fdd403","6877631c9844ddd5501205fc","6889dde9a4e2f6f63337139b","3","1","67b89f64c09d83ec36fdd403","3","1","2025-07-30T09:19:16.754Z","","","","","","","","","","","StressQ","","50","","","","","","","","","","","","","","","","","","","","","","","","","","","","",""
"3472","","<div style=""width:500px;"">
  <p>What best describes how you currently feel?</p>
  </div>","26","html-slider-response","18","535203","0.0-5.0-4.1","280","1","2025-07-30 09:10:23","1f75c3e559b7213887762d5229550c2b","41.115.106.151","Mozilla/5.0 (Windows NT 10.0; Win64; x64) AppleWebKit/537.36 (KHTML, like Gecko) Chrome/138.0.0.0 Safari/537.36","WebKit","Chrome","138.0.0.0","Windows","10.0","https://app.prolific.com/","en-GB,en-US;q=0.9,en;q=0.8","67b89f64c09d83ec36fdd403","6877631c9844ddd5501205fc","6889dde9a4e2f6f63337139b","3","1","67b89f64c09d83ec36fdd403","3","1","2025-07-30T09:19:20.227Z","","","","","","","","","","","MotivationQ","","50","","","","","","","","","","","","","","","","","","","","","","","","","","","","",""
"","","","","ctl-task-cpt","19","559543","0.0-5.0-0.2","280","1","2025-07-30 09:10:23","1f75c3e559b7213887762d5229550c2b","41.115.106.151","Mozilla/5.0 (Windows NT 10.0; Win64; x64) AppleWebKit/537.36 (KHTML, like Gecko) Chrome/138.0.0.0 Safari/537.36","WebKit","Chrome","138.0.0.0","Windows","10.0","https://app.prolific.com/","en-GB,en-US;q=0.9,en;q=0.8","67b89f64c09d83ec36fdd403","6877631c9844ddd5501205fc","6889dde9a4e2f6f63337139b","3","1","67b89f64c09d83ec36fdd403","3","1","2025-07-30T09:19:44.567Z","","","","","","","","","","","","","","win-only","1","g1:NE,g2:SW","0.8","3","0","537977.4","11191","16196.8","21325.2","1","4","4","6","2","-4","-4","0","0","0","4790.9","3000","-2295","[""down"",""left""]","{""num_key_presses"":0,""num_perfect"":0,""num_errors"":0,""num_randdir"":0,""num_randdir_good_moves"":0,""num_whilered"":0,""num_whileblue"":0,""num_blue"":0,""num_good_moves"":0}","[419.57142857142856,420.47767857142856,0.5,419.57142857142856,420.47767857142856,100.1,419.57142857142856,420.47767857142856,202.4,419.57142857142856,420.47767857142856,315.4,417.57142857142856,425.47767857142856,415.6,417.57142857142856,425.47767857142856,516.4,417.57142857142856,425.47767857142856,622.3,417.57142857142856,425.47767857142856,722.7,417.57142857142856,425.47767857142856,824,417.57142857142856,425.47767857142856,931.3,417.57142857142856,425.47767857142856,1035,417.57142857142856,425.47767857142856,1136.4,417.57142857142856,425.47767857142856,1248.2,417.57142857142856,425.47767857142856,1352.8,417.57142857142856,425.47767857142856,1452.8,417.57142857142856,425.47767857142856,1565.8,417.57142857142856,425.47767857142856,1667.3,417.57142857142856,425.47767857142856,1770.2,417.57142857142856,425.47767857142856,1870.6,417.57142857142856,425.47767857142856,1972.9,417.57142857142856,425.47767857142856,2082.2,417.57142857142856,425.47767857142856,2182.8,417.57142857142856,425.47767857142856,2286.7,417.57142857142856,425.47767857142856,2389,417.57142857142856,425.47767857142856,2491.3,417.57142857142856,425.47767857142856,2591.3,417.57142857142856,425.47767857142856,2699.4,417.57142857142856,425.47767857142856,2801.8,417.57142857142856,425.47767857142856,2906.4,417.57142857142856,425.47767857142856,3013.4,417.57142857142856,425.47767857142856,3117.6,417.57142857142856,425.47767857142856,3217.9,417.57142857142856,425.47767857142856,3320.2,417.57142857142856,425.47767857142856,3422.9,417.57142857142856,425.47767857142856,3522.9,417.57142857142856,425.47767857142856,3625.2,458.57142857142856,428.47767857142856,3726.4,459.57142857142856,428.47767857142856,3834.3,374.57142857142856,457.47767857142856,3944,256.57142857142856,506.47767857142856,4050,62.57142857142857,675.4776785714286,4154.8,19.57142857142857,744.4776785714286,4268.3,11.57142857142857,775.4776785714286,4374.3,31.57142857142857,778.4776785714286,4481.4,31.57142857142857,778.4776785714286,4582.9,42.57142857142857,779.4776785714286,4689.7,47.57142857142857,777.4776785714286,4795.6,47.57142857142857,777.4776785714286,4900.8]","[]","",""
"23452","","<div style=""width:500px;"">
  <p>What determined the result of this run?</p>
  </div>","32","html-slider-response","20","582997","0.0-5.0-1.2","280","1","2025-07-30 09:10:23","1f75c3e559b7213887762d5229550c2b","41.115.106.151","Mozilla/5.0 (Windows NT 10.0; Win64; x64) AppleWebKit/537.36 (KHTML, like Gecko) Chrome/138.0.0.0 Safari/537.36","WebKit","Chrome","138.0.0.0","Windows","10.0","https://app.prolific.com/","en-GB,en-US;q=0.9,en;q=0.8","67b89f64c09d83ec36fdd403","6877631c9844ddd5501205fc","6889dde9a4e2f6f63337139b","3","1","67b89f64c09d83ec36fdd403","3","1","2025-07-30T09:20:08.022Z","","","","","","","","","","","AttribQ","","50","","","","","","","","","","","","","","","","","","","","","","","","","","","","",""
"7539","","<div style=""width:500px;"">
  <p>How much control did you have over the ball?</p>
  </div>","33","html-slider-response","21","590540","0.0-5.0-2.2","280","1","2025-07-30 09:10:23","1f75c3e559b7213887762d5229550c2b","41.115.106.151","Mozilla/5.0 (Windows NT 10.0; Win64; x64) AppleWebKit/537.36 (KHTML, like Gecko) Chrome/138.0.0.0 Safari/537.36","WebKit","Chrome","138.0.0.0","Windows","10.0","https://app.prolific.com/","en-GB,en-US;q=0.9,en;q=0.8","67b89f64c09d83ec36fdd403","6877631c9844ddd5501205fc","6889dde9a4e2f6f63337139b","3","1","67b89f64c09d83ec36fdd403","3","1","2025-07-30T09:20:15.564Z","","","","","","","","","","","ControlQ","","50","","","","","","","","","","","","","","","","","","","","","","","","","","","","",""
"9982","","<div style=""width:500px;"">
  <p>How would you describe your current emotional state?</p>
  </div>","37","html-slider-response","22","600524","0.0-5.0-3.2","280","1","2025-07-30 09:10:23","1f75c3e559b7213887762d5229550c2b","41.115.106.151","Mozilla/5.0 (Windows NT 10.0; Win64; x64) AppleWebKit/537.36 (KHTML, like Gecko) Chrome/138.0.0.0 Safari/537.36","WebKit","Chrome","138.0.0.0","Windows","10.0","https://app.prolific.com/","en-GB,en-US;q=0.9,en;q=0.8","67b89f64c09d83ec36fdd403","6877631c9844ddd5501205fc","6889dde9a4e2f6f63337139b","3","1","67b89f64c09d83ec36fdd403","3","1","2025-07-30T09:20:25.548Z","","","","","","","","","","","StressQ","","50","","","","","","","","","","","","","","","","","","","","","","","","","","","","",""
"3402","","<div style=""width:500px;"">
  <p>What best describes how you currently feel?</p>
  </div>","44","html-slider-response","23","603928","0.0-5.0-4.2","280","1","2025-07-30 09:10:23","1f75c3e559b7213887762d5229550c2b","41.115.106.151","Mozilla/5.0 (Windows NT 10.0; Win64; x64) AppleWebKit/537.36 (KHTML, like Gecko) Chrome/138.0.0.0 Safari/537.36","WebKit","Chrome","138.0.0.0","Windows","10.0","https://app.prolific.com/","en-GB,en-US;q=0.9,en;q=0.8","67b89f64c09d83ec36fdd403","6877631c9844ddd5501205fc","6889dde9a4e2f6f63337139b","3","1","67b89f64c09d83ec36fdd403","3","1","2025-07-30T09:20:28.952Z","","","","","","","","","","","MotivationQ","","50","","","","","","","","","","","","","","","","","","","","","","","","","","","","",""
"","","","","ctl-task-cpt","24","636270","0.0-5.0-0.3","280","1","2025-07-30 09:10:23","1f75c3e559b7213887762d5229550c2b","41.115.106.151","Mozilla/5.0 (Windows NT 10.0; Win64; x64) AppleWebKit/537.36 (KHTML, like Gecko) Chrome/138.0.0.0 Safari/537.36","WebKit","Chrome","138.0.0.0","Windows","10.0","https://app.prolific.com/","en-GB,en-US;q=0.9,en;q=0.8","67b89f64c09d83ec36fdd403","6877631c9844ddd5501205fc","6889dde9a4e2f6f63337139b","3","1","67b89f64c09d83ec36fdd403","3","1","2025-07-30T09:21:01.294Z","","","","","","","","","","","","","","win-only","2","g1:SE,g2:NW","0.7","4","0","606703.1","4015.2","9017.7","29335.7","1","4","8","6","1","-1","-9","0","0","0","5002.5","3000","-2020","[""down"",""right""]","{""num_key_presses"":16,""num_perfect"":1,""num_errors"":8,""num_randdir"":0,""num_randdir_good_moves"":0,""num_whilered"":7,""num_whileblue"":0,""num_blue"":0,""num_good_moves"":1}","[418.57142857142856,418.47767857142856,0.4,418.57142857142856,418.47767857142856,102.6,418.57142857142856,418.47767857142856,207.2,418.57142857142856,420.47767857142856,316.9,418.57142857142856,434.47767857142856,419.9,418.57142857142856,434.47767857142856,534.2,418.57142857142856,434.47767857142856,639.4,418.57142857142856,434.47767857142856,753,418.57142857142856,434.47767857142856,868.3,418.57142857142856,434.47767857142856,974.2,418.57142857142856,434.47767857142856,1076.4,418.57142857142856,434.47767857142856,1181.9,418.57142857142856,434.47767857142856,1283.4,418.57142857142856,434.47767857142856,1385.4,418.57142857142856,434.47767857142856,1491.9,418.57142857142856,434.47767857142856,1599.4,418.57142857142856,434.47767857142856,1701.7,418.57142857142856,434.47767857142856,1802.5,418.57142857142856,434.47767857142856,1918.2,418.57142857142856,434.47767857142856,2022.4,418.57142857142856,434.47767857142856,2134.8,418.57142857142856,434.47767857142856,2241,418.57142857142856,434.47767857142856,2342.7,418.57142857142856,434.47767857142856,2450.4,418.57142857142856,434.47767857142856,2552.3,418.57142857142856,434.47767857142856,2656.8,418.57142857142856,434.47767857142856,2757.9,418.57142857142856,434.47767857142856,2857.9,418.57142857142856,434.47767857142856,2965,418.57142857142856,434.47767857142856,3067.2,418.57142857142856,434.47767857142856,3171.4,418.57142857142856,434.47767857142856,3272.3,418.57142857142856,437.47767857142856,3377.3,418.57142857142856,437.47767857142856,3483.7,418.57142857142856,437.47767857142856,3583.7,522.5714285714286,468.47767857142856,3687.8,532.5714285714286,476.47767857142856,3793.3,532.5714285714286,476.47767857142856,3898.8,480.57142857142856,471.47767857142856,4003.6,459.57142857142856,473.47767857142856,4106.5,460.57142857142856,476.47767857142856,4212.2,484.57142857142856,496.47767857142856,4316.6,484.57142857142856,496.47767857142856,4418,484.57142857142856,496.47767857142856,4519,484.57142857142856,496.47767857142856,4621.9,484.57142857142856,496.47767857142856,4724,484.57142857142856,496.47767857142856,4824.9,484.57142857142856,496.47767857142856,4927.5]","[4868.6,4868.6,1000,0,3868.6,""smooth"",""right"",""right"",""good_move"",5286.7,417.6,2482,4869.2,-2064.5,""error"",""-"",""-"",""no_move"",5931.1,644.1,2482,4869.2,-1420.1,""while_red"",""-"",""-"",""no_move"",6480.5,1193.6,2276.8,6288.7,-2084.9,""error"",""-"",""-"",""no_move"",7353.2,872.2,2276.8,6288.7,-1212.3,""while_red"",""-"",""-"",""no_move"",8632.8,2151.8,2993.9,7487.4,-1848.5,""error"",""-"",""-"",""no_move"",9263.6,630.3,2993.9,7487.4,-1217.7,""while_red"",""-"",""-"",""no_move"",10224.9,1591.6,2331.4,9641.3,-1747.8,""error"",""-"",""-"",""no_move"",11835,1609.2,2966.2,11227.8,-2359,""error"",""-"",""-"",""no_move"",12560.6,725.3,2966.2,11227.8,-1633.4,""while_red"",""-"",""-"",""no_move"",13134,1298.7,3417.4,12841.6,-3125,""error"",""-"",""-"",""no_move"",13469,334.2,3417.4,12841.6,-2790,""while_red"",""-"",""-"",""no_move"",14179.8,1045,3034.3,14139.1,-2993.6,""error"",""-"",""-"",""no_move"",14405.6,225.4,3034.3,14139.1,-2767.8,""while_red"",""-"",""-"",""no_move"",16246.5,2066.4,3203.7,15187.8,-2144.9,""error"",""-"",""-"",""no_move"",16928.9,681.6,3203.7,15187.8,-1462.5,""while_red"",""-"",""-"",""no_move""]","",""
"4608","","<div style=""width:500px;"">
  <p>What determined the result of this run?</p>
  </div>","38","html-slider-response","25","640882","0.0-5.0-1.3","280","1","2025-07-30 09:10:23","1f75c3e559b7213887762d5229550c2b","41.115.106.151","Mozilla/5.0 (Windows NT 10.0; Win64; x64) AppleWebKit/537.36 (KHTML, like Gecko) Chrome/138.0.0.0 Safari/537.36","WebKit","Chrome","138.0.0.0","Windows","10.0","https://app.prolific.com/","en-GB,en-US;q=0.9,en;q=0.8","67b89f64c09d83ec36fdd403","6877631c9844ddd5501205fc","6889dde9a4e2f6f63337139b","3","1","67b89f64c09d83ec36fdd403","3","1","2025-07-30T09:21:05.906Z","","","","","","","","","","","AttribQ","","50","","","","","","","","","","","","","","","","","","","","","","","","","","","","",""
"6861","","<div style=""width:500px;"">
  <p>How much control did you have over the ball?</p>
  </div>","45","html-slider-response","26","647748","0.0-5.0-2.3","280","1","2025-07-30 09:10:23","1f75c3e559b7213887762d5229550c2b","41.115.106.151","Mozilla/5.0 (Windows NT 10.0; Win64; x64) AppleWebKit/537.36 (KHTML, like Gecko) Chrome/138.0.0.0 Safari/537.36","WebKit","Chrome","138.0.0.0","Windows","10.0","https://app.prolific.com/","en-GB,en-US;q=0.9,en;q=0.8","67b89f64c09d83ec36fdd403","6877631c9844ddd5501205fc","6889dde9a4e2f6f63337139b","3","1","67b89f64c09d83ec36fdd403","3","1","2025-07-30T09:21:12.772Z","","","","","","","","","","","ControlQ","","50","","","","","","","","","","","","","","","","","","","","","","","","","","","","",""
"4739","","<div style=""width:500px;"">
  <p>How would you describe your current emotional state?</p>
  </div>","38","html-slider-response","27","652491","0.0-5.0-3.3","280","1","2025-07-30 09:10:23","1f75c3e559b7213887762d5229550c2b","41.115.106.151","Mozilla/5.0 (Windows NT 10.0; Win64; x64) AppleWebKit/537.36 (KHTML, like Gecko) Chrome/138.0.0.0 Safari/537.36","WebKit","Chrome","138.0.0.0","Windows","10.0","https://app.prolific.com/","en-GB,en-US;q=0.9,en;q=0.8","67b89f64c09d83ec36fdd403","6877631c9844ddd5501205fc","6889dde9a4e2f6f63337139b","3","1","67b89f64c09d83ec36fdd403","3","1","2025-07-30T09:21:17.515Z","","","","","","","","","","","StressQ","","50","","","","","","","","","","","","","","","","","","","","","","","","","","","","",""
"7101","","<div style=""width:500px;"">
  <p>What best describes how you currently feel?</p>
  </div>","41","html-slider-response","28","659596","0.0-5.0-4.3","280","1","2025-07-30 09:10:23","1f75c3e559b7213887762d5229550c2b","41.115.106.151","Mozilla/5.0 (Windows NT 10.0; Win64; x64) AppleWebKit/537.36 (KHTML, like Gecko) Chrome/138.0.0.0 Safari/537.36","WebKit","Chrome","138.0.0.0","Windows","10.0","https://app.prolific.com/","en-GB,en-US;q=0.9,en;q=0.8","67b89f64c09d83ec36fdd403","6877631c9844ddd5501205fc","6889dde9a4e2f6f63337139b","3","1","67b89f64c09d83ec36fdd403","3","1","2025-07-30T09:21:24.620Z","","","","","","","","","","","MotivationQ","","50","","","","","","","","","","","","","","","","","","","","","","","","","","","","",""
"","","","","ctl-task-cpt","29","720314","0.0-5.0-0.4","280","1","2025-07-30 09:10:23","1f75c3e559b7213887762d5229550c2b","41.115.106.151","Mozilla/5.0 (Windows NT 10.0; Win64; x64) AppleWebKit/537.36 (KHTML, like Gecko) Chrome/138.0.0.0 Safari/537.36","WebKit","Chrome","138.0.0.0","Windows","10.0","https://app.prolific.com/","en-GB,en-US;q=0.9,en;q=0.8","67b89f64c09d83ec36fdd403","6877631c9844ddd5501205fc","6889dde9a4e2f6f63337139b","3","1","67b89f64c09d83ec36fdd403","3","1","2025-07-30T09:22:25.338Z","","","","","","","","","","","","","","win-only","1","g1:NE,g2:SW","0.6","5","0","662377.2","5498","10499.1","57690.3","1","4","8","6","1","1","-12","0","0","0","5001.1","3000","100","[""up"",""right""]","{""num_key_presses"":28,""num_perfect"":4,""num_errors"":13,""num_randdir"":2,""num_randdir_good_moves"":1,""num_whilered"":9,""num_whileblue"":2,""num_blue"":4,""num_good_moves"":6}","[417.57142857142856,416.47767857142856,0.6,417.57142857142856,416.47767857142856,113.3,417.57142857142856,416.47767857142856,217.8,417.57142857142856,416.47767857142856,319.3,419.57142857142856,416.47767857142856,419.5,422.57142857142856,419.47767857142856,521.3,447.57142857142856,454.47767857142856,625.6,449.57142857142856,455.47767857142856,726.8,449.57142857142856,459.47767857142856,829.3,449.57142857142856,459.47767857142856,932.5,449.57142857142856,459.47767857142856,1035,449.57142857142856,459.47767857142856,1138,449.57142857142856,459.47767857142856,1246.5,449.57142857142856,459.47767857142856,1352.2,449.57142857142856,459.47767857142856,1452.5,449.57142857142856,459.47767857142856,1559.3,449.57142857142856,459.47767857142856,1662.3,449.57142857142856,459.47767857142856,1763.8,449.57142857142856,459.47767857142856,1868.3,449.57142857142856,459.47767857142856,1968.6,449.57142857142856,459.47767857142856,2069,449.57142857142856,459.47767857142856,2178.1,449.57142857142856,459.47767857142856,2280,449.57142857142856,459.47767857142856,2386.6,449.57142857142856,459.47767857142856,2495.7,449.57142857142856,459.47767857142856,2599.1,449.57142857142856,459.47767857142856,2701.1,449.57142857142856,459.47767857142856,2809.6,449.57142857142856,459.47767857142856,2913.4,449.57142857142856,461.47767857142856,3028.9,449.57142857142856,461.47767857142856,3133.7,449.57142857142856,461.47767857142856,3246.4,450.57142857142856,456.47767857142856,3351,451.57142857142856,454.47767857142856,3453.3,492.57142857142856,456.47767857142856,3554.1,492.57142857142856,456.47767857142856,3661.9,492.57142857142856,456.47767857142856,3766.7,488.57142857142856,403.47767857142856,3870.2,470.57142857142856,351.47767857142856,3979.5,468.57142857142856,347.47767857142856,4083.8,468.57142857142856,347.47767857142856,4194.2,468.57142857142856,347.47767857142856,4312.4,468.57142857142856,347.47767857142856,4413.6,468.57142857142856,347.47767857142856,4519.7,468.57142857142856,347.47767857142856,4619.7,473.57142857142856,348.47767857142856,4720.1,475.57142857142856,348.47767857142856,4831.8,475.57142857142856,348.47767857142856,4945.4]","[1238.6,1238.7,1003,0,235.7,""while_blue"",""left"",""down"",""bad_move"",1471.4,231.8,2744.1,1239.7,-2512.4,""error"",""-"",""-"",""no_move"",1644.3,172.5,2744.1,1239.7,-2339.5,""while_red"",""-"",""-"",""no_move"",2100.8,629,2744.1,1239.7,-1883,""while_red"",""-"",""-"",""no_move"",2618,1146.2,2465.1,2479.9,-2327,""error"",""-"",""-"",""no_move"",2817.9,198.7,2465.1,2479.9,-2127.1,""while_red"",""-"",""-"",""no_move"",2977.4,358.2,2465.1,2479.9,-1967.6,""while_red"",""-"",""-"",""no_move"",3226.7,607.6,2465.1,2479.9,-1718.2,""while_red"",""-"",""-"",""no_move"",3537.8,918.6,2465.1,2479.9,-1407.2,""while_red"",""-"",""-"",""no_move"",4089,1469.9,2362.1,3625.8,-1898.8,""error"",""-"",""-"",""no_move"",4258.2,168.9,2362.1,3625.8,-1729.7,""while_red"",""-"",""-"",""no_move"",4861.3,772,2362.1,3625.8,-1126.6,""while_red"",""-"",""-"",""no_move"",5135.6,1046.3,3627.7,5093.6,-3585.7,""error"",""-"",""-"",""no_move"",5405.3,269,3627.7,5093.6,-3315.8,""while_red"",""-"",""-"",""no_move"",8076,2939.6,1946.2,6146.7,-16.9,""error"",""-"",""-"",""no_move"",9330.9,1254.7,2646.7,9083.3,-2399.1,""error"",""-"",""-"",""no_move"",13067.8,3735.9,2014.8,10336.3,716.7,""oops"",""up"",""down"",""bad_move"",14274.3,1205.3,2632.4,13069,-1427.1,""error"",""-"",""-"",""no_move"",16043.8,1768.4,2937.5,15283.3,-2177,""error"",""-"",""-"",""no_move"",20344.7,4300.6,2640.7,17049.2,654.8,""oops"",""up"",""up"",""good_move"",23079.8,2734.5,2091.3,20345.3,643.2,""smooth"",""up"",""up"",""good_move"",26679.8,3599.6,3220.6,23080.2,379,""smooth"",""up"",""up"",""good_move"",27146.3,466.3,2170.5,26680,-1704.2,""error"",""-"",""-"",""no_move"",31613.3,4466.8,2675.5,28152.7,785.1,""while_blue"",""up"",""right"",""good_move"",35225.2,3611.4,2415.8,35194.3,-2384.9,""error"",""-"",""-"",""no_move"",39801.6,4576.1,1722.9,39726.8,-1648.1,""error"",""-"",""-"",""no_move"",44230.4,4427.2,2563.2,40803.7,863.5,""smooth"",""up"",""up"",""good_move"",47068.1,2837.1,1713.9,44231,1123.2,""smooth"",""right"",""right"",""good_move""]","",""
"5792","","<div style=""width:500px;"">
  <p>What determined the result of this run?</p>
  </div>","14","html-slider-response","30","726109","0.0-5.0-1.4","280","1","2025-07-30 09:10:23","1f75c3e559b7213887762d5229550c2b","41.115.106.151","Mozilla/5.0 (Windows NT 10.0; Win64; x64) AppleWebKit/537.36 (KHTML, like Gecko) Chrome/138.0.0.0 Safari/537.36","WebKit","Chrome","138.0.0.0","Windows","10.0","https://app.prolific.com/","en-GB,en-US;q=0.9,en;q=0.8","67b89f64c09d83ec36fdd403","6877631c9844ddd5501205fc","6889dde9a4e2f6f63337139b","3","1","67b89f64c09d83ec36fdd403","3","1","2025-07-30T09:22:31.133Z","","","","","","","","","","","AttribQ","","50","","","","","","","","","","","","","","","","","","","","","","","","","","","","",""
"5278","","<div style=""width:500px;"">
  <p>How much control did you have over the ball?</p>
  </div>","35","html-slider-response","31","731391","0.0-5.0-2.4","280","1","2025-07-30 09:10:23","1f75c3e559b7213887762d5229550c2b","41.115.106.151","Mozilla/5.0 (Windows NT 10.0; Win64; x64) AppleWebKit/537.36 (KHTML, like Gecko) Chrome/138.0.0.0 Safari/537.36","WebKit","Chrome","138.0.0.0","Windows","10.0","https://app.prolific.com/","en-GB,en-US;q=0.9,en;q=0.8","67b89f64c09d83ec36fdd403","6877631c9844ddd5501205fc","6889dde9a4e2f6f63337139b","3","1","67b89f64c09d83ec36fdd403","3","1","2025-07-30T09:22:36.416Z","","","","","","","","","","","ControlQ","","50","","","","","","","","","","","","","","","","","","","","","","","","","","","","",""
"4399","","<div style=""width:500px;"">
  <p>How would you describe your current emotional state?</p>
  </div>","40","html-slider-response","32","735794","0.0-5.0-3.4","280","1","2025-07-30 09:10:23","1f75c3e559b7213887762d5229550c2b","41.115.106.151","Mozilla/5.0 (Windows NT 10.0; Win64; x64) AppleWebKit/537.36 (KHTML, like Gecko) Chrome/138.0.0.0 Safari/537.36","WebKit","Chrome","138.0.0.0","Windows","10.0","https://app.prolific.com/","en-GB,en-US;q=0.9,en;q=0.8","67b89f64c09d83ec36fdd403","6877631c9844ddd5501205fc","6889dde9a4e2f6f63337139b","3","1","67b89f64c09d83ec36fdd403","3","1","2025-07-30T09:22:40.819Z","","","","","","","","","","","StressQ","","50","","","","","","","","","","","","","","","","","","","","","","","","","","","","",""
"5879","","<div style=""width:500px;"">
  <p>What best describes how you currently feel?</p>
  </div>","38","html-slider-response","33","741678","0.0-5.0-4.4","280","1","2025-07-30 09:10:23","1f75c3e559b7213887762d5229550c2b","41.115.106.151","Mozilla/5.0 (Windows NT 10.0; Win64; x64) AppleWebKit/537.36 (KHTML, like Gecko) Chrome/138.0.0.0 Safari/537.36","WebKit","Chrome","138.0.0.0","Windows","10.0","https://app.prolific.com/","en-GB,en-US;q=0.9,en;q=0.8","67b89f64c09d83ec36fdd403","6877631c9844ddd5501205fc","6889dde9a4e2f6f63337139b","3","1","67b89f64c09d83ec36fdd403","3","1","2025-07-30T09:22:46.702Z","","","","","","","","","","","MotivationQ","","50","","","","","","","","","","","","","","","","","","","","","","","","","","","","",""
"","","","","ctl-task-cpt","34","779381","0.0-5.0-0.5","280","1","2025-07-30 09:10:23","1f75c3e559b7213887762d5229550c2b","41.115.106.151","Mozilla/5.0 (Windows NT 10.0; Win64; x64) AppleWebKit/537.36 (KHTML, like Gecko) Chrome/138.0.0.0 Safari/537.36","WebKit","Chrome","138.0.0.0","Windows","10.0","https://app.prolific.com/","en-GB,en-US;q=0.9,en;q=0.8","67b89f64c09d83ec36fdd403","6877631c9844ddd5501205fc","6889dde9a4e2f6f63337139b","3","1","67b89f64c09d83ec36fdd403","3","1","2025-07-30T09:23:24.405Z","","","","","","","","","","","","","","win-only","0","g1:NW,g2:SE","0.5","6","0","744452.5","2066.6","7074.2","34683.5","1","4","4","6","2","-4","-5","0","0","0","5007.6","3000","-2015","[""down"",""right""]","{""num_key_presses"":9,""num_perfect"":4,""num_errors"":1,""num_randdir"":4,""num_randdir_good_moves"":2,""num_whilered"":0,""num_whileblue"":1,""num_blue"":1,""num_good_moves"":7}","[421.57142857142856,418.47767857142856,0.2,421.57142857142856,418.47767857142856,101,421.57142857142856,418.47767857142856,216.3,421.57142857142856,418.47767857142856,333.7,421.57142857142856,418.47767857142856,436.3,399.57142857142856,418.47767857142856,542.7,399.57142857142856,418.47767857142856,649,400.57142857142856,420.47767857142856,751.4,405.57142857142856,426.47767857142856,855.1,405.57142857142856,426.47767857142856,967.9,405.57142857142856,426.47767857142856,1068.3,404.57142857142856,421.47767857142856,1168.8,404.57142857142856,421.47767857142856,1269.9,377.57142857142856,404.47767857142856,1375.3,353.57142857142856,380.47767857142856,1481.9,342.57142857142856,363.47767857142856,1584.1,342.57142857142856,363.47767857142856,1684.9,342.57142857142856,363.47767857142856,1790.4,342.57142857142856,363.47767857142856,1902.1,342.57142857142856,362.47767857142856,2004.7,342.57142857142856,362.47767857142856,2118.9,342.57142857142856,362.47767857142856,2223.8,342.57142857142856,362.47767857142856,2325.1,342.57142857142856,362.47767857142856,2427.8,342.57142857142856,362.47767857142856,2533.7,342.57142857142856,362.47767857142856,2635.1,342.57142857142856,362.47767857142856,2740,342.57142857142856,360.47767857142856,2848.2,342.57142857142856,360.47767857142856,2949.6,342.57142857142856,360.47767857142856,3057.7,342.57142857142856,360.47767857142856,3160.1,342.57142857142856,360.47767857142856,3266.2,342.57142857142856,360.47767857142856,3368.4,342.57142857142856,360.47767857142856,3473.2,342.57142857142856,360.47767857142856,3573.6,341.57142857142856,361.47767857142856,3674.8,341.57142857142856,361.47767857142856,3783.9,341.57142857142856,361.47767857142856,3886.8,341.57142857142856,361.47767857142856,3988.7,341.57142857142856,361.47767857142856,4098.7,341.57142857142856,361.47767857142856,4207.2,341.57142857142856,361.47767857142856,4313.7,341.57142857142856,361.47767857142856,4414.9,341.57142857142856,361.47767857142856,4518.5,341.57142857142856,361.47767857142856,4624.9,341.57142857142856,361.47767857142856,4726.8,341.57142857142856,361.47767857142856,4832.2,341.57142857142856,361.47767857142856,4932.4]","[1474.5,1474.5,1003.2,0,471.3,""while_blue"",""down"",""down"",""good_move"",4529.9,3054.2,2311.9,1475.7,742.3,""oops"",""down"",""down"",""good_move"",7349.3,2816.1,2271,4533.2,545.2,""smooth"",""right"",""right"",""good_move"",10709.1,3359,2760.4,7350.1,598.6,""smooth"",""right"",""right"",""good_move"",13626.1,2915.4,2400.3,10710.8,515,""smooth"",""right"",""right"",""good_move"",16194.1,2567.7,2112.2,13626.4,455.5,""oops"",""down"",""up"",""bad_move"",18941.4,2746.8,2095.9,16194.6,650.9,""oops"",""left"",""left"",""bad_move"",21255.8,2312.9,1869.4,18942.9,443.5,""smooth"",""down"",""down"",""good_move"",24713.9,3456.1,2961.4,21257.8,494.7,""oops"",""down"",""down"",""good_move""]","",""
"4866","","<div style=""width:500px;"">
  <p>What determined the result of this run?</p>
  </div>","15","html-slider-response","35","784249","0.0-5.0-1.5","280","1","2025-07-30 09:10:23","1f75c3e559b7213887762d5229550c2b","41.115.106.151","Mozilla/5.0 (Windows NT 10.0; Win64; x64) AppleWebKit/537.36 (KHTML, like Gecko) Chrome/138.0.0.0 Safari/537.36","WebKit","Chrome","138.0.0.0","Windows","10.0","https://app.prolific.com/","en-GB,en-US;q=0.9,en;q=0.8","67b89f64c09d83ec36fdd403","6877631c9844ddd5501205fc","6889dde9a4e2f6f63337139b","3","1","67b89f64c09d83ec36fdd403","3","1","2025-07-30T09:23:29.274Z","","","","","","","","","","","AttribQ","","50","","","","","","","","","","","","","","","","","","","","","","","","","","","","",""
"3154","","<div style=""width:500px;"">
  <p>How much control did you have over the ball?</p>
  </div>","19","html-slider-response","36","787409","0.0-5.0-2.5","280","1","2025-07-30 09:10:23","1f75c3e559b7213887762d5229550c2b","41.115.106.151","Mozilla/5.0 (Windows NT 10.0; Win64; x64) AppleWebKit/537.36 (KHTML, like Gecko) Chrome/138.0.0.0 Safari/537.36","WebKit","Chrome","138.0.0.0","Windows","10.0","https://app.prolific.com/","en-GB,en-US;q=0.9,en;q=0.8","67b89f64c09d83ec36fdd403","6877631c9844ddd5501205fc","6889dde9a4e2f6f63337139b","3","1","67b89f64c09d83ec36fdd403","3","1","2025-07-30T09:23:32.433Z","","","","","","","","","","","ControlQ","","50","","","","","","","","","","","","","","","","","","","","","","","","","","","","",""
"3032","","<div style=""width:500px;"">
  <p>How would you describe your current emotional state?</p>
  </div>","32","html-slider-response","37","790446","0.0-5.0-3.5","280","1","2025-07-30 09:10:23","1f75c3e559b7213887762d5229550c2b","41.115.106.151","Mozilla/5.0 (Windows NT 10.0; Win64; x64) AppleWebKit/537.36 (KHTML, like Gecko) Chrome/138.0.0.0 Safari/537.36","WebKit","Chrome","138.0.0.0","Windows","10.0","https://app.prolific.com/","en-GB,en-US;q=0.9,en;q=0.8","67b89f64c09d83ec36fdd403","6877631c9844ddd5501205fc","6889dde9a4e2f6f63337139b","3","1","67b89f64c09d83ec36fdd403","3","1","2025-07-30T09:23:35.470Z","","","","","","","","","","","StressQ","","50","","","","","","","","","","","","","","","","","","","","","","","","","","","","",""
"2334","","<div style=""width:500px;"">
  <p>What best describes how you currently feel?</p>
  </div>","39","html-slider-response","38","792782","0.0-5.0-4.5","280","1","2025-07-30 09:10:23","1f75c3e559b7213887762d5229550c2b","41.115.106.151","Mozilla/5.0 (Windows NT 10.0; Win64; x64) AppleWebKit/537.36 (KHTML, like Gecko) Chrome/138.0.0.0 Safari/537.36","WebKit","Chrome","138.0.0.0","Windows","10.0","https://app.prolific.com/","en-GB,en-US;q=0.9,en;q=0.8","67b89f64c09d83ec36fdd403","6877631c9844ddd5501205fc","6889dde9a4e2f6f63337139b","3","1","67b89f64c09d83ec36fdd403","3","1","2025-07-30T09:23:37.806Z","","","","","","","","","","","MotivationQ","","50","","","","","","","","","","","","","","","","","","","","","","","","","","","","",""
"","","","","ctl-task-cpt","39","846950","0.0-5.0-0.6","280","1","2025-07-30 09:10:23","1f75c3e559b7213887762d5229550c2b","41.115.106.151","Mozilla/5.0 (Windows NT 10.0; Win64; x64) AppleWebKit/537.36 (KHTML, like Gecko) Chrome/138.0.0.0 Safari/537.36","WebKit","Chrome","138.0.0.0","Windows","10.0","https://app.prolific.com/","en-GB,en-US;q=0.9,en;q=0.8","67b89f64c09d83ec36fdd403","6877631c9844ddd5501205fc","6889dde9a4e2f6f63337139b","3","1","67b89f64c09d83ec36fdd403","3","1","2025-07-30T09:24:31.974Z","","","","","","","","","","","","","","win-only","2","g1:SE,g2:NW","0.4","7","0","795556.3","7963","12967.5","51144.4","1","4","8","6","2","-8","-10","0","0","0","4306.2","3000","-1840","[""left"",""up""]","{""num_key_presses"":9,""num_perfect"":3,""num_errors"":2,""num_randdir"":4,""num_randdir_good_moves"":2,""num_whilered"":0,""num_whileblue"":1,""num_blue"":4,""num_good_moves"":5}","[420.57142857142856,418.47767857142856,0.2,420.57142857142856,418.47767857142856,104,420.57142857142856,418.47767857142856,207.9,420.57142857142856,418.47767857142856,308.4,420.57142857142856,418.47767857142856,415.3,420.57142857142856,418.47767857142856,517.6,435.57142857142856,436.47767857142856,627,467.57142857142856,470.47767857142856,729.5,498.57142857142856,511.47767857142856,835.6,507.57142857142856,537.4776785714286,954.6,507.57142857142856,537.4776785714286,1059.6,507.57142857142856,537.4776785714286,1164.3,501.57142857142856,528.4776785714286,1265.1,500.57142857142856,523.4776785714286,1370,500.57142857142856,518.4776785714286,1474.7,500.57142857142856,514.4776785714286,1581.5,497.57142857142856,507.47767857142856,1685.1,496.57142857142856,503.47767857142856,1789,491.57142857142856,495.47767857142856,1891.9,489.57142857142856,492.47767857142856,1992.7,488.57142857142856,491.47767857142856,2094.3,488.57142857142856,491.47767857142856,2204,487.57142857142856,490.47767857142856,2327,487.57142857142856,490.47767857142856,2436.4,487.57142857142856,490.47767857142856,2539.3,487.57142857142856,490.47767857142856,2639.7,487.57142857142856,490.47767857142856,2746.2,487.57142857142856,490.47767857142856,2851.9,487.57142857142856,490.47767857142856,2953.3,487.57142857142856,490.47767857142856,3054.1,487.57142857142856,490.47767857142856,3155.1,487.57142857142856,490.47767857142856,3257.4,487.57142857142856,490.47767857142856,3357.9,487.57142857142856,490.47767857142856,3457.9,461.57142857142856,467.47767857142856,3558.2,361.57142857142856,357.47767857142856,3658.4,304.57142857142856,287.47767857142856,3764.8,273.57142857142856,249.47767857142856,3876.5,183.57142857142856,166.47767857142856,3977.8,161.57142857142856,137.47767857142856,4079.4,102.57142857142857,110.47767857142857,4190.5,44.57142857142857,84.47767857142857,4297.6,44.57142857142857,83.47767857142857,4406.8,44.57142857142857,83.47767857142857,4507.9,44.57142857142857,81.47767857142857,4611.7,116.57142857142857,107.47767857142857,4720.6,357.57142857142856,256.47767857142856,4823.1,473.57142857142856,378.47767857142856,4924.6]","[2054,2054.1,1000,0,1054.1,""oops"",""up"",""down"",""bad_move"",4518.3,2461.4,1947,2056.9,514.4,""while_blue"",""down"",""up"",""good_move"",8133.7,3613.7,2934.7,4520.1,678.9,""smooth"",""down"",""down"",""bad_move"",10626.1,2491.1,1859.2,8135,631.9,""oops"",""up"",""up"",""good_move"",16999.6,6372.8,2597.3,13640.5,761.8,""smooth"",""up"",""up"",""good_move"",26383.4,9382.9,1988.2,23822.8,572.4,""oops"",""up"",""right"",""bad_move"",30078.7,3693.8,2569.7,26384.9,1124.1,""smooth"",""left"",""left"",""good_move"",33473,3393.8,2978.4,30079.2,415.5,""oops"",""left"",""up"",""good_move"",34684.3,1211,2644.1,33473.3,-1433.1,""error"",""-"",""-"",""no_move""]","",""
"11439","","<div style=""width:500px;"">
  <p>What determined the result of this run?</p>
  </div>","31","html-slider-response","40","858391","0.0-5.0-1.6","280","1","2025-07-30 09:10:23","1f75c3e559b7213887762d5229550c2b","41.115.106.151","Mozilla/5.0 (Windows NT 10.0; Win64; x64) AppleWebKit/537.36 (KHTML, like Gecko) Chrome/138.0.0.0 Safari/537.36","WebKit","Chrome","138.0.0.0","Windows","10.0","https://app.prolific.com/","en-GB,en-US;q=0.9,en;q=0.8","67b89f64c09d83ec36fdd403","6877631c9844ddd5501205fc","6889dde9a4e2f6f63337139b","3","1","67b89f64c09d83ec36fdd403","3","1","2025-07-30T09:24:43.416Z","","","","","","","","","","","AttribQ","","50","","","","","","","","","","","","","","","","","","","","","","","","","","","","",""
"2981","","<div style=""width:500px;"">
  <p>How much control did you have over the ball?</p>
  </div>","23","html-slider-response","41","861374","0.0-5.0-2.6","280","1","2025-07-30 09:10:23","1f75c3e559b7213887762d5229550c2b","41.115.106.151","Mozilla/5.0 (Windows NT 10.0; Win64; x64) AppleWebKit/537.36 (KHTML, like Gecko) Chrome/138.0.0.0 Safari/537.36","WebKit","Chrome","138.0.0.0","Windows","10.0","https://app.prolific.com/","en-GB,en-US;q=0.9,en;q=0.8","67b89f64c09d83ec36fdd403","6877631c9844ddd5501205fc","6889dde9a4e2f6f63337139b","3","1","67b89f64c09d83ec36fdd403","3","1","2025-07-30T09:24:46.398Z","","","","","","","","","","","ControlQ","","50","","","","","","","","","","","","","","","","","","","","","","","","","","","","",""
"2605","","<div style=""width:500px;"">
  <p>How would you describe your current emotional state?</p>
  </div>","25","html-slider-response","42","863981","0.0-5.0-3.6","280","1","2025-07-30 09:10:23","1f75c3e559b7213887762d5229550c2b","41.115.106.151","Mozilla/5.0 (Windows NT 10.0; Win64; x64) AppleWebKit/537.36 (KHTML, like Gecko) Chrome/138.0.0.0 Safari/537.36","WebKit","Chrome","138.0.0.0","Windows","10.0","https://app.prolific.com/","en-GB,en-US;q=0.9,en;q=0.8","67b89f64c09d83ec36fdd403","6877631c9844ddd5501205fc","6889dde9a4e2f6f63337139b","3","1","67b89f64c09d83ec36fdd403","3","1","2025-07-30T09:24:49.005Z","","","","","","","","","","","StressQ","","50","","","","","","","","","","","","","","","","","","","","","","","","","","","","",""
"2768","","<div style=""width:500px;"">
  <p>What best describes how you currently feel?</p>
  </div>","30","html-slider-response","43","866751","0.0-5.0-4.6","280","1","2025-07-30 09:10:23","1f75c3e559b7213887762d5229550c2b","41.115.106.151","Mozilla/5.0 (Windows NT 10.0; Win64; x64) AppleWebKit/537.36 (KHTML, like Gecko) Chrome/138.0.0.0 Safari/537.36","WebKit","Chrome","138.0.0.0","Windows","10.0","https://app.prolific.com/","en-GB,en-US;q=0.9,en;q=0.8","67b89f64c09d83ec36fdd403","6877631c9844ddd5501205fc","6889dde9a4e2f6f63337139b","3","1","67b89f64c09d83ec36fdd403","3","1","2025-07-30T09:24:51.775Z","","","","","","","","","","","MotivationQ","","50","","","","","","","","","","","","","","","","","","","","","","","","","","","","",""
"","","","","ctl-task-cpt","44","924947","0.0-5.0-0.7","280","1","2025-07-30 09:10:23","1f75c3e559b7213887762d5229550c2b","41.115.106.151","Mozilla/5.0 (Windows NT 10.0; Win64; x64) AppleWebKit/537.36 (KHTML, like Gecko) Chrome/138.0.0.0 Safari/537.36","WebKit","Chrome","138.0.0.0","Windows","10.0","https://app.prolific.com/","en-GB,en-US;q=0.9,en;q=0.8","67b89f64c09d83ec36fdd403","6877631c9844ddd5501205fc","6889dde9a4e2f6f63337139b","3","1","67b89f64c09d83ec36fdd403","3","1","2025-07-30T09:25:49.971Z","","","","","","","","","","","","","","win-only","0","g1:NW,g2:SE","0.3","8","0","869525.9","971.1","5976.9","55175.8","1","4","4","6","2","-4","-6","0","0","0","1522.2","3000","-1235","[""down"",""right""]","{""num_key_presses"":14,""num_perfect"":4,""num_errors"":2,""num_randdir"":8,""num_randdir_good_moves"":5,""num_whilered"":0,""num_whileblue"":0,""num_blue"":2,""num_good_moves"":7}","[419.57142857142856,419.47767857142856,0.5,419.57142857142856,419.47767857142856,113.7,419.57142857142856,419.47767857142856,216.6,419.57142857142856,419.47767857142856,330.9,419.57142857142856,419.47767857142856,432.5,419.57142857142856,419.47767857142856,543.9,419.57142857142856,419.47767857142856,660.2,427.57142857142856,419.47767857142856,776.6,459.57142857142856,416.47767857142856,893.4,702.5714285714286,578.4776785714286,998.6,770.5714285714286,695.4776785714286,1102.5,797.5714285714286,727.4776785714286,1218.6,811.5714285714286,793.4776785714286,1319.3,794.5714285714286,798.4776785714286,1422.2,760.5714285714286,763.4776785714286,1541.2,760.5714285714286,763.4776785714286,1655.7,760.5714285714286,763.4776785714286,1764.2,760.5714285714286,763.4776785714286,1873.5,760.5714285714286,763.4776785714286,1983.4,757.5714285714286,758.4776785714286,2093,721.5714285714286,732.4776785714286,2193.4,616.5714285714286,683.4776785714286,2308.1,568.5714285714286,653.4776785714286,2420.8,538.5714285714286,623.4776785714286,2532.8,533.5714285714286,616.4776785714286,2638.7,532.5714285714286,615.4776785714286,2742.3,523.5714285714286,606.4776785714286,2850.6,506.57142857142856,584.4776785714286,2965.2,491.57142857142856,566.4776785714286,3068.5,464.57142857142856,539.4776785714286,3175.8,453.57142857142856,528.4776785714286,3289.5,431.57142857142856,514.4776785714286,3397.9,404.57142857142856,488.47767857142856,3500.4,384.57142857142856,465.47767857142856,3607.4,376.57142857142856,454.47767857142856,3719.7,369.57142857142856,440.47767857142856,3833.9,369.57142857142856,439.47767857142856,3938.2,369.57142857142856,439.47767857142856,4038.7,369.57142857142856,438.47767857142856,4145.4,369.57142857142856,438.47767857142856,4255.3,369.57142857142856,438.47767857142856,4361.6,360.57142857142856,407.47767857142856,4474.5,357.57142857142856,393.47767857142856,4581,356.57142857142856,388.47767857142856,4687.7,356.57142857142856,387.47767857142856,4796.4,356.57142857142856,387.47767857142856,4899.3]","[5568.9,5568.9,2890.3,2016.4,662.2,""oops"",""down"",""left"",""bad_move"",6488.9,919.4,2866.4,5569.6,-1947,""error"",""-"",""-"",""no_move"",13453.3,6963.2,1676.1,10914.4,862.8,""oops"",""up"",""down"",""good_move"",16959.9,3505.8,2366.7,13454.1,1139.1,""smooth"",""up"",""up"",""bad_move"",20602.9,3642.6,2722.1,16960.5,920.4,""smooth"",""down"",""down"",""good_move"",23804.2,3200,2584.8,20604.2,615.3,""oops"",""down"",""up"",""bad_move"",26626.9,2821.5,2345.2,23805.4,476.3,""oops"",""right"",""right"",""good_move"",28874.2,2246.7,1794.4,26627.5,452.3,""smooth"",""right"",""right"",""good_move"",32578.9,3704.1,3115.7,28874.8,588.4,""oops"",""right"",""down"",""good_move"",35569.1,2989.9,2412.4,32579.3,577.4,""oops"",""right"",""left"",""bad_move"",38304.8,2734.5,2248.8,35570.3,485.7,""oops"",""left"",""right"",""good_move"",42158.2,3852.3,3328.8,38305.9,523.5,""oops"",""left"",""right"",""good_move"",45101,2942.5,2416.7,42158.5,525.8,""smooth"",""left"",""left"",""bad_move"",45771,669.7,2268.4,45101.3,-1598.7,""error"",""-"",""-"",""no_move""]","",""
"4398","","<div style=""width:500px;"">
  <p>What determined the result of this run?</p>
  </div>","16","html-slider-response","45","929346","0.0-5.0-1.7","280","1","2025-07-30 09:10:23","1f75c3e559b7213887762d5229550c2b","41.115.106.151","Mozilla/5.0 (Windows NT 10.0; Win64; x64) AppleWebKit/537.36 (KHTML, like Gecko) Chrome/138.0.0.0 Safari/537.36","WebKit","Chrome","138.0.0.0","Windows","10.0","https://app.prolific.com/","en-GB,en-US;q=0.9,en;q=0.8","67b89f64c09d83ec36fdd403","6877631c9844ddd5501205fc","6889dde9a4e2f6f63337139b","3","1","67b89f64c09d83ec36fdd403","3","1","2025-07-30T09:25:54.370Z","","","","","","","","","","","AttribQ","","50","","","","","","","","","","","","","","","","","","","","","","","","","","","","",""
"1794","","<div style=""width:500px;"">
  <p>How much control did you have over the ball?</p>
  </div>","36","html-slider-response","46","931141","0.0-5.0-2.7","280","1","2025-07-30 09:10:23","1f75c3e559b7213887762d5229550c2b","41.115.106.151","Mozilla/5.0 (Windows NT 10.0; Win64; x64) AppleWebKit/537.36 (KHTML, like Gecko) Chrome/138.0.0.0 Safari/537.36","WebKit","Chrome","138.0.0.0","Windows","10.0","https://app.prolific.com/","en-GB,en-US;q=0.9,en;q=0.8","67b89f64c09d83ec36fdd403","6877631c9844ddd5501205fc","6889dde9a4e2f6f63337139b","3","1","67b89f64c09d83ec36fdd403","3","1","2025-07-30T09:25:56.165Z","","","","","","","","","","","ControlQ","","50","","","","","","","","","","","","","","","","","","","","","","","","","","","","",""
"1593","","<div style=""width:500px;"">
  <p>How would you describe your current emotional state?</p>
  </div>","30","html-slider-response","47","932736","0.0-5.0-3.7","280","1","2025-07-30 09:10:23","1f75c3e559b7213887762d5229550c2b","41.115.106.151","Mozilla/5.0 (Windows NT 10.0; Win64; x64) AppleWebKit/537.36 (KHTML, like Gecko) Chrome/138.0.0.0 Safari/537.36","WebKit","Chrome","138.0.0.0","Windows","10.0","https://app.prolific.com/","en-GB,en-US;q=0.9,en;q=0.8","67b89f64c09d83ec36fdd403","6877631c9844ddd5501205fc","6889dde9a4e2f6f63337139b","3","1","67b89f64c09d83ec36fdd403","3","1","2025-07-30T09:25:57.760Z","","","","","","","","","","","StressQ","","50","","","","","","","","","","","","","","","","","","","","","","","","","","","","",""
"2383","","<div style=""width:500px;"">
  <p>What best describes how you currently feel?</p>
  </div>","23","html-slider-response","48","935121","0.0-5.0-4.7","280","1","2025-07-30 09:10:23","1f75c3e559b7213887762d5229550c2b","41.115.106.151","Mozilla/5.0 (Windows NT 10.0; Win64; x64) AppleWebKit/537.36 (KHTML, like Gecko) Chrome/138.0.0.0 Safari/537.36","WebKit","Chrome","138.0.0.0","Windows","10.0","https://app.prolific.com/","en-GB,en-US;q=0.9,en;q=0.8","67b89f64c09d83ec36fdd403","6877631c9844ddd5501205fc","6889dde9a4e2f6f63337139b","3","1","67b89f64c09d83ec36fdd403","3","1","2025-07-30T09:26:00.145Z","","","","","","","","","","","MotivationQ","","50","","","","","","","","","","","","","","","","","","","","","","","","","","","","",""
"","","","","ctl-task-cpt","49","994006","0.0-5.0-0.8","280","1","2025-07-30 09:10:23","1f75c3e559b7213887762d5229550c2b","41.115.106.151","Mozilla/5.0 (Windows NT 10.0; Win64; x64) AppleWebKit/537.36 (KHTML, like Gecko) Chrome/138.0.0.0 Safari/537.36","WebKit","Chrome","138.0.0.0","Windows","10.0","https://app.prolific.com/","en-GB,en-US;q=0.9,en;q=0.8","67b89f64c09d83ec36fdd403","6877631c9844ddd5501205fc","6889dde9a4e2f6f63337139b","3","1","67b89f64c09d83ec36fdd403","3","1","2025-07-30T09:26:59.030Z","","","","","","","","","","","","","","win-only","1","g1:NE,g2:SW","0.2","9","0","937895.7","1133.3","6141.9","55854.9","1","4","8","6","2","-8","-8","0","0","0","3849.4","3000","-1230","[""down"",""left""]","{""num_key_presses"":10,""num_perfect"":2,""num_errors"":0,""num_randdir"":8,""num_randdir_good_moves"":4,""num_whilered"":0,""num_whileblue"":0,""num_blue"":3,""num_good_moves"":6}","[420.57142857142856,418.47767857142856,0.2,420.57142857142856,418.47767857142856,116.5,420.57142857142856,418.47767857142856,233.7,420.57142857142856,418.47767857142856,350.3,420.57142857142856,416.47767857142856,458.6,445.57142857142856,415.47767857142856,568.1,447.57142857142856,413.47767857142856,674.5,333.57142857142856,474.47767857142856,793.1,221.57142857142856,572.4776785714286,902,207.57142857142856,596.4776785714286,1008.9,327.57142857142856,576.4776785714286,1117.2,374.57142857142856,556.4776785714286,1222.7,488.57142857142856,476.47767857142856,1337.8,497.57142857142856,467.47767857142856,1458.4,484.57142857142856,462.47767857142856,1565.9,483.57142857142856,462.47767857142856,1685.4,482.57142857142856,459.47767857142856,1801.4,482.57142857142856,459.47767857142856,1903.2,485.57142857142856,442.47767857142856,2005.5,487.57142857142856,412.47767857142856,2112,487.57142857142856,398.47767857142856,2231.2,487.57142857142856,392.47767857142856,2333.1,487.57142857142856,380.47767857142856,2435.2,487.57142857142856,378.47767857142856,2535.2,487.57142857142856,377.47767857142856,2653.8,487.57142857142856,377.47767857142856,2767.8,487.57142857142856,377.47767857142856,2886.2,486.57142857142856,376.47767857142856,3004.2,467.57142857142856,401.47767857142856,3109.7,255.57142857142856,554.4776785714286,3221.5,92.57142857142857,661.4776785714286,3341,82.57142857142857,678.4776785714286,3442.2,103.57142857142857,724.4776785714286,3549.6,94.57142857142857,738.4776785714286,3651.7,92.57142857142857,743.4776785714286,3752.8,86.57142857142857,747.4776785714286,3852.8,86.57142857142857,747.4776785714286,3957.3,86.57142857142857,747.4776785714286,4065.3,86.57142857142857,747.4776785714286,4168.5,86.57142857142857,747.4776785714286,4268.8,118.57142857142857,727.4776785714286,4376.9,300.57142857142856,664.4776785714286,4484.6,413.57142857142856,584.4776785714286,4590.5,437.57142857142856,571.4776785714286,4696.4,438.57142857142856,570.4776785714286,4809.1,438.57142857142856,570.4776785714286,4927.2]","[2747.8,2747.9,1000,0.1,1747.8,""smooth"",""down"",""down"",""good_move"",10376.7,7628,2934.5,6727.7,714.5,""smooth"",""down"",""down"",""good_move"",15177.9,4800.7,2596.4,10377.2,2204.3,""oops"",""down"",""right"",""bad_move"",18640.6,3462,2682.6,15178.7,779.4,""oops"",""up"",""down"",""good_move"",22523.7,3882.7,2949.8,18641,932.9,""oops"",""right"",""right"",""bad_move"",25205.9,2680.7,2125.1,22525.2,555.6,""oops"",""right"",""left"",""good_move"",29369.7,4162.6,3536.6,25207.3,625.9,""oops"",""right"",""right"",""bad_move"",35849.2,6477.5,2471.7,32795.7,581.8,""oops"",""left"",""left"",""good_move"",39456.2,3606.6,3163.6,35849.6,443,""oops"",""left"",""up"",""bad_move"",42770,3313,2136.2,39457,1176.8,""oops"",""down"",""down"",""good_move""]","",""
"4169","","<div style=""width:500px;"">
  <p>What determined the result of this run?</p>
  </div>","6","html-slider-response","50","998177","0.0-5.0-1.8","280","1","2025-07-30 09:10:23","1f75c3e559b7213887762d5229550c2b","41.115.106.151","Mozilla/5.0 (Windows NT 10.0; Win64; x64) AppleWebKit/537.36 (KHTML, like Gecko) Chrome/138.0.0.0 Safari/537.36","WebKit","Chrome","138.0.0.0","Windows","10.0","https://app.prolific.com/","en-GB,en-US;q=0.9,en;q=0.8","67b89f64c09d83ec36fdd403","6877631c9844ddd5501205fc","6889dde9a4e2f6f63337139b","3","1","67b89f64c09d83ec36fdd403","3","1","2025-07-30T09:27:03.201Z","","","","","","","","","","","AttribQ","","50","","","","","","","","","","","","","","","","","","","","","","","","","","","","",""
"2656","","<div style=""width:500px;"">
  <p>How much control did you have over the ball?</p>
  </div>","21","html-slider-response","51","1000834","0.0-5.0-2.8","280","1","2025-07-30 09:10:23","1f75c3e559b7213887762d5229550c2b","41.115.106.151","Mozilla/5.0 (Windows NT 10.0; Win64; x64) AppleWebKit/537.36 (KHTML, like Gecko) Chrome/138.0.0.0 Safari/537.36","WebKit","Chrome","138.0.0.0","Windows","10.0","https://app.prolific.com/","en-GB,en-US;q=0.9,en;q=0.8","67b89f64c09d83ec36fdd403","6877631c9844ddd5501205fc","6889dde9a4e2f6f63337139b","3","1","67b89f64c09d83ec36fdd403","3","1","2025-07-30T09:27:05.858Z","","","","","","","","","","","ControlQ","","50","","","","","","","","","","","","","","","","","","","","","","","","","","","","",""
"3923","","<div style=""width:500px;"">
  <p>How would you describe your current emotional state?</p>
  </div>","18","html-slider-response","52","1004758","0.0-5.0-3.8","280","1","2025-07-30 09:10:23","1f75c3e559b7213887762d5229550c2b","41.115.106.151","Mozilla/5.0 (Windows NT 10.0; Win64; x64) AppleWebKit/537.36 (KHTML, like Gecko) Chrome/138.0.0.0 Safari/537.36","WebKit","Chrome","138.0.0.0","Windows","10.0","https://app.prolific.com/","en-GB,en-US;q=0.9,en;q=0.8","67b89f64c09d83ec36fdd403","6877631c9844ddd5501205fc","6889dde9a4e2f6f63337139b","3","1","67b89f64c09d83ec36fdd403","3","1","2025-07-30T09:27:09.782Z","","","","","","","","","","","StressQ","","50","","","","","","","","","","","","","","","","","","","","","","","","","","","","",""
"7283","","<div style=""width:500px;"">
  <p>What best describes how you currently feel?</p>
  </div>","68","html-slider-response","53","1012043","0.0-5.0-4.8","280","1","2025-07-30 09:10:23","1f75c3e559b7213887762d5229550c2b","41.115.106.151","Mozilla/5.0 (Windows NT 10.0; Win64; x64) AppleWebKit/537.36 (KHTML, like Gecko) Chrome/138.0.0.0 Safari/537.36","WebKit","Chrome","138.0.0.0","Windows","10.0","https://app.prolific.com/","en-GB,en-US;q=0.9,en;q=0.8","67b89f64c09d83ec36fdd403","6877631c9844ddd5501205fc","6889dde9a4e2f6f63337139b","3","1","67b89f64c09d83ec36fdd403","3","1","2025-07-30T09:27:17.067Z","","","","","","","","","","","MotivationQ","","50","","","","","","","","","","","","","","","","","","","","","","","","","","","","",""
"","","","","ctl-task-cpt","54","1055597","0.0-5.0-0.9","280","1","2025-07-30 09:10:23","1f75c3e559b7213887762d5229550c2b","41.115.106.151","Mozilla/5.0 (Windows NT 10.0; Win64; x64) AppleWebKit/537.36 (KHTML, like Gecko) Chrome/138.0.0.0 Safari/537.36","WebKit","Chrome","138.0.0.0","Windows","10.0","https://app.prolific.com/","en-GB,en-US;q=0.9,en;q=0.8","67b89f64c09d83ec36fdd403","6877631c9844ddd5501205fc","6889dde9a4e2f6f63337139b","3","1","67b89f64c09d83ec36fdd403","3","1","2025-07-30T09:28:00.621Z","","","","","","","","","","","","","","win-only","2","g1:SE,g2:NW","0.4","10","0","1014816.7","1341.5","6348.3","40532","1","4","4","6","1","-1","-1","0","0","0","2782","3000","-845","[""down"",""right""]","{""num_key_presses"":8,""num_perfect"":3,""num_errors"":0,""num_randdir"":5,""num_randdir_good_moves"":2,""num_whilered"":0,""num_whileblue"":0,""num_blue"":1,""num_good_moves"":5}","[426.57142857142856,419.47767857142856,0.9,426.57142857142856,419.47767857142856,104.4,426.57142857142856,419.47767857142856,216.3,426.57142857142856,419.47767857142856,331.5,426.57142857142856,419.47767857142856,442.6,426.57142857142856,419.47767857142856,547.3,423.57142857142856,418.47767857142856,653.8,422.57142857142856,419.47767857142856,762.6,424.57142857142856,419.47767857142856,879.6,426.57142857142856,419.47767857142856,981.1,426.57142857142856,419.47767857142856,1097.8,426.57142857142856,419.47767857142856,1211,426.57142857142856,419.47767857142856,1311.6,426.57142857142856,419.47767857142856,1413.6,426.57142857142856,419.47767857142856,1516.7,426.57142857142856,419.47767857142856,1616.8,427.57142857142856,419.47767857142856,1723,427.57142857142856,419.47767857142856,1829.8,427.57142857142856,422.47767857142856,1935,425.57142857142856,425.47767857142856,2040.9,427.57142857142856,445.47767857142856,2152.5,603.5714285714286,560.4776785714286,2254.3,661.5714285714286,612.4776785714286,2361,722.5714285714286,685.4776785714286,2473.6,746.5714285714286,759.4776785714286,2583.4,747.5714285714286,760.4776785714286,2690.3,747.5714285714286,760.4776785714286,2802.5,747.5714285714286,760.4776785714286,2904.2,747.5714285714286,760.4776785714286,3007.1,747.5714285714286,760.4776785714286,3107.1,747.5714285714286,760.4776785714286,3207.2,714.5714285714286,758.4776785714286,3308.7,605.5714285714286,709.4776785714286,3419.5,560.5714285714286,681.4776785714286,3528.1,480.57142857142856,650.4776785714286,3631.2,365.57142857142856,654.4776785714286,3733.9,349.57142857142856,658.4776785714286,3834.6,317.57142857142856,667.4776785714286,3940.8,310.57142857142856,669.4776785714286,4056.3,310.57142857142856,675.4776785714286,4161.5,310.57142857142856,675.4776785714286,4276.6,310.57142857142856,675.4776785714286,4392.4,310.57142857142856,675.4776785714286,4495.9,310.57142857142856,675.4776785714286,4609.4,310.57142857142856,675.4776785714286,4723.5,310.57142857142856,675.4776785714286,4830.5,310.57142857142856,675.4776785714286,4945.6]","[2929.7,2929.8,1000,0,1929.8,""smooth"",""down"",""down"",""good_move"",7246.4,4315.8,2777.6,2930.6,1538.2,""smooth"",""down"",""down"",""good_move"",13646.6,6399.5,1985.1,11003.8,657.7,""oops"",""right"",""up"",""bad_move"",16861.2,3213.7,2386.1,13647.5,827.6,""oops"",""down"",""down"",""good_move"",19669.6,2806.7,1875.9,16863,930.7,""oops"",""left"",""right"",""good_move"",22638.6,2968.3,1996.6,19670.3,971.7,""oops"",""left"",""up"",""bad_move"",26677.3,4038.2,2282.9,22639.1,1755.3,""smooth"",""down"",""down"",""good_move"",31419.4,4741.4,2659.9,26678,2081.5,""oops"",""down"",""left"",""bad_move""]","",""
"154504","","<div style=""width:500px;"">
  <p>What determined the result of this run?</p>
  </div>","62","html-slider-response","55","1210103","0.0-5.0-1.9","280","1","2025-07-30 09:10:23","1f75c3e559b7213887762d5229550c2b","41.115.106.151","Mozilla/5.0 (Windows NT 10.0; Win64; x64) AppleWebKit/537.36 (KHTML, like Gecko) Chrome/138.0.0.0 Safari/537.36","WebKit","Chrome","138.0.0.0","Windows","10.0","https://app.prolific.com/","en-GB,en-US;q=0.9,en;q=0.8","67b89f64c09d83ec36fdd403","6877631c9844ddd5501205fc","6889dde9a4e2f6f63337139b","3","1","67b89f64c09d83ec36fdd403","3","1","2025-07-30T09:30:35.127Z","","","","","","","","","","","AttribQ","","50","","","","","","","","","","","","","","","","","","","","","","","","","","","","",""
"4467","","<div style=""width:500px;"">
  <p>How much control did you have over the ball?</p>
  </div>","3","html-slider-response","56","1214571","0.0-5.0-2.9","280","1","2025-07-30 09:10:23","1f75c3e559b7213887762d5229550c2b","41.115.106.151","Mozilla/5.0 (Windows NT 10.0; Win64; x64) AppleWebKit/537.36 (KHTML, like Gecko) Chrome/138.0.0.0 Safari/537.36","WebKit","Chrome","138.0.0.0","Windows","10.0","https://app.prolific.com/","en-GB,en-US;q=0.9,en;q=0.8","67b89f64c09d83ec36fdd403","6877631c9844ddd5501205fc","6889dde9a4e2f6f63337139b","3","1","67b89f64c09d83ec36fdd403","3","1","2025-07-30T09:30:39.595Z","","","","","","","","","","","ControlQ","","50","","","","","","","","","","","","","","","","","","","","","","","","","","","","",""
"4554","","<div style=""width:500px;"">
  <p>How would you describe your current emotional state?</p>
  </div>","76","html-slider-response","57","1219127","0.0-5.0-3.9","280","1","2025-07-30 09:10:23","1f75c3e559b7213887762d5229550c2b","41.115.106.151","Mozilla/5.0 (Windows NT 10.0; Win64; x64) AppleWebKit/537.36 (KHTML, like Gecko) Chrome/138.0.0.0 Safari/537.36","WebKit","Chrome","138.0.0.0","Windows","10.0","https://app.prolific.com/","en-GB,en-US;q=0.9,en;q=0.8","67b89f64c09d83ec36fdd403","6877631c9844ddd5501205fc","6889dde9a4e2f6f63337139b","3","1","67b89f64c09d83ec36fdd403","3","1","2025-07-30T09:30:44.151Z","","","","","","","","","","","StressQ","","50","","","","","","","","","","","","","","","","","","","","","","","","","","","","",""
"3343","","<div style=""width:500px;"">
  <p>What best describes how you currently feel?</p>
  </div>","76","html-slider-response","58","1222472","0.0-5.0-4.9","280","1","2025-07-30 09:10:23","1f75c3e559b7213887762d5229550c2b","41.115.106.151","Mozilla/5.0 (Windows NT 10.0; Win64; x64) AppleWebKit/537.36 (KHTML, like Gecko) Chrome/138.0.0.0 Safari/537.36","WebKit","Chrome","138.0.0.0","Windows","10.0","https://app.prolific.com/","en-GB,en-US;q=0.9,en;q=0.8","67b89f64c09d83ec36fdd403","6877631c9844ddd5501205fc","6889dde9a4e2f6f63337139b","3","1","67b89f64c09d83ec36fdd403","3","1","2025-07-30T09:30:47.496Z","","","","","","","","","","","MotivationQ","","50","","","","","","","","","","","","","","","","","","","","","","","","","","","","",""
"","","","","ctl-task-cpt","59","1270624","0.0-5.0-0.10","280","1","2025-07-30 09:10:23","1f75c3e559b7213887762d5229550c2b","41.115.106.151","Mozilla/5.0 (Windows NT 10.0; Win64; x64) AppleWebKit/537.36 (KHTML, like Gecko) Chrome/138.0.0.0 Safari/537.36","WebKit","Chrome","138.0.0.0","Windows","10.0","https://app.prolific.com/","en-GB,en-US;q=0.9,en;q=0.8","67b89f64c09d83ec36fdd403","6877631c9844ddd5501205fc","6889dde9a4e2f6f63337139b","3","1","67b89f64c09d83ec36fdd403","3","1","2025-07-30T09:31:35.648Z","","","","","","","","","","","","","","win-only","0","g1:NW,g2:SE","0.5","11","0","1225245.9","3372.7","8387.6","45104.3","1","4","4","6","1","-1","-2","0","0","0","2148.3","3000","-525","[""left"",""up""]","{""num_key_presses"":5,""num_perfect"":1,""num_errors"":1,""num_randdir"":3,""num_randdir_good_moves"":0,""num_whilered"":0,""num_whileblue"":0,""num_blue"":2,""num_good_moves"":1}","[410.57142857142856,417.47767857142856,0.3,410.57142857142856,417.47767857142856,113.6,410.57142857142856,417.47767857142856,227.7,410.57142857142856,417.47767857142856,328.3,410.57142857142856,417.47767857142856,431.2,410.57142857142856,417.47767857142856,534.5,410.57142857142856,417.47767857142856,650.3,410.57142857142856,416.47767857142856,762.9,409.57142857142856,416.47767857142856,878.2,400.57142857142856,412.47767857142856,992.7,406.57142857142856,417.47767857142856,1097.7,597.5714285714286,590.4776785714286,1200.8,655.5714285714286,689.4776785714286,1310.5,709.5714285714286,742.4776785714286,1414.7,642.5714285714286,657.4776785714286,1530,427.57142857142856,503.47767857142856,1638,145.57142857142856,231.47767857142856,1750.1,127.57142857142857,162.47767857142856,1862,111.57142857142857,121.47767857142857,1967.2,95.57142857142857,89.47767857142857,2079.7,83.57142857142857,80.47767857142857,2183,83.57142857142857,80.47767857142857,2289.4,83.57142857142857,80.47767857142857,2398.2,83.57142857142857,80.47767857142857,2512.6,83.57142857142857,80.47767857142857,2629.8,83.57142857142857,80.47767857142857,2745,83.57142857142857,80.47767857142857,2848.9,83.57142857142857,80.47767857142857,2964.4,83.57142857142857,80.47767857142857,3068.8,86.57142857142857,84.47767857142857,3171.5,113.57142857142857,119.47767857142857,3284.6,201.57142857142856,248.47767857142856,3394.3,326.57142857142856,442.47767857142856,3510.5,374.57142857142856,499.47767857142856,3618.6,376.57142857142856,501.47767857142856,3724.5,376.57142857142856,501.47767857142856,3827.7,380.57142857142856,501.47767857142856,3935.4,380.57142857142856,501.47767857142856,4051.3,380.57142857142856,501.47767857142856,4168.4,380.57142857142856,501.47767857142856,4279,380.57142857142856,501.47767857142856,4385.7,380.57142857142856,501.47767857142856,4495.9,380.57142857142856,501.47767857142856,4601.7,380.57142857142856,501.47767857142856,4711.7,380.57142857142856,501.47767857142856,4818.6,380.57142857142856,501.47767857142856,4920.7]","[1605.6,1605.6,1000,0,605.6,""smooth"",""up"",""up"",""good_move"",12580.5,10974.6,2357.8,9471,751.8,""oops"",""up"",""right"",""bad_move"",18031.1,5450.1,1951.5,12581.1,3498.5,""oops"",""up"",""down"",""bad_move"",19199.8,1168.2,2697.5,18031.7,-1529.3,""error"",""-"",""-"",""no_move"",32090.5,12890.4,3327.5,20201.7,8561.3,""oops"",""down"",""right"",""bad_move""]","",""
"58234","","<div style=""width:500px;"">
  <p>What determined the result of this run?</p>
  </div>","65","html-slider-response","60","1328862","0.0-5.0-1.10","280","1","2025-07-30 09:10:23","1f75c3e559b7213887762d5229550c2b","41.115.106.151","Mozilla/5.0 (Windows NT 10.0; Win64; x64) AppleWebKit/537.36 (KHTML, like Gecko) Chrome/138.0.0.0 Safari/537.36","WebKit","Chrome","138.0.0.0","Windows","10.0","https://app.prolific.com/","en-GB,en-US;q=0.9,en;q=0.8","67b89f64c09d83ec36fdd403","6877631c9844ddd5501205fc","6889dde9a4e2f6f63337139b","3","1","67b89f64c09d83ec36fdd403","3","1","2025-07-30T09:32:33.886Z","","","","","","","","","","","AttribQ","","50","","","","","","","","","","","","","","","","","","","","","","","","","","","","",""
"3695","","<div style=""width:500px;"">
  <p>How much control did you have over the ball?</p>
  </div>","26","html-slider-response","61","1332558","0.0-5.0-2.10","280","1","2025-07-30 09:10:23","1f75c3e559b7213887762d5229550c2b","41.115.106.151","Mozilla/5.0 (Windows NT 10.0; Win64; x64) AppleWebKit/537.36 (KHTML, like Gecko) Chrome/138.0.0.0 Safari/537.36","WebKit","Chrome","138.0.0.0","Windows","10.0","https://app.prolific.com/","en-GB,en-US;q=0.9,en;q=0.8","67b89f64c09d83ec36fdd403","6877631c9844ddd5501205fc","6889dde9a4e2f6f63337139b","3","1","67b89f64c09d83ec36fdd403","3","1","2025-07-30T09:32:37.583Z","","","","","","","","","","","ControlQ","","50","","","","","","","","","","","","","","","","","","","","","","","","","","","","",""
"4266","","<div style=""width:500px;"">
  <p>How would you describe your current emotional state?</p>
  </div>","64","html-slider-response","62","1336826","0.0-5.0-3.10","280","1","2025-07-30 09:10:23","1f75c3e559b7213887762d5229550c2b","41.115.106.151","Mozilla/5.0 (Windows NT 10.0; Win64; x64) AppleWebKit/537.36 (KHTML, like Gecko) Chrome/138.0.0.0 Safari/537.36","WebKit","Chrome","138.0.0.0","Windows","10.0","https://app.prolific.com/","en-GB,en-US;q=0.9,en;q=0.8","67b89f64c09d83ec36fdd403","6877631c9844ddd5501205fc","6889dde9a4e2f6f63337139b","3","1","67b89f64c09d83ec36fdd403","3","1","2025-07-30T09:32:41.850Z","","","","","","","","","","","StressQ","","50","","","","","","","","","","","","","","","","","","","","","","","","","","","","",""
"4927","","<div style=""width:500px;"">
  <p>What best describes how you currently feel?</p>
  </div>","72","html-slider-response","63","1341755","0.0-5.0-4.10","280","1","2025-07-30 09:10:23","1f75c3e559b7213887762d5229550c2b","41.115.106.151","Mozilla/5.0 (Windows NT 10.0; Win64; x64) AppleWebKit/537.36 (KHTML, like Gecko) Chrome/138.0.0.0 Safari/537.36","WebKit","Chrome","138.0.0.0","Windows","10.0","https://app.prolific.com/","en-GB,en-US;q=0.9,en;q=0.8","67b89f64c09d83ec36fdd403","6877631c9844ddd5501205fc","6889dde9a4e2f6f63337139b","3","1","67b89f64c09d83ec36fdd403","3","1","2025-07-30T09:32:46.779Z","","","","","","","","","","","MotivationQ","","50","","","","","","","","","","","","","","","","","","","","","","","","","","","","",""
"","","","","ctl-task-cpt","64","1402848","0.0-5.0-0.11","280","1","2025-07-30 09:10:23","1f75c3e559b7213887762d5229550c2b","41.115.106.151","Mozilla/5.0 (Windows NT 10.0; Win64; x64) AppleWebKit/537.36 (KHTML, like Gecko) Chrome/138.0.0.0 Safari/537.36","WebKit","Chrome","138.0.0.0","Windows","10.0","https://app.prolific.com/","en-GB,en-US;q=0.9,en;q=0.8","67b89f64c09d83ec36fdd403","6877631c9844ddd5501205fc","6889dde9a4e2f6f63337139b","3","1","67b89f64c09d83ec36fdd403","3","1","2025-07-30T09:33:47.873Z","","","","","","","","","","","","","","win-only","2","g1:SE,g2:NW","0.6","12","0","1344528.8","1516.9","6518.6","58064.5","1","4","8","6","2","-8","-10","0","0","0","3277.2","3000","-870","[""left"",""up""]","{""num_key_presses"":13,""num_perfect"":7,""num_errors"":2,""num_randdir"":4,""num_randdir_good_moves"":2,""num_whilered"":0,""num_whileblue"":0,""num_blue"":1,""num_good_moves"":6}","[419.57142857142856,417.47767857142856,0.6,419.57142857142856,417.47767857142856,115.9,419.57142857142856,417.47767857142856,223.1,419.57142857142856,417.47767857142856,328.1,417.57142857142856,417.47767857142856,443,409.57142857142856,417.47767857142856,557.9,409.57142857142856,417.47767857142856,661.8,409.57142857142856,417.47767857142856,767.1,409.57142857142856,417.47767857142856,876.8,409.57142857142856,417.47767857142856,986,409.57142857142856,417.47767857142856,1097.7,409.57142857142856,417.47767857142856,1208.3,387.57142857142856,417.47767857142856,1310.6,374.57142857142856,416.47767857142856,1425.6,374.57142857142856,416.47767857142856,1534.9,374.57142857142856,416.47767857142856,1643.3,374.57142857142856,416.47767857142856,1749.6,374.57142857142856,416.47767857142856,1874.3,380.57142857142856,416.47767857142856,1991.3,360.57142857142856,341.47767857142856,2106.8,310.57142857142856,267.47767857142856,2210.2,304.57142857142856,264.47767857142856,2311.3,282.57142857142856,266.47767857142856,2417.6,202.57142857142856,239.47767857142856,2521.6,182.57142857142856,233.47767857142856,2622.2,222.57142857142856,280.47767857142856,2729.2,207.57142857142856,225.47767857142856,2835,132.57142857142856,120.47767857142857,2939,101.57142857142857,86.47767857142857,3044.4,88.57142857142857,73.47767857142857,3151.1,88.57142857142857,72.47767857142857,3269.4,88.57142857142857,72.47767857142857,3383.5,88.57142857142857,72.47767857142857,3491.6,88.57142857142857,72.47767857142857,3607.9,88.57142857142857,72.47767857142857,3726.8,88.57142857142857,72.47767857142857,3844.4,91.57142857142857,74.47767857142857,3952,92.57142857142857,76.47767857142857,4074.5,98.57142857142857,82.47767857142857,4193.5,104.57142857142857,87.47767857142857,4294.8,107.57142857142857,90.47767857142857,4417.1,118.57142857142857,102.47767857142857,4524.6,158.57142857142856,137.47767857142856,4631.2,166.57142857142856,149.47767857142856,4734.6,187.57142857142856,180.47767857142856,4845.9,301.57142857142856,308.47767857142856,4955.8]","[2974.8,2974.8,1000,0,1974.8,""smooth"",""up"",""up"",""good_move"",4229.7,1254.4,2044.7,2975.3,-790.3,""error"",""-"",""-"",""no_move"",8952.4,4722,2749.4,5232.6,970.4,""smooth"",""up"",""up"",""good_move"",12850.4,3897.4,2548.3,8953,1349.1,""smooth"",""up"",""up"",""good_move"",16847.1,3996.3,2610.3,12850.8,1386,""oops"",""left"",""left"",""good_move"",21497,4649.1,2469.3,16847.9,2179.8,""oops"",""left"",""right"",""bad_move"",24827.7,3329.4,2600.8,21498.3,728.6,""smooth"",""right"",""right"",""bad_move"",28207.6,3379.7,2679.8,24827.9,699.9,""smooth"",""up"",""right"",""bad_move"",31049.9,2842,2225.9,28207.9,616.1,""oops"",""left"",""left"",""good_move"",34415.2,3364.8,2280.9,31050.5,1083.9,""oops"",""left"",""right"",""bad_move"",37385.7,2970.1,1562.5,34415.6,1407.6,""smooth"",""down"",""down"",""bad_move"",39581,2194.5,2491.6,37386.5,-297.1,""error"",""-"",""-"",""no_move"",48108.3,8526.9,3087,44293.7,727.6,""smooth"",""up"",""up"",""good_move""]","",""
"13229","","<div style=""width:500px;"">
  <p>What determined the result of this run?</p>
  </div>","8","html-slider-response","65","1416079","0.0-5.0-1.11","280","1","2025-07-30 09:10:23","1f75c3e559b7213887762d5229550c2b","41.115.106.151","Mozilla/5.0 (Windows NT 10.0; Win64; x64) AppleWebKit/537.36 (KHTML, like Gecko) Chrome/138.0.0.0 Safari/537.36","WebKit","Chrome","138.0.0.0","Windows","10.0","https://app.prolific.com/","en-GB,en-US;q=0.9,en;q=0.8","67b89f64c09d83ec36fdd403","6877631c9844ddd5501205fc","6889dde9a4e2f6f63337139b","3","1","67b89f64c09d83ec36fdd403","3","1","2025-07-30T09:34:01.103Z","","","","","","","","","","","AttribQ","","50","","","","","","","","","","","","","","","","","","","","","","","","","","","","",""
"3056","","<div style=""width:500px;"">
  <p>How much control did you have over the ball?</p>
  </div>","16","html-slider-response","66","1419137","0.0-5.0-2.11","280","1","2025-07-30 09:10:23","1f75c3e559b7213887762d5229550c2b","41.115.106.151","Mozilla/5.0 (Windows NT 10.0; Win64; x64) AppleWebKit/537.36 (KHTML, like Gecko) Chrome/138.0.0.0 Safari/537.36","WebKit","Chrome","138.0.0.0","Windows","10.0","https://app.prolific.com/","en-GB,en-US;q=0.9,en;q=0.8","67b89f64c09d83ec36fdd403","6877631c9844ddd5501205fc","6889dde9a4e2f6f63337139b","3","1","67b89f64c09d83ec36fdd403","3","1","2025-07-30T09:34:04.161Z","","","","","","","","","","","ControlQ","","50","","","","","","","","","","","","","","","","","","","","","","","","","","","","",""
"7993","","<div style=""width:500px;"">
  <p>How would you describe your current emotional state?</p>
  </div>","72","html-slider-response","67","1427131","0.0-5.0-3.11","280","1","2025-07-30 09:10:23","1f75c3e559b7213887762d5229550c2b","41.115.106.151","Mozilla/5.0 (Windows NT 10.0; Win64; x64) AppleWebKit/537.36 (KHTML, like Gecko) Chrome/138.0.0.0 Safari/537.36","WebKit","Chrome","138.0.0.0","Windows","10.0","https://app.prolific.com/","en-GB,en-US;q=0.9,en;q=0.8","67b89f64c09d83ec36fdd403","6877631c9844ddd5501205fc","6889dde9a4e2f6f63337139b","3","1","67b89f64c09d83ec36fdd403","3","1","2025-07-30T09:34:12.155Z","","","","","","","","","","","StressQ","","50","","","","","","","","","","","","","","","","","","","","","","","","","","","","",""
"3240","","<div style=""width:500px;"">
  <p>What best describes how you currently feel?</p>
  </div>","77","html-slider-response","68","1430373","0.0-5.0-4.11","280","1","2025-07-30 09:10:23","1f75c3e559b7213887762d5229550c2b","41.115.106.151","Mozilla/5.0 (Windows NT 10.0; Win64; x64) AppleWebKit/537.36 (KHTML, like Gecko) Chrome/138.0.0.0 Safari/537.36","WebKit","Chrome","138.0.0.0","Windows","10.0","https://app.prolific.com/","en-GB,en-US;q=0.9,en;q=0.8","67b89f64c09d83ec36fdd403","6877631c9844ddd5501205fc","6889dde9a4e2f6f63337139b","3","1","67b89f64c09d83ec36fdd403","3","1","2025-07-30T09:34:15.397Z","","","","","","","","","","","MotivationQ","","50","","","","","","","","","","","","","","","","","","","","","","","","","","","","",""
"","","","","ctl-task-cpt","69","1486400","0.0-5.0-0.12","280","1","2025-07-30 09:10:23","1f75c3e559b7213887762d5229550c2b","41.115.106.151","Mozilla/5.0 (Windows NT 10.0; Win64; x64) AppleWebKit/537.36 (KHTML, like Gecko) Chrome/138.0.0.0 Safari/537.36","WebKit","Chrome","138.0.0.0","Windows","10.0","https://app.prolific.com/","en-GB,en-US;q=0.9,en;q=0.8","67b89f64c09d83ec36fdd403","6877631c9844ddd5501205fc","6889dde9a4e2f6f63337139b","3","1","67b89f64c09d83ec36fdd403","3","1","2025-07-30T09:35:11.424Z","","","","","","","","","","","","","","win-only","0","g1:NW,g2:SE","0.7","13","0","1433146.8","929.9","5941.6","52996.7","1","4","4","6","2","4","4","4","0","0.030303030303030304","1799.2","3000","300","[""down"",""right""]","{""num_key_presses"":10,""num_perfect"":7,""num_errors"":0,""num_randdir"":3,""num_randdir_good_moves"":2,""num_whilered"":0,""num_whileblue"":0,""num_blue"":2,""num_good_moves"":8}","[419.57142857142856,423.47767857142856,0.6,419.57142857142856,422.47767857142856,124.4,419.57142857142856,422.47767857142856,235.9,419.57142857142856,422.47767857142856,350.5,419.57142857142856,422.47767857142856,466.5,419.57142857142856,422.47767857142856,587.2,419.57142857142856,422.47767857142856,698.5,419.57142857142856,422.47767857142856,801.6,419.57142857142856,422.47767857142856,901.8,419.57142857142856,422.47767857142856,1008,416.57142857142856,431.47767857142856,1119.9,418.57142857142856,458.47767857142856,1224.7,600.5714285714286,633.4776785714286,1325.5,678.5714285714286,705.4776785714286,1440.5,756.5714285714286,802.4776785714286,1558.7,764.5714285714286,797.4776785714286,1677.3,765.5714285714286,782.4776785714286,1794.5,765.5714285714286,782.4776785714286,1895.7,765.5714285714286,782.4776785714286,2010.6,765.5714285714286,782.4776785714286,2125.5,765.5714285714286,782.4776785714286,2233.5,722.5714285714286,760.4776785714286,2333.7,649.5714285714286,725.4776785714286,2453.6,540.5714285714286,651.4776785714286,2566.5,464.57142857142856,606.4776785714286,2679.4,448.57142857142856,595.4776785714286,2792.4,425.57142857142856,581.4776785714286,2912.4,385.57142857142856,528.4776785714286,3026.4,359.57142857142856,477.47767857142856,3143.1,343.57142857142856,449.47767857142856,3258.3,338.57142857142856,431.47767857142856,3358.6,335.57142857142856,395.47767857142856,3468.4,335.57142857142856,391.47767857142856,3577.9,343.57142857142856,461.47767857142856,3686.1,356.57142857142856,570.4776785714286,3788,373.57142857142856,633.4776785714286,3888.1,382.57142857142856,671.4776785714286,3992.5,382.57142857142856,673.4776785714286,4109.7,383.57142857142856,674.4776785714286,4221.3,383.57142857142856,674.4776785714286,4328.6,398.57142857142856,674.4776785714286,4445.8,427.57142857142856,667.4776785714286,4552.2,429.57142857142856,666.4776785714286,4666.8,429.57142857142856,666.4776785714286,4773.6,429.57142857142856,666.4776785714286,4880.4,429.57142857142856,673.4776785714286,4992.3]","[1929.7,1929.8,1000,0,929.8,""smooth"",""down"",""down"",""good_move"",8318.5,6388.3,2505.4,5331.7,481.4,""oops"",""right"",""up"",""bad_move"",12772.4,4453,2435.5,8319.4,2017.5,""smooth"",""down"",""down"",""good_move"",20361.3,7588.6,2728.8,16850.1,782.4,""smooth"",""down"",""down"",""good_move"",24354.3,3992.6,2671.9,20361.7,1320.7,""smooth"",""down"",""down"",""good_move"",28804.1,4448.3,1927.1,24355.8,2521.2,""smooth"",""left"",""left"",""bad_move"",34387.8,5582.1,2987.6,28805.7,2594.5,""smooth"",""right"",""right"",""good_move"",37500.5,3112.2,2429.7,34388.3,682.5,""oops"",""right"",""right"",""good_move"",40563.5,3062.6,2499.8,37500.9,562.8,""smooth"",""right"",""right"",""good_move"",46734.3,6170.5,3360.7,40563.9,2809.7,""oops"",""right"",""right"",""good_move""]","",""
"5084","","<div style=""width:500px;"">
  <p>What determined the result of this run?</p>
  </div>","80","html-slider-response","70","1491487","0.0-5.0-1.12","280","1","2025-07-30 09:10:23","1f75c3e559b7213887762d5229550c2b","41.115.106.151","Mozilla/5.0 (Windows NT 10.0; Win64; x64) AppleWebKit/537.36 (KHTML, like Gecko) Chrome/138.0.0.0 Safari/537.36","WebKit","Chrome","138.0.0.0","Windows","10.0","https://app.prolific.com/","en-GB,en-US;q=0.9,en;q=0.8","67b89f64c09d83ec36fdd403","6877631c9844ddd5501205fc","6889dde9a4e2f6f63337139b","3","1","67b89f64c09d83ec36fdd403","3","1","2025-07-30T09:35:16.511Z","","","","","","","","","","","AttribQ","","50","","","","","","","","","","","","","","","","","","","","","","","","","","","","",""
"4124","","<div style=""width:500px;"">
  <p>How much control did you have over the ball?</p>
  </div>","69","html-slider-response","71","1495613","0.0-5.0-2.12","280","1","2025-07-30 09:10:23","1f75c3e559b7213887762d5229550c2b","41.115.106.151","Mozilla/5.0 (Windows NT 10.0; Win64; x64) AppleWebKit/537.36 (KHTML, like Gecko) Chrome/138.0.0.0 Safari/537.36","WebKit","Chrome","138.0.0.0","Windows","10.0","https://app.prolific.com/","en-GB,en-US;q=0.9,en;q=0.8","67b89f64c09d83ec36fdd403","6877631c9844ddd5501205fc","6889dde9a4e2f6f63337139b","3","1","67b89f64c09d83ec36fdd403","3","1","2025-07-30T09:35:20.637Z","","","","","","","","","","","ControlQ","","50","","","","","","","","","","","","","","","","","","","","","","","","","","","","",""
"3025","","<div style=""width:500px;"">
  <p>How would you describe your current emotional state?</p>
  </div>","29","html-slider-response","72","1498639","0.0-5.0-3.12","280","1","2025-07-30 09:10:23","1f75c3e559b7213887762d5229550c2b","41.115.106.151","Mozilla/5.0 (Windows NT 10.0; Win64; x64) AppleWebKit/537.36 (KHTML, like Gecko) Chrome/138.0.0.0 Safari/537.36","WebKit","Chrome","138.0.0.0","Windows","10.0","https://app.prolific.com/","en-GB,en-US;q=0.9,en;q=0.8","67b89f64c09d83ec36fdd403","6877631c9844ddd5501205fc","6889dde9a4e2f6f63337139b","3","1","67b89f64c09d83ec36fdd403","3","1","2025-07-30T09:35:23.663Z","","","","","","","","","","","StressQ","","50","","","","","","","","","","","","","","","","","","","","","","","","","","","","",""
"3160","","<div style=""width:500px;"">
  <p>What best describes how you currently feel?</p>
  </div>","87","html-slider-response","73","1501801","0.0-5.0-4.12","280","1","2025-07-30 09:10:23","1f75c3e559b7213887762d5229550c2b","41.115.106.151","Mozilla/5.0 (Windows NT 10.0; Win64; x64) AppleWebKit/537.36 (KHTML, like Gecko) Chrome/138.0.0.0 Safari/537.36","WebKit","Chrome","138.0.0.0","Windows","10.0","https://app.prolific.com/","en-GB,en-US;q=0.9,en;q=0.8","67b89f64c09d83ec36fdd403","6877631c9844ddd5501205fc","6889dde9a4e2f6f63337139b","3","1","67b89f64c09d83ec36fdd403","3","1","2025-07-30T09:35:26.825Z","","","","","","","","","","","MotivationQ","","50","","","","","","","","","","","","","","","","","","","","","","","","","","","","",""
