"rt","response_timestamp","stimulus","response","trial_type","trial_index","time_elapsed","internal_node_id","run_id","condition","recorded_at","source_code_version","ip","user_agent","device","browser","browser_version","platform","platform_version","referer","accept_language","PROLIFIC_PID","STUDY_ID","SESSION_ID","WEEK","BATCH","prolific_id","week","batch","realtime","success","responses","item_order","radio_event_ids","radio_event_times","key_event_times","mouse_event_times","straightlining","zigzagging","honeypot","eventType","view_history","slider_start","which_type","canvas_config","goals_layout","control_level","trial_number","tutorial_trial_number","trial_start_time","phase1_start_time","phase2_start_time","phase3_start_time","goal_1_value","goal_1_distance","goal_2_value","goal_2_distance","goal_selected","outcome","outcome_total","participant_final_score","participant_initial_score","participant_final_score_prop","goal_choice_rt","allocated_time","allocated_time_remaining","goal_direction","counts","mouse_movements","key_presses","question_order","question_id"
"33491","1752653891148","<p style='font-size:40px;line-height:1.25'><strong>Welcome to the experiment!</strong></p><p style='font-size:1.1em;line-height:1.25'>Thank you for participanting in our experiment again! You will be asked to play the Dysfunctional Ball Game again. We will briefly recap the rules before we start.</p><p style='font-size:1.1em;line-height:1.25'>Press <strong>Next</strong> to continue.</p>","0","custom-html-button-response","0","33495","0.0-0.0","42","1","2025-07-16 08:17:36","1f75c3e559b7213887762d5229550c2b","83.22.171.6","Mozilla/5.0 (Windows NT 10.0; Win64; x64; rv:140.0) Gecko/20100101 Firefox/140.0","","Firefox","140.0","Windows","10.0","https://app.prolific.com/","pl,en-US;q=0.7,en;q=0.3","5dd25456cc192027096069bb","686e379bc37a29ffa5cdc956","6877601cf53d51e27829d9f6","1","1","5dd25456cc192027096069bb","1","1","2025-07-16T08:18:11.149Z","","","","","","","","","","","","","","","","","","","","","","","","","","","","","","","","","","","","","","","","","",""
"4135","","","","fullscreen","1","38676","0.0-1.0","42","1","2025-07-16 08:17:36","1f75c3e559b7213887762d5229550c2b","83.22.171.6","Mozilla/5.0 (Windows NT 10.0; Win64; x64; rv:140.0) Gecko/20100101 Firefox/140.0","","Firefox","140.0","Windows","10.0","https://app.prolific.com/","pl,en-US;q=0.7,en;q=0.3","5dd25456cc192027096069bb","686e379bc37a29ffa5cdc956","6877601cf53d51e27829d9f6","1","1","5dd25456cc192027096069bb","1","1","","true","","","","","","","","","","","","","","","","","","","","","","","","","","","","","","","","","","","","","","","","",""
"1272","1752653897604","<p style='font-size:1.1em;line-height:1.25'>In the following, we will ask you a few questions relating to your feelings in the last 24 hours.<br></p><p style='font-size:1.1em;line-height:1.25'>Press the <strong>Next</strong> button to continue.</p>","0","custom-html-button-response","2","39950","0.0-2.0-0.0","42","1","2025-07-16 08:17:36","1f75c3e559b7213887762d5229550c2b","83.22.171.6","Mozilla/5.0 (Windows NT 10.0; Win64; x64; rv:140.0) Gecko/20100101 Firefox/140.0","","Firefox","140.0","Windows","10.0","https://app.prolific.com/","pl,en-US;q=0.7,en;q=0.3","5dd25456cc192027096069bb","686e379bc37a29ffa5cdc956","6877601cf53d51e27829d9f6","1","1","5dd25456cc192027096069bb","1","1","2025-07-16T08:18:17.604Z","","","","","","","","","","","","","","","","","","","","","","","","","","","","","","","","","","","","","","","","","",""
"46090","","","","survey-template","3","86047","0.0-2.0-1.0","42","1","2025-07-16 08:17:36","1f75c3e559b7213887762d5229550c2b","83.22.171.6","Mozilla/5.0 (Windows NT 10.0; Win64; x64; rv:140.0) Gecko/20100101 Firefox/140.0","","Firefox","140.0","Windows","10.0","https://app.prolific.com/","pl,en-US;q=0.7,en;q=0.3","5dd25456cc192027096069bb","686e379bc37a29ffa5cdc956","6877601cf53d51e27829d9f6","1","1","5dd25456cc192027096069bb","1","1","2025-07-16T08:19:03.701Z","","{""Q01"":""0"",""Q02"":""0"",""Q03"":""0"",""Q04"":""0"",""Q05"":""1"",""Q06"":""0"",""Q07"":""0"",""Q08"":""0"",""Q09"":""0"",""Q10"":""0"",""Q11"":""1"",""Q12"":""0"",""Q13"":""5"",""Q14"":""0"",""Q15"":""0"",""Q16"":""0"",""Q17"":""0"",""Q18"":""0"",""Q19"":""0"",""Q20"":""0"",""Q21"":""0"",""Q22"":""0""}","[0,1,2,3,4,5,6,7,8,9,10,11,12,13,14,15,16,17,18,19,20,21]","[""Q01"",""Q02"",""Q03"",""Q04"",""Q05"",""Q05"",""Q06"",""Q07"",""Q08"",""Q10"",""Q09"",""Q11"",""Q12"",""Q13"",""Q14"",""Q15"",""Q16"",""Q17"",""Q18"",""Q19"",""Q20"",""Q21"",""Q22""]","[3137,4395,5407,6525,7797,8913,10867,11886,13185,15835,16764,21055,22446,24445,26931,28198,29704,30539,36773,39176,42039,43681,45011]","[]","[0,3137,4395,5407,6525,7797,8913,10867,11886,13185,14312,15386,15835,16764,18725,21055,22446,24445,26931,28198,29704,30539,36773,39176,40830,42039,43202,43681,45011,46088]","0.8636363636363636","0.2857142857142857","0","drsp","","","","","","","","","","","","","","","","","","","","","","","","","","","","","","",""
"13599","","","","survey-template","4","99649","0.0-2.0-2.0","42","1","2025-07-16 08:17:36","1f75c3e559b7213887762d5229550c2b","83.22.171.6","Mozilla/5.0 (Windows NT 10.0; Win64; x64; rv:140.0) Gecko/20100101 Firefox/140.0","","Firefox","140.0","Windows","10.0","https://app.prolific.com/","pl,en-US;q=0.7,en;q=0.3","5dd25456cc192027096069bb","686e379bc37a29ffa5cdc956","6877601cf53d51e27829d9f6","1","1","5dd25456cc192027096069bb","1","1","2025-07-16T08:19:17.303Z","","{""Q01"":""1"",""Q02"":""2"",""Q03"":""0""}","[0,1,2]","[""Q01"",""Q02"",""Q03""]","[5572,9795,12511]","[]","[5572,9795,12511,13599]","0.3333333333333333","0","0","stress","","","","","","","","","","","","","","","","","","","","","","","","","","","","","","",""
"37577","","","","instructions","5","137229","0.0-3.0-0.0","42","1","2025-07-16 08:17:36","1f75c3e559b7213887762d5229550c2b","83.22.171.6","Mozilla/5.0 (Windows NT 10.0; Win64; x64; rv:140.0) Gecko/20100101 Firefox/140.0","","Firefox","140.0","Windows","10.0","https://app.prolific.com/","pl,en-US;q=0.7,en;q=0.3","5dd25456cc192027096069bb","686e379bc37a29ffa5cdc956","6877601cf53d51e27829d9f6","1","1","5dd25456cc192027096069bb","1","1","","","","","","","","","","","","","[{""page_index"":0,""viewing_time"":37577}]","","","","","","","","","","","","","","","","","","","","","","","","","","","","","",""
"4782","","<p>Before you start with this game please answer the following three questions yourself. </p>
  <p>Through this game, we measure several aspects of your cognitive performance, such as reaction times, multi-tasking capabilities </p>
  <p>and the ability to assess the situation you are in.</p>
  <p></p>
  <p><b>How good do you usually are in such tasks?</b></p>","81","html-slider-response","6","142012","0.0-4.0-0.0","42","1","2025-07-16 08:17:36","1f75c3e559b7213887762d5229550c2b","83.22.171.6","Mozilla/5.0 (Windows NT 10.0; Win64; x64; rv:140.0) Gecko/20100101 Firefox/140.0","","Firefox","140.0","Windows","10.0","https://app.prolific.com/","pl,en-US;q=0.7,en;q=0.3","5dd25456cc192027096069bb","686e379bc37a29ffa5cdc956","6877601cf53d51e27829d9f6","1","1","5dd25456cc192027096069bb","1","1","2025-07-16T08:19:59.666Z","","","","","","","","","","","PreSkillQ","","50","","","","","","","","","","","","","","","","","","","","","","","","","","","","",""
"3912","","<div style=""width:500px;"">
  <p>How well do you think you will perform in this task compared to other participants?</p>
  </div>","58","html-slider-response","7","145924","0.0-4.0-1.0","42","1","2025-07-16 08:17:36","1f75c3e559b7213887762d5229550c2b","83.22.171.6","Mozilla/5.0 (Windows NT 10.0; Win64; x64; rv:140.0) Gecko/20100101 Firefox/140.0","","Firefox","140.0","Windows","10.0","https://app.prolific.com/","pl,en-US;q=0.7,en;q=0.3","5dd25456cc192027096069bb","686e379bc37a29ffa5cdc956","6877601cf53d51e27829d9f6","1","1","5dd25456cc192027096069bb","1","1","2025-07-16T08:20:03.578Z","","","","","","","","","","","PrePerfQ","","50","","","","","","","","","","","","","","","","","","","","","","","","","","","","",""
"3102","","<div style=""width:500px;"">
  <p>What best describes how you currently feel?</p>
  </div>","74","html-slider-response","8","149028","0.0-4.0-2.0","42","1","2025-07-16 08:17:36","1f75c3e559b7213887762d5229550c2b","83.22.171.6","Mozilla/5.0 (Windows NT 10.0; Win64; x64; rv:140.0) Gecko/20100101 Firefox/140.0","","Firefox","140.0","Windows","10.0","https://app.prolific.com/","pl,en-US;q=0.7,en;q=0.3","5dd25456cc192027096069bb","686e379bc37a29ffa5cdc956","6877601cf53d51e27829d9f6","1","1","5dd25456cc192027096069bb","1","1","2025-07-16T08:20:06.682Z","","","","","","","","","","","PreMotivationQ","","50","","","","","","","","","","","","","","","","","","","","","","","","","","","","",""
"","","","","ctl-task-cpt","9","178413","0.0-5.0-0.0","42","1","2025-07-16 08:17:36","1f75c3e559b7213887762d5229550c2b","83.22.171.6","Mozilla/5.0 (Windows NT 10.0; Win64; x64; rv:140.0) Gecko/20100101 Firefox/140.0","","Firefox","140.0","Windows","10.0","https://app.prolific.com/","pl,en-US;q=0.7,en;q=0.3","5dd25456cc192027096069bb","686e379bc37a29ffa5cdc956","6877601cf53d51e27829d9f6","1","1","5dd25456cc192027096069bb","1","1","2025-07-16T08:20:36.067Z","","","","","","","","","","","","","","win-only","2","g1:SE,g2:NW","1","1","0","150572","2589","7596","26379","1","4","4","6","2","4","4","4","0","0.030303030303030304","1778","3000","1770","[""left"",""up""]","{""num_key_presses"":6,""num_perfect"":6,""num_errors"":0,""num_randdir"":0,""num_randdir_good_moves"":0,""num_whilered"":0,""num_whileblue"":0,""num_blue"":1,""num_good_moves"":6}","[292.22857753208706,300.92857448032925,0,292.22857753208706,300.92857448032925,100,292.22857753208706,300.92857448032925,212,292.22857753208706,300.92857448032925,318,292.22857753208706,300.92857448032925,418,293.22857753208706,302.92857448032925,523,293.22857753208706,302.92857448032925,626,293.22857753208706,302.92857448032925,738,259.22857753208706,309.92857448032925,851,108.22857753208706,190.92857448032925,966,78.22857753208706,168.92857448032925,1069,74.22857753208706,155.92857448032925,1169,72.22857753208706,126.92857448032925,1272,63.22857753208705,90.92857448032925,1385,55.22857753208705,49.92857448032924,1485,48.22857753208705,34.92857448032924,1586,46.22857753208705,30.92857448032924,1692,46.22857753208705,30.92857448032924,1793,46.22857753208705,29.92857448032924,1901,46.22857753208705,29.92857448032924,2014,68.22857753208706,30.92857448032924,2124,500.22857753208706,-78.07142551967075,2234,583.228577532087,-84.07142551967075,2346,583.228577532087,-84.07142551967075,2454,583.228577532087,-84.07142551967075,2559,583.228577532087,-84.07142551967075,2663,583.228577532087,-84.07142551967075,2776,583.228577532087,-84.07142551967075,2890,583.228577532087,-84.07142551967075,2991,583.228577532087,-84.07142551967075,3100,583.228577532087,-84.07142551967075,3201,583.228577532087,-84.07142551967075,3306,583.228577532087,-84.07142551967075,3411,583.228577532087,-84.07142551967075,3514,583.228577532087,-84.07142551967075,3618,583.228577532087,-84.07142551967075,3729,583.228577532087,-84.07142551967075,3843,583.228577532087,-84.07142551967075,3947,583.228577532087,-84.07142551967075,4051,583.228577532087,-84.07142551967075,4161,583.228577532087,-84.07142551967075,4268,583.228577532087,-84.07142551967075,4380,583.228577532087,-84.07142551967075,4484,583.228577532087,-84.07142551967075,4590,583.228577532087,-84.07142551967075,4692,583.228577532087,-84.07142551967075,4796,583.228577532087,-84.07142551967075,4897]","[1434,1434,1000,0,434,""smooth"",""up"",""up"",""good_move"",7731,6297,2652.9,4646,432.1,""smooth"",""left"",""left"",""good_move"",10599,2867,2314.5,7732,552.5,""smooth"",""left"",""left"",""good_move"",12931,2333,1944.2,10599,388.8,""smooth"",""up"",""up"",""good_move"",15690,2758,2334.6,12932,423.4,""smooth"",""left"",""left"",""good_move"",18538,2847,2491.5,15691,355.5,""smooth"",""up"",""up"",""good_move""]","",""
"3095","","<div style=""width:500px;"">
  <p>What determined the result of this run?</p>
  </div>","99","html-slider-response","10","181510","0.0-5.0-1.0","42","1","2025-07-16 08:17:36","1f75c3e559b7213887762d5229550c2b","83.22.171.6","Mozilla/5.0 (Windows NT 10.0; Win64; x64; rv:140.0) Gecko/20100101 Firefox/140.0","","Firefox","140.0","Windows","10.0","https://app.prolific.com/","pl,en-US;q=0.7,en;q=0.3","5dd25456cc192027096069bb","686e379bc37a29ffa5cdc956","6877601cf53d51e27829d9f6","1","1","5dd25456cc192027096069bb","1","1","2025-07-16T08:20:39.164Z","","","","","","","","","","","AttribQ","","50","","","","","","","","","","","","","","","","","","","","","","","","","","","","",""
"2957","","<div style=""width:500px;"">
  <p>How much control did you have over the ball?</p>
  </div>","100","html-slider-response","11","184469","0.0-5.0-2.0","42","1","2025-07-16 08:17:36","1f75c3e559b7213887762d5229550c2b","83.22.171.6","Mozilla/5.0 (Windows NT 10.0; Win64; x64; rv:140.0) Gecko/20100101 Firefox/140.0","","Firefox","140.0","Windows","10.0","https://app.prolific.com/","pl,en-US;q=0.7,en;q=0.3","5dd25456cc192027096069bb","686e379bc37a29ffa5cdc956","6877601cf53d51e27829d9f6","1","1","5dd25456cc192027096069bb","1","1","2025-07-16T08:20:42.123Z","","","","","","","","","","","ControlQ","","50","","","","","","","","","","","","","","","","","","","","","","","","","","","","",""
"3498","","<div style=""width:500px;"">
  <p>How would you describe your current emotional state?</p>
  </div>","45","html-slider-response","12","187969","0.0-5.0-3.0","42","1","2025-07-16 08:17:36","1f75c3e559b7213887762d5229550c2b","83.22.171.6","Mozilla/5.0 (Windows NT 10.0; Win64; x64; rv:140.0) Gecko/20100101 Firefox/140.0","","Firefox","140.0","Windows","10.0","https://app.prolific.com/","pl,en-US;q=0.7,en;q=0.3","5dd25456cc192027096069bb","686e379bc37a29ffa5cdc956","6877601cf53d51e27829d9f6","1","1","5dd25456cc192027096069bb","1","1","2025-07-16T08:20:45.623Z","","","","","","","","","","","StressQ","","50","","","","","","","","","","","","","","","","","","","","","","","","","","","","",""
"3079","","<div style=""width:500px;"">
  <p>What best describes how you currently feel?</p>
  </div>","83","html-slider-response","13","191049","0.0-5.0-4.0","42","1","2025-07-16 08:17:36","1f75c3e559b7213887762d5229550c2b","83.22.171.6","Mozilla/5.0 (Windows NT 10.0; Win64; x64; rv:140.0) Gecko/20100101 Firefox/140.0","","Firefox","140.0","Windows","10.0","https://app.prolific.com/","pl,en-US;q=0.7,en;q=0.3","5dd25456cc192027096069bb","686e379bc37a29ffa5cdc956","6877601cf53d51e27829d9f6","1","1","5dd25456cc192027096069bb","1","1","2025-07-16T08:20:48.703Z","","","","","","","","","","","MotivationQ","","50","","","","","","","","","","","","","","","","","","","","","","","","","","","","",""
"","","","","ctl-task-cpt","14","214395","0.0-5.0-0.1","42","1","2025-07-16 08:17:36","1f75c3e559b7213887762d5229550c2b","83.22.171.6","Mozilla/5.0 (Windows NT 10.0; Win64; x64; rv:140.0) Gecko/20100101 Firefox/140.0","","Firefox","140.0","Windows","10.0","https://app.prolific.com/","pl,en-US;q=0.7,en;q=0.3","5dd25456cc192027096069bb","686e379bc37a29ffa5cdc956","6877601cf53d51e27829d9f6","1","1","5dd25456cc192027096069bb","1","1","2025-07-16T08:21:12.049Z","","","","","","","","","","","","","","win-only","1","g1:NE,g2:SW","0.9","2","0","192591","1313","6330","20334","1","4","8","6","2","8","8","12","4","0.09090909090909091","964","3000","1860","[""down"",""left""]","{""num_key_presses"":6,""num_perfect"":5,""num_errors"":0,""num_randdir"":1,""num_randdir_good_moves"":1,""num_whilered"":0,""num_whileblue"":0,""num_blue"":0,""num_good_moves"":6}","[294.22857753208706,296.92857448032925,0,294.22857753208706,296.92857448032925,116,294.22857753208706,295.92857448032925,216,294.22857753208706,295.92857448032925,326,291.22857753208706,299.92857448032925,428,257.22857753208706,336.92857448032925,528,166.22857753208706,444.92857448032925,629,130.22857753208706,482.92857448032925,738,96.22857753208706,511.92857448032925,839,79.22857753208706,528.9285744803292,939,78.22857753208706,529.9285744803292,1047,82.22857753208706,528.9285744803292,1147,237.22857753208706,462.92857448032925,1247,372.22857753208706,376.92857448032925,1353,372.22857753208706,376.92857448032925,1461,372.22857753208706,376.92857448032925,1571,372.22857753208706,376.92857448032925,1671,372.22857753208706,376.92857448032925,1771,372.22857753208706,376.92857448032925,1872,372.22857753208706,376.92857448032925,1972,372.22857753208706,376.92857448032925,2072,372.22857753208706,376.92857448032925,2182,372.22857753208706,376.92857448032925,2292,372.22857753208706,376.92857448032925,2396,372.22857753208706,376.92857448032925,2496,372.22857753208706,376.92857448032925,2597,372.22857753208706,376.92857448032925,2697,372.22857753208706,376.92857448032925,2797,372.22857753208706,376.92857448032925,2897,372.22857753208706,376.92857448032925,2997,372.22857753208706,376.92857448032925,3099,372.22857753208706,376.92857448032925,3199,372.22857753208706,376.92857448032925,3299,372.22857753208706,376.92857448032925,3411,372.22857753208706,376.92857448032925,3511,372.22857753208706,376.92857448032925,3611,372.22857753208706,376.92857448032925,3712,372.22857753208706,376.92857448032925,3812,372.22857753208706,376.92857448032925,3912,372.22857753208706,376.92857448032925,4012,372.22857753208706,376.92857448032925,4114,372.22857753208706,376.92857448032925,4215,372.22857753208706,376.92857448032925,4316,372.22857753208706,376.92857448032925,4416,372.22857753208706,376.92857448032925,4517,372.22857753208706,376.92857448032925,4628,372.22857753208706,376.92857448032925,4729,372.22857753208706,376.92857448032925,4840,372.22857753208706,376.92857448032925,4940]","[1431,1431,1000,0,431,""smooth"",""down"",""down"",""good_move"",3997,2566,2165.6,1431,400.4,""smooth"",""down"",""down"",""good_move"",6390,2392,1911.5,3998,480.5,""oops"",""down"",""left"",""good_move"",9249,2859,2402,6390,457,""smooth"",""down"",""down"",""good_move"",11570,2321,1890,9249,431,""smooth"",""left"",""left"",""good_move"",13814,2244,1794.6,11570,449.4,""smooth"",""left"",""left"",""good_move""]","",""
"3067","","<div style=""width:500px;"">
  <p>What determined the result of this run?</p>
  </div>","100","html-slider-response","15","217462","0.0-5.0-1.1","42","1","2025-07-16 08:17:36","1f75c3e559b7213887762d5229550c2b","83.22.171.6","Mozilla/5.0 (Windows NT 10.0; Win64; x64; rv:140.0) Gecko/20100101 Firefox/140.0","","Firefox","140.0","Windows","10.0","https://app.prolific.com/","pl,en-US;q=0.7,en;q=0.3","5dd25456cc192027096069bb","686e379bc37a29ffa5cdc956","6877601cf53d51e27829d9f6","1","1","5dd25456cc192027096069bb","1","1","2025-07-16T08:21:15.116Z","","","","","","","","","","","AttribQ","","50","","","","","","","","","","","","","","","","","","","","","","","","","","","","",""
"2265","","<div style=""width:500px;"">
  <p>How much control did you have over the ball?</p>
  </div>","84","html-slider-response","16","219729","0.0-5.0-2.1","42","1","2025-07-16 08:17:36","1f75c3e559b7213887762d5229550c2b","83.22.171.6","Mozilla/5.0 (Windows NT 10.0; Win64; x64; rv:140.0) Gecko/20100101 Firefox/140.0","","Firefox","140.0","Windows","10.0","https://app.prolific.com/","pl,en-US;q=0.7,en;q=0.3","5dd25456cc192027096069bb","686e379bc37a29ffa5cdc956","6877601cf53d51e27829d9f6","1","1","5dd25456cc192027096069bb","1","1","2025-07-16T08:21:17.383Z","","","","","","","","","","","ControlQ","","50","","","","","","","","","","","","","","","","","","","","","","","","","","","","",""
"2693","","<div style=""width:500px;"">
  <p>How would you describe your current emotional state?</p>
  </div>","38","html-slider-response","17","222423","0.0-5.0-3.1","42","1","2025-07-16 08:17:36","1f75c3e559b7213887762d5229550c2b","83.22.171.6","Mozilla/5.0 (Windows NT 10.0; Win64; x64; rv:140.0) Gecko/20100101 Firefox/140.0","","Firefox","140.0","Windows","10.0","https://app.prolific.com/","pl,en-US;q=0.7,en;q=0.3","5dd25456cc192027096069bb","686e379bc37a29ffa5cdc956","6877601cf53d51e27829d9f6","1","1","5dd25456cc192027096069bb","1","1","2025-07-16T08:21:20.077Z","","","","","","","","","","","StressQ","","50","","","","","","","","","","","","","","","","","","","","","","","","","","","","",""
"1754","","<div style=""width:500px;"">
  <p>What best describes how you currently feel?</p>
  </div>","72","html-slider-response","18","224179","0.0-5.0-4.1","42","1","2025-07-16 08:17:36","1f75c3e559b7213887762d5229550c2b","83.22.171.6","Mozilla/5.0 (Windows NT 10.0; Win64; x64; rv:140.0) Gecko/20100101 Firefox/140.0","","Firefox","140.0","Windows","10.0","https://app.prolific.com/","pl,en-US;q=0.7,en;q=0.3","5dd25456cc192027096069bb","686e379bc37a29ffa5cdc956","6877601cf53d51e27829d9f6","1","1","5dd25456cc192027096069bb","1","1","2025-07-16T08:21:21.833Z","","","","","","","","","","","MotivationQ","","50","","","","","","","","","","","","","","","","","","","","","","","","","","","","",""
"","","","","ctl-task-cpt","19","279561","0.0-5.0-0.2","42","1","2025-07-16 08:17:36","1f75c3e559b7213887762d5229550c2b","83.22.171.6","Mozilla/5.0 (Windows NT 10.0; Win64; x64; rv:140.0) Gecko/20100101 Firefox/140.0","","Firefox","140.0","Windows","10.0","https://app.prolific.com/","pl,en-US;q=0.7,en;q=0.3","5dd25456cc192027096069bb","686e379bc37a29ffa5cdc956","6877601cf53d51e27829d9f6","1","1","5dd25456cc192027096069bb","1","1","2025-07-16T08:22:17.215Z","","","","","","","","","","","","","","win-only","3","g1:SW,g2:NE","0.8","3","0","225720","1167","6176","52371","1","4","8","6","2","8","7","19","12","0.14393939393939395","1074","3000","1355","[""up"",""right""]","{""num_key_presses"":11,""num_perfect"":8,""num_errors"":1,""num_randdir"":2,""num_randdir_good_moves"":0,""num_whilered"":0,""num_whileblue"":0,""num_blue"":4,""num_good_moves"":8}","[296.22857753208706,300.92857448032925,0,296.22857753208706,300.92857448032925,100,296.22857753208706,300.92857448032925,205,296.22857753208706,300.92857448032925,309,296.22857753208706,300.92857448032925,415,312.22857753208706,286.92857448032925,523,484.22857753208706,118.92857448032925,625,514.228577532087,81.92857448032925,726,520.228577532087,73.92857448032925,833,533.228577532087,57.92857448032924,942,537.228577532087,53.92857448032924,1046,537.228577532087,53.92857448032924,1146,538.228577532087,53.92857448032924,1246,608.228577532087,128.92857448032925,1346,684.228577532087,234.92857448032925,1447,696.228577532087,251.92857448032925,1557,696.228577532087,251.92857448032925,1663,696.228577532087,251.92857448032925,1763,696.228577532087,252.92857448032925,1869,696.228577532087,252.92857448032925,1978,696.228577532087,252.92857448032925,2084,696.228577532087,252.92857448032925,2195,696.228577532087,252.92857448032925,2300,696.228577532087,252.92857448032925,2401,696.228577532087,252.92857448032925,2501,696.228577532087,252.92857448032925,2604,696.228577532087,252.92857448032925,2713,696.228577532087,252.92857448032925,2825,696.228577532087,252.92857448032925,2936,696.228577532087,252.92857448032925,3048,696.228577532087,252.92857448032925,3148,696.228577532087,252.92857448032925,3250,696.228577532087,252.92857448032925,3361,696.228577532087,252.92857448032925,3465,696.228577532087,252.92857448032925,3572,696.228577532087,252.92857448032925,3683,696.228577532087,252.92857448032925,3795,696.228577532087,252.92857448032925,3903,696.228577532087,252.92857448032925,4007,696.228577532087,252.92857448032925,4117,696.228577532087,252.92857448032925,4221,696.228577532087,252.92857448032925,4333,696.228577532087,252.92857448032925,4446,696.228577532087,252.92857448032925,4548,696.228577532087,252.92857448032925,4652,696.228577532087,252.92857448032925,4764,696.228577532087,252.92857448032925,4871,696.228577532087,252.92857448032925,4978]","[685,685,1000,0,-315,""error"",""-"",""-"",""no_move"",7608,6922,1534.9,5533,540.1,""smooth"",""up"",""up"",""good_move"",10630,3021,1964.9,7609,1056.1,""smooth"",""up"",""up"",""good_move"",17375,6745,2322.6,14642,410.4,""smooth"",""right"",""right"",""good_move"",20792,3417,2959.2,17375,457.8,""smooth"",""right"",""right"",""good_move"",24056,3263,2879.7,20793,383.3,""oops"",""up"",""down"",""bad_move"",27407,3351,2920.8,24056,430.2,""oops"",""right"",""left"",""bad_move"",30094,2687,2237,27407,450,""smooth"",""up"",""up"",""good_move"",41090,10996,2633.4,38039,417.6,""smooth"",""right"",""right"",""good_move"",43454,2364,1782.4,41090,581.6,""smooth"",""up"",""up"",""good_move"",45940,2485,1946.5,43455,538.5,""smooth"",""right"",""right"",""good_move""]","",""
"2394","","<div style=""width:500px;"">
  <p>What determined the result of this run?</p>
  </div>","98","html-slider-response","20","281956","0.0-5.0-1.2","42","1","2025-07-16 08:17:36","1f75c3e559b7213887762d5229550c2b","83.22.171.6","Mozilla/5.0 (Windows NT 10.0; Win64; x64; rv:140.0) Gecko/20100101 Firefox/140.0","","Firefox","140.0","Windows","10.0","https://app.prolific.com/","pl,en-US;q=0.7,en;q=0.3","5dd25456cc192027096069bb","686e379bc37a29ffa5cdc956","6877601cf53d51e27829d9f6","1","1","5dd25456cc192027096069bb","1","1","2025-07-16T08:22:19.610Z","","","","","","","","","","","AttribQ","","50","","","","","","","","","","","","","","","","","","","","","","","","","","","","",""
"2319","","<div style=""width:500px;"">
  <p>How much control did you have over the ball?</p>
  </div>","81","html-slider-response","21","284276","0.0-5.0-2.2","42","1","2025-07-16 08:17:36","1f75c3e559b7213887762d5229550c2b","83.22.171.6","Mozilla/5.0 (Windows NT 10.0; Win64; x64; rv:140.0) Gecko/20100101 Firefox/140.0","","Firefox","140.0","Windows","10.0","https://app.prolific.com/","pl,en-US;q=0.7,en;q=0.3","5dd25456cc192027096069bb","686e379bc37a29ffa5cdc956","6877601cf53d51e27829d9f6","1","1","5dd25456cc192027096069bb","1","1","2025-07-16T08:22:21.930Z","","","","","","","","","","","ControlQ","","50","","","","","","","","","","","","","","","","","","","","","","","","","","","","",""
"2348","","<div style=""width:500px;"">
  <p>How would you describe your current emotional state?</p>
  </div>","59","html-slider-response","22","286626","0.0-5.0-3.2","42","1","2025-07-16 08:17:36","1f75c3e559b7213887762d5229550c2b","83.22.171.6","Mozilla/5.0 (Windows NT 10.0; Win64; x64; rv:140.0) Gecko/20100101 Firefox/140.0","","Firefox","140.0","Windows","10.0","https://app.prolific.com/","pl,en-US;q=0.7,en;q=0.3","5dd25456cc192027096069bb","686e379bc37a29ffa5cdc956","6877601cf53d51e27829d9f6","1","1","5dd25456cc192027096069bb","1","1","2025-07-16T08:22:24.280Z","","","","","","","","","","","StressQ","","50","","","","","","","","","","","","","","","","","","","","","","","","","","","","",""
"1952","","<div style=""width:500px;"">
  <p>What best describes how you currently feel?</p>
  </div>","62","html-slider-response","23","288581","0.0-5.0-4.2","42","1","2025-07-16 08:17:36","1f75c3e559b7213887762d5229550c2b","83.22.171.6","Mozilla/5.0 (Windows NT 10.0; Win64; x64; rv:140.0) Gecko/20100101 Firefox/140.0","","Firefox","140.0","Windows","10.0","https://app.prolific.com/","pl,en-US;q=0.7,en;q=0.3","5dd25456cc192027096069bb","686e379bc37a29ffa5cdc956","6877601cf53d51e27829d9f6","1","1","5dd25456cc192027096069bb","1","1","2025-07-16T08:22:26.235Z","","","","","","","","","","","MotivationQ","","50","","","","","","","","","","","","","","","","","","","","","","","","","","","","",""
"","","","","ctl-task-cpt","24","316566","0.0-5.0-0.3","42","1","2025-07-16 08:17:36","1f75c3e559b7213887762d5229550c2b","83.22.171.6","Mozilla/5.0 (Windows NT 10.0; Win64; x64; rv:140.0) Gecko/20100101 Firefox/140.0","","Firefox","140.0","Windows","10.0","https://app.prolific.com/","pl,en-US;q=0.7,en;q=0.3","5dd25456cc192027096069bb","686e379bc37a29ffa5cdc956","6877601cf53d51e27829d9f6","1","1","5dd25456cc192027096069bb","1","1","2025-07-16T08:22:54.220Z","","","","","","","","","","","","","","win-only","2","g1:SE,g2:NW","0.7","4","0","290123","1172","6180","24982","1","4","4","6","2","4","4","23","19","0.17424242424242425","881","3000","1845","[""left"",""up""]","{""num_key_presses"":6,""num_perfect"":5,""num_errors"":0,""num_randdir"":1,""num_randdir_good_moves"":1,""num_whilered"":0,""num_whileblue"":0,""num_blue"":1,""num_good_moves"":6}","[301.22857753208706,297.92857448032925,0,301.22857753208706,297.92857448032925,109,301.22857753208706,297.92857448032925,210,308.22857753208706,300.92857448032925,318,308.22857753208706,301.92857448032925,418,293.22857753208706,307.92857448032925,519,182.22857753208706,133.92857448032925,630,63.22857753208705,37.92857448032924,738,55.22857753208705,30.92857448032924,838,56.22857753208705,29.92857448032924,948,133.22857753208706,37.92857448032924,1048,356.22857753208706,60.92857448032924,1157,356.22857753208706,60.92857448032924,1258,356.22857753208706,60.92857448032924,1358,356.22857753208706,60.92857448032924,1467,356.22857753208706,60.92857448032924,1568,356.22857753208706,60.92857448032924,1668,356.22857753208706,60.92857448032924,1768,356.22857753208706,60.92857448032924,1869,356.22857753208706,60.92857448032924,1969,356.22857753208706,60.92857448032924,2085,356.22857753208706,60.92857448032924,2185,356.22857753208706,60.92857448032924,2285,356.22857753208706,60.92857448032924,2392,356.22857753208706,60.92857448032924,2500,356.22857753208706,60.92857448032924,2600,356.22857753208706,60.92857448032924,2700,356.22857753208706,60.92857448032924,2800,356.22857753208706,60.92857448032924,2900,356.22857753208706,60.92857448032924,3000,356.22857753208706,60.92857448032924,3109,356.22857753208706,60.92857448032924,3218,356.22857753208706,60.92857448032924,3326,356.22857753208706,60.92857448032924,3426,356.22857753208706,60.92857448032924,3526,356.22857753208706,60.92857448032924,3627,356.22857753208706,60.92857448032924,3739,356.22857753208706,60.92857448032924,3839,356.22857753208706,60.92857448032924,3939,356.22857753208706,60.92857448032924,4040,356.22857753208706,60.92857448032924,4150,356.22857753208706,60.92857448032924,4250,356.22857753208706,60.92857448032924,4357,356.22857753208706,60.92857448032924,4457,356.22857753208706,60.92857448032924,4558,356.22857753208706,60.92857448032924,4658,356.22857753208706,60.92857448032924,4759,356.22857753208706,60.92857448032924,4865,356.22857753208706,60.92857448032924,4975]","[1457,1457,1000,0,457,""smooth"",""left"",""left"",""good_move"",4522,3065,2611.6,1457,453.4,""smooth"",""left"",""left"",""good_move"",7562,3040,2565,4522,475,""smooth"",""up"",""up"",""good_move"",10117,2554,2090.6,7563,463.4,""smooth"",""up"",""up"",""good_move"",16134,6016,2064.4,13629,440.6,""oops"",""up"",""up"",""good_move"",18568,2434,2088.1,16134,345.9,""smooth"",""left"",""left"",""good_move""]","",""
"2572","","<div style=""width:500px;"">
  <p>What determined the result of this run?</p>
  </div>","100","html-slider-response","25","319139","0.0-5.0-1.3","42","1","2025-07-16 08:17:36","1f75c3e559b7213887762d5229550c2b","83.22.171.6","Mozilla/5.0 (Windows NT 10.0; Win64; x64; rv:140.0) Gecko/20100101 Firefox/140.0","","Firefox","140.0","Windows","10.0","https://app.prolific.com/","pl,en-US;q=0.7,en;q=0.3","5dd25456cc192027096069bb","686e379bc37a29ffa5cdc956","6877601cf53d51e27829d9f6","1","1","5dd25456cc192027096069bb","1","1","2025-07-16T08:22:56.793Z","","","","","","","","","","","AttribQ","","50","","","","","","","","","","","","","","","","","","","","","","","","","","","","",""
"1321","","<div style=""width:500px;"">
  <p>How much control did you have over the ball?</p>
  </div>","88","html-slider-response","26","320461","0.0-5.0-2.3","42","1","2025-07-16 08:17:36","1f75c3e559b7213887762d5229550c2b","83.22.171.6","Mozilla/5.0 (Windows NT 10.0; Win64; x64; rv:140.0) Gecko/20100101 Firefox/140.0","","Firefox","140.0","Windows","10.0","https://app.prolific.com/","pl,en-US;q=0.7,en;q=0.3","5dd25456cc192027096069bb","686e379bc37a29ffa5cdc956","6877601cf53d51e27829d9f6","1","1","5dd25456cc192027096069bb","1","1","2025-07-16T08:22:58.115Z","","","","","","","","","","","ControlQ","","50","","","","","","","","","","","","","","","","","","","","","","","","","","","","",""
"2052","","<div style=""width:500px;"">
  <p>How would you describe your current emotional state?</p>
  </div>","42","html-slider-response","27","322515","0.0-5.0-3.3","42","1","2025-07-16 08:17:36","1f75c3e559b7213887762d5229550c2b","83.22.171.6","Mozilla/5.0 (Windows NT 10.0; Win64; x64; rv:140.0) Gecko/20100101 Firefox/140.0","","Firefox","140.0","Windows","10.0","https://app.prolific.com/","pl,en-US;q=0.7,en;q=0.3","5dd25456cc192027096069bb","686e379bc37a29ffa5cdc956","6877601cf53d51e27829d9f6","1","1","5dd25456cc192027096069bb","1","1","2025-07-16T08:23:00.169Z","","","","","","","","","","","StressQ","","50","","","","","","","","","","","","","","","","","","","","","","","","","","","","",""
"1920","","<div style=""width:500px;"">
  <p>What best describes how you currently feel?</p>
  </div>","78","html-slider-response","28","324436","0.0-5.0-4.3","42","1","2025-07-16 08:17:36","1f75c3e559b7213887762d5229550c2b","83.22.171.6","Mozilla/5.0 (Windows NT 10.0; Win64; x64; rv:140.0) Gecko/20100101 Firefox/140.0","","Firefox","140.0","Windows","10.0","https://app.prolific.com/","pl,en-US;q=0.7,en;q=0.3","5dd25456cc192027096069bb","686e379bc37a29ffa5cdc956","6877601cf53d51e27829d9f6","1","1","5dd25456cc192027096069bb","1","1","2025-07-16T08:23:02.090Z","","","","","","","","","","","MotivationQ","","50","","","","","","","","","","","","","","","","","","","","","","","","","","","","",""
"","","","","ctl-task-cpt","29","359029","0.0-5.0-0.4","42","1","2025-07-16 08:17:36","1f75c3e559b7213887762d5229550c2b","83.22.171.6","Mozilla/5.0 (Windows NT 10.0; Win64; x64; rv:140.0) Gecko/20100101 Firefox/140.0","","Firefox","140.0","Windows","10.0","https://app.prolific.com/","pl,en-US;q=0.7,en;q=0.3","5dd25456cc192027096069bb","686e379bc37a29ffa5cdc956","6877601cf53d51e27829d9f6","1","1","5dd25456cc192027096069bb","1","1","2025-07-16T08:23:36.683Z","","","","","","","","","","","","","","win-only","3","g1:SW,g2:NE","0.6","5","0","325979","1206","6208","31580","1","4","8","6","2","8","8","31","23","0.23484848484848486","720","3000","1365","[""up"",""right""]","{""num_key_presses"":8,""num_perfect"":5,""num_errors"":0,""num_randdir"":3,""num_randdir_good_moves"":2,""num_whilered"":0,""num_whileblue"":0,""num_blue"":1,""num_good_moves"":7}","[295.22857753208706,300.92857448032925,0,295.22857753208706,300.92857448032925,100,295.22857753208706,300.92857448032925,209,295.22857753208706,300.92857448032925,310,403.22857753208706,198.92857448032925,411,564.228577532087,63.92857448032924,516,565.228577532087,51.92857448032924,626,565.228577532087,46.92857448032924,736,569.228577532087,40.92857448032924,844,599.228577532087,37.92857448032924,945,599.228577532087,37.92857448032924,1046,599.228577532087,37.92857448032924,1153,599.228577532087,37.92857448032924,1263,599.228577532087,37.92857448032924,1374,599.228577532087,37.92857448032924,1474,599.228577532087,37.92857448032924,1581,599.228577532087,37.92857448032924,1691,599.228577532087,37.92857448032924,1800,599.228577532087,37.92857448032924,1900,599.228577532087,37.92857448032924,2010,599.228577532087,37.92857448032924,2110,599.228577532087,37.92857448032924,2222,599.228577532087,37.92857448032924,2326,599.228577532087,37.92857448032924,2436,599.228577532087,37.92857448032924,2546,599.228577532087,37.92857448032924,2646,599.228577532087,37.92857448032924,2755,599.228577532087,37.92857448032924,2865,599.228577532087,37.92857448032924,2974,599.228577532087,37.92857448032924,3080,599.228577532087,37.92857448032924,3190,599.228577532087,37.92857448032924,3293,599.228577532087,37.92857448032924,3403,599.228577532087,37.92857448032924,3512,599.228577532087,37.92857448032924,3622,599.228577532087,37.92857448032924,3722,599.228577532087,37.92857448032924,3834,599.228577532087,37.92857448032924,3942,599.228577532087,37.92857448032924,4052,599.228577532087,37.92857448032924,4162,599.228577532087,37.92857448032924,4271,599.228577532087,37.92857448032924,4375,599.228577532087,37.92857448032924,4485,599.228577532087,37.92857448032924,4585,599.228577532087,37.92857448032924,4694,599.228577532087,37.92857448032924,4804,599.228577532087,37.92857448032924,4904]","[1424,1424,1000,0,424,""oops"",""up"",""right"",""good_move"",4175,2751,2360.1,1424,390.9,""oops"",""up"",""left"",""bad_move"",7369,3194,2605.4,4175,588.6,""smooth"",""up"",""up"",""good_move"",10553,3184,2787.8,7369,396.2,""smooth"",""up"",""up"",""good_move"",13183,2629,2139.7,10554,489.3,""smooth"",""right"",""right"",""good_move"",15769,2585,2178,13184,407,""smooth"",""up"",""up"",""good_move"",18896,3127,2685.3,15769,441.7,""oops"",""right"",""right"",""good_move"",25189,6293,2611.2,22115,462.8,""smooth"",""right"",""right"",""good_move""]","",""
"1980","","<div style=""width:500px;"">
  <p>What determined the result of this run?</p>
  </div>","100","html-slider-response","30","361010","0.0-5.0-1.4","42","1","2025-07-16 08:17:36","1f75c3e559b7213887762d5229550c2b","83.22.171.6","Mozilla/5.0 (Windows NT 10.0; Win64; x64; rv:140.0) Gecko/20100101 Firefox/140.0","","Firefox","140.0","Windows","10.0","https://app.prolific.com/","pl,en-US;q=0.7,en;q=0.3","5dd25456cc192027096069bb","686e379bc37a29ffa5cdc956","6877601cf53d51e27829d9f6","1","1","5dd25456cc192027096069bb","1","1","2025-07-16T08:23:38.664Z","","","","","","","","","","","AttribQ","","50","","","","","","","","","","","","","","","","","","","","","","","","","","","","",""
"1536","","<div style=""width:500px;"">
  <p>How much control did you have over the ball?</p>
  </div>","94","html-slider-response","31","362548","0.0-5.0-2.4","42","1","2025-07-16 08:17:36","1f75c3e559b7213887762d5229550c2b","83.22.171.6","Mozilla/5.0 (Windows NT 10.0; Win64; x64; rv:140.0) Gecko/20100101 Firefox/140.0","","Firefox","140.0","Windows","10.0","https://app.prolific.com/","pl,en-US;q=0.7,en;q=0.3","5dd25456cc192027096069bb","686e379bc37a29ffa5cdc956","6877601cf53d51e27829d9f6","1","1","5dd25456cc192027096069bb","1","1","2025-07-16T08:23:40.202Z","","","","","","","","","","","ControlQ","","50","","","","","","","","","","","","","","","","","","","","","","","","","","","","",""
"2278","","<div style=""width:500px;"">
  <p>How would you describe your current emotional state?</p>
  </div>","41","html-slider-response","32","364826","0.0-5.0-3.4","42","1","2025-07-16 08:17:36","1f75c3e559b7213887762d5229550c2b","83.22.171.6","Mozilla/5.0 (Windows NT 10.0; Win64; x64; rv:140.0) Gecko/20100101 Firefox/140.0","","Firefox","140.0","Windows","10.0","https://app.prolific.com/","pl,en-US;q=0.7,en;q=0.3","5dd25456cc192027096069bb","686e379bc37a29ffa5cdc956","6877601cf53d51e27829d9f6","1","1","5dd25456cc192027096069bb","1","1","2025-07-16T08:23:42.480Z","","","","","","","","","","","StressQ","","50","","","","","","","","","","","","","","","","","","","","","","","","","","","","",""
"2086","","<div style=""width:500px;"">
  <p>What best describes how you currently feel?</p>
  </div>","87","html-slider-response","33","366915","0.0-5.0-4.4","42","1","2025-07-16 08:17:36","1f75c3e559b7213887762d5229550c2b","83.22.171.6","Mozilla/5.0 (Windows NT 10.0; Win64; x64; rv:140.0) Gecko/20100101 Firefox/140.0","","Firefox","140.0","Windows","10.0","https://app.prolific.com/","pl,en-US;q=0.7,en;q=0.3","5dd25456cc192027096069bb","686e379bc37a29ffa5cdc956","6877601cf53d51e27829d9f6","1","1","5dd25456cc192027096069bb","1","1","2025-07-16T08:23:44.569Z","","","","","","","","","","","MotivationQ","","50","","","","","","","","","","","","","","","","","","","","","","","","","","","","",""
"","","","","ctl-task-cpt","34","405575","0.0-5.0-0.5","42","1","2025-07-16 08:17:36","1f75c3e559b7213887762d5229550c2b","83.22.171.6","Mozilla/5.0 (Windows NT 10.0; Win64; x64; rv:140.0) Gecko/20100101 Firefox/140.0","","Firefox","140.0","Windows","10.0","https://app.prolific.com/","pl,en-US;q=0.7,en;q=0.3","5dd25456cc192027096069bb","686e379bc37a29ffa5cdc956","6877601cf53d51e27829d9f6","1","1","5dd25456cc192027096069bb","1","1","2025-07-16T08:24:23.229Z","","","","","","","","","","","","","","win-only","3","g1:SW,g2:NE","0.5","6","0","368456","1319","6321","35657","1","4","4","6","2","4","4","35","31","0.26515151515151514","1178","3000","1810","[""up"",""right""]","{""num_key_presses"":8,""num_perfect"":5,""num_errors"":0,""num_randdir"":3,""num_randdir_good_moves"":2,""num_whilered"":0,""num_whileblue"":0,""num_blue"":2,""num_good_moves"":7}","[296.22857753208706,296.92857448032925,0,295.22857753208706,296.92857448032925,103,295.22857753208706,296.92857448032925,203,295.22857753208706,296.92857448032925,311,296.22857753208706,296.92857448032925,412,394.22857753208706,213.92857448032925,522,491.22857753208706,112.92857448032925,622,493.22857753208706,108.92857448032925,732,495.22857753208706,105.92857448032925,832,500.22857753208706,100.92857448032925,947,517.228577532087,83.92857448032925,1052,527.228577532087,73.92857448032925,1155,527.228577532087,72.92857448032925,1258,527.228577532087,73.92857448032925,1368,589.228577532087,106.92857448032925,1480,771.228577532087,127.92857448032925,1587,771.228577532087,126.92857448032925,1700,771.228577532087,126.92857448032925,1805,771.228577532087,126.92857448032925,1905,771.228577532087,126.92857448032925,2005,771.228577532087,126.92857448032925,2115,771.228577532087,126.92857448032925,2233,771.228577532087,126.92857448032925,2343,771.228577532087,126.92857448032925,2451,771.228577532087,126.92857448032925,2552,771.228577532087,126.92857448032925,2657,771.228577532087,126.92857448032925,2764,771.228577532087,126.92857448032925,2874,771.228577532087,126.92857448032925,2986,771.228577532087,126.92857448032925,3093,771.228577532087,126.92857448032925,3208,771.228577532087,126.92857448032925,3320,771.228577532087,126.92857448032925,3432,771.228577532087,126.92857448032925,3543,771.228577532087,126.92857448032925,3656,771.228577532087,126.92857448032925,3768,771.228577532087,126.92857448032925,3879,771.228577532087,126.92857448032925,3991,771.228577532087,126.92857448032925,4103,771.228577532087,126.92857448032925,4218,771.228577532087,126.92857448032925,4330,771.228577532087,126.92857448032925,4442,771.228577532087,126.92857448032925,4554,771.228577532087,126.92857448032925,4665,771.228577532087,126.92857448032925,4778,771.228577532087,126.92857448032925,4890]","[1412,1412,1000,0,412,""oops"",""up"",""right"",""good_move"",7197,5785,2908.8,3842,446.2,""smooth"",""up"",""up"",""good_move"",10810,3613,3197.3,7197,415.7,""oops"",""up"",""up"",""good_move"",14344,3533,3099.7,10811,433.3,""oops"",""right"",""down"",""bad_move"",16799,2454,1999.5,14345,454.5,""smooth"",""up"",""up"",""good_move"",19867,3068,2694,16799,374,""smooth"",""right"",""right"",""good_move"",26149,6282,2277.5,23506,365.5,""smooth"",""right"",""right"",""good_move"",29095,2946,2575.8,26149,370.2,""smooth"",""up"",""up"",""good_move""]","",""
"1870","","<div style=""width:500px;"">
  <p>What determined the result of this run?</p>
  </div>","94","html-slider-response","35","407447","0.0-5.0-1.5","42","1","2025-07-16 08:17:36","1f75c3e559b7213887762d5229550c2b","83.22.171.6","Mozilla/5.0 (Windows NT 10.0; Win64; x64; rv:140.0) Gecko/20100101 Firefox/140.0","","Firefox","140.0","Windows","10.0","https://app.prolific.com/","pl,en-US;q=0.7,en;q=0.3","5dd25456cc192027096069bb","686e379bc37a29ffa5cdc956","6877601cf53d51e27829d9f6","1","1","5dd25456cc192027096069bb","1","1","2025-07-16T08:24:25.101Z","","","","","","","","","","","AttribQ","","50","","","","","","","","","","","","","","","","","","","","","","","","","","","","",""
"1630","","<div style=""width:500px;"">
  <p>How much control did you have over the ball?</p>
  </div>","88","html-slider-response","36","409078","0.0-5.0-2.5","42","1","2025-07-16 08:17:36","1f75c3e559b7213887762d5229550c2b","83.22.171.6","Mozilla/5.0 (Windows NT 10.0; Win64; x64; rv:140.0) Gecko/20100101 Firefox/140.0","","Firefox","140.0","Windows","10.0","https://app.prolific.com/","pl,en-US;q=0.7,en;q=0.3","5dd25456cc192027096069bb","686e379bc37a29ffa5cdc956","6877601cf53d51e27829d9f6","1","1","5dd25456cc192027096069bb","1","1","2025-07-16T08:24:26.732Z","","","","","","","","","","","ControlQ","","50","","","","","","","","","","","","","","","","","","","","","","","","","","","","",""
"1279","","<div style=""width:500px;"">
  <p>How would you describe your current emotional state?</p>
  </div>","33","html-slider-response","37","410359","0.0-5.0-3.5","42","1","2025-07-16 08:17:36","1f75c3e559b7213887762d5229550c2b","83.22.171.6","Mozilla/5.0 (Windows NT 10.0; Win64; x64; rv:140.0) Gecko/20100101 Firefox/140.0","","Firefox","140.0","Windows","10.0","https://app.prolific.com/","pl,en-US;q=0.7,en;q=0.3","5dd25456cc192027096069bb","686e379bc37a29ffa5cdc956","6877601cf53d51e27829d9f6","1","1","5dd25456cc192027096069bb","1","1","2025-07-16T08:24:28.013Z","","","","","","","","","","","StressQ","","50","","","","","","","","","","","","","","","","","","","","","","","","","","","","",""
"2023","","<div style=""width:500px;"">
  <p>What best describes how you currently feel?</p>
  </div>","77","html-slider-response","38","412385","0.0-5.0-4.5","42","1","2025-07-16 08:17:36","1f75c3e559b7213887762d5229550c2b","83.22.171.6","Mozilla/5.0 (Windows NT 10.0; Win64; x64; rv:140.0) Gecko/20100101 Firefox/140.0","","Firefox","140.0","Windows","10.0","https://app.prolific.com/","pl,en-US;q=0.7,en;q=0.3","5dd25456cc192027096069bb","686e379bc37a29ffa5cdc956","6877601cf53d51e27829d9f6","1","1","5dd25456cc192027096069bb","1","1","2025-07-16T08:24:30.039Z","","","","","","","","","","","MotivationQ","","50","","","","","","","","","","","","","","","","","","","","","","","","","","","","",""
"","","","","ctl-task-cpt","39","485684","0.0-5.0-0.6","42","1","2025-07-16 08:17:36","1f75c3e559b7213887762d5229550c2b","83.22.171.6","Mozilla/5.0 (Windows NT 10.0; Win64; x64; rv:140.0) Gecko/20100101 Firefox/140.0","","Firefox","140.0","Windows","10.0","https://app.prolific.com/","pl,en-US;q=0.7,en;q=0.3","5dd25456cc192027096069bb","686e379bc37a29ffa5cdc956","6877601cf53d51e27829d9f6","1","1","5dd25456cc192027096069bb","1","1","2025-07-16T08:25:43.338Z","","","","","","","","","","","","","","win-only","1","g1:NE,g2:SW","0.4","7","0","413926","1403","6406","70292","1","4","4","6","2","-4","-4","31","35","0.23484848484848486","979","3000","-1495","[""down"",""left""]","{""num_key_presses"":14,""num_perfect"":7,""num_errors"":0,""num_randdir"":7,""num_randdir_good_moves"":1,""num_whilered"":0,""num_whileblue"":0,""num_blue"":6,""num_good_moves"":8}","[292.22857753208706,296.92857448032925,0,292.22857753208706,295.92857448032925,105,292.22857753208706,295.92857448032925,216,298.22857753208706,294.92857448032925,326,321.22857753208706,279.92857448032925,436,278.22857753208706,313.92857448032925,545,176.22857753208706,413.92857448032925,655,124.22857753208706,480.92857448032925,765,105.22857753208706,497.92857448032925,876,86.22857753208706,513.9285744803292,977,82.22857753208706,520.9285744803292,1084,174.22857753208706,512.9285744803292,1184,285.22857753208706,446.92857448032925,1285,285.22857753208706,446.92857448032925,1388,285.22857753208706,446.92857448032925,1497,285.22857753208706,446.92857448032925,1607,285.22857753208706,446.92857448032925,1707,285.22857753208706,446.92857448032925,1815,285.22857753208706,446.92857448032925,1926,285.22857753208706,446.92857448032925,2026,285.22857753208706,446.92857448032925,2127,285.22857753208706,446.92857448032925,2227,285.22857753208706,446.92857448032925,2335,285.22857753208706,446.92857448032925,2444,285.22857753208706,446.92857448032925,2553,285.22857753208706,446.92857448032925,2663,285.22857753208706,446.92857448032925,2763,285.22857753208706,446.92857448032925,2875,285.22857753208706,446.92857448032925,2984,285.22857753208706,446.92857448032925,3095,285.22857753208706,446.92857448032925,3195,285.22857753208706,446.92857448032925,3308,285.22857753208706,446.92857448032925,3409,285.22857753208706,446.92857448032925,3517,285.22857753208706,446.92857448032925,3626,285.22857753208706,446.92857448032925,3737,285.22857753208706,446.92857448032925,3837,285.22857753208706,446.92857448032925,3945,285.22857753208706,446.92857448032925,4055,285.22857753208706,446.92857448032925,4155,285.22857753208706,446.92857448032925,4258,285.22857753208706,446.92857448032925,4364,285.22857753208706,446.92857448032925,4474,285.22857753208706,446.92857448032925,4584,285.22857753208706,446.92857448032925,4692,285.22857753208706,446.92857448032925,4793,285.22857753208706,446.92857448032925,4903]","[1458,1458,1000,0,458,""oops"",""down"",""up"",""bad_move"",4666,3208,2721.3,1458,486.7,""smooth"",""down"",""down"",""good_move"",15305,10638,2278.1,12598,428.9,""smooth"",""down"",""down"",""good_move"",18117,2812,2312,15305,500,""smooth"",""down"",""down"",""good_move"",21672,3555,3109,18117,446,""smooth"",""down"",""down"",""good_move"",24787,3115,2679.1,21672,435.9,""oops"",""left"",""up"",""bad_move"",27722,2935,2435.6,24787,499.4,""oops"",""left"",""up"",""bad_move"",34038,6316,2023.6,31638,376.4,""oops"",""down"",""up"",""bad_move"",36487,2449,2008.5,34038,440.5,""oops"",""down"",""left"",""good_move"",42632,6145,2596.9,39618,417.1,""oops"",""left"",""up"",""bad_move"",45424,2792,2237.8,42632,554.2,""oops"",""down"",""right"",""bad_move"",48126,2702,2204.6,45424,497.4,""smooth"",""down"",""down"",""good_move"",54892,6766,2430.6,52102,359.4,""smooth"",""down"",""down"",""good_move"",57816,2924,2508.7,54892,415.3,""smooth"",""down"",""down"",""good_move""]","",""
"2938","","<div style=""width:500px;"">
  <p>What determined the result of this run?</p>
  </div>","25","html-slider-response","40","488623","0.0-5.0-1.6","42","1","2025-07-16 08:17:36","1f75c3e559b7213887762d5229550c2b","83.22.171.6","Mozilla/5.0 (Windows NT 10.0; Win64; x64; rv:140.0) Gecko/20100101 Firefox/140.0","","Firefox","140.0","Windows","10.0","https://app.prolific.com/","pl,en-US;q=0.7,en;q=0.3","5dd25456cc192027096069bb","686e379bc37a29ffa5cdc956","6877601cf53d51e27829d9f6","1","1","5dd25456cc192027096069bb","1","1","2025-07-16T08:25:46.277Z","","","","","","","","","","","AttribQ","","50","","","","","","","","","","","","","","","","","","","","","","","","","","","","",""
"4019","","<div style=""width:500px;"">
  <p>How much control did you have over the ball?</p>
  </div>","4","html-slider-response","41","492643","0.0-5.0-2.6","42","1","2025-07-16 08:17:36","1f75c3e559b7213887762d5229550c2b","83.22.171.6","Mozilla/5.0 (Windows NT 10.0; Win64; x64; rv:140.0) Gecko/20100101 Firefox/140.0","","Firefox","140.0","Windows","10.0","https://app.prolific.com/","pl,en-US;q=0.7,en;q=0.3","5dd25456cc192027096069bb","686e379bc37a29ffa5cdc956","6877601cf53d51e27829d9f6","1","1","5dd25456cc192027096069bb","1","1","2025-07-16T08:25:50.297Z","","","","","","","","","","","ControlQ","","50","","","","","","","","","","","","","","","","","","","","","","","","","","","","",""
"2039","","<div style=""width:500px;"">
  <p>How would you describe your current emotional state?</p>
  </div>","70","html-slider-response","42","494683","0.0-5.0-3.6","42","1","2025-07-16 08:17:36","1f75c3e559b7213887762d5229550c2b","83.22.171.6","Mozilla/5.0 (Windows NT 10.0; Win64; x64; rv:140.0) Gecko/20100101 Firefox/140.0","","Firefox","140.0","Windows","10.0","https://app.prolific.com/","pl,en-US;q=0.7,en;q=0.3","5dd25456cc192027096069bb","686e379bc37a29ffa5cdc956","6877601cf53d51e27829d9f6","1","1","5dd25456cc192027096069bb","1","1","2025-07-16T08:25:52.337Z","","","","","","","","","","","StressQ","","50","","","","","","","","","","","","","","","","","","","","","","","","","","","","",""
"2879","","<div style=""width:500px;"">
  <p>What best describes how you currently feel?</p>
  </div>","32","html-slider-response","43","497563","0.0-5.0-4.6","42","1","2025-07-16 08:17:36","1f75c3e559b7213887762d5229550c2b","83.22.171.6","Mozilla/5.0 (Windows NT 10.0; Win64; x64; rv:140.0) Gecko/20100101 Firefox/140.0","","Firefox","140.0","Windows","10.0","https://app.prolific.com/","pl,en-US;q=0.7,en;q=0.3","5dd25456cc192027096069bb","686e379bc37a29ffa5cdc956","6877601cf53d51e27829d9f6","1","1","5dd25456cc192027096069bb","1","1","2025-07-16T08:25:55.217Z","","","","","","","","","","","MotivationQ","","50","","","","","","","","","","","","","","","","","","","","","","","","","","","","",""
"","","","","ctl-task-cpt","44","533698","0.0-5.0-0.7","42","1","2025-07-16 08:17:36","1f75c3e559b7213887762d5229550c2b","83.22.171.6","Mozilla/5.0 (Windows NT 10.0; Win64; x64; rv:140.0) Gecko/20100101 Firefox/140.0","","Firefox","140.0","Windows","10.0","https://app.prolific.com/","pl,en-US;q=0.7,en;q=0.3","5dd25456cc192027096069bb","686e379bc37a29ffa5cdc956","6877601cf53d51e27829d9f6","1","1","5dd25456cc192027096069bb","1","1","2025-07-16T08:26:31.352Z","","","","","","","","","","","","","","win-only","1","g1:NE,g2:SW","0.3","8","0","499104","2077","7083","33131","1","4","8","6","1","1","1","32","31","0.24242424242424243","1613","3000","1695","[""up"",""right""]","{""num_key_presses"":8,""num_perfect"":3,""num_errors"":0,""num_randdir"":5,""num_randdir_good_moves"":3,""num_whilered"":0,""num_whileblue"":0,""num_blue"":1,""num_good_moves"":6}","[297.22857753208706,296.92857448032925,0,297.22857753208706,296.92857448032925,106,297.22857753208706,296.92857448032925,219,297.22857753208706,296.92857448032925,319,309.22857753208706,288.92857448032925,427,368.22857753208706,265.92857448032925,538,387.22857753208706,256.92857448032925,650,387.22857753208706,255.92857448032925,762,387.22857753208706,255.92857448032925,874,387.22857753208706,255.92857448032925,986,504.22857753208706,156.92857448032925,1098,546.228577532087,110.92857448032925,1210,553.228577532087,96.92857448032925,1322,548.228577532087,79.92857448032925,1434,546.228577532087,69.92857448032925,1547,546.228577532087,68.92857448032925,1658,546.228577532087,68.92857448032925,1768,546.228577532087,68.92857448032925,1875,546.228577532087,68.92857448032925,1984,546.228577532087,68.92857448032925,2093,546.228577532087,68.92857448032925,2193,546.228577532087,68.92857448032925,2300,546.228577532087,68.92857448032925,2401,546.228577532087,68.92857448032925,2510,546.228577532087,68.92857448032925,2623,546.228577532087,68.92857448032925,2731,546.228577532087,68.92857448032925,2839,546.228577532087,68.92857448032925,2942,546.228577532087,68.92857448032925,3042,546.228577532087,68.92857448032925,3156,546.228577532087,68.92857448032925,3262,546.228577532087,68.92857448032925,3372,546.228577532087,68.92857448032925,3481,546.228577532087,68.92857448032925,3590,546.228577532087,68.92857448032925,3697,546.228577532087,68.92857448032925,3799,546.228577532087,68.92857448032925,3906,546.228577532087,68.92857448032925,4015,546.228577532087,68.92857448032925,4123,546.228577532087,68.92857448032925,4238,546.228577532087,68.92857448032925,4345,546.228577532087,68.92857448032925,4457,546.228577532087,68.92857448032925,4571,546.228577532087,68.92857448032925,4674,546.228577532087,68.92857448032925,4786,546.228577532087,68.92857448032925,4889,546.228577532087,68.92857448032925,4994]","[5081,5081,2653.9,2013,414.1,""smooth"",""up"",""up"",""good_move"",8868,3786,3379.5,5082,406.5,""smooth"",""up"",""up"",""good_move"",11632,2764,2332.8,8868,431.2,""smooth"",""right"",""right"",""good_move"",14203,2571,2156.7,11632,414.3,""oops"",""right"",""left"",""bad_move"",16964,2761,2301.2,14203,459.8,""oops"",""right"",""right"",""good_move"",19827,2863,2465,16964,398,""oops"",""right"",""left"",""bad_move"",22735,2907,2500.5,19828,406.5,""oops"",""right"",""right"",""good_move"",25833,3098,2728.8,22735,369.2,""oops"",""right"",""right"",""good_move""]","",""
"2734","","<div style=""width:500px;"">
  <p>What determined the result of this run?</p>
  </div>","29","html-slider-response","45","536433","0.0-5.0-1.7","42","1","2025-07-16 08:17:36","1f75c3e559b7213887762d5229550c2b","83.22.171.6","Mozilla/5.0 (Windows NT 10.0; Win64; x64; rv:140.0) Gecko/20100101 Firefox/140.0","","Firefox","140.0","Windows","10.0","https://app.prolific.com/","pl,en-US;q=0.7,en;q=0.3","5dd25456cc192027096069bb","686e379bc37a29ffa5cdc956","6877601cf53d51e27829d9f6","1","1","5dd25456cc192027096069bb","1","1","2025-07-16T08:26:34.087Z","","","","","","","","","","","AttribQ","","50","","","","","","","","","","","","","","","","","","","","","","","","","","","","",""
"2785","","<div style=""width:500px;"">
  <p>How much control did you have over the ball?</p>
  </div>","29","html-slider-response","46","539220","0.0-5.0-2.7","42","1","2025-07-16 08:17:36","1f75c3e559b7213887762d5229550c2b","83.22.171.6","Mozilla/5.0 (Windows NT 10.0; Win64; x64; rv:140.0) Gecko/20100101 Firefox/140.0","","Firefox","140.0","Windows","10.0","https://app.prolific.com/","pl,en-US;q=0.7,en;q=0.3","5dd25456cc192027096069bb","686e379bc37a29ffa5cdc956","6877601cf53d51e27829d9f6","1","1","5dd25456cc192027096069bb","1","1","2025-07-16T08:26:36.875Z","","","","","","","","","","","ControlQ","","50","","","","","","","","","","","","","","","","","","","","","","","","","","","","",""
"2325","","<div style=""width:500px;"">
  <p>How would you describe your current emotional state?</p>
  </div>","36","html-slider-response","47","541547","0.0-5.0-3.7","42","1","2025-07-16 08:17:36","1f75c3e559b7213887762d5229550c2b","83.22.171.6","Mozilla/5.0 (Windows NT 10.0; Win64; x64; rv:140.0) Gecko/20100101 Firefox/140.0","","Firefox","140.0","Windows","10.0","https://app.prolific.com/","pl,en-US;q=0.7,en;q=0.3","5dd25456cc192027096069bb","686e379bc37a29ffa5cdc956","6877601cf53d51e27829d9f6","1","1","5dd25456cc192027096069bb","1","1","2025-07-16T08:26:39.201Z","","","","","","","","","","","StressQ","","50","","","","","","","","","","","","","","","","","","","","","","","","","","","","",""
"3239","","<div style=""width:500px;"">
  <p>What best describes how you currently feel?</p>
  </div>","63","html-slider-response","48","544787","0.0-5.0-4.7","42","1","2025-07-16 08:17:36","1f75c3e559b7213887762d5229550c2b","83.22.171.6","Mozilla/5.0 (Windows NT 10.0; Win64; x64; rv:140.0) Gecko/20100101 Firefox/140.0","","Firefox","140.0","Windows","10.0","https://app.prolific.com/","pl,en-US;q=0.7,en;q=0.3","5dd25456cc192027096069bb","686e379bc37a29ffa5cdc956","6877601cf53d51e27829d9f6","1","1","5dd25456cc192027096069bb","1","1","2025-07-16T08:26:42.441Z","","","","","","","","","","","MotivationQ","","50","","","","","","","","","","","","","","","","","","","","","","","","","","","","",""
"","","","","ctl-task-cpt","49","608787","0.0-5.0-0.8","42","1","2025-07-16 08:17:36","1f75c3e559b7213887762d5229550c2b","83.22.171.6","Mozilla/5.0 (Windows NT 10.0; Win64; x64; rv:140.0) Gecko/20100101 Firefox/140.0","","Firefox","140.0","Windows","10.0","https://app.prolific.com/","pl,en-US;q=0.7,en;q=0.3","5dd25456cc192027096069bb","686e379bc37a29ffa5cdc956","6877601cf53d51e27829d9f6","1","1","5dd25456cc192027096069bb","1","1","2025-07-16T08:27:46.441Z","","","","","","","","","","","","","","win-only","1","g1:NE,g2:SW","0.2","9","0","546329","1024","6025","60991","1","4","8","6","2","-8","-9","23","32","0.17424242424242425","891","3000","-1345","[""down"",""left""]","{""num_key_presses"":15,""num_perfect"":3,""num_errors"":1,""num_randdir"":11,""num_randdir_good_moves"":6,""num_whilered"":0,""num_whileblue"":0,""num_blue"":3,""num_good_moves"":9}","[298.22857753208706,302.92857448032925,0,298.22857753208706,302.92857448032925,100,298.22857753208706,302.92857448032925,200,298.22857753208706,302.92857448032925,300,298.22857753208706,302.92857448032925,405,283.22857753208706,328.92857448032925,518,158.22857753208706,502.92857448032925,625,117.22857753208706,539.9285744803292,735,102.22857753208706,546.9285744803292,845,95.22857753208706,551.9285744803292,949,94.22857753208706,551.9285744803292,1058,97.22857753208706,551.9285744803292,1158,212.22857753208706,505.92857448032925,1258,403.22857753208706,425.92857448032925,1368,408.22857753208706,422.92857448032925,1478,408.22857753208706,421.92857448032925,1587,408.22857753208706,421.92857448032925,1687,408.22857753208706,421.92857448032925,1797,408.22857753208706,421.92857448032925,1907,408.22857753208706,421.92857448032925,2017,408.22857753208706,421.92857448032925,2122,408.22857753208706,421.92857448032925,2228,408.22857753208706,421.92857448032925,2335,408.22857753208706,421.92857448032925,2445,408.22857753208706,421.92857448032925,2555,408.22857753208706,421.92857448032925,2664,408.22857753208706,421.92857448032925,2764,408.22857753208706,421.92857448032925,2874,408.22857753208706,421.92857448032925,2984,408.22857753208706,421.92857448032925,3095,408.22857753208706,421.92857448032925,3202,408.22857753208706,421.92857448032925,3315,408.22857753208706,421.92857448032925,3428,408.22857753208706,421.92857448032925,3535,408.22857753208706,421.92857448032925,3645,408.22857753208706,421.92857448032925,3756,408.22857753208706,421.92857448032925,3865,408.22857753208706,421.92857448032925,3976,408.22857753208706,421.92857448032925,4085,408.22857753208706,421.92857448032925,4185,408.22857753208706,421.92857448032925,4292,408.22857753208706,421.92857448032925,4396,408.22857753208706,421.92857448032925,4507,408.22857753208706,421.92857448032925,4616,408.22857753208706,421.92857448032925,4726,408.22857753208706,421.92857448032925,4826,408.22857753208706,421.92857448032925,4934]","[1440,1440,1000,0,440,""smooth"",""down"",""down"",""good_move"",4447,3007,2586.3,1440,420.7,""smooth"",""down"",""down"",""good_move"",7242,2794,2421.5,4448,372.5,""oops"",""down"",""down"",""good_move"",14313,7071,3148.2,10728,436.8,""oops"",""left"",""left"",""good_move"",14964,651,3313.8,14313,-2662.8,""error"",""-"",""-"",""no_move"",19116,4152,2702.3,15976,437.7,""oops"",""left"",""right"",""bad_move"",22342,3226,2788.3,19116,437.7,""oops"",""left"",""left"",""good_move"",25597,3255,2777.3,22342,477.7,""oops"",""left"",""up"",""bad_move"",28357,2760,2007.1,25597,752.9,""oops"",""left"",""down"",""good_move"",30952,2595,2111.1,28357,483.9,""oops"",""left"",""up"",""bad_move"",34150,3198,2635.6,30952,562.4,""oops"",""down"",""left"",""good_move"",40594,6444,2861.8,37379,353.2,""smooth"",""down"",""down"",""good_move"",42974,2380,1854.4,40594,525.6,""oops"",""left"",""up"",""bad_move"",49447,6473,2232.2,46761,453.8,""oops"",""left"",""up"",""bad_move"",52448,3001,2584.8,49447,416.2,""oops"",""down"",""down"",""good_move""]","",""
"3520","","<div style=""width:500px;"">
  <p>What determined the result of this run?</p>
  </div>","0","html-slider-response","50","612309","0.0-5.0-1.8","42","1","2025-07-16 08:17:36","1f75c3e559b7213887762d5229550c2b","83.22.171.6","Mozilla/5.0 (Windows NT 10.0; Win64; x64; rv:140.0) Gecko/20100101 Firefox/140.0","","Firefox","140.0","Windows","10.0","https://app.prolific.com/","pl,en-US;q=0.7,en;q=0.3","5dd25456cc192027096069bb","686e379bc37a29ffa5cdc956","6877601cf53d51e27829d9f6","1","1","5dd25456cc192027096069bb","1","1","2025-07-16T08:27:49.963Z","","","","","","","","","","","AttribQ","","50","","","","","","","","","","","","","","","","","","","","","","","","","","","","",""
"1637","","<div style=""width:500px;"">
  <p>How much control did you have over the ball?</p>
  </div>","8","html-slider-response","51","613947","0.0-5.0-2.8","42","1","2025-07-16 08:17:36","1f75c3e559b7213887762d5229550c2b","83.22.171.6","Mozilla/5.0 (Windows NT 10.0; Win64; x64; rv:140.0) Gecko/20100101 Firefox/140.0","","Firefox","140.0","Windows","10.0","https://app.prolific.com/","pl,en-US;q=0.7,en;q=0.3","5dd25456cc192027096069bb","686e379bc37a29ffa5cdc956","6877601cf53d51e27829d9f6","1","1","5dd25456cc192027096069bb","1","1","2025-07-16T08:27:51.601Z","","","","","","","","","","","ControlQ","","50","","","","","","","","","","","","","","","","","","","","","","","","","","","","",""
"2562","","<div style=""width:500px;"">
  <p>How would you describe your current emotional state?</p>
  </div>","90","html-slider-response","52","616511","0.0-5.0-3.8","42","1","2025-07-16 08:17:36","1f75c3e559b7213887762d5229550c2b","83.22.171.6","Mozilla/5.0 (Windows NT 10.0; Win64; x64; rv:140.0) Gecko/20100101 Firefox/140.0","","Firefox","140.0","Windows","10.0","https://app.prolific.com/","pl,en-US;q=0.7,en;q=0.3","5dd25456cc192027096069bb","686e379bc37a29ffa5cdc956","6877601cf53d51e27829d9f6","1","1","5dd25456cc192027096069bb","1","1","2025-07-16T08:27:54.165Z","","","","","","","","","","","StressQ","","50","","","","","","","","","","","","","","","","","","","","","","","","","","","","",""
"2416","","<div style=""width:500px;"">
  <p>What best describes how you currently feel?</p>
  </div>","73","html-slider-response","53","618929","0.0-5.0-4.8","42","1","2025-07-16 08:17:36","1f75c3e559b7213887762d5229550c2b","83.22.171.6","Mozilla/5.0 (Windows NT 10.0; Win64; x64; rv:140.0) Gecko/20100101 Firefox/140.0","","Firefox","140.0","Windows","10.0","https://app.prolific.com/","pl,en-US;q=0.7,en;q=0.3","5dd25456cc192027096069bb","686e379bc37a29ffa5cdc956","6877601cf53d51e27829d9f6","1","1","5dd25456cc192027096069bb","1","1","2025-07-16T08:27:56.583Z","","","","","","","","","","","MotivationQ","","50","","","","","","","","","","","","","","","","","","","","","","","","","","","","",""
"","","","","ctl-task-cpt","54","646369","0.0-5.0-0.9","42","1","2025-07-16 08:17:36","1f75c3e559b7213887762d5229550c2b","83.22.171.6","Mozilla/5.0 (Windows NT 10.0; Win64; x64; rv:140.0) Gecko/20100101 Firefox/140.0","","Firefox","140.0","Windows","10.0","https://app.prolific.com/","pl,en-US;q=0.7,en;q=0.3","5dd25456cc192027096069bb","686e379bc37a29ffa5cdc956","6877601cf53d51e27829d9f6","1","1","5dd25456cc192027096069bb","1","1","2025-07-16T08:28:24.023Z","","","","","","","","","","","","","","win-only","0","g1:NW,g2:SE","0.4","10","0","620471","731","5735","24429","1","4","4","6","2","4","4","27","23","0.20454545454545456","1023","3000","2035","[""down"",""right""]","{""num_key_presses"":6,""num_perfect"":4,""num_errors"":0,""num_randdir"":2,""num_randdir_good_moves"":2,""num_whilered"":0,""num_whileblue"":0,""num_blue"":1,""num_good_moves"":6}","[295.22857753208706,296.92857448032925,0,295.22857753208706,297.92857448032925,105,295.22857753208706,297.92857448032925,215,295.22857753208706,297.92857448032925,317,296.22857753208706,297.92857448032925,418,296.22857753208706,298.92857448032925,529,332.22857753208706,324.92857448032925,642,473.22857753208706,457.92857448032925,753,516.228577532087,507.92857448032925,866,538.228577532087,542.9285744803292,976,544.228577532087,548.9285744803292,1080,544.228577532087,549.9285744803292,1189,555.228577532087,543.9285744803292,1291,576.228577532087,516.9285744803292,1394,585.228577532087,510.92857448032925,1507,585.228577532087,510.92857448032925,1610,585.228577532087,510.92857448032925,1717,585.228577532087,510.92857448032925,1829,585.228577532087,510.92857448032925,1940,585.228577532087,510.92857448032925,2040,585.228577532087,510.92857448032925,2142,585.228577532087,510.92857448032925,2244,585.228577532087,510.92857448032925,2351,585.228577532087,510.92857448032925,2466,585.228577532087,510.92857448032925,2578,585.228577532087,510.92857448032925,2690,585.228577532087,510.92857448032925,2802,585.228577532087,510.92857448032925,2913,585.228577532087,510.92857448032925,3029,585.228577532087,510.92857448032925,3143,585.228577532087,510.92857448032925,3255,585.228577532087,510.92857448032925,3367,585.228577532087,510.92857448032925,3480,585.228577532087,510.92857448032925,3592,585.228577532087,510.92857448032925,3693,585.228577532087,510.92857448032925,3801,585.228577532087,510.92857448032925,3912,585.228577532087,510.92857448032925,4020,585.228577532087,510.92857448032925,4123,585.228577532087,510.92857448032925,4225,585.228577532087,510.92857448032925,4327,585.228577532087,510.92857448032925,4433,585.228577532087,510.92857448032925,4544,585.228577532087,510.92857448032925,4657,585.228577532087,510.92857448032925,4757,585.228577532087,510.92857448032925,4866,585.228577532087,510.92857448032925,4978]","[1487,1488,1000,0,488,""oops"",""down"",""right"",""good_move"",4393,2905,2505.5,1488,399.5,""smooth"",""down"",""down"",""good_move"",6894,2501,2067.4,4393,433.6,""smooth"",""down"",""down"",""good_move"",13972,7077,3257.5,10299,416.5,""oops"",""down"",""down"",""good_move"",16228,2255,1789.1,13973,465.9,""smooth"",""right"",""right"",""good_move"",18512,2283,1886.4,16229,396.6,""smooth"",""right"",""right"",""good_move""]","",""
"2806","","<div style=""width:500px;"">
  <p>What determined the result of this run?</p>
  </div>","100","html-slider-response","55","649176","0.0-5.0-1.9","42","1","2025-07-16 08:17:36","1f75c3e559b7213887762d5229550c2b","83.22.171.6","Mozilla/5.0 (Windows NT 10.0; Win64; x64; rv:140.0) Gecko/20100101 Firefox/140.0","","Firefox","140.0","Windows","10.0","https://app.prolific.com/","pl,en-US;q=0.7,en;q=0.3","5dd25456cc192027096069bb","686e379bc37a29ffa5cdc956","6877601cf53d51e27829d9f6","1","1","5dd25456cc192027096069bb","1","1","2025-07-16T08:28:26.830Z","","","","","","","","","","","AttribQ","","50","","","","","","","","","","","","","","","","","","","","","","","","","","","","",""
"1822","","<div style=""width:500px;"">
  <p>How much control did you have over the ball?</p>
  </div>","93","html-slider-response","56","650998","0.0-5.0-2.9","42","1","2025-07-16 08:17:36","1f75c3e559b7213887762d5229550c2b","83.22.171.6","Mozilla/5.0 (Windows NT 10.0; Win64; x64; rv:140.0) Gecko/20100101 Firefox/140.0","","Firefox","140.0","Windows","10.0","https://app.prolific.com/","pl,en-US;q=0.7,en;q=0.3","5dd25456cc192027096069bb","686e379bc37a29ffa5cdc956","6877601cf53d51e27829d9f6","1","1","5dd25456cc192027096069bb","1","1","2025-07-16T08:28:28.652Z","","","","","","","","","","","ControlQ","","50","","","","","","","","","","","","","","","","","","","","","","","","","","","","",""
"1990","","<div style=""width:500px;"">
  <p>How would you describe your current emotional state?</p>
  </div>","33","html-slider-response","57","652991","0.0-5.0-3.9","42","1","2025-07-16 08:17:36","1f75c3e559b7213887762d5229550c2b","83.22.171.6","Mozilla/5.0 (Windows NT 10.0; Win64; x64; rv:140.0) Gecko/20100101 Firefox/140.0","","Firefox","140.0","Windows","10.0","https://app.prolific.com/","pl,en-US;q=0.7,en;q=0.3","5dd25456cc192027096069bb","686e379bc37a29ffa5cdc956","6877601cf53d51e27829d9f6","1","1","5dd25456cc192027096069bb","1","1","2025-07-16T08:28:30.645Z","","","","","","","","","","","StressQ","","50","","","","","","","","","","","","","","","","","","","","","","","","","","","","",""
"1716","","<div style=""width:500px;"">
  <p>What best describes how you currently feel?</p>
  </div>","62","html-slider-response","58","654709","0.0-5.0-4.9","42","1","2025-07-16 08:17:36","1f75c3e559b7213887762d5229550c2b","83.22.171.6","Mozilla/5.0 (Windows NT 10.0; Win64; x64; rv:140.0) Gecko/20100101 Firefox/140.0","","Firefox","140.0","Windows","10.0","https://app.prolific.com/","pl,en-US;q=0.7,en;q=0.3","5dd25456cc192027096069bb","686e379bc37a29ffa5cdc956","6877601cf53d51e27829d9f6","1","1","5dd25456cc192027096069bb","1","1","2025-07-16T08:28:32.363Z","","","","","","","","","","","MotivationQ","","50","","","","","","","","","","","","","","","","","","","","","","","","","","","","",""
"","","","","ctl-task-cpt","59","711290","0.0-5.0-0.10","42","1","2025-07-16 08:17:36","1f75c3e559b7213887762d5229550c2b","83.22.171.6","Mozilla/5.0 (Windows NT 10.0; Win64; x64; rv:140.0) Gecko/20100101 Firefox/140.0","","Firefox","140.0","Windows","10.0","https://app.prolific.com/","pl,en-US;q=0.7,en;q=0.3","5dd25456cc192027096069bb","686e379bc37a29ffa5cdc956","6877601cf53d51e27829d9f6","1","1","5dd25456cc192027096069bb","1","1","2025-07-16T08:29:28.944Z","","","","","","","","","","","","","","win-only","0","g1:NW,g2:SE","0.5","11","0","656250","1026","6027","53568","1","4","8","6","2","8","8","35","27","0.26515151515151514","2195","3000","710","[""down"",""right""]","{""num_key_presses"":12,""num_perfect"":6,""num_errors"":0,""num_randdir"":6,""num_randdir_good_moves"":3,""num_whilered"":0,""num_whileblue"":0,""num_blue"":3,""num_good_moves"":9}","[295.22857753208706,294.92857448032925,0,295.22857753208706,294.92857448032925,105,296.22857753208706,294.92857448032925,217,296.22857753208706,294.92857448032925,317,296.22857753208706,294.92857448032925,424,300.22857753208706,299.92857448032925,524,418.22857753208706,383.92857448032925,633,568.228577532087,494.92857448032925,737,591.228577532087,521.9285744803292,853,601.228577532087,535.9285744803292,958,603.228577532087,537.9285744803292,1071,602.228577532087,536.9285744803292,1179,604.228577532087,533.9285744803292,1290,641.228577532087,505.92857448032925,1407,649.228577532087,496.92857448032925,1524,649.228577532087,496.92857448032925,1631,649.228577532087,496.92857448032925,1738,649.228577532087,496.92857448032925,1847,644.228577532087,497.92857448032925,1953,583.228577532087,519.9285744803292,2062,550.228577532087,531.9285744803292,2170,550.228577532087,531.9285744803292,2270,562.228577532087,526.9285744803292,2378,616.228577532087,502.92857448032925,2489,616.228577532087,502.92857448032925,2602,616.228577532087,502.92857448032925,2709,616.228577532087,502.92857448032925,2819,616.228577532087,502.92857448032925,2921,616.228577532087,502.92857448032925,3031,616.228577532087,502.92857448032925,3140,616.228577532087,502.92857448032925,3251,616.228577532087,502.92857448032925,3360,616.228577532087,502.92857448032925,3468,616.228577532087,502.92857448032925,3578,616.228577532087,502.92857448032925,3688,616.228577532087,502.92857448032925,3800,616.228577532087,502.92857448032925,3907,616.228577532087,502.92857448032925,4017,616.228577532087,502.92857448032925,4135,602.228577532087,504.92857448032925,4235,594.228577532087,508.92857448032925,4343,588.228577532087,515.9285744803292,4443,584.228577532087,519.9285744803292,4548,583.228577532087,520.9285744803292,4660,583.228577532087,520.9285744803292,4770,587.228577532087,516.9285744803292,4880,587.228577532087,516.9285744803292,4980]","[1604,1604,1000,0,604,""smooth"",""down"",""down"",""good_move"",4869,3265,2264.3,1604,1000.7,""oops"",""right"",""left"",""bad_move"",7653,2784,2370.6,4869,413.4,""oops"",""down"",""left"",""bad_move"",11133,3480,2998.6,7653,481.4,""smooth"",""down"",""down"",""good_move"",14702,3569,3017.9,11133,551.1,""smooth"",""right"",""right"",""good_move"",17427,2725,2184.5,14702,540.5,""smooth"",""right"",""right"",""good_move"",24320,6893,3006.3,20844,469.7,""oops"",""right"",""up"",""bad_move"",27410,3090,2631.1,24320,458.9,""oops"",""down"",""down"",""good_move"",34009,6599,2175.8,31412,421.2,""smooth"",""down"",""down"",""good_move"",37511,3502,3073.8,34009,428.2,""oops"",""right"",""right"",""good_move"",43927,6416,2386.4,41123,417.6,""smooth"",""right"",""right"",""good_move"",47252,3325,2786.4,43927,538.6,""oops"",""right"",""right"",""good_move""]","",""
"1697","","<div style=""width:500px;"">
  <p>What determined the result of this run?</p>
  </div>","96","html-slider-response","60","712989","0.0-5.0-1.10","42","1","2025-07-16 08:17:36","1f75c3e559b7213887762d5229550c2b","83.22.171.6","Mozilla/5.0 (Windows NT 10.0; Win64; x64; rv:140.0) Gecko/20100101 Firefox/140.0","","Firefox","140.0","Windows","10.0","https://app.prolific.com/","pl,en-US;q=0.7,en;q=0.3","5dd25456cc192027096069bb","686e379bc37a29ffa5cdc956","6877601cf53d51e27829d9f6","1","1","5dd25456cc192027096069bb","1","1","2025-07-16T08:29:30.643Z","","","","","","","","","","","AttribQ","","50","","","","","","","","","","","","","","","","","","","","","","","","","","","","",""
"1278","","<div style=""width:500px;"">
  <p>How much control did you have over the ball?</p>
  </div>","92","html-slider-response","61","714269","0.0-5.0-2.10","42","1","2025-07-16 08:17:36","1f75c3e559b7213887762d5229550c2b","83.22.171.6","Mozilla/5.0 (Windows NT 10.0; Win64; x64; rv:140.0) Gecko/20100101 Firefox/140.0","","Firefox","140.0","Windows","10.0","https://app.prolific.com/","pl,en-US;q=0.7,en;q=0.3","5dd25456cc192027096069bb","686e379bc37a29ffa5cdc956","6877601cf53d51e27829d9f6","1","1","5dd25456cc192027096069bb","1","1","2025-07-16T08:29:31.923Z","","","","","","","","","","","ControlQ","","50","","","","","","","","","","","","","","","","","","","","","","","","","","","","",""
"2204","","<div style=""width:500px;"">
  <p>How would you describe your current emotional state?</p>
  </div>","10","html-slider-response","62","716475","0.0-5.0-3.10","42","1","2025-07-16 08:17:36","1f75c3e559b7213887762d5229550c2b","83.22.171.6","Mozilla/5.0 (Windows NT 10.0; Win64; x64; rv:140.0) Gecko/20100101 Firefox/140.0","","Firefox","140.0","Windows","10.0","https://app.prolific.com/","pl,en-US;q=0.7,en;q=0.3","5dd25456cc192027096069bb","686e379bc37a29ffa5cdc956","6877601cf53d51e27829d9f6","1","1","5dd25456cc192027096069bb","1","1","2025-07-16T08:29:34.129Z","","","","","","","","","","","StressQ","","50","","","","","","","","","","","","","","","","","","","","","","","","","","","","",""
"1864","","<div style=""width:500px;"">
  <p>What best describes how you currently feel?</p>
  </div>","82","html-slider-response","63","718341","0.0-5.0-4.10","42","1","2025-07-16 08:17:36","1f75c3e559b7213887762d5229550c2b","83.22.171.6","Mozilla/5.0 (Windows NT 10.0; Win64; x64; rv:140.0) Gecko/20100101 Firefox/140.0","","Firefox","140.0","Windows","10.0","https://app.prolific.com/","pl,en-US;q=0.7,en;q=0.3","5dd25456cc192027096069bb","686e379bc37a29ffa5cdc956","6877601cf53d51e27829d9f6","1","1","5dd25456cc192027096069bb","1","1","2025-07-16T08:29:35.995Z","","","","","","","","","","","MotivationQ","","50","","","","","","","","","","","","","","","","","","","","","","","","","","","","",""
"","","","","ctl-task-cpt","64","787333","0.0-5.0-0.11","42","1","2025-07-16 08:17:36","1f75c3e559b7213887762d5229550c2b","83.22.171.6","Mozilla/5.0 (Windows NT 10.0; Win64; x64; rv:140.0) Gecko/20100101 Firefox/140.0","","Firefox","140.0","Windows","10.0","https://app.prolific.com/","pl,en-US;q=0.7,en;q=0.3","5dd25456cc192027096069bb","686e379bc37a29ffa5cdc956","6877601cf53d51e27829d9f6","1","1","5dd25456cc192027096069bb","1","1","2025-07-16T08:30:44.987Z","","","","","","","","","","","","","","win-only","3","g1:SW,g2:NE","0.6","12","0","719883","1066","6079","65987","1","4","4","6","2","4","4","39","35","0.29545454545454547","1712","3000","780","[""up"",""right""]","{""num_key_presses"":16,""num_perfect"":9,""num_errors"":0,""num_randdir"":7,""num_randdir_good_moves"":2,""num_whilered"":0,""num_whileblue"":0,""num_blue"":3,""num_good_moves"":11}","[304.22857753208706,292.92857448032925,0,304.22857753208706,292.92857448032925,105,304.22857753208706,291.92857448032925,209,304.22857753208706,291.92857448032925,324,276.22857753208706,329.92857448032925,428,207.22857753208706,420.92857448032925,537,201.22857753208706,427.92857448032925,643,218.22857753208706,397.92857448032925,744,527.228577532087,118.92857448032925,856,533.228577532087,113.92857448032925,964,533.228577532087,113.92857448032925,1078,533.228577532087,113.92857448032925,1186,540.228577532087,101.92857448032925,1288,551.228577532087,66.92857448032925,1393,551.228577532087,66.92857448032925,1493,557.228577532087,71.92857448032925,1606,557.228577532087,72.92857448032925,1711,555.228577532087,72.92857448032925,1825,553.228577532087,72.92857448032925,1929,553.228577532087,72.92857448032925,2044,553.228577532087,72.92857448032925,2154,627.228577532087,97.92857448032925,2258,729.228577532087,105.92857448032925,2373,729.228577532087,105.92857448032925,2473,729.228577532087,105.92857448032925,2575,729.228577532087,105.92857448032925,2686,729.228577532087,105.92857448032925,2796,729.228577532087,105.92857448032925,2906,729.228577532087,105.92857448032925,3007,729.228577532087,105.92857448032925,3108,729.228577532087,105.92857448032925,3214,729.228577532087,105.92857448032925,3321,729.228577532087,105.92857448032925,3421,729.228577532087,105.92857448032925,3527,729.228577532087,105.92857448032925,3638,729.228577532087,105.92857448032925,3750,729.228577532087,105.92857448032925,3861,729.228577532087,105.92857448032925,3973,729.228577532087,105.92857448032925,4084,729.228577532087,105.92857448032925,4196,729.228577532087,105.92857448032925,4308,729.228577532087,105.92857448032925,4416,729.228577532087,105.92857448032925,4529,729.228577532087,105.92857448032925,4633,729.228577532087,105.92857448032925,4745,729.228577532087,105.92857448032925,4856,729.228577532087,105.92857448032925,4965]","[4788,4788,2332.6,2018,437.4,""smooth"",""up"",""up"",""good_move"",7859,3071,2602.2,4788,468.8,""smooth"",""up"",""up"",""good_move"",11554,3695,3247.5,7860,446.5,""smooth"",""right"",""right"",""good_move"",13833,2279,1770.8,11554,508.2,""smooth"",""right"",""right"",""good_move"",16771,2938,2492.6,13833,445.4,""smooth"",""right"",""right"",""good_move"",22896,6124,2044.8,20466,385.2,""oops"",""up"",""down"",""bad_move"",25364,2468,2086.5,22896,381.5,""oops"",""up"",""down"",""bad_move"",28851,3487,3070.7,25364,416.3,""smooth"",""up"",""up"",""good_move"",36045,7193,3017.7,32674,353.3,""oops"",""up"",""down"",""bad_move"",38985,2940,2419.2,36045,520.8,""oops"",""up"",""down"",""bad_move"",41975,2990,2537.4,38985,452.6,""oops"",""left"",""down"",""bad_move"",45281,3306,2844.9,41975,461.1,""oops"",""up"",""up"",""good_move"",48933,3651,3207.5,45282,443.5,""smooth"",""up"",""up"",""good_move"",52660,3727,3372.9,48933,354.1,""smooth"",""up"",""up"",""good_move"",55938,3278,2133.4,52660,1144.6,""smooth"",""up"",""up"",""good_move"",59588,3649,3186.7,55939,462.3,""oops"",""up"",""up"",""good_move""]","",""
"2803","","<div style=""width:500px;"">
  <p>What determined the result of this run?</p>
  </div>","38","html-slider-response","65","790136","0.0-5.0-1.11","42","1","2025-07-16 08:17:36","1f75c3e559b7213887762d5229550c2b","83.22.171.6","Mozilla/5.0 (Windows NT 10.0; Win64; x64; rv:140.0) Gecko/20100101 Firefox/140.0","","Firefox","140.0","Windows","10.0","https://app.prolific.com/","pl,en-US;q=0.7,en;q=0.3","5dd25456cc192027096069bb","686e379bc37a29ffa5cdc956","6877601cf53d51e27829d9f6","1","1","5dd25456cc192027096069bb","1","1","2025-07-16T08:30:47.790Z","","","","","","","","","","","AttribQ","","50","","","","","","","","","","","","","","","","","","","","","","","","","","","","",""
"2532","","<div style=""width:500px;"">
  <p>How much control did you have over the ball?</p>
  </div>","38","html-slider-response","66","792669","0.0-5.0-2.11","42","1","2025-07-16 08:17:36","1f75c3e559b7213887762d5229550c2b","83.22.171.6","Mozilla/5.0 (Windows NT 10.0; Win64; x64; rv:140.0) Gecko/20100101 Firefox/140.0","","Firefox","140.0","Windows","10.0","https://app.prolific.com/","pl,en-US;q=0.7,en;q=0.3","5dd25456cc192027096069bb","686e379bc37a29ffa5cdc956","6877601cf53d51e27829d9f6","1","1","5dd25456cc192027096069bb","1","1","2025-07-16T08:30:50.323Z","","","","","","","","","","","ControlQ","","50","","","","","","","","","","","","","","","","","","","","","","","","","","","","",""
"1821","","<div style=""width:500px;"">
  <p>How would you describe your current emotional state?</p>
  </div>","63","html-slider-response","67","794492","0.0-5.0-3.11","42","1","2025-07-16 08:17:36","1f75c3e559b7213887762d5229550c2b","83.22.171.6","Mozilla/5.0 (Windows NT 10.0; Win64; x64; rv:140.0) Gecko/20100101 Firefox/140.0","","Firefox","140.0","Windows","10.0","https://app.prolific.com/","pl,en-US;q=0.7,en;q=0.3","5dd25456cc192027096069bb","686e379bc37a29ffa5cdc956","6877601cf53d51e27829d9f6","1","1","5dd25456cc192027096069bb","1","1","2025-07-16T08:30:52.146Z","","","","","","","","","","","StressQ","","50","","","","","","","","","","","","","","","","","","","","","","","","","","","","",""
"2812","","<div style=""width:500px;"">
  <p>What best describes how you currently feel?</p>
  </div>","68","html-slider-response","68","797305","0.0-5.0-4.11","42","1","2025-07-16 08:17:36","1f75c3e559b7213887762d5229550c2b","83.22.171.6","Mozilla/5.0 (Windows NT 10.0; Win64; x64; rv:140.0) Gecko/20100101 Firefox/140.0","","Firefox","140.0","Windows","10.0","https://app.prolific.com/","pl,en-US;q=0.7,en;q=0.3","5dd25456cc192027096069bb","686e379bc37a29ffa5cdc956","6877601cf53d51e27829d9f6","1","1","5dd25456cc192027096069bb","1","1","2025-07-16T08:30:54.959Z","","","","","","","","","","","MotivationQ","","50","","","","","","","","","","","","","","","","","","","","","","","","","","","","",""
"","","","","ctl-task-cpt","69","821179","0.0-5.0-0.12","42","1","2025-07-16 08:17:36","1f75c3e559b7213887762d5229550c2b","83.22.171.6","Mozilla/5.0 (Windows NT 10.0; Win64; x64; rv:140.0) Gecko/20100101 Firefox/140.0","","Firefox","140.0","Windows","10.0","https://app.prolific.com/","pl,en-US;q=0.7,en;q=0.3","5dd25456cc192027096069bb","686e379bc37a29ffa5cdc956","6877601cf53d51e27829d9f6","1","1","5dd25456cc192027096069bb","1","1","2025-07-16T08:31:18.833Z","","","","","","","","","","","","","","win-only","2","g1:SE,g2:NW","0.7","13","0","798847","824","5836","20857","1","4","4","6","1","1","1","40","39","0.30303030303030304","1429","3000","2110","[""down"",""right""]","{""num_key_presses"":4,""num_perfect"":2,""num_errors"":0,""num_randdir"":2,""num_randdir_good_moves"":2,""num_whilered"":0,""num_whileblue"":0,""num_blue"":1,""num_good_moves"":4}","[299.22857753208706,301.92857448032925,0,299.22857753208706,301.92857448032925,107,299.22857753208706,301.92857448032925,225,335.22857753208706,287.92857448032925,327,464.22857753208706,253.92857448032925,427,487.22857753208706,247.92857448032925,527,467.22857753208706,259.92857448032925,627,305.22857753208706,265.92857448032925,727,251.22857753208706,250.92857448032925,827,312.22857753208706,349.92857448032925,941,476.22857753208706,527.9285744803292,1056,504.22857753208706,554.9285744803292,1156,519.228577532087,562.9285744803292,1271,521.228577532087,562.9285744803292,1371,523.228577532087,562.9285744803292,1471,529.228577532087,560.9285744803292,1589,557.228577532087,545.9285744803292,1690,606.228577532087,522.9285744803292,1804,608.228577532087,519.9285744803292,1916,608.228577532087,519.9285744803292,2017,608.228577532087,519.9285744803292,2130,608.228577532087,519.9285744803292,2231,608.228577532087,519.9285744803292,2335,608.228577532087,519.9285744803292,2435,608.228577532087,519.9285744803292,2535,608.228577532087,519.9285744803292,2636,608.228577532087,519.9285744803292,2749,608.228577532087,519.9285744803292,2850,608.228577532087,519.9285744803292,2964,608.228577532087,519.9285744803292,3079,608.228577532087,519.9285744803292,3183,608.228577532087,519.9285744803292,3298,608.228577532087,519.9285744803292,3412,608.228577532087,519.9285744803292,3512,608.228577532087,519.9285744803292,3625,608.228577532087,519.9285744803292,3728,608.228577532087,519.9285744803292,3839,608.228577532087,519.9285744803292,3940,608.228577532087,519.9285744803292,4053,608.228577532087,519.9285744803292,4170,608.228577532087,519.9285744803292,4280,608.228577532087,519.9285744803292,4396,608.228577532087,519.9285744803292,4496,608.228577532087,519.9285744803292,4597,608.228577532087,519.9285744803292,4711,608.228577532087,519.9285744803292,4826,608.228577532087,519.9285744803292,4927]","[2017,2017,1000,0,1017,""smooth"",""down"",""down"",""good_move"",8967,6950,2544.2,5597,825.8,""smooth"",""down"",""down"",""good_move"",12529,3562,3031,8967,531,""oops"",""right"",""right"",""good_move"",14701,2171,1542.6,12530,628.4,""oops"",""right"",""right"",""good_move""]","",""
"44034","","<div style=""width:500px;"">
  <p>What determined the result of this run?</p>
  </div>","77","html-slider-response","70","865215","0.0-5.0-1.12","42","1","2025-07-16 08:17:36","1f75c3e559b7213887762d5229550c2b","83.22.171.6","Mozilla/5.0 (Windows NT 10.0; Win64; x64; rv:140.0) Gecko/20100101 Firefox/140.0","","Firefox","140.0","Windows","10.0","https://app.prolific.com/","pl,en-US;q=0.7,en;q=0.3","5dd25456cc192027096069bb","686e379bc37a29ffa5cdc956","6877601cf53d51e27829d9f6","1","1","5dd25456cc192027096069bb","1","1","2025-07-16T08:32:02.869Z","","","","","","","","","","","AttribQ","","50","","","","","","","","","","","","","","","","","","","","","","","","","","","","",""
"1735","","<div style=""width:500px;"">
  <p>How much control did you have over the ball?</p>
  </div>","68","html-slider-response","71","866951","0.0-5.0-2.12","42","1","2025-07-16 08:17:36","1f75c3e559b7213887762d5229550c2b","83.22.171.6","Mozilla/5.0 (Windows NT 10.0; Win64; x64; rv:140.0) Gecko/20100101 Firefox/140.0","","Firefox","140.0","Windows","10.0","https://app.prolific.com/","pl,en-US;q=0.7,en;q=0.3","5dd25456cc192027096069bb","686e379bc37a29ffa5cdc956","6877601cf53d51e27829d9f6","1","1","5dd25456cc192027096069bb","1","1","2025-07-16T08:32:04.605Z","","","","","","","","","","","ControlQ","","50","","","","","","","","","","","","","","","","","","","","","","","","","","","","",""
"2397","","<div style=""width:500px;"">
  <p>How would you describe your current emotional state?</p>
  </div>","39","html-slider-response","72","869349","0.0-5.0-3.12","42","1","2025-07-16 08:17:36","1f75c3e559b7213887762d5229550c2b","83.22.171.6","Mozilla/5.0 (Windows NT 10.0; Win64; x64; rv:140.0) Gecko/20100101 Firefox/140.0","","Firefox","140.0","Windows","10.0","https://app.prolific.com/","pl,en-US;q=0.7,en;q=0.3","5dd25456cc192027096069bb","686e379bc37a29ffa5cdc956","6877601cf53d51e27829d9f6","1","1","5dd25456cc192027096069bb","1","1","2025-07-16T08:32:07.003Z","","","","","","","","","","","StressQ","","50","","","","","","","","","","","","","","","","","","","","","","","","","","","","",""
"1644","","<div style=""width:500px;"">
  <p>What best describes how you currently feel?</p>
  </div>","69","html-slider-response","73","870994","0.0-5.0-4.12","42","1","2025-07-16 08:17:36","1f75c3e559b7213887762d5229550c2b","83.22.171.6","Mozilla/5.0 (Windows NT 10.0; Win64; x64; rv:140.0) Gecko/20100101 Firefox/140.0","","Firefox","140.0","Windows","10.0","https://app.prolific.com/","pl,en-US;q=0.7,en;q=0.3","5dd25456cc192027096069bb","686e379bc37a29ffa5cdc956","6877601cf53d51e27829d9f6","1","1","5dd25456cc192027096069bb","1","1","2025-07-16T08:32:08.648Z","","","","","","","","","","","MotivationQ","","50","","","","","","","","","","","","","","","","","","","","","","","","","","","","",""
"","","","","ctl-task-cpt","74","899237","0.0-5.0-0.13","42","1","2025-07-16 08:17:36","1f75c3e559b7213887762d5229550c2b","83.22.171.6","Mozilla/5.0 (Windows NT 10.0; Win64; x64; rv:140.0) Gecko/20100101 Firefox/140.0","","Firefox","140.0","Windows","10.0","https://app.prolific.com/","pl,en-US;q=0.7,en;q=0.3","5dd25456cc192027096069bb","686e379bc37a29ffa5cdc956","6877601cf53d51e27829d9f6","1","1","5dd25456cc192027096069bb","1","1","2025-07-16T08:32:36.891Z","","","","","","","","","","","","","","win-only","1","g1:NE,g2:SW","0.8","14","0","872535","756","5773","25232","1","4","8","6","2","8","8","48","40","0.36363636363636365","787","3000","2140","[""down"",""left""]","{""num_key_presses"":6,""num_perfect"":6,""num_errors"":0,""num_randdir"":0,""num_randdir_good_moves"":0,""num_whilered"":0,""num_whileblue"":0,""num_blue"":1,""num_good_moves"":6}","[296.22857753208706,296.92857448032925,0,296.22857753208706,296.92857448032925,114,296.22857753208706,296.92857448032925,215,296.22857753208706,296.92857448032925,325,286.22857753208706,307.92857448032925,434,154.22857753208706,466.92857448032925,542,80.22857753208706,540.9285744803292,648,72.22857753208706,542.9285744803292,755,72.22857753208706,542.9285744803292,855,72.22857753208706,543.9285744803292,966,213.22857753208706,452.92857448032925,1078,445.22857753208706,348.92857448032925,1179,445.22857753208706,348.92857448032925,1282,445.22857753208706,348.92857448032925,1386,445.22857753208706,347.92857448032925,1486,445.22857753208706,347.92857448032925,1592,445.22857753208706,347.92857448032925,1701,445.22857753208706,347.92857448032925,1803,445.22857753208706,347.92857448032925,1905,445.22857753208706,347.92857448032925,2008,445.22857753208706,347.92857448032925,2112,445.22857753208706,347.92857448032925,2227,445.22857753208706,347.92857448032925,2331,445.22857753208706,347.92857448032925,2442,445.22857753208706,347.92857448032925,2542,445.22857753208706,347.92857448032925,2645,445.22857753208706,347.92857448032925,2757,445.22857753208706,347.92857448032925,2865,445.22857753208706,347.92857448032925,2968,445.22857753208706,347.92857448032925,3070,445.22857753208706,347.92857448032925,3177,445.22857753208706,347.92857448032925,3284,445.22857753208706,347.92857448032925,3390,445.22857753208706,347.92857448032925,3494,445.22857753208706,347.92857448032925,3603,445.22857753208706,347.92857448032925,3709,445.22857753208706,347.92857448032925,3814,445.22857753208706,347.92857448032925,3916,445.22857753208706,347.92857448032925,4025,445.22857753208706,347.92857448032925,4126,445.22857753208706,347.92857448032925,4233,445.22857753208706,347.92857448032925,4340,445.22857753208706,347.92857448032925,4441,445.22857753208706,347.92857448032925,4555,445.22857753208706,347.92857448032925,4656,445.22857753208706,347.92857448032925,4758,445.22857753208706,347.92857448032925,4866,445.22857753208706,347.92857448032925,4974]","[1546,1546,1000,0,546,""smooth"",""left"",""left"",""good_move"",5045,3498,2978,1547,520,""smooth"",""left"",""left"",""good_move"",7791,2746,2270.4,5045,475.6,""smooth"",""down"",""down"",""good_move"",13603,5812,2141.6,11044,417.4,""smooth"",""left"",""left"",""good_move"",16806,3203,1933.6,13603,1269.4,""smooth"",""down"",""down"",""good_move"",19134,2328,1949.8,16806,378.2,""smooth"",""down"",""down"",""good_move""]","",""
"2643","","<div style=""width:500px;"">
  <p>What determined the result of this run?</p>
  </div>","99","html-slider-response","75","901881","0.0-5.0-1.13","42","1","2025-07-16 08:17:36","1f75c3e559b7213887762d5229550c2b","83.22.171.6","Mozilla/5.0 (Windows NT 10.0; Win64; x64; rv:140.0) Gecko/20100101 Firefox/140.0","","Firefox","140.0","Windows","10.0","https://app.prolific.com/","pl,en-US;q=0.7,en;q=0.3","5dd25456cc192027096069bb","686e379bc37a29ffa5cdc956","6877601cf53d51e27829d9f6","1","1","5dd25456cc192027096069bb","1","1","2025-07-16T08:32:39.535Z","","","","","","","","","","","AttribQ","","50","","","","","","","","","","","","","","","","","","","","","","","","","","","","",""
"1315","","<div style=""width:500px;"">
  <p>How much control did you have over the ball?</p>
  </div>","91","html-slider-response","76","903196","0.0-5.0-2.13","42","1","2025-07-16 08:17:36","1f75c3e559b7213887762d5229550c2b","83.22.171.6","Mozilla/5.0 (Windows NT 10.0; Win64; x64; rv:140.0) Gecko/20100101 Firefox/140.0","","Firefox","140.0","Windows","10.0","https://app.prolific.com/","pl,en-US;q=0.7,en;q=0.3","5dd25456cc192027096069bb","686e379bc37a29ffa5cdc956","6877601cf53d51e27829d9f6","1","1","5dd25456cc192027096069bb","1","1","2025-07-16T08:32:40.850Z","","","","","","","","","","","ControlQ","","50","","","","","","","","","","","","","","","","","","","","","","","","","","","","",""
"2539","","<div style=""width:500px;"">
  <p>How would you describe your current emotional state?</p>
  </div>","18","html-slider-response","77","905737","0.0-5.0-3.13","42","1","2025-07-16 08:17:36","1f75c3e559b7213887762d5229550c2b","83.22.171.6","Mozilla/5.0 (Windows NT 10.0; Win64; x64; rv:140.0) Gecko/20100101 Firefox/140.0","","Firefox","140.0","Windows","10.0","https://app.prolific.com/","pl,en-US;q=0.7,en;q=0.3","5dd25456cc192027096069bb","686e379bc37a29ffa5cdc956","6877601cf53d51e27829d9f6","1","1","5dd25456cc192027096069bb","1","1","2025-07-16T08:32:43.391Z","","","","","","","","","","","StressQ","","50","","","","","","","","","","","","","","","","","","","","","","","","","","","","",""
"1485","","<div style=""width:500px;"">
  <p>What best describes how you currently feel?</p>
  </div>","77","html-slider-response","78","907223","0.0-5.0-4.13","42","1","2025-07-16 08:17:36","1f75c3e559b7213887762d5229550c2b","83.22.171.6","Mozilla/5.0 (Windows NT 10.0; Win64; x64; rv:140.0) Gecko/20100101 Firefox/140.0","","Firefox","140.0","Windows","10.0","https://app.prolific.com/","pl,en-US;q=0.7,en;q=0.3","5dd25456cc192027096069bb","686e379bc37a29ffa5cdc956","6877601cf53d51e27829d9f6","1","1","5dd25456cc192027096069bb","1","1","2025-07-16T08:32:44.877Z","","","","","","","","","","","MotivationQ","","50","","","","","","","","","","","","","","","","","","","","","","","","","","","","",""
"","","","","ctl-task-cpt","79","942699","0.0-5.0-0.14","42","1","2025-07-16 08:17:36","1f75c3e559b7213887762d5229550c2b","83.22.171.6","Mozilla/5.0 (Windows NT 10.0; Win64; x64; rv:140.0) Gecko/20100101 Firefox/140.0","","Firefox","140.0","Windows","10.0","https://app.prolific.com/","pl,en-US;q=0.7,en;q=0.3","5dd25456cc192027096069bb","686e379bc37a29ffa5cdc956","6877601cf53d51e27829d9f6","1","1","5dd25456cc192027096069bb","1","1","2025-07-16T08:33:20.353Z","","","","","","","","","","","","","","win-only","0","g1:NW,g2:SE","0.9","15","0","908765","9660","14675","32462","1","4","4","6","2","4","4","52","48","0.3939393939393939","973","3000","2250","[""down"",""right""]","{""num_key_presses"":6,""num_perfect"":6,""num_errors"":0,""num_randdir"":0,""num_randdir_good_moves"":0,""num_whilered"":0,""num_whileblue"":0,""num_blue"":0,""num_good_moves"":6}","[296.22857753208706,293.92857448032925,0,296.22857753208706,293.92857448032925,100,296.22857753208706,293.92857448032925,201,324.22857753208706,327.92857448032925,320,409.22857753208706,361.92857448032925,434,411.22857753208706,361.92857448032925,535,411.22857753208706,361.92857448032925,635,507.22857753208706,466.92857448032925,735,559.228577532087,522.9285744803292,836,565.228577532087,529.9285744803292,936,565.228577532087,529.9285744803292,1045,571.228577532087,528.9285744803292,1145,571.228577532087,527.9285744803292,1245,571.228577532087,527.9285744803292,1357,571.228577532087,527.9285744803292,1458,571.228577532087,527.9285744803292,1573,571.228577532087,527.9285744803292,1677,571.228577532087,527.9285744803292,1787,571.228577532087,527.9285744803292,1888,571.228577532087,527.9285744803292,2003,571.228577532087,527.9285744803292,2106,571.228577532087,527.9285744803292,2206,571.228577532087,527.9285744803292,2317,571.228577532087,527.9285744803292,2418,571.228577532087,527.9285744803292,2520,571.228577532087,527.9285744803292,2637,571.228577532087,527.9285744803292,2750,571.228577532087,527.9285744803292,2851,571.228577532087,527.9285744803292,2955,571.228577532087,527.9285744803292,3072,571.228577532087,527.9285744803292,3180,571.228577532087,527.9285744803292,3284,571.228577532087,527.9285744803292,3395,571.228577532087,527.9285744803292,3495,571.228577532087,527.9285744803292,3610,571.228577532087,527.9285744803292,3712,571.228577532087,527.9285744803292,3812,571.228577532087,527.9285744803292,3934,571.228577532087,527.9285744803292,4035,571.228577532087,527.9285744803292,4154,571.228577532087,527.9285744803292,4273,571.228577532087,527.9285744803292,4385,571.228577532087,527.9285744803292,4500,571.228577532087,527.9285744803292,4600,571.228577532087,527.9285744803292,4700,571.228577532087,527.9285744803292,4800,571.228577532087,527.9285744803292,4900]","[1432,1432,1000,0,432,""smooth"",""down"",""down"",""good_move"",4402,2971,2532.4,1432,438.6,""smooth"",""down"",""down"",""good_move"",6660,2257,1804,4403,453,""smooth"",""down"",""down"",""good_move"",10242,3582,3137.8,6660,444.2,""smooth"",""right"",""right"",""good_move"",14041,3799,3388.5,10242,410.5,""smooth"",""right"",""right"",""good_move"",17479,3438,3016.1,14041,421.9,""smooth"",""right"",""right"",""good_move""]","",""
"4400","","<div style=""width:500px;"">
  <p>What determined the result of this run?</p>
