"rt","response_timestamp","stimulus","response","trial_type","trial_index","time_elapsed","internal_node_id","run_id","condition","recorded_at","source_code_version","ip","user_agent","device","browser","browser_version","platform","platform_version","referer","accept_language","PROLIFIC_PID","STUDY_ID","SESSION_ID","WEEK","BATCH","prolific_id","week","batch","realtime","success","responses","item_order","radio_event_ids","radio_event_times","key_event_times","mouse_event_times","straightlining","zigzagging","honeypot","eventType","view_history","slider_start","which_type","canvas_config","goals_layout","control_level","trial_number","tutorial_trial_number","trial_start_time","phase1_start_time","phase2_start_time","phase3_start_time","goal_1_value","goal_1_distance","goal_2_value","goal_2_distance","goal_selected","outcome","outcome_total","participant_final_score","participant_initial_score","participant_final_score_prop","goal_choice_rt","allocated_time","allocated_time_remaining","goal_direction","counts","mouse_movements","key_presses","question_order","question_id"
"3532","1752693750352","<p style='font-size:40px;line-height:1.25'><strong>Welcome to the experiment!</strong></p><p style='font-size:1.1em;line-height:1.25'>Thank you for participanting in our experiment again! You will be asked to play the Dysfunctional Ball Game again. We will briefly recap the rules before we start.</p><p style='font-size:1.1em;line-height:1.25'>Press <strong>Next</strong> to continue.</p>","0","custom-html-button-response","0","3535","0.0-0.0","126","1","2025-07-16 19:22:25","1f75c3e559b7213887762d5229550c2b","90.220.178.14","Mozilla/5.0 (Macintosh; Intel Mac OS X 10_15_7) AppleWebKit/537.36 (KHTML, like Gecko) Chrome/137.0.0.0 Safari/537.36","Macintosh","Chrome","137.0.0.0","OS X","10_15_7","https://app.prolific.com/","en-GB,en-US;q=0.9,en;q=0.8","6760580745ecb73102f83f3d","68764874ac79eee8c1d4cb03","6877fbe4185cf5565545691a","2","0","6760580745ecb73102f83f3d","2","0","2025-07-16T19:22:30.353Z","","","","","","","","","","","","","","","","","","","","","","","","","","","","","","","","","","","","","","","","","",""
"1547","","","","fullscreen","1","6085","0.0-1.0","126","1","2025-07-16 19:22:25","1f75c3e559b7213887762d5229550c2b","90.220.178.14","Mozilla/5.0 (Macintosh; Intel Mac OS X 10_15_7) AppleWebKit/537.36 (KHTML, like Gecko) Chrome/137.0.0.0 Safari/537.36","Macintosh","Chrome","137.0.0.0","OS X","10_15_7","https://app.prolific.com/","en-GB,en-US;q=0.9,en;q=0.8","6760580745ecb73102f83f3d","68764874ac79eee8c1d4cb03","6877fbe4185cf5565545691a","2","0","6760580745ecb73102f83f3d","2","0","","true","","","","","","","","","","","","","","","","","","","","","","","","","","","","","","","","","","","","","","","","",""
"2297","1752693755202","<p style='font-size:1.1em;line-height:1.25'>In the following, we will ask you a few questions relating to your feelings in the last 24 hours.<br></p><p style='font-size:1.1em;line-height:1.25'>Press the <strong>Next</strong> button to continue.</p>","0","custom-html-button-response","2","8384","0.0-2.0-0.0","126","1","2025-07-16 19:22:25","1f75c3e559b7213887762d5229550c2b","90.220.178.14","Mozilla/5.0 (Macintosh; Intel Mac OS X 10_15_7) AppleWebKit/537.36 (KHTML, like Gecko) Chrome/137.0.0.0 Safari/537.36","Macintosh","Chrome","137.0.0.0","OS X","10_15_7","https://app.prolific.com/","en-GB,en-US;q=0.9,en;q=0.8","6760580745ecb73102f83f3d","68764874ac79eee8c1d4cb03","6877fbe4185cf5565545691a","2","0","6760580745ecb73102f83f3d","2","0","2025-07-16T19:22:35.202Z","","","","","","","","","","","","","","","","","","","","","","","","","","","","","","","","","","","","","","","","","",""
"62544.699999928474","","","","survey-template","3","70933","0.0-2.0-1.0","126","1","2025-07-16 19:22:25","1f75c3e559b7213887762d5229550c2b","90.220.178.14","Mozilla/5.0 (Macintosh; Intel Mac OS X 10_15_7) AppleWebKit/537.36 (KHTML, like Gecko) Chrome/137.0.0.0 Safari/537.36","Macintosh","Chrome","137.0.0.0","OS X","10_15_7","https://app.prolific.com/","en-GB,en-US;q=0.9,en;q=0.8","6760580745ecb73102f83f3d","68764874ac79eee8c1d4cb03","6877fbe4185cf5565545691a","2","0","6760580745ecb73102f83f3d","2","0","2025-07-16T19:23:37.751Z","","{""Q01"":""0"",""Q02"":""0"",""Q03"":""0"",""Q04"":""2"",""Q05"":""2"",""Q06"":""2"",""Q07"":""2"",""Q08"":""1"",""Q09"":""0"",""Q10"":""1"",""Q11"":""1"",""Q12"":""1"",""Q13"":""5"",""Q14"":""2"",""Q15"":""2"",""Q16"":""1"",""Q17"":""2"",""Q18"":""0"",""Q19"":""1"",""Q20"":""0"",""Q21"":""2"",""Q22"":""1""}","[0,1,2,3,4,5,6,7,8,9,10,11,12,13,14,15,16,17,18,19,20,21]","[""Q01"",""Q02"",""Q03"",""Q04"",""Q05"",""Q05"",""Q06"",""Q07"",""Q08"",""Q09"",""Q10"",""Q11"",""Q12"",""Q13"",""Q14"",""Q15"",""Q16"",""Q17"",""Q18"",""Q19"",""Q20"",""Q21"",""Q22""]","[4147.399999976158,5415.899999976158,10829.799999952316,11792.699999928474,13321.699999928474,15204.699999928474,16525.199999928474,18794.299999952316,21942.699999928474,24629.199999928474,26294.5,27225.399999976158,28958.899999976158,31013.599999904633,41388.199999928474,44636.199999928474,45772.5,47995.299999952316,49478.59999990463,53139.5,55260.199999928474,58948.799999952316,61369.09999990463]","[]","[0.19999992847442627,4147.399999976158,5415.899999976158,9896.699999928474,10829.799999952316,11792.699999928474,13321.699999928474,15204.699999928474,16525.199999928474,17795.199999928474,18794.299999952316,21942.699999928474,23947.199999928474,24629.199999928474,26294.5,27225.399999976158,28958.899999976158,31013.599999904633,40556.199999928474,41388.199999928474,42549.59999990463,44636.199999928474,45772.5,47995.299999952316,49478.59999990463,52034.199999928474,53139.5,55260.199999928474,58948.799999952316,61369.09999990463,62540]","0.36363636363636365","0.38095238095238093","0","drsp","","","","","","","","","","","","","","","","","","","","","","","","","","","","","","",""
"7915.399999976158","","","","survey-template","4","78850","0.0-2.0-2.0","126","1","2025-07-16 19:22:25","1f75c3e559b7213887762d5229550c2b","90.220.178.14","Mozilla/5.0 (Macintosh; Intel Mac OS X 10_15_7) AppleWebKit/537.36 (KHTML, like Gecko) Chrome/137.0.0.0 Safari/537.36","Macintosh","Chrome","137.0.0.0","OS X","10_15_7","https://app.prolific.com/","en-GB,en-US;q=0.9,en;q=0.8","6760580745ecb73102f83f3d","68764874ac79eee8c1d4cb03","6877fbe4185cf5565545691a","2","0","6760580745ecb73102f83f3d","2","0","2025-07-16T19:23:45.668Z","","{""Q01"":""3"",""Q02"":""4"",""Q03"":""1""}","[0,1,2]","[""Q01"",""Q02"",""Q03""]","[2782.899999976158,4292.5,6724.199999928474]","[]","[2782.899999976158,4292.5,6109.100000023842,6724.199999928474,7914.699999928474]","0.6666666666666666","0","0","stress","","","","","","","","","","","","","","","","","","","","","","","","","","","","","","",""
"4720","","","","instructions","5","83571","0.0-3.0-0.0","126","1","2025-07-16 19:22:25","1f75c3e559b7213887762d5229550c2b","90.220.178.14","Mozilla/5.0 (Macintosh; Intel Mac OS X 10_15_7) AppleWebKit/537.36 (KHTML, like Gecko) Chrome/137.0.0.0 Safari/537.36","Macintosh","Chrome","137.0.0.0","OS X","10_15_7","https://app.prolific.com/","en-GB,en-US;q=0.9,en;q=0.8","6760580745ecb73102f83f3d","68764874ac79eee8c1d4cb03","6877fbe4185cf5565545691a","2","0","6760580745ecb73102f83f3d","2","0","","","","","","","","","","","","","[{""page_index"":0,""viewing_time"":4720}]","","","","","","","","","","","","","","","","","","","","","","","","","","","","","",""
"3940","","<p>Before you start with this game please answer the following three questions yourself. </p>
  <p>Through this game, we measure several aspects of your cognitive performance, such as reaction times, multi-tasking capabilities </p>
  <p>and the ability to assess the situation you are in.</p>
  <p></p>
  <p><b>How good do you usually are in such tasks?</b></p>","72","html-slider-response","6","87512","0.0-4.0-0.0","126","1","2025-07-16 19:22:25","1f75c3e559b7213887762d5229550c2b","90.220.178.14","Mozilla/5.0 (Macintosh; Intel Mac OS X 10_15_7) AppleWebKit/537.36 (KHTML, like Gecko) Chrome/137.0.0.0 Safari/537.36","Macintosh","Chrome","137.0.0.0","OS X","10_15_7","https://app.prolific.com/","en-GB,en-US;q=0.9,en;q=0.8","6760580745ecb73102f83f3d","68764874ac79eee8c1d4cb03","6877fbe4185cf5565545691a","2","0","6760580745ecb73102f83f3d","2","0","2025-07-16T19:23:54.330Z","","","","","","","","","","","PreSkillQ","","50","","","","","","","","","","","","","","","","","","","","","","","","","","","","",""
"2994","","<div style=""width:500px;"">
  <p>How well do you think you will perform in this task compared to other participants?</p>
  </div>","68","html-slider-response","7","90506","0.0-4.0-1.0","126","1","2025-07-16 19:22:25","1f75c3e559b7213887762d5229550c2b","90.220.178.14","Mozilla/5.0 (Macintosh; Intel Mac OS X 10_15_7) AppleWebKit/537.36 (KHTML, like Gecko) Chrome/137.0.0.0 Safari/537.36","Macintosh","Chrome","137.0.0.0","OS X","10_15_7","https://app.prolific.com/","en-GB,en-US;q=0.9,en;q=0.8","6760580745ecb73102f83f3d","68764874ac79eee8c1d4cb03","6877fbe4185cf5565545691a","2","0","6760580745ecb73102f83f3d","2","0","2025-07-16T19:23:57.325Z","","","","","","","","","","","PrePerfQ","","50","","","","","","","","","","","","","","","","","","","","","","","","","","","","",""
"3102","","<div style=""width:500px;"">
  <p>What best describes how you currently feel?</p>
  </div>","74","html-slider-response","8","93610","0.0-4.0-2.0","126","1","2025-07-16 19:22:25","1f75c3e559b7213887762d5229550c2b","90.220.178.14","Mozilla/5.0 (Macintosh; Intel Mac OS X 10_15_7) AppleWebKit/537.36 (KHTML, like Gecko) Chrome/137.0.0.0 Safari/537.36","Macintosh","Chrome","137.0.0.0","OS X","10_15_7","https://app.prolific.com/","en-GB,en-US;q=0.9,en;q=0.8","6760580745ecb73102f83f3d","68764874ac79eee8c1d4cb03","6877fbe4185cf5565545691a","2","0","6760580745ecb73102f83f3d","2","0","2025-07-16T19:24:00.428Z","","","","","","","","","","","PreMotivationQ","","50","","","","","","","","","","","","","","","","","","","","","","","","","","","","",""
"","","","","ctl-task-cpt","9","126571","0.0-5.0-0.0","126","1","2025-07-16 19:22:25","1f75c3e559b7213887762d5229550c2b","90.220.178.14","Mozilla/5.0 (Macintosh; Intel Mac OS X 10_15_7) AppleWebKit/537.36 (KHTML, like Gecko) Chrome/137.0.0.0 Safari/537.36","Macintosh","Chrome","137.0.0.0","OS X","10_15_7","https://app.prolific.com/","en-GB,en-US;q=0.9,en;q=0.8","6760580745ecb73102f83f3d","68764874ac79eee8c1d4cb03","6877fbe4185cf5565545691a","2","0","6760580745ecb73102f83f3d","2","0","2025-07-16T19:24:33.390Z","","","","","","","","","","","","","","win-only","0","g1:NW,g2:SE","1","1","0","95951.4","4361.4","9367","29926.7","1","4","8","6","2","8","8","8","0","0.06060606060606061","1413.2","3000","1415","[""down"",""right""]","{""num_key_presses"":6,""num_perfect"":6,""num_errors"":0,""num_randdir"":0,""num_randdir_good_moves"":0,""num_whilered"":0,""num_whileblue"":0,""num_blue"":1,""num_good_moves"":6}","[820,803.796875,0.3,820,803.796875,100.6,820,803.796875,200.7,820,803.796875,302.9,820,803.796875,404.5,824,811.796875,533,832,833.796875,636,828,859.796875,739.6,904,935.796875,844.2,904,935.796875,944.7,1038,1049.796875,1051.7,1404,1479.796875,1155.1,1396,1479.796875,1255.1,1416,1479.796875,1360.5,1422,1481.796875,1462.8,1422,1481.796875,1566.8,1424,1471.796875,1670.4,2088,925.796875,1771,2088,925.796875,1880.2,2088,925.796875,1985.5,2088,925.796875,2085.7,2088,925.796875,2190.3,2088,925.796875,2296.7,2088,925.796875,2400.4,2088,925.796875,2505.4,2088,925.796875,2611.6,2088,925.796875,2714.1,2088,925.796875,2814.5,2088,925.796875,2914.5,2088,925.796875,3020.1,2088,925.796875,3120.5,2088,925.796875,3220.5,2088,925.796875,3328.4,2088,925.796875,3429.5,2088,925.796875,3529.7,2088,925.796875,3629.8,2088,925.796875,3735.2,2088,925.796875,3839.5,2088,925.796875,3939.5,2088,925.796875,4039.7,2088,925.796875,4145.9,2088,925.796875,4250,2088,925.796875,4350.1,2088,925.796875,4455.4,2088,925.796875,4561.9,2088,925.796875,4662.5,2088,925.796875,4764.5,2088,925.796875,4870.4,2088,925.796875,4970.4]","[1417.8,1417.8,1000,0,417.8,""smooth"",""right"",""right"",""good_move"",4936.4,3518.4,3069.8,1418,448.6,""smooth"",""right"",""right"",""good_move"",11198.1,6261.4,2967,7794.2,436.9,""smooth"",""right"",""right"",""good_move"",13989.5,2791.2,2343.2,11198.3,448,""smooth"",""down"",""down"",""good_move"",17195.3,3205.5,2703.2,13989.8,502.3,""smooth"",""down"",""down"",""good_move"",20448.6,3253.1,2813.4,17195.5,439.7,""smooth"",""down"",""down"",""good_move""]","",""
"2960","","<div style=""width:500px;"">
  <p>What determined the result of this run?</p>
  </div>","89","html-slider-response","10","129533","0.0-5.0-1.0","126","1","2025-07-16 19:22:25","1f75c3e559b7213887762d5229550c2b","90.220.178.14","Mozilla/5.0 (Macintosh; Intel Mac OS X 10_15_7) AppleWebKit/537.36 (KHTML, like Gecko) Chrome/137.0.0.0 Safari/537.36","Macintosh","Chrome","137.0.0.0","OS X","10_15_7","https://app.prolific.com/","en-GB,en-US;q=0.9,en;q=0.8","6760580745ecb73102f83f3d","68764874ac79eee8c1d4cb03","6877fbe4185cf5565545691a","2","0","6760580745ecb73102f83f3d","2","0","2025-07-16T19:24:36.351Z","","","","","","","","","","","AttribQ","","50","","","","","","","","","","","","","","","","","","","","","","","","","","","","",""
"2818","","<div style=""width:500px;"">
  <p>How much control did you have over the ball?</p>
  </div>","92","html-slider-response","11","132351","0.0-5.0-2.0","126","1","2025-07-16 19:22:25","1f75c3e559b7213887762d5229550c2b","90.220.178.14","Mozilla/5.0 (Macintosh; Intel Mac OS X 10_15_7) AppleWebKit/537.36 (KHTML, like Gecko) Chrome/137.0.0.0 Safari/537.36","Macintosh","Chrome","137.0.0.0","OS X","10_15_7","https://app.prolific.com/","en-GB,en-US;q=0.9,en;q=0.8","6760580745ecb73102f83f3d","68764874ac79eee8c1d4cb03","6877fbe4185cf5565545691a","2","0","6760580745ecb73102f83f3d","2","0","2025-07-16T19:24:39.169Z","","","","","","","","","","","ControlQ","","50","","","","","","","","","","","","","","","","","","","","","","","","","","","","",""
"2904","","<div style=""width:500px;"">
  <p>How would you describe your current emotional state?</p>
  </div>","22","html-slider-response","12","135256","0.0-5.0-3.0","126","1","2025-07-16 19:22:25","1f75c3e559b7213887762d5229550c2b","90.220.178.14","Mozilla/5.0 (Macintosh; Intel Mac OS X 10_15_7) AppleWebKit/537.36 (KHTML, like Gecko) Chrome/137.0.0.0 Safari/537.36","Macintosh","Chrome","137.0.0.0","OS X","10_15_7","https://app.prolific.com/","en-GB,en-US;q=0.9,en;q=0.8","6760580745ecb73102f83f3d","68764874ac79eee8c1d4cb03","6877fbe4185cf5565545691a","2","0","6760580745ecb73102f83f3d","2","0","2025-07-16T19:24:42.074Z","","","","","","","","","","","StressQ","","50","","","","","","","","","","","","","","","","","","","","","","","","","","","","",""
"3735","","<div style=""width:500px;"">
  <p>What best describes how you currently feel?</p>
  </div>","77","html-slider-response","13","138991","0.0-5.0-4.0","126","1","2025-07-16 19:22:25","1f75c3e559b7213887762d5229550c2b","90.220.178.14","Mozilla/5.0 (Macintosh; Intel Mac OS X 10_15_7) AppleWebKit/537.36 (KHTML, like Gecko) Chrome/137.0.0.0 Safari/537.36","Macintosh","Chrome","137.0.0.0","OS X","10_15_7","https://app.prolific.com/","en-GB,en-US;q=0.9,en;q=0.8","6760580745ecb73102f83f3d","68764874ac79eee8c1d4cb03","6877fbe4185cf5565545691a","2","0","6760580745ecb73102f83f3d","2","0","2025-07-16T19:24:45.810Z","","","","","","","","","","","MotivationQ","","50","","","","","","","","","","","","","","","","","","","","","","","","","","","","",""
"","","","","ctl-task-cpt","14","187378","0.0-5.0-0.1","126","1","2025-07-16 19:22:25","1f75c3e559b7213887762d5229550c2b","90.220.178.14","Mozilla/5.0 (Macintosh; Intel Mac OS X 10_15_7) AppleWebKit/537.36 (KHTML, like Gecko) Chrome/137.0.0.0 Safari/537.36","Macintosh","Chrome","137.0.0.0","OS X","10_15_7","https://app.prolific.com/","en-GB,en-US;q=0.9,en;q=0.8","6760580745ecb73102f83f3d","68764874ac79eee8c1d4cb03","6877fbe4185cf5565545691a","2","0","6760580745ecb73102f83f3d","2","0","2025-07-16T19:25:34.196Z","","","","","","","","","","","","","","win-only","0","g1:NW,g2:SE","0.9","2","0","141332.3","1530.7","6536.3","45379.2","1","4","4","6","2","4","4","12","8","0.09090909090909091","1423.5","3000","225","[""down"",""right""]","{""num_key_presses"":8,""num_perfect"":7,""num_errors"":0,""num_randdir"":1,""num_randdir_good_moves"":0,""num_whilered"":0,""num_whileblue"":0,""num_blue"":5,""num_good_moves"":7}","[804,813.796875,0.1,804,813.796875,101.8,804,813.796875,205.9,804,813.796875,307.6,804,813.796875,413.4,816,821.796875,518.7,928,1077.796875,619.8,936,1103.796875,720.8,936,1103.796875,824.9,1244,1257.796875,925.7,1392,1339.796875,1033.3,1392,1339.796875,1134.8,1426,1401.796875,1235.7,1452,1451.796875,1350.9,1452,1451.796875,1466,1452,1451.796875,1569.9,1498,1393.796875,1673.1,1782,963.796875,1778.1,1782,963.796875,1878.6,1782,963.796875,1981.1,1782,963.796875,2085.6,1782,963.796875,2187,1782,963.796875,2302.7,1782,963.796875,2418.5,1782,963.796875,2520.1,1782,963.796875,2620.2,1782,963.796875,2720.2,1782,963.796875,2824.8,1782,963.796875,2925.4,1782,963.796875,3029.3,1782,963.796875,3132.2,1782,963.796875,3235.3,1782,963.796875,3335.4,1782,963.796875,3441.4,1782,963.796875,3542.2,1782,963.796875,3642.2,1782,963.796875,3749.3,1782,963.796875,3849.6,1782,963.796875,3950.2,1782,963.796875,4051.6,1782,963.796875,4156.5,1782,963.796875,4268.8,1782,963.796875,4370.8,1782,963.796875,4474.2,1782,963.796875,4575.2,1782,963.796875,4677.2,1782,963.796875,4777.5,1782,963.796875,4879,1782,963.796875,4980.3]","[1485.5,1485.5,1000,0,485.5,""oops"",""right"",""up"",""bad_move"",14868.2,13382.4,2857.1,11565.1,446,""smooth"",""right"",""right"",""good_move"",17221.1,2352.7,1784.5,14868.5,568.2,""smooth"",""right"",""right"",""good_move"",20250.1,3028.8,2591.9,17221.3,436.9,""smooth"",""right"",""right"",""good_move"",26850.2,6599.8,2011.6,24431.9,406.7,""smooth"",""down"",""down"",""good_move"",29184.4,2334,1911.9,26850.4,422.1,""smooth"",""down"",""down"",""good_move"",35648.2,6463.6,3472.5,31786.6,389.1,""smooth"",""down"",""down"",""good_move"",38723.7,3075.2,2654.1,35648.5,421.1,""smooth"",""down"",""down"",""good_move""]","",""
"2650","","<div style=""width:500px;"">
  <p>What determined the result of this run?</p>
  </div>","36","html-slider-response","15","190029","0.0-5.0-1.1","126","1","2025-07-16 19:22:25","1f75c3e559b7213887762d5229550c2b","90.220.178.14","Mozilla/5.0 (Macintosh; Intel Mac OS X 10_15_7) AppleWebKit/537.36 (KHTML, like Gecko) Chrome/137.0.0.0 Safari/537.36","Macintosh","Chrome","137.0.0.0","OS X","10_15_7","https://app.prolific.com/","en-GB,en-US;q=0.9,en;q=0.8","6760580745ecb73102f83f3d","68764874ac79eee8c1d4cb03","6877fbe4185cf5565545691a","2","0","6760580745ecb73102f83f3d","2","0","2025-07-16T19:25:36.847Z","","","","","","","","","","","AttribQ","","50","","","","","","","","","","","","","","","","","","","","","","","","","","","","",""
"2481","","<div style=""width:500px;"">
  <p>How much control did you have over the ball?</p>
  </div>","65","html-slider-response","16","192511","0.0-5.0-2.1","126","1","2025-07-16 19:22:25","1f75c3e559b7213887762d5229550c2b","90.220.178.14","Mozilla/5.0 (Macintosh; Intel Mac OS X 10_15_7) AppleWebKit/537.36 (KHTML, like Gecko) Chrome/137.0.0.0 Safari/537.36","Macintosh","Chrome","137.0.0.0","OS X","10_15_7","https://app.prolific.com/","en-GB,en-US;q=0.9,en;q=0.8","6760580745ecb73102f83f3d","68764874ac79eee8c1d4cb03","6877fbe4185cf5565545691a","2","0","6760580745ecb73102f83f3d","2","0","2025-07-16T19:25:39.329Z","","","","","","","","","","","ControlQ","","50","","","","","","","","","","","","","","","","","","","","","","","","","","","","",""
"2799","","<div style=""width:500px;"">
  <p>How would you describe your current emotional state?</p>
  </div>","42","html-slider-response","17","195311","0.0-5.0-3.1","126","1","2025-07-16 19:22:25","1f75c3e559b7213887762d5229550c2b","90.220.178.14","Mozilla/5.0 (Macintosh; Intel Mac OS X 10_15_7) AppleWebKit/537.36 (KHTML, like Gecko) Chrome/137.0.0.0 Safari/537.36","Macintosh","Chrome","137.0.0.0","OS X","10_15_7","https://app.prolific.com/","en-GB,en-US;q=0.9,en;q=0.8","6760580745ecb73102f83f3d","68764874ac79eee8c1d4cb03","6877fbe4185cf5565545691a","2","0","6760580745ecb73102f83f3d","2","0","2025-07-16T19:25:42.129Z","","","","","","","","","","","StressQ","","50","","","","","","","","","","","","","","","","","","","","","","","","","","","","",""
"2684","","<div style=""width:500px;"">
  <p>What best describes how you currently feel?</p>
  </div>","77","html-slider-response","18","197996","0.0-5.0-4.1","126","1","2025-07-16 19:22:25","1f75c3e559b7213887762d5229550c2b","90.220.178.14","Mozilla/5.0 (Macintosh; Intel Mac OS X 10_15_7) AppleWebKit/537.36 (KHTML, like Gecko) Chrome/137.0.0.0 Safari/537.36","Macintosh","Chrome","137.0.0.0","OS X","10_15_7","https://app.prolific.com/","en-GB,en-US;q=0.9,en;q=0.8","6760580745ecb73102f83f3d","68764874ac79eee8c1d4cb03","6877fbe4185cf5565545691a","2","0","6760580745ecb73102f83f3d","2","0","2025-07-16T19:25:44.814Z","","","","","","","","","","","MotivationQ","","50","","","","","","","","","","","","","","","","","","","","","","","","","","","","",""
"","","","","ctl-task-cpt","19","232319","0.0-5.0-0.2","126","1","2025-07-16 19:22:25","1f75c3e559b7213887762d5229550c2b","90.220.178.14","Mozilla/5.0 (Macintosh; Intel Mac OS X 10_15_7) AppleWebKit/537.36 (KHTML, like Gecko) Chrome/137.0.0.0 Safari/537.36","Macintosh","Chrome","137.0.0.0","OS X","10_15_7","https://app.prolific.com/","en-GB,en-US;q=0.9,en;q=0.8","6760580745ecb73102f83f3d","68764874ac79eee8c1d4cb03","6877fbe4185cf5565545691a","2","0","6760580745ecb73102f83f3d","2","0","2025-07-16T19:26:19.137Z","","","","","","","","","","","","","","win-only","3","g1:SW,g2:NE","0.8","3","0","200339.4","1412.7","6428","31316.3","1","4","8","6","2","8","8","20","12","0.15151515151515152","900.5","3000","1445","[""up"",""right""]","{""num_key_presses"":6,""num_perfect"":6,""num_errors"":0,""num_randdir"":0,""num_randdir_good_moves"":0,""num_whilered"":0,""num_whileblue"":0,""num_blue"":2,""num_good_moves"":6}","[804,819.796875,0.2,804,819.796875,117.1,804,819.796875,228.7,804,819.796875,331.3,874,747.796875,436.1,1534,139.796875,537.3,1546,129.796875,645.7,1546,129.796875,761,1536,129.796875,862.3,1536,129.796875,980.9,1536,129.796875,1084.1,1684,69.796875,1185.4,2288,-178.203125,1285.7,2288,-178.203125,1389.7,2288,-178.203125,1495.6,2288,-178.203125,1608.6,2288,-178.203125,1713.5,2288,-178.203125,1815.6,2288,-178.203125,1927.6,2288,-178.203125,2028.3,2288,-178.203125,2133.9,2288,-178.203125,2238.6,2288,-178.203125,2342.2,2288,-178.203125,2443.8,2288,-178.203125,2546.8,2288,-178.203125,2648.1,2288,-178.203125,2751.1,2288,-178.203125,2853.5,2288,-178.203125,2954.3,2288,-178.203125,3059.5,2288,-178.203125,3166.7,2288,-178.203125,3267.9,2288,-178.203125,3369.2,2288,-178.203125,3469.3,2288,-178.203125,3581.7,2288,-178.203125,3699,2288,-178.203125,3801.5,2288,-178.203125,3904.1,2288,-178.203125,4006.8,2288,-178.203125,4108,2288,-178.203125,4210.1,2288,-178.203125,4315.7,2288,-178.203125,4416.2,2288,-178.203125,4529,2288,-178.203125,4633,2288,-178.203125,4743.4,2288,-178.203125,4847.5,2288,-178.203125,4958.4]","[5711.3,5711.3,3283.3,2010.8,417.2,""smooth"",""up"",""up"",""good_move"",9729.4,4017.8,3627.3,5711.6,390.5,""smooth"",""up"",""up"",""good_move"",12499.7,2770.2,2370.7,9729.5,399.5,""smooth"",""up"",""up"",""good_move"",15648.4,3148.5,2775.1,12499.9,373.4,""smooth"",""right"",""right"",""good_move"",18552.6,2903.9,2511.2,15648.7,392.7,""smooth"",""right"",""right"",""good_move"",24791.1,6238.3,2152.4,22212.1,426.6,""smooth"",""right"",""right"",""good_move""]","",""
"2657","","<div style=""width:500px;"">
  <p>What determined the result of this run?</p>
  </div>","83","html-slider-response","20","234978","0.0-5.0-1.2","126","1","2025-07-16 19:22:25","1f75c3e559b7213887762d5229550c2b","90.220.178.14","Mozilla/5.0 (Macintosh; Intel Mac OS X 10_15_7) AppleWebKit/537.36 (KHTML, like Gecko) Chrome/137.0.0.0 Safari/537.36","Macintosh","Chrome","137.0.0.0","OS X","10_15_7","https://app.prolific.com/","en-GB,en-US;q=0.9,en;q=0.8","6760580745ecb73102f83f3d","68764874ac79eee8c1d4cb03","6877fbe4185cf5565545691a","2","0","6760580745ecb73102f83f3d","2","0","2025-07-16T19:26:21.796Z","","","","","","","","","","","AttribQ","","50","","","","","","","","","","","","","","","","","","","","","","","","","","","","",""
"2578","","<div style=""width:500px;"">
  <p>How much control did you have over the ball?</p>
  </div>","88","html-slider-response","21","237557","0.0-5.0-2.2","126","1","2025-07-16 19:22:25","1f75c3e559b7213887762d5229550c2b","90.220.178.14","Mozilla/5.0 (Macintosh; Intel Mac OS X 10_15_7) AppleWebKit/537.36 (KHTML, like Gecko) Chrome/137.0.0.0 Safari/537.36","Macintosh","Chrome","137.0.0.0","OS X","10_15_7","https://app.prolific.com/","en-GB,en-US;q=0.9,en;q=0.8","6760580745ecb73102f83f3d","68764874ac79eee8c1d4cb03","6877fbe4185cf5565545691a","2","0","6760580745ecb73102f83f3d","2","0","2025-07-16T19:26:24.375Z","","","","","","","","","","","ControlQ","","50","","","","","","","","","","","","","","","","","","","","","","","","","","","","",""
"2363","","<div style=""width:500px;"">
  <p>How would you describe your current emotional state?</p>
  </div>","25","html-slider-response","22","239920","0.0-5.0-3.2","126","1","2025-07-16 19:22:25","1f75c3e559b7213887762d5229550c2b","90.220.178.14","Mozilla/5.0 (Macintosh; Intel Mac OS X 10_15_7) AppleWebKit/537.36 (KHTML, like Gecko) Chrome/137.0.0.0 Safari/537.36","Macintosh","Chrome","137.0.0.0","OS X","10_15_7","https://app.prolific.com/","en-GB,en-US;q=0.9,en;q=0.8","6760580745ecb73102f83f3d","68764874ac79eee8c1d4cb03","6877fbe4185cf5565545691a","2","0","6760580745ecb73102f83f3d","2","0","2025-07-16T19:26:26.739Z","","","","","","","","","","","StressQ","","50","","","","","","","","","","","","","","","","","","","","","","","","","","","","",""
"2331","","<div style=""width:500px;"">
  <p>What best describes how you currently feel?</p>
  </div>","80","html-slider-response","23","242254","0.0-5.0-4.2","126","1","2025-07-16 19:22:25","1f75c3e559b7213887762d5229550c2b","90.220.178.14","Mozilla/5.0 (Macintosh; Intel Mac OS X 10_15_7) AppleWebKit/537.36 (KHTML, like Gecko) Chrome/137.0.0.0 Safari/537.36","Macintosh","Chrome","137.0.0.0","OS X","10_15_7","https://app.prolific.com/","en-GB,en-US;q=0.9,en;q=0.8","6760580745ecb73102f83f3d","68764874ac79eee8c1d4cb03","6877fbe4185cf5565545691a","2","0","6760580745ecb73102f83f3d","2","0","2025-07-16T19:26:29.072Z","","","","","","","","","","","MotivationQ","","50","","","","","","","","","","","","","","","","","","","","","","","","","","","","",""
"","","","","ctl-task-cpt","24","275665","0.0-5.0-0.3","126","1","2025-07-16 19:22:25","1f75c3e559b7213887762d5229550c2b","90.220.178.14","Mozilla/5.0 (Macintosh; Intel Mac OS X 10_15_7) AppleWebKit/537.36 (KHTML, like Gecko) Chrome/137.0.0.0 Safari/537.36","Macintosh","Chrome","137.0.0.0","OS X","10_15_7","https://app.prolific.com/","en-GB,en-US;q=0.9,en;q=0.8","6760580745ecb73102f83f3d","68764874ac79eee8c1d4cb03","6877fbe4185cf5565545691a","2","0","6760580745ecb73102f83f3d","2","0","2025-07-16T19:27:02.483Z","","","","","","","","","","","","","","win-only","1","g1:NE,g2:SW","0.7","4","0","244600.7","1109.7","6118.6","30397.2","1","4","4","6","1","1","1","21","20","0.1590909090909091","1250.5","3000","1500","[""up"",""right""]","{""num_key_presses"":6,""num_perfect"":4,""num_errors"":0,""num_randdir"":2,""num_randdir_good_moves"":1,""num_whilered"":0,""num_whileblue"":0,""num_blue"":2,""num_good_moves"":5}","[794,809.796875,0.2,794,809.796875,100.3,794,809.796875,200.7,794,809.796875,306,794,809.796875,414.9,786,823.796875,516.1,628,1005.796875,616.2,750,869.796875,717.6,1526,255.796875,826.9,1526,255.796875,929.9,1530,231.796875,1035.2,1532,183.796875,1139.3,1532,183.796875,1240.6,1532,183.796875,1344.4,1552,175.796875,1449.6,1824,91.796875,1550.9,1928,67.796875,1651.8,1928,67.796875,1762.1,1928,67.796875,1877.4,1928,67.796875,1985.6,1928,67.796875,2087.1,1928,67.796875,2201.1,1928,67.796875,2302.9,1928,67.796875,2403,1928,67.796875,2507.9,1928,67.796875,2613.4,1928,67.796875,2718.2,1928,67.796875,2825.3,1928,67.796875,2929.4,1928,67.796875,3033.9,1928,67.796875,3136,1928,67.796875,3245.9,1928,67.796875,3348.8,1928,67.796875,3450.9,1928,67.796875,3556.8,1928,67.796875,3657.4,1928,67.796875,3763.9,1928,67.796875,3864.8,1928,67.796875,3965.3,1928,67.796875,4068.3,1928,67.796875,4170.9,1928,67.796875,4283.6,1928,67.796875,4393.1,1928,67.796875,4494.9,1928,67.796875,4595.8,1928,67.796875,4699.1,1928,67.796875,4801.5,1928,67.796875,4909.9]","[1568.2,1568.2,1000,0,568.2,""oops"",""up"",""down"",""bad_move"",5049.7,3481.2,3025.7,1568.5,455.5,""smooth"",""up"",""up"",""good_move"",8789.9,3739.9,3392,5050,347.9,""smooth"",""up"",""up"",""good_move"",15043.6,6253.4,2653.5,11982.2,407.9,""smooth"",""up"",""up"",""good_move"",18062.7,3018.9,2645.1,15043.8,373.8,""oops"",""right"",""right"",""good_move"",24170.6,6107.6,2049.3,21726.5,394.8,""smooth"",""right"",""right"",""good_move""]","",""
"2767","","<div style=""width:500px;"">
  <p>What determined the result of this run?</p>
  </div>","77","html-slider-response","25","278433","0.0-5.0-1.3","126","1","2025-07-16 19:22:25","1f75c3e559b7213887762d5229550c2b","90.220.178.14","Mozilla/5.0 (Macintosh; Intel Mac OS X 10_15_7) AppleWebKit/537.36 (KHTML, like Gecko) Chrome/137.0.0.0 Safari/537.36","Macintosh","Chrome","137.0.0.0","OS X","10_15_7","https://app.prolific.com/","en-GB,en-US;q=0.9,en;q=0.8","6760580745ecb73102f83f3d","68764874ac79eee8c1d4cb03","6877fbe4185cf5565545691a","2","0","6760580745ecb73102f83f3d","2","0","2025-07-16T19:27:05.251Z","","","","","","","","","","","AttribQ","","50","","","","","","","","","","","","","","","","","","","","","","","","","","","","",""
"2516","","<div style=""width:500px;"">
  <p>How much control did you have over the ball?</p>
  </div>","76","html-slider-response","26","280950","0.0-5.0-2.3","126","1","2025-07-16 19:22:25","1f75c3e559b7213887762d5229550c2b","90.220.178.14","Mozilla/5.0 (Macintosh; Intel Mac OS X 10_15_7) AppleWebKit/537.36 (KHTML, like Gecko) Chrome/137.0.0.0 Safari/537.36","Macintosh","Chrome","137.0.0.0","OS X","10_15_7","https://app.prolific.com/","en-GB,en-US;q=0.9,en;q=0.8","6760580745ecb73102f83f3d","68764874ac79eee8c1d4cb03","6877fbe4185cf5565545691a","2","0","6760580745ecb73102f83f3d","2","0","2025-07-16T19:27:07.768Z","","","","","","","","","","","ControlQ","","50","","","","","","","","","","","","","","","","","","","","","","","","","","","","",""
"2550","","<div style=""width:500px;"">
  <p>How would you describe your current emotional state?</p>
  </div>","39","html-slider-response","27","283500","0.0-5.0-3.3","126","1","2025-07-16 19:22:25","1f75c3e559b7213887762d5229550c2b","90.220.178.14","Mozilla/5.0 (Macintosh; Intel Mac OS X 10_15_7) AppleWebKit/537.36 (KHTML, like Gecko) Chrome/137.0.0.0 Safari/537.36","Macintosh","Chrome","137.0.0.0","OS X","10_15_7","https://app.prolific.com/","en-GB,en-US;q=0.9,en;q=0.8","6760580745ecb73102f83f3d","68764874ac79eee8c1d4cb03","6877fbe4185cf5565545691a","2","0","6760580745ecb73102f83f3d","2","0","2025-07-16T19:27:10.318Z","","","","","","","","","","","StressQ","","50","","","","","","","","","","","","","","","","","","","","","","","","","","","","",""
"2532","","<div style=""width:500px;"">
  <p>What best describes how you currently feel?</p>
  </div>","77","html-slider-response","28","286033","0.0-5.0-4.3","126","1","2025-07-16 19:22:25","1f75c3e559b7213887762d5229550c2b","90.220.178.14","Mozilla/5.0 (Macintosh; Intel Mac OS X 10_15_7) AppleWebKit/537.36 (KHTML, like Gecko) Chrome/137.0.0.0 Safari/537.36","Macintosh","Chrome","137.0.0.0","OS X","10_15_7","https://app.prolific.com/","en-GB,en-US;q=0.9,en;q=0.8","6760580745ecb73102f83f3d","68764874ac79eee8c1d4cb03","6877fbe4185cf5565545691a","2","0","6760580745ecb73102f83f3d","2","0","2025-07-16T19:27:12.851Z","","","","","","","","","","","MotivationQ","","50","","","","","","","","","","","","","","","","","","","","","","","","","","","","",""
"","","","","ctl-task-cpt","29","323431","0.0-5.0-0.4","126","1","2025-07-16 19:22:25","1f75c3e559b7213887762d5229550c2b","90.220.178.14","Mozilla/5.0 (Macintosh; Intel Mac OS X 10_15_7) AppleWebKit/537.36 (KHTML, like Gecko) Chrome/137.0.0.0 Safari/537.36","Macintosh","Chrome","137.0.0.0","OS X","10_15_7","https://app.prolific.com/","en-GB,en-US;q=0.9,en;q=0.8","6760580745ecb73102f83f3d","68764874ac79eee8c1d4cb03","6877fbe4185cf5565545691a","2","0","6760580745ecb73102f83f3d","2","0","2025-07-16T19:27:50.250Z","","","","","","","","","","","","","","win-only","0","g1:NW,g2:SE","0.6","5","0","288379.6","881.9","5886.8","34383.6","1","4","8","6","2","8","8","29","21","0.2196969696969697","1267","3000","1390","[""down"",""right""]","{""num_key_presses"":8,""num_perfect"":4,""num_errors"":0,""num_randdir"":4,""num_randdir_good_moves"":3,""num_whilered"":0,""num_whileblue"":0,""num_blue"":1,""num_good_moves"":7}","[812,799.796875,0.2,812,799.796875,124.6,812,799.796875,230.8,812,799.796875,341.2,812,799.796875,448.8,834,809.796875,553.2,1040,1087.796875,655.9,1050,1121.796875,765.2,1066,1121.796875,882.3,1428,1421.796875,989.2,1464,1457.796875,1097.1,1464,1457.796875,1198.1,1464,1457.796875,1300.1,1464,1457.796875,1405,1464,1457.796875,1518.2,1718,1169.796875,1621.6,2100,773.796875,1736.4,2100,773.796875,1840.7,2100,773.796875,1948.1,2100,773.796875,2056.6,2100,773.796875,2162.6,2100,773.796875,2267.6,2100,773.796875,2368.5,2100,773.796875,2473.1,2100,773.796875,2575.7,2100,773.796875,2679.9,2100,773.796875,2781.8,2100,773.796875,2892.2,2100,773.796875,2993.9,2100,773.796875,3100,2100,773.796875,3215.8,2100,773.796875,3317.5,2100,773.796875,3423,2100,773.796875,3528.2,2100,773.796875,3637.8,2100,773.796875,3750.1,2100,773.796875,3879.4,2100,773.796875,3986.5,2100,773.796875,4103.2,2100,773.796875,4218,2100,773.796875,4324.6,2100,773.796875,4455.5,2100,773.796875,4568.7,2100,773.796875,4674.4,2100,773.796875,4777.2,2100,773.796875,4881.6,2100,773.796875,4994.5]","[1428.7,1428.7,1000,0,428.7,""oops"",""right"",""left"",""bad_move"",4823.6,3394.4,2993.9,1429.2,400.5,""smooth"",""right"",""right"",""good_move"",11750.2,6926.3,2749.7,8606.6,393.9,""smooth"",""right"",""right"",""good_move"",15836.8,4086.3,3565.8,11750.5,520.5,""oops"",""right"",""down"",""good_move"",18917.7,3080.6,2629.9,15837.1,450.7,""oops"",""right"",""down"",""good_move"",22384.2,3466.4,3058.7,18917.8,407.7,""oops"",""right"",""right"",""good_move"",25367.1,2982.8,2518.2,22384.4,464.6,""smooth"",""right"",""right"",""good_move"",28348.3,2981,2547.5,25367.3,433.5,""smooth"",""down"",""down"",""good_move""]","",""
"3639","","<div style=""width:500px;"">
  <p>What determined the result of this run?</p>
  </div>","79","html-slider-response","30","327072","0.0-5.0-1.4","126","1","2025-07-16 19:22:25","1f75c3e559b7213887762d5229550c2b","90.220.178.14","Mozilla/5.0 (Macintosh; Intel Mac OS X 10_15_7) AppleWebKit/537.36 (KHTML, like Gecko) Chrome/137.0.0.0 Safari/537.36","Macintosh","Chrome","137.0.0.0","OS X","10_15_7","https://app.prolific.com/","en-GB,en-US;q=0.9,en;q=0.8","6760580745ecb73102f83f3d","68764874ac79eee8c1d4cb03","6877fbe4185cf5565545691a","2","0","6760580745ecb73102f83f3d","2","0","2025-07-16T19:27:53.891Z","","","","","","","","","","","AttribQ","","50","","","","","","","","","","","","","","","","","","","","","","","","","","","","",""
"3071","","<div style=""width:500px;"">
  <p>How much control did you have over the ball?</p>
  </div>","76","html-slider-response","31","330146","0.0-5.0-2.4","126","1","2025-07-16 19:22:25","1f75c3e559b7213887762d5229550c2b","90.220.178.14","Mozilla/5.0 (Macintosh; Intel Mac OS X 10_15_7) AppleWebKit/537.36 (KHTML, like Gecko) Chrome/137.0.0.0 Safari/537.36","Macintosh","Chrome","137.0.0.0","OS X","10_15_7","https://app.prolific.com/","en-GB,en-US;q=0.9,en;q=0.8","6760580745ecb73102f83f3d","68764874ac79eee8c1d4cb03","6877fbe4185cf5565545691a","2","0","6760580745ecb73102f83f3d","2","0","2025-07-16T19:27:56.964Z","","","","","","","","","","","ControlQ","","50","","","","","","","","","","","","","","","","","","","","","","","","","","","","",""
"2885","","<div style=""width:500px;"">
  <p>How would you describe your current emotional state?</p>
  </div>","39","html-slider-response","32","333032","0.0-5.0-3.4","126","1","2025-07-16 19:22:25","1f75c3e559b7213887762d5229550c2b","90.220.178.14","Mozilla/5.0 (Macintosh; Intel Mac OS X 10_15_7) AppleWebKit/537.36 (KHTML, like Gecko) Chrome/137.0.0.0 Safari/537.36","Macintosh","Chrome","137.0.0.0","OS X","10_15_7","https://app.prolific.com/","en-GB,en-US;q=0.9,en;q=0.8","6760580745ecb73102f83f3d","68764874ac79eee8c1d4cb03","6877fbe4185cf5565545691a","2","0","6760580745ecb73102f83f3d","2","0","2025-07-16T19:27:59.851Z","","","","","","","","","","","StressQ","","50","","","","","","","","","","","","","","","","","","","","","","","","","","","","",""
"2297","","<div style=""width:500px;"">
  <p>What best describes how you currently feel?</p>
  </div>","74","html-slider-response","33","335332","0.0-5.0-4.4","126","1","2025-07-16 19:22:25","1f75c3e559b7213887762d5229550c2b","90.220.178.14","Mozilla/5.0 (Macintosh; Intel Mac OS X 10_15_7) AppleWebKit/537.36 (KHTML, like Gecko) Chrome/137.0.0.0 Safari/537.36","Macintosh","Chrome","137.0.0.0","OS X","10_15_7","https://app.prolific.com/","en-GB,en-US;q=0.9,en;q=0.8","6760580745ecb73102f83f3d","68764874ac79eee8c1d4cb03","6877fbe4185cf5565545691a","2","0","6760580745ecb73102f83f3d","2","0","2025-07-16T19:28:02.150Z","","","","","","","","","","","MotivationQ","","50","","","","","","","","","","","","","","","","","","","","","","","","","","","","",""
"","","","","ctl-task-cpt","34","369315","0.0-5.0-0.5","126","1","2025-07-16 19:22:25","1f75c3e559b7213887762d5229550c2b","90.220.178.14","Mozilla/5.0 (Macintosh; Intel Mac OS X 10_15_7) AppleWebKit/537.36 (KHTML, like Gecko) Chrome/137.0.0.0 Safari/537.36","Macintosh","Chrome","137.0.0.0","OS X","10_15_7","https://app.prolific.com/","en-GB,en-US;q=0.9,en;q=0.8","6760580745ecb73102f83f3d","68764874ac79eee8c1d4cb03","6877fbe4185cf5565545691a","2","0","6760580745ecb73102f83f3d","2","0","2025-07-16T19:28:36.134Z","","","","","","","","","","","","","","win-only","3","g1:SW,g2:NE","0.5","6","0","337682.9","1230.8","6264.7","30925.8","1","4","4","6","1","1","1","30","29","0.22727272727272727","1646.2","3000","1905","[""down"",""left""]","{""num_key_presses"":6,""num_perfect"":3,""num_errors"":0,""num_randdir"":3,""num_randdir_good_moves"":2,""num_whilered"":0,""num_whileblue"":0,""num_blue"":2,""num_good_moves"":5}","[800,813.796875,0.1,800,813.796875,103.1,800,813.796875,212.9,800,813.796875,322.2,812,803.796875,426.1,1374,229.796875,529.1,1394,209.796875,630,1394,209.796875,730.7,1212,369.796875,833.7,772,849.796875,949.6,772,849.796875,1060.5,438,1131.796875,1171.6,266,1297.796875,1271.6,266,1297.796875,1377.4,202,1391.796875,1478.7,166,1451.796875,1581.6,166,1451.796875,1698.2,166,1451.796875,1805.4,166,1451.796875,1907.7,-32,1473.796875,2012.1,-120,1467.796875,2123.5,-120,1467.796875,2232.6,-120,1467.796875,2334.4,-120,1467.796875,2440.8,-120,1467.796875,2559.4,-120,1467.796875,2664.1,-120,1467.796875,2778.7,-120,1467.796875,2890.2,-120,1467.796875,2996.7,-120,1467.796875,3101.8,-120,1467.796875,3201.8,-120,1467.796875,3302.4,-120,1467.796875,3408.7,-120,1467.796875,3523.7,-120,1467.796875,3639.8,-120,1467.796875,3753.3,-120,1467.796875,3856.5,-120,1467.796875,3959.4,-120,1467.796875,4066.6,-120,1467.796875,4174.5,-120,1467.796875,4287.6,-120,1467.796875,4402.2,-120,1467.796875,4510,-120,1467.796875,4618,-120,1467.796875,4729.3,-120,1467.796875,4840.9,-120,1467.796875,4945.3]","[1697.8,1697.8,1000,0,697.8,""oops"",""left"",""up"",""bad_move"",4370.7,2672.6,2070.4,1698.1,602.2,""oops"",""left"",""left"",""good_move"",16168.1,11795.9,3644.6,12165.4,358.1,""smooth"",""left"",""left"",""good_move"",18644.7,2476.4,2138.3,16168.3,338.1,""oops"",""down"",""down"",""good_move"",22007.4,3362.4,2913.1,18645,449.3,""smooth"",""down"",""down"",""good_move"",24477.6,2470,2008.8,22007.6,461.2,""smooth"",""down"",""down"",""good_move""]","",""
"1830","","<div style=""width:500px;"">
  <p>What determined the result of this run?</p>
  </div>","75","html-slider-response","35","371148","0.0-5.0-1.5","126","1","2025-07-16 19:22:25","1f75c3e559b7213887762d5229550c2b","90.220.178.14","Mozilla/5.0 (Macintosh; Intel Mac OS X 10_15_7) AppleWebKit/537.36 (KHTML, like Gecko) Chrome/137.0.0.0 Safari/537.36","Macintosh","Chrome","137.0.0.0","OS X","10_15_7","https://app.prolific.com/","en-GB,en-US;q=0.9,en;q=0.8","6760580745ecb73102f83f3d","68764874ac79eee8c1d4cb03","6877fbe4185cf5565545691a","2","0","6760580745ecb73102f83f3d","2","0","2025-07-16T19:28:37.966Z","","","","","","","","","","","AttribQ","","50","","","","","","","","","","","","","","","","","","","","","","","","","","","","",""
"1745","","<div style=""width:500px;"">
  <p>How much control did you have over the ball?</p>
  </div>","79","html-slider-response","36","372895","0.0-5.0-2.5","126","1","2025-07-16 19:22:25","1f75c3e559b7213887762d5229550c2b","90.220.178.14","Mozilla/5.0 (Macintosh; Intel Mac OS X 10_15_7) AppleWebKit/537.36 (KHTML, like Gecko) Chrome/137.0.0.0 Safari/537.36","Macintosh","Chrome","137.0.0.0","OS X","10_15_7","https://app.prolific.com/","en-GB,en-US;q=0.9,en;q=0.8","6760580745ecb73102f83f3d","68764874ac79eee8c1d4cb03","6877fbe4185cf5565545691a","2","0","6760580745ecb73102f83f3d","2","0","2025-07-16T19:28:39.713Z","","","","","","","","","","","ControlQ","","50","","","","","","","","","","","","","","","","","","","","","","","","","","","","",""
"2414","","<div style=""width:500px;"">
  <p>How would you describe your current emotional state?</p>
  </div>","30","html-slider-response","37","375310","0.0-5.0-3.5","126","1","2025-07-16 19:22:25","1f75c3e559b7213887762d5229550c2b","90.220.178.14","Mozilla/5.0 (Macintosh; Intel Mac OS X 10_15_7) AppleWebKit/537.36 (KHTML, like Gecko) Chrome/137.0.0.0 Safari/537.36","Macintosh","Chrome","137.0.0.0","OS X","10_15_7","https://app.prolific.com/","en-GB,en-US;q=0.9,en;q=0.8","6760580745ecb73102f83f3d","68764874ac79eee8c1d4cb03","6877fbe4185cf5565545691a","2","0","6760580745ecb73102f83f3d","2","0","2025-07-16T19:28:42.128Z","","","","","","","","","","","StressQ","","50","","","","","","","","","","","","","","","","","","","","","","","","","","","","",""
"1653","","<div style=""width:500px;"">
  <p>What best describes how you currently feel?</p>
  </div>","72","html-slider-response","38","376964","0.0-5.0-4.5","126","1","2025-07-16 19:22:25","1f75c3e559b7213887762d5229550c2b","90.220.178.14","Mozilla/5.0 (Macintosh; Intel Mac OS X 10_15_7) AppleWebKit/537.36 (KHTML, like Gecko) Chrome/137.0.0.0 Safari/537.36","Macintosh","Chrome","137.0.0.0","OS X","10_15_7","https://app.prolific.com/","en-GB,en-US;q=0.9,en;q=0.8","6760580745ecb73102f83f3d","68764874ac79eee8c1d4cb03","6877fbe4185cf5565545691a","2","0","6760580745ecb73102f83f3d","2","0","2025-07-16T19:28:43.782Z","","","","","","","","","","","MotivationQ","","50","","","","","","","","","","","","","","","","","","","","","","","","","","","","",""
"","","","","ctl-task-cpt","39","410640","0.0-5.0-0.6","126","1","2025-07-16 19:22:25","1f75c3e559b7213887762d5229550c2b","90.220.178.14","Mozilla/5.0 (Macintosh; Intel Mac OS X 10_15_7) AppleWebKit/537.36 (KHTML, like Gecko) Chrome/137.0.0.0 Safari/537.36","Macintosh","Chrome","137.0.0.0","OS X","10_15_7","https://app.prolific.com/","en-GB,en-US;q=0.9,en;q=0.8","6760580745ecb73102f83f3d","68764874ac79eee8c1d4cb03","6877fbe4185cf5565545691a","2","0","6760580745ecb73102f83f3d","2","0","2025-07-16T19:29:17.458Z","","","","","","","","","","","","","","win-only","1","g1:NE,g2:SW","0.4","7","0","379315.9","1262.5","6280.6","30656.2","1","4","8","6","2","8","8","38","30","0.2878787878787879","964.3","3000","1790","[""down"",""left""]","{""num_key_presses"":8,""num_perfect"":4,""num_errors"":0,""num_randdir"":4,""num_randdir_good_moves"":3,""num_whilered"":0,""num_whileblue"":0,""num_blue"":1,""num_good_moves"":7}","[816,809.796875,0.2,816,809.796875,119.2,816,809.796875,235.7,816,809.796875,342.7,816,809.796875,446.7,188,1443.796875,587.1,74,1547.796875,691.9,74,1545.796875,802,78,1515.796875,916.8,78,1515.796875,1024.8,78,1515.796875,1149.7,64,1511.796875,1251.9,-174,1443.796875,1355.2,-200,1395.796875,1471,-200,1395.796875,1581.4,-200,1395.796875,1689.1,-200,1395.796875,1799,-200,1395.796875,1916.5,-200,1395.796875,2027.3,-200,1395.796875,2137.2,-200,1395.796875,2240.6,-200,1395.796875,2346.9,-200,1395.796875,2468.1,-200,1395.796875,2588.5,-200,1395.796875,2694.5,-200,1395.796875,2795.8,-200,1395.796875,2897.8,-200,1395.796875,3000.6,-200,1395.796875,3110.2,-200,1395.796875,3211,-200,1395.796875,3323.9,-200,1395.796875,3433.1,-200,1395.796875,3558.5,-200,1395.796875,3659.8,-200,1395.796875,3764.4,-200,1395.796875,3864.7,-200,1395.796875,3969.6,-200,1395.796875,4081.4,-200,1395.796875,4213.9,-200,1395.796875,4314.4,-200,1395.796875,4417,-200,1395.796875,4520.4,-200,1395.796875,4639.7,-200,1395.796875,4744.9,-200,1395.796875,4846,-200,1395.796875,4971.4]","[1393,1393,1000,0,393,""smooth"",""left"",""left"",""good_move"",4315.4,2922.1,2451.1,1393.3,471,""oops"",""left"",""up"",""bad_move"",7566.3,3250.6,2848.4,4315.7,402.2,""smooth"",""left"",""left"",""good_move"",10394.1,2827.4,2399,7566.7,428.4,""smooth"",""left"",""left"",""good_move"",13160.8,2766.6,2347.2,10394.2,419.4,""oops"",""down"",""down"",""good_move"",18553.9,5392.6,1929,16201.8,423.1,""smooth"",""down"",""down"",""good_move"",21418.2,2863.9,2412.8,18554.3,451.1,""oops"",""down"",""down"",""good_move"",24135.2,2716.9,2346.6,21418.4,370.3,""oops"",""down"",""down"",""good_move""]","",""
"2205","","<div style=""width:500px;"">
  <p>What determined the result of this run?</p>
  </div>","84","html-slider-response","40","412846","0.0-5.0-1.6","126","1","2025-07-16 19:22:25","1f75c3e559b7213887762d5229550c2b","90.220.178.14","Mozilla/5.0 (Macintosh; Intel Mac OS X 10_15_7) AppleWebKit/537.36 (KHTML, like Gecko) Chrome/137.0.0.0 Safari/537.36","Macintosh","Chrome","137.0.0.0","OS X","10_15_7","https://app.prolific.com/","en-GB,en-US;q=0.9,en;q=0.8","6760580745ecb73102f83f3d","68764874ac79eee8c1d4cb03","6877fbe4185cf5565545691a","2","0","6760580745ecb73102f83f3d","2","0","2025-07-16T19:29:19.665Z","","","","","","","","","","","AttribQ","","50","","","","","","","","","","","","","","","","","","","","","","","","","","","","",""
"2753","","<div style=""width:500px;"">
  <p>How much control did you have over the ball?</p>
  </div>","92","html-slider-response","41","415602","0.0-5.0-2.6","126","1","2025-07-16 19:22:25","1f75c3e559b7213887762d5229550c2b","90.220.178.14","Mozilla/5.0 (Macintosh; Intel Mac OS X 10_15_7) AppleWebKit/537.36 (KHTML, like Gecko) Chrome/137.0.0.0 Safari/537.36","Macintosh","Chrome","137.0.0.0","OS X","10_15_7","https://app.prolific.com/","en-GB,en-US;q=0.9,en;q=0.8","6760580745ecb73102f83f3d","68764874ac79eee8c1d4cb03","6877fbe4185cf5565545691a","2","0","6760580745ecb73102f83f3d","2","0","2025-07-16T19:29:22.420Z","","","","","","","","","","","ControlQ","","50","","","","","","","","","","","","","","","","","","","","","","","","","","","","",""
"1975","","<div style=""width:500px;"">
  <p>How would you describe your current emotional state?</p>
  </div>","31","html-slider-response","42","417581","0.0-5.0-3.6","126","1","2025-07-16 19:22:25","1f75c3e559b7213887762d5229550c2b","90.220.178.14","Mozilla/5.0 (Macintosh; Intel Mac OS X 10_15_7) AppleWebKit/537.36 (KHTML, like Gecko) Chrome/137.0.0.0 Safari/537.36","Macintosh","Chrome","137.0.0.0","OS X","10_15_7","https://app.prolific.com/","en-GB,en-US;q=0.9,en;q=0.8","6760580745ecb73102f83f3d","68764874ac79eee8c1d4cb03","6877fbe4185cf5565545691a","2","0","6760580745ecb73102f83f3d","2","0","2025-07-16T19:29:24.399Z","","","","","","","","","","","StressQ","","50","","","","","","","","","","","","","","","","","","","","","","","","","","","","",""
"1747","","<div style=""width:500px;"">
  <p>What best describes how you currently feel?</p>
  </div>","73","html-slider-response","43","419329","0.0-5.0-4.6","126","1","2025-07-16 19:22:25","1f75c3e559b7213887762d5229550c2b","90.220.178.14","Mozilla/5.0 (Macintosh; Intel Mac OS X 10_15_7) AppleWebKit/537.36 (KHTML, like Gecko) Chrome/137.0.0.0 Safari/537.36","Macintosh","Chrome","137.0.0.0","OS X","10_15_7","https://app.prolific.com/","en-GB,en-US;q=0.9,en;q=0.8","6760580745ecb73102f83f3d","68764874ac79eee8c1d4cb03","6877fbe4185cf5565545691a","2","0","6760580745ecb73102f83f3d","2","0","2025-07-16T19:29:26.148Z","","","","","","","","","","","MotivationQ","","50","","","","","","","","","","","","","","","","","","","","","","","","","","","","",""
"","","","","ctl-task-cpt","44","490337","0.0-5.0-0.7","126","1","2025-07-16 19:22:25","1f75c3e559b7213887762d5229550c2b","90.220.178.14","Mozilla/5.0 (Macintosh; Intel Mac OS X 10_15_7) AppleWebKit/537.36 (KHTML, like Gecko) Chrome/137.0.0.0 Safari/537.36","Macintosh","Chrome","137.0.0.0","OS X","10_15_7","https://app.prolific.com/","en-GB,en-US;q=0.9,en;q=0.8","6760580745ecb73102f83f3d","68764874ac79eee8c1d4cb03","6877fbe4185cf5565545691a","2","0","6760580745ecb73102f83f3d","2","0","2025-07-16T19:30:37.155Z","","","","","","","","","","","","","","win-only","2","g1:SE,g2:NW","0.3","8","0","421681.2","1448.4","6462.5","67988.7","1","4","4","6","1","1","1","39","38","0.29545454545454547","2263.4","3000","955","[""down"",""right""]","{""num_key_presses"":14,""num_perfect"":5,""num_errors"":0,""num_randdir"":9,""num_randdir_good_moves"":4,""num_whilered"":0,""num_whileblue"":0,""num_blue"":6,""num_good_moves"":9}","[818,819.796875,0.3,818,819.796875,159.8,818,819.796875,273.9,818,819.796875,375.1,818,819.796875,490.7,604,775.796875,591.8,590,709.796875,741.2,874,965.796875,851.2,868,1043.796875,960.6,542,687.796875,1072.6,412,477.796875,1177,412,477.796875,1279.2,418,475.796875,1386,720,635.796875,1509.5,724,665.796875,1612,770,685.796875,1719,1248,1277.796875,1824.9,1260,1295.796875,1928.5,1314,1343.796875,2041.4,1390,1387.796875,2162.2,1390,1387.796875,2285.9,1390,1387.796875,2397.7,1390,1387.796875,2499.3,1420,1345.796875,2612,1798,969.796875,2712.8,1798,969.796875,2821.9,1798,969.796875,2924.5,1798,969.796875,3026.3,1798,969.796875,3129.5,1798,969.796875,3260.8,1798,969.796875,3369.3,1798,969.796875,3486.7,1798,969.796875,3599.7,1798,969.796875,3728,1798,969.796875,3881.5,1798,969.796875,3999.6,1798,969.796875,4102.1,1798,969.796875,4203.6,1798,969.796875,4305.9,1798,969.796875,4409.3,1798,969.796875,4517.9,1798,969.796875,4631.5,1798,969.796875,4735.2,1798,969.796875,4836.9,1798,969.796875,4946.8]","[11687.9,11687.9,2599.2,8588.9,499.8,""smooth"",""right"",""right"",""good_move"",14821.7,3133.5,2664.2,11688.2,469.3,""smooth"",""right"",""right"",""good_move"",24463.3,9641.4,2442.6,21571.8,448.9,""oops"",""down"",""left"",""bad_move"",27549.6,3085.2,2471.1,24464.4,614.1,""oops"",""down"",""up"",""bad_move"",30567.7,3017.7,2399.8,27550,617.9,""oops"",""right"",""left"",""bad_move"",34267.8,3699.9,3216.3,30567.9,483.6,""oops"",""down"",""up"",""bad_move"",37302,3033.9,2563.3,34268.2,470.6,""oops"",""right"",""right"",""good_move"",39879.1,2576.5,2129.4,37302.6,447.1,""oops"",""right"",""right"",""good_move"",42551.6,2671.9,2315.3,39879.7,356.6,""smooth"",""down"",""down"",""good_move"",45782,3230.1,2826,42551.9,404.1,""oops"",""down"",""down"",""good_move"",53027.4,7245.3,3026.3,49534,467.1,""smooth"",""down"",""down"",""good_move"",55687.8,2660.1,2181.4,53027.7,478.7,""oops"",""down"",""left"",""bad_move"",58898,3209.9,2790.7,55688.1,419.2,""oops"",""down"",""down"",""good_move"",61237.5,2339.3,1938.1,58898.2,401.2,""smooth"",""right"",""right"",""good_move""]","",""
"2106","","<div style=""width:500px;"">
  <p>What determined the result of this run?</p>
  </div>","37","html-slider-response","45","492445","0.0-5.0-1.7","126","1","2025-07-16 19:22:25","1f75c3e559b7213887762d5229550c2b","90.220.178.14","Mozilla/5.0 (Macintosh; Intel Mac OS X 10_15_7) AppleWebKit/537.36 (KHTML, like Gecko) Chrome/137.0.0.0 Safari/537.36","Macintosh","Chrome","137.0.0.0","OS X","10_15_7","https://app.prolific.com/","en-GB,en-US;q=0.9,en;q=0.8","6760580745ecb73102f83f3d","68764874ac79eee8c1d4cb03","6877fbe4185cf5565545691a","2","0","6760580745ecb73102f83f3d","2","0","2025-07-16T19:30:39.263Z","","","","","","","","","","","AttribQ","","50","","","","","","","","","","","","","","","","","","","","","","","","","","","","",""
"6905","","<div style=""width:500px;"">
  <p>How much control did you have over the ball?</p>
  </div>","38","html-slider-response","46","499352","0.0-5.0-2.7","126","1","2025-07-16 19:22:25","1f75c3e559b7213887762d5229550c2b","90.220.178.14","Mozilla/5.0 (Macintosh; Intel Mac OS X 10_15_7) AppleWebKit/537.36 (KHTML, like Gecko) Chrome/137.0.0.0 Safari/537.36","Macintosh","Chrome","137.0.0.0","OS X","10_15_7","https://app.prolific.com/","en-GB,en-US;q=0.9,en;q=0.8","6760580745ecb73102f83f3d","68764874ac79eee8c1d4cb03","6877fbe4185cf5565545691a","2","0","6760580745ecb73102f83f3d","2","0","2025-07-16T19:30:46.170Z","","","","","","","","","","","ControlQ","","50","","","","","","","","","","","","","","","","","","","","","","","","","","","","",""
"3031","","<div style=""width:500px;"">
  <p>How would you describe your current emotional state?</p>
  </div>","30","html-slider-response","47","502385","0.0-5.0-3.7","126","1","2025-07-16 19:22:25","1f75c3e559b7213887762d5229550c2b","90.220.178.14","Mozilla/5.0 (Macintosh; Intel Mac OS X 10_15_7) AppleWebKit/537.36 (KHTML, like Gecko) Chrome/137.0.0.0 Safari/537.36","Macintosh","Chrome","137.0.0.0","OS X","10_15_7","https://app.prolific.com/","en-GB,en-US;q=0.9,en;q=0.8","6760580745ecb73102f83f3d","68764874ac79eee8c1d4cb03","6877fbe4185cf5565545691a","2","0","6760580745ecb73102f83f3d","2","0","2025-07-16T19:30:49.204Z","","","","","","","","","","","StressQ","","50","","","","","","","","","","","","","","","","","","","","","","","","","","","","",""
"3246","","<div style=""width:500px;"">
  <p>What best describes how you currently feel?</p>
  </div>","60","html-slider-response","48","505635","0.0-5.0-4.7","126","1","2025-07-16 19:22:25","1f75c3e559b7213887762d5229550c2b","90.220.178.14","Mozilla/5.0 (Macintosh; Intel Mac OS X 10_15_7) AppleWebKit/537.36 (KHTML, like Gecko) Chrome/137.0.0.0 Safari/537.36","Macintosh","Chrome","137.0.0.0","OS X","10_15_7","https://app.prolific.com/","en-GB,en-US;q=0.9,en;q=0.8","6760580745ecb73102f83f3d","68764874ac79eee8c1d4cb03","6877fbe4185cf5565545691a","2","0","6760580745ecb73102f83f3d","2","0","2025-07-16T19:30:52.453Z","","","","","","","","","","","MotivationQ","","50","","","","","","","","","","","","","","","","","","","","","","","","","","","","",""
"","","","","ctl-task-cpt","49","596611","0.0-5.0-0.8","126","1","2025-07-16 19:22:25","1f75c3e559b7213887762d5229550c2b","90.220.178.14","Mozilla/5.0 (Macintosh; Intel Mac OS X 10_15_7) AppleWebKit/537.36 (KHTML, like Gecko) Chrome/137.0.0.0 Safari/537.36","Macintosh","Chrome","137.0.0.0","OS X","10_15_7","https://app.prolific.com/","en-GB,en-US;q=0.9,en;q=0.8","6760580745ecb73102f83f3d","68764874ac79eee8c1d4cb03","6877fbe4185cf5565545691a","2","0","6760580745ecb73102f83f3d","2","0","2025-07-16T19:32:23.429Z","","","","","","","","","","","","","","win-only","2","g1:SE,g2:NW","0.2","9","0","507992.6","796.2","5806.3","87956.7","1","4","8","6","2","-8","-8","31","39","0.23484848484848486","988.9","3000","-855","[""left"",""up""]","{""num_key_presses"":23,""num_perfect"":5,""num_errors"":0,""num_randdir"":18,""num_randdir_good_moves"":5,""num_whilered"":0,""num_whileblue"":0,""num_blue"":2,""num_good_moves"":10}","[822,817.796875,0.3,822,817.796875,101.7,822,817.796875,225.2,822,817.796875,331.7,550,649.796875,432.6,504,533.796875,554,456,507.796875,657.7,174,179.796875,769.1,162,129.796875,890.6,162,129.796875,1000.1,162,129.796875,1103.5,144,199.796875,1204.4,86,417.796875,1319,86,417.796875,1433.7,86,417.796875,1553,86,417.796875,1660.3,86,417.796875,1803.9,86,417.796875,1925.9,86,417.796875,2043,86,417.796875,2149.3,86,417.796875,2252.4,86,417.796875,2354.7,86,417.796875,2469.5,86,417.796875,2587.3,86,417.796875,2704.9,86,417.796875,2805.6,86,417.796875,2913.2,86,417.796875,3055.7,86,417.796875,3172.3,86,417.796875,3291,86,417.796875,3392.9,86,417.796875,3495.6,86,417.796875,3598.5,86,417.796875,3707.5,86,417.796875,3814.4,86,417.796875,3934.9,86,417.796875,4040.2,86,417.796875,4148.3,86,417.796875,4251.1,86,417.796875,4357.5,86,417.796875,4468.9,86,417.796875,4577.5,86,417.796875,4707.4,86,417.796875,4814.2,86,417.796875,4923.2]","[1371.5,1371.5,1000,0,371.5,""oops"",""up"",""down"",""bad_move"",5111.2,3739.4,3307.7,1371.8,431.7,""smooth"",""up"",""up"",""good_move"",8359.2,3247.7,1960.9,5111.5,1286.8,""oops"",""up"",""down"",""bad_move"",12137.8,3778.4,3213.7,8359.4,564.7,""oops"",""up"",""down"",""bad_move"",14593.1,2455.1,1833.9,12138,621.2,""oops"",""up"",""right"",""bad_move"",17715.9,3122.4,2757,14593.5,365.4,""oops"",""up"",""left"",""good_move"",20992,3275.9,2513.9,17716.1,762,""oops"",""up"",""up"",""good_move"",24075.8,3083.2,2343.5,20992.6,739.8,""smooth"",""up"",""up"",""good_move"",31374.3,7298.3,3048.1,27834.7,491.5,""oops"",""up"",""left"",""good_move"",37784.4,6410,2045,35247.3,492.1,""oops"",""up"",""left"",""good_move"",41056.6,3272.1,2247.5,37784.5,1024.6,""oops"",""up"",""left"",""good_move"",44294.5,3237.7,2840.9,41056.8,396.8,""oops"",""up"",""right"",""bad_move"",46809.4,2514.6,2132.5,44294.8,382.1,""oops"",""up"",""right"",""bad_move"",49563.8,2754.2,2350.2,46809.6,404,""oops"",""up"",""right"",""bad_move"",53095.4,3531.2,3170.5,49564.2,360.7,""oops"",""up"",""down"",""bad_move"",55936.9,2841.2,2456.8,53095.7,384.4,""oops"",""up"",""down"",""bad_move"",59109.8,3172.7,2807.4,55937.1,365.3,""oops"",""up"",""right"",""bad_move"",62592.8,3482.8,2990,59110,492.8,""smooth"",""up"",""up"",""good_move"",65824.5,3231.5,2330.9,62593,900.6,""oops"",""up"",""right"",""bad_move"",68698.4,2873.7,2431.7,65824.7,442,""smooth"",""up"",""up"",""good_move"",72099.1,3400.5,2944.1,68698.6,456.4,""oops"",""up"",""down"",""bad_move"",75097.1,2997.6,2596.4,72099.5,401.2,""oops"",""up"",""down"",""bad_move"",78481,3383.7,2986.9,75097.3,396.8,""smooth"",""up"",""up"",""good_move""]","",""
"5228","","<div style=""width:500px;"">
  <p>What determined the result of this run?</p>
  </div>","0","html-slider-response","50","601840","0.0-5.0-1.8","126","1","2025-07-16 19:22:25","1f75c3e559b7213887762d5229550c2b","90.220.178.14","Mozilla/5.0 (Macintosh; Intel Mac OS X 10_15_7) AppleWebKit/537.36 (KHTML, like Gecko) Chrome/137.0.0.0 Safari/537.36","Macintosh","Chrome","137.0.0.0","OS X","10_15_7","https://app.prolific.com/","en-GB,en-US;q=0.9,en;q=0.8","6760580745ecb73102f83f3d","68764874ac79eee8c1d4cb03","6877fbe4185cf5565545691a","2","0","6760580745ecb73102f83f3d","2","0","2025-07-16T19:32:28.659Z","","","","","","","","","","","AttribQ","","50","","","","","","","","","","","","","","","","","","","","","","","","","","","","",""
"3069","","<div style=""width:500px;"">
  <p>How much control did you have over the ball?</p>
  </div>","1","html-slider-response","51","604911","0.0-5.0-2.8","126","1","2025-07-16 19:22:25","1f75c3e559b7213887762d5229550c2b","90.220.178.14","Mozilla/5.0 (Macintosh; Intel Mac OS X 10_15_7) AppleWebKit/537.36 (KHTML, like Gecko) Chrome/137.0.0.0 Safari/537.36","Macintosh","Chrome","137.0.0.0","OS X","10_15_7","https://app.prolific.com/","en-GB,en-US;q=0.9,en;q=0.8","6760580745ecb73102f83f3d","68764874ac79eee8c1d4cb03","6877fbe4185cf5565545691a","2","0","6760580745ecb73102f83f3d","2","0","2025-07-16T19:32:31.730Z","","","","","","","","","","","ControlQ","","50","","","","","","","","","","","","","","","","","","","","","","","","","","","","",""
"2990","","<div style=""width:500px;"">
  <p>How would you describe your current emotional state?</p>
  </div>","42","html-slider-response","52","607904","0.0-5.0-3.8","126","1","2025-07-16 19:22:25","1f75c3e559b7213887762d5229550c2b","90.220.178.14","Mozilla/5.0 (Macintosh; Intel Mac OS X 10_15_7) AppleWebKit/537.36 (KHTML, like Gecko) Chrome/137.0.0.0 Safari/537.36","Macintosh","Chrome","137.0.0.0","OS X","10_15_7","https://app.prolific.com/","en-GB,en-US;q=0.9,en;q=0.8","6760580745ecb73102f83f3d","68764874ac79eee8c1d4cb03","6877fbe4185cf5565545691a","2","0","6760580745ecb73102f83f3d","2","0","2025-07-16T19:32:34.722Z","","","","","","","","","","","StressQ","","50","","","","","","","","","","","","","","","","","","","","","","","","","","","","",""
"2838","","<div style=""width:500px;"">
  <p>What best describes how you currently feel?</p>
  </div>","70","html-slider-response","53","610744","0.0-5.0-4.8","126","1","2025-07-16 19:22:25","1f75c3e559b7213887762d5229550c2b","90.220.178.14","Mozilla/5.0 (Macintosh; Intel Mac OS X 10_15_7) AppleWebKit/537.36 (KHTML, like Gecko) Chrome/137.0.0.0 Safari/537.36","Macintosh","Chrome","137.0.0.0","OS X","10_15_7","https://app.prolific.com/","en-GB,en-US;q=0.9,en;q=0.8","6760580745ecb73102f83f3d","68764874ac79eee8c1d4cb03","6877fbe4185cf5565545691a","2","0","6760580745ecb73102f83f3d","2","0","2025-07-16T19:32:37.563Z","","","","","","","","","","","MotivationQ","","50","","","","","","","","","","","","","","","","","","","","","","","","","","","","",""
"","","","","ctl-task-cpt","54","672615","0.0-5.0-0.9","126","1","2025-07-16 19:22:25","1f75c3e559b7213887762d5229550c2b","90.220.178.14","Mozilla/5.0 (Macintosh; Intel Mac OS X 10_15_7) AppleWebKit/537.36 (KHTML, like Gecko) Chrome/137.0.0.0 Safari/537.36","Macintosh","Chrome","137.0.0.0","OS X","10_15_7","https://app.prolific.com/","en-GB,en-US;q=0.9,en;q=0.8","6760580745ecb73102f83f3d","68764874ac79eee8c1d4cb03","6877fbe4185cf5565545691a","2","0","6760580745ecb73102f83f3d","2","0","2025-07-16T19:33:39.433Z","","","","","","","","","","","","","","win-only","1","g1:NE,g2:SW","0.4","10","0","613106.5","1291.2","6302.6","58836.7","1","4","4","6","1","1","1","32","31","0.24242424242424243","1865.3","3000","1940","[""up"",""right""]","{""num_key_presses"":8,""num_perfect"":4,""num_errors"":0,""num_randdir"":4,""num_randdir_good_moves"":2,""num_whilered"":0,""num_whileblue"":0,""num_blue"":8,""num_good_moves"":6}","[796,829.796875,0.2,796,829.796875,120.2,796,829.796875,227.2,796,829.796875,333.9,796,829.796875,436.6,616,1029.796875,549.5,580,1085.796875,668.1,1534,109.796875,796.3,1636,-6.203125,898.3,1636,-6.203125,1001.9,1540,95.796875,1109.4,1384,257.796875,1212.8,1384,257.796875,1319.8,1272,333.796875,1435,1296,277.796875,1546.8,1472,147.796875,1656.6,1472,147.796875,1769.1,1594,49.796875,1890.9,1594,49.796875,1992.9,1594,49.796875,2099.8,1698,-6.203125,2200.1,2050,-232.203125,2387.2,2050,-232.203125,2522.1,2050,-232.203125,2649.2,2050,-232.203125,2753,2050,-232.203125,2853.7,2050,-232.203125,3016.6,2050,-232.203125,3120.7,2050,-232.203125,3224.7,2050,-232.203125,3346.7,2050,-232.203125,3447.6,2050,-232.203125,3554.9,2050,-232.203125,3663.5,2050,-232.203125,3797.4,2050,-232.203125,3922.8,2050,-232.203125,4029,2050,-232.203125,4135.9,1914,11.796875,4239.8,1940,95.796875,4481.3,1940,95.796875,4599,1940,95.796875,4705.3,1940,95.796875,4808.5,1940,95.796875,4909.5]","[8458.8,8458.8,2178.4,5787.4,493,""smooth"",""up"",""up"",""good_move"",11843,3383.9,2602.2,8459.1,781.7,""oops"",""up"",""left"",""bad_move"",25684.2,13840.9,2046.3,23143.5,494.4,""oops"",""up"",""right"",""good_move"",28994.3,3309.6,2846.9,25684.7,462.7,""smooth"",""up"",""up"",""good_move"",32412.5,3417.9,2359.9,28994.6,1058,""oops"",""right"",""left"",""bad_move"",40132.3,7718.9,3111.4,36549.8,471.1,""smooth"",""right"",""right"",""good_move"",49660.1,9527.2,2609.2,46629.1,421.8,""smooth"",""right"",""right"",""good_move"",52146.2,2486,1860.3,49660.2,625.7,""oops"",""right"",""right"",""good_move""]","",""
"9734","","<div style=""width:500px;"">
  <p>What determined the result of this run?</p>
  </div>","73","html-slider-response","55","682351","0.0-5.0-1.9","126","1","2025-07-16 19:22:25","1f75c3e559b7213887762d5229550c2b","90.220.178.14","Mozilla/5.0 (Macintosh; Intel Mac OS X 10_15_7) AppleWebKit/537.36 (KHTML, like Gecko) Chrome/137.0.0.0 Safari/537.36","Macintosh","Chrome","137.0.0.0","OS X","10_15_7","https://app.prolific.com/","en-GB,en-US;q=0.9,en;q=0.8","6760580745ecb73102f83f3d","68764874ac79eee8c1d4cb03","6877fbe4185cf5565545691a","2","0","6760580745ecb73102f83f3d","2","0","2025-07-16T19:33:49.169Z","","","","","","","","","","","AttribQ","","50","","","","","","","","","","","","","","","","","","","","","","","","","","","","",""
"4028","","<div style=""width:500px;"">
  <p>How much control did you have over the ball?</p>
  </div>","65","html-slider-response","56","686381","0.0-5.0-2.9","126","1","2025-07-16 19:22:25","1f75c3e559b7213887762d5229550c2b","90.220.178.14","Mozilla/5.0 (Macintosh; Intel Mac OS X 10_15_7) AppleWebKit/537.36 (KHTML, like Gecko) Chrome/137.0.0.0 Safari/537.36","Macintosh","Chrome","137.0.0.0","OS X","10_15_7","https://app.prolific.com/","en-GB,en-US;q=0.9,en;q=0.8","6760580745ecb73102f83f3d","68764874ac79eee8c1d4cb03","6877fbe4185cf5565545691a","2","0","6760580745ecb73102f83f3d","2","0","2025-07-16T19:33:53.199Z","","","","","","","","","","","ControlQ","","50","","","","","","","","","","","","","","","","","","","","","","","","","","","","",""
"3265","","<div style=""width:500px;"">
  <p>How would you describe your current emotional state?</p>
  </div>","39","html-slider-response","57","689647","0.0-5.0-3.9","126","1","2025-07-16 19:22:25","1f75c3e559b7213887762d5229550c2b","90.220.178.14","Mozilla/5.0 (Macintosh; Intel Mac OS X 10_15_7) AppleWebKit/537.36 (KHTML, like Gecko) Chrome/137.0.0.0 Safari/537.36","Macintosh","Chrome","137.0.0.0","OS X","10_15_7","https://app.prolific.com/","en-GB,en-US;q=0.9,en;q=0.8","6760580745ecb73102f83f3d","68764874ac79eee8c1d4cb03","6877fbe4185cf5565545691a","2","0","6760580745ecb73102f83f3d","2","0","2025-07-16T19:33:56.465Z","","","","","","","","","","","StressQ","","50","","","","","","","","","","","","","","","","","","","","","","","","","","","","",""
"2064","","<div style=""width:500px;"">
  <p>What best describes how you currently feel?</p>
  </div>","67","html-slider-response","58","691712","0.0-5.0-4.9","126","1","2025-07-16 19:22:25","1f75c3e559b7213887762d5229550c2b","90.220.178.14","Mozilla/5.0 (Macintosh; Intel Mac OS X 10_15_7) AppleWebKit/537.36 (KHTML, like Gecko) Chrome/137.0.0.0 Safari/537.36","Macintosh","Chrome","137.0.0.0","OS X","10_15_7","https://app.prolific.com/","en-GB,en-US;q=0.9,en;q=0.8","6760580745ecb73102f83f3d","68764874ac79eee8c1d4cb03","6877fbe4185cf5565545691a","2","0","6760580745ecb73102f83f3d","2","0","2025-07-16T19:33:58.530Z","","","","","","","","","","","MotivationQ","","50","","","","","","","","","","","","","","","","","","","","","","","","","","","","",""
"","","","","ctl-task-cpt","59","794946","0.0-5.0-0.10","126","1","2025-07-16 19:22:25","1f75c3e559b7213887762d5229550c2b","90.220.178.14","Mozilla/5.0 (Macintosh; Intel Mac OS X 10_15_7) AppleWebKit/537.36 (KHTML, like Gecko) Chrome/137.0.0.0 Safari/537.36","Macintosh","Chrome","137.0.0.0","OS X","10_15_7","https://app.prolific.com/","en-GB,en-US;q=0.9,en;q=0.8","6760580745ecb73102f83f3d","68764874ac79eee8c1d4cb03","6877fbe4185cf5565545691a","2","0","6760580745ecb73102f83f3d","2","0","2025-07-16T19:35:41.764Z","","","","","","","","","","","","","","win-only","2","g1:SE,g2:NW","0.5","11","0","694075.2","1559.6","6580.6","100200.3","1","4","8","6","2","8","8","40","32","0.30303030303030304","1429.3","3000","570","[""left"",""up""]","{""num_key_presses"":22,""num_perfect"":12,""num_errors"":0,""num_randdir"":10,""num_randdir_good_moves"":3,""num_whilered"":0,""num_whileblue"":0,""num_blue"":5,""num_good_moves"":14}","[808,807.796875,0.2,808,807.796875,107.6,808,807.796875,210.8,808,807.796875,314.3,760,741.796875,436.3,822,755.796875,555.2,532,653.796875,677.7,446,457.796875,791.9,446,457.796875,897.2,202,313.796875,1098.5,200,255.796875,1225.9,184,195.796875,1335,176,179.796875,1440.6,176,177.796875,1565.7,176,177.796875,1692.3,-168,307.796875,1818.6,-242,335.796875,1935.7,-242,335.796875,2045.6,-242,335.796875,2156.2,-242,335.796875,2265.6,-242,335.796875,2367.5,-242,335.796875,2486.4,-242,335.796875,2590.7,-242,335.796875,2692.8,-242,335.796875,2803.4,-242,335.796875,2930.1,-242,335.796875,3045.4,-242,335.796875,3176.9,-242,335.796875,3278.7,-242,335.796875,3379.9,-242,335.796875,3482.2,-242,335.796875,3605.5,-242,335.796875,3726.5,-242,335.796875,3836.8,-242,335.796875,3943.2,-242,335.796875,4110.5,-242,335.796875,4218.6,-242,335.796875,4336.2,-242,335.796875,4457.2,-242,335.796875,4564,-242,335.796875,4748.1,-242,335.796875,4865.8,-242,335.796875,4993.5]","[5162.2,5162.2,2639,2005.9,517.3,""smooth"",""up"",""up"",""good_move"",8793.2,3630.7,1920,5162.5,1710.7,""smooth"",""up"",""up"",""good_move"",12509.2,3715.8,2523.7,8793.4,1192.1,""oops"",""up"",""down"",""bad_move"",15322.8,2813.3,2412.5,12509.5,400.8,""oops"",""up"",""right"",""bad_move"",22106.6,6782.9,2576.2,19122.7,407.7,""oops"",""up"",""left"",""good_move"",26031.9,3925.1,2216.8,22106.8,1708.3,""smooth"",""up"",""up"",""good_move"",29780,3747.8,3296,26032.2,451.8,""smooth"",""up"",""up"",""good_move"",33548.7,3768.5,3110,29780.2,658.5,""smooth"",""left"",""left"",""good_move"",37458.6,3909.5,2624.3,33549.1,1285.2,""oops"",""left"",""right"",""bad_move"",40466.4,3007.6,2526.4,37458.8,481.2,""oops"",""left"",""right"",""bad_move"",44275.3,3808.3,3327.8,40467,480.5,""smooth"",""right"",""right"",""bad_move"",47284.3,3008.6,2514.7,44275.7,493.9,""oops"",""left"",""down"",""bad_move"",53315.8,6030.9,2515.8,50370.6,429.4,""oops"",""left"",""down"",""bad_move"",56874.1,3558.2,3091.9,53315.9,466.3,""smooth"",""left"",""left"",""good_move"",60658.1,3783.7,1660.5,56874.4,2123.2,""oops"",""left"",""down"",""bad_move"",63852,3193.3,2785.5,60658.7,407.8,""smooth"",""left"",""left"",""good_move"",71341.5,7489.3,2587.4,68260.8,493.3,""oops"",""left"",""up"",""good_move"",74924.3,3582.5,2333.1,71341.8,1249.4,""smooth"",""left"",""left"",""good_move"",82548.2,7623.7,2858.7,79104.3,585.2,""smooth"",""up"",""up"",""good_move"",86018.5,3470.1,2044.4,82548.4,1425.7,""oops"",""up"",""up"",""good_move"",89627.9,3609.2,2296.1,86018.7,1313.1,""smooth"",""left"",""left"",""good_move"",93226.5,3598.3,2266,89628.2,1332.3,""smooth"",""left"",""left"",""good_move""]","",""
"3205","","<div style=""width:500px;"">
  <p>What determined the result of this run?</p>
  </div>","23","html-slider-response","60","798153","0.0-5.0-1.10","126","1","2025-07-16 19:22:25","1f75c3e559b7213887762d5229550c2b","90.220.178.14","Mozilla/5.0 (Macintosh; Intel Mac OS X 10_15_7) AppleWebKit/537.36 (KHTML, like Gecko) Chrome/137.0.0.0 Safari/537.36","Macintosh","Chrome","137.0.0.0","OS X","10_15_7","https://app.prolific.com/","en-GB,en-US;q=0.9,en;q=0.8","6760580745ecb73102f83f3d","68764874ac79eee8c1d4cb03","6877fbe4185cf5565545691a","2","0","6760580745ecb73102f83f3d","2","0","2025-07-16T19:35:44.971Z","","","","","","","","","","","AttribQ","","50","","","","","","","","","","","","","","","","","","","","","","","","","","","","",""
"2393","","<div style=""width:500px;"">
  <p>How much control did you have over the ball?</p>
  </div>","29","html-slider-response","61","800548","0.0-5.0-2.10","126","1","2025-07-16 19:22:25","1f75c3e559b7213887762d5229550c2b","90.220.178.14","Mozilla/5.0 (Macintosh; Intel Mac OS X 10_15_7) AppleWebKit/537.36 (KHTML, like Gecko) Chrome/137.0.0.0 Safari/537.36","Macintosh","Chrome","137.0.0.0","OS X","10_15_7","https://app.prolific.com/","en-GB,en-US;q=0.9,en;q=0.8","6760580745ecb73102f83f3d","68764874ac79eee8c1d4cb03","6877fbe4185cf5565545691a","2","0","6760580745ecb73102f83f3d","2","0","2025-07-16T19:35:47.366Z","","","","","","","","","","","ControlQ","","50","","","","","","","","","","","","","","","","","","","","","","","","","","","","",""
"2201","","<div style=""width:500px;"">
  <p>How would you describe your current emotional state?</p>
  </div>","62","html-slider-response","62","802749","0.0-5.0-3.10","126","1","2025-07-16 19:22:25","1f75c3e559b7213887762d5229550c2b","90.220.178.14","Mozilla/5.0 (Macintosh; Intel Mac OS X 10_15_7) AppleWebKit/537.36 (KHTML, like Gecko) Chrome/137.0.0.0 Safari/537.36","Macintosh","Chrome","137.0.0.0","OS X","10_15_7","https://app.prolific.com/","en-GB,en-US;q=0.9,en;q=0.8","6760580745ecb73102f83f3d","68764874ac79eee8c1d4cb03","6877fbe4185cf5565545691a","2","0","6760580745ecb73102f83f3d","2","0","2025-07-16T19:35:49.567Z","","","","","","","","","","","StressQ","","50","","","","","","","","","","","","","","","","","","","","","","","","","","","","",""
"2083","","<div style=""width:500px;"">
  <p>What best describes how you currently feel?</p>
  </div>","61","html-slider-response","63","804834","0.0-5.0-4.10","126","1","2025-07-16 19:22:25","1f75c3e559b7213887762d5229550c2b","90.220.178.14","Mozilla/5.0 (Macintosh; Intel Mac OS X 10_15_7) AppleWebKit/537.36 (KHTML, like Gecko) Chrome/137.0.0.0 Safari/537.36","Macintosh","Chrome","137.0.0.0","OS X","10_15_7","https://app.prolific.com/","en-GB,en-US;q=0.9,en;q=0.8","6760580745ecb73102f83f3d","68764874ac79eee8c1d4cb03","6877fbe4185cf5565545691a","2","0","6760580745ecb73102f83f3d","2","0","2025-07-16T19:35:51.652Z","","","","","","","","","","","MotivationQ","","50","","","","","","","","","","","","","","","","","","","","","","","","","","","","",""
"","","","","ctl-task-cpt","64","833590","0.0-5.0-0.11","126","1","2025-07-16 19:22:25","1f75c3e559b7213887762d5229550c2b","90.220.178.14","Mozilla/5.0 (Macintosh; Intel Mac OS X 10_15_7) AppleWebKit/537.36 (KHTML, like Gecko) Chrome/137.0.0.0 Safari/537.36","Macintosh","Chrome","137.0.0.0","OS X","10_15_7","https://app.prolific.com/","en-GB,en-US;q=0.9,en;q=0.8","6760580745ecb73102f83f3d","68764874ac79eee8c1d4cb03","6877fbe4185cf5565545691a","2","0","6760580745ecb73102f83f3d","2","0","2025-07-16T19:36:20.408Z","","","","","","","","","","","","","","win-only","1","g1:NE,g2:SW","0.6","12","0","807200.2","1115.8","6117","25734.6","1","4","4","6","1","1","1","41","40","0.3106060606060606","1218.3","3000","2600","[""up"",""right""]","{""num_key_presses"":4,""num_perfect"":3,""num_errors"":0,""num_randdir"":1,""num_randdir_good_moves"":1,""num_whilered"":0,""num_whileblue"":0,""num_blue"":2,""num_good_moves"":4}","[826,793.796875,0.7,826,793.796875,111,826,793.796875,231.4,826,793.796875,343.7,826,793.796875,453.5,802,815.796875,557.4,942,609.796875,668.1,1270,361.796875,774.1,1270,361.796875,886.7,1350,285.796875,1003.5,1532,139.796875,1104,1550,127.796875,1208.7,1550,127.796875,1330.5,1550,127.796875,1453,1552,127.796875,1553.7,1760,73.796875,1686.2,1842,35.796875,1796.7,1842,35.796875,1901.2,1842,35.796875,2006.4,1842,35.796875,2151.7,1842,35.796875,2275.5,1842,35.796875,2379.1,1842,35.796875,2483.9,1842,35.796875,2637.1,1842,35.796875,2749.9,1842,35.796875,2858,1842,35.796875,2990.6,1842,35.796875,3105.5,1842,35.796875,3214.1,1842,35.796875,3342.1,1842,35.796875,3465.7,1842,35.796875,3565.8,1842,35.796875,3669.1,1842,35.796875,3770,1842,35.796875,3884.3,1842,35.796875,3988.8,1842,35.796875,4095.5,1842,35.796875,4215.9,1842,35.796875,4322.3,1842,35.796875,4429.9,1842,35.796875,4553.9,1842,35.796875,4680.8,1842,35.796875,4782.5,1842,35.796875,4892.2]","[1473.5,1473.5,1000,0,473.5,""smooth"",""up"",""up"",""good_move"",5549.4,4075.3,2377,1474.1,1698.3,""smooth"",""up"",""up"",""good_move"",9766.3,4216.8,2546.3,5549.5,1670.5,""smooth"",""right"",""right"",""good_move"",19253.6,9487.1,2654.3,16197.5,401.8,""oops"",""right"",""right"",""good_move""]","",""
"2870","","<div style=""width:500px;"">
  <p>What determined the result of this run?</p>
  </div>","89","html-slider-response","65","836463","0.0-5.0-1.11","126","1","2025-07-16 19:22:25","1f75c3e559b7213887762d5229550c2b","90.220.178.14","Mozilla/5.0 (Macintosh; Intel Mac OS X 10_15_7) AppleWebKit/537.36 (KHTML, like Gecko) Chrome/137.0.0.0 Safari/537.36","Macintosh","Chrome","137.0.0.0","OS X","10_15_7","https://app.prolific.com/","en-GB,en-US;q=0.9,en;q=0.8","6760580745ecb73102f83f3d","68764874ac79eee8c1d4cb03","6877fbe4185cf5565545691a","2","0","6760580745ecb73102f83f3d","2","0","2025-07-16T19:36:23.281Z","","","","","","","","","","","AttribQ","","50","","","","","","","","","","","","","","","","","","","","","","","","","","","","",""
"4299","","<div style=""width:500px;"">
  <p>How much control did you have over the ball?</p>
  </div>","68","html-slider-response","66","840762","0.0-5.0-2.11","126","1","2025-07-16 19:22:25","1f75c3e559b7213887762d5229550c2b","90.220.178.14","Mozilla/5.0 (Macintosh; Intel Mac OS X 10_15_7) AppleWebKit/537.36 (KHTML, like Gecko) Chrome/137.0.0.0 Safari/537.36","Macintosh","Chrome","137.0.0.0","OS X","10_15_7","https://app.prolific.com/","en-GB,en-US;q=0.9,en;q=0.8","6760580745ecb73102f83f3d","68764874ac79eee8c1d4cb03","6877fbe4185cf5565545691a","2","0","6760580745ecb73102f83f3d","2","0","2025-07-16T19:36:27.580Z","","","","","","","","","","","ControlQ","","50","","","","","","","","","","","","","","","","","","","","","","","","","","","","",""
"4175","","<div style=""width:500px;"">
  <p>How would you describe your current emotional state?</p>
  </div>","35","html-slider-response","67","844937","0.0-5.0-3.11","126","1","2025-07-16 19:22:25","1f75c3e559b7213887762d5229550c2b","90.220.178.14","Mozilla/5.0 (Macintosh; Intel Mac OS X 10_15_7) AppleWebKit/537.36 (KHTML, like Gecko) Chrome/137.0.0.0 Safari/537.36","Macintosh","Chrome","137.0.0.0","OS X","10_15_7","https://app.prolific.com/","en-GB,en-US;q=0.9,en;q=0.8","6760580745ecb73102f83f3d","68764874ac79eee8c1d4cb03","6877fbe4185cf5565545691a","2","0","6760580745ecb73102f83f3d","2","0","2025-07-16T19:36:31.755Z","","","","","","","","","","","StressQ","","50","","","","","","","","","","","","","","","","","","","","","","","","","","","","",""
"2446","","<div style=""width:500px;"">
  <p>What best describes how you currently feel?</p>
  </div>","66","html-slider-response","68","847385","0.0-5.0-4.11","126","1","2025-07-16 19:22:25","1f75c3e559b7213887762d5229550c2b","90.220.178.14","Mozilla/5.0 (Macintosh; Intel Mac OS X 10_15_7) AppleWebKit/537.36 (KHTML, like Gecko) Chrome/137.0.0.0 Safari/537.36","Macintosh","Chrome","137.0.0.0","OS X","10_15_7","https://app.prolific.com/","en-GB,en-US;q=0.9,en;q=0.8","6760580745ecb73102f83f3d","68764874ac79eee8c1d4cb03","6877fbe4185cf5565545691a","2","0","6760580745ecb73102f83f3d","2","0","2025-07-16T19:36:34.203Z","","","","","","","","","","","MotivationQ","","50","","","","","","","","","","","","","","","","","","","","","","","","","","","","",""
"","","","","ctl-task-cpt","69","927034","0.0-5.0-0.12","126","1","2025-07-16 19:22:25","1f75c3e559b7213887762d5229550c2b","90.220.178.14","Mozilla/5.0 (Macintosh; Intel Mac OS X 10_15_7) AppleWebKit/537.36 (KHTML, like Gecko) Chrome/137.0.0.0 Safari/537.36","Macintosh","Chrome","137.0.0.0","OS X","10_15_7","https://app.prolific.com/","en-GB,en-US;q=0.9,en;q=0.8","6760580745ecb73102f83f3d","68764874ac79eee8c1d4cb03","6877fbe4185cf5565545691a","2","0","6760580745ecb73102f83f3d","2","0","2025-07-16T19:37:53.852Z","","","","","","","","","","","","","","win-only","2","g1:SE,g2:NW","0.7","13","0","849753.7","1559.4","6602.4","76597.7","1","4","8","6","2","8","8","49","41","0.3712121212121212","1182.7","3000","1645","[""left"",""up""]","{""num_key_presses"":14,""num_perfect"":10,""num_errors"":0,""num_randdir"":4,""num_randdir_good_moves"":0,""num_whilered"":0,""num_whileblue"":0,""num_blue"":5,""num_good_moves"":10}","[802,805.796875,0.2,802,805.796875,125.6,802,805.796875,231,802,805.796875,347.8,802,805.796875,464.8,434,507.796875,612.1,434,431.796875,721,382,395.796875,823.7,194,319.796875,931.8,164,237.796875,1041,164,231.796875,1158.5,164,231.796875,1287.8,164,231.796875,1424.4,-56,429.796875,1534.3,-118,477.796875,1641.4,-118,477.796875,1743.5,-118,477.796875,1869,-118,477.796875,2001.5,-118,477.796875,2108.1,-118,477.796875,2220.1,-118,477.796875,2328.2,-118,477.796875,2430.4,-118,477.796875,2549,-118,477.796875,2658.9,-118,477.796875,2761.9,-118,477.796875,2864.9,-118,477.796875,2966.4,-118,477.796875,3090.1,-118,477.796875,3203,-118,477.796875,3311.8,-118,477.796875,3416.2,-118,477.796875,3519.1,-118,477.796875,3643,-118,477.796875,3752.3,-118,477.796875,3871.6,-118,477.796875,3982.5,-118,477.796875,4084.3,-118,477.796875,4187.3,-118,477.796875,4294.7,-118,477.796875,4426.1,-118,477.796875,4531.2,-118,477.796875,4643.8,-118,477.796875,4746.8,-118,477.796875,4872,-118,477.796875,4995.5]","[4712.7,4712.7,2111.4,2038.5,562.8,""oops"",""up"",""right"",""bad_move"",11543,6830.1,2939.7,8104.3,499,""smooth"",""up"",""up"",""good_move"",19001.6,7458.3,2396.6,16148,457,""oops"",""up"",""right"",""bad_move"",21801.8,2800,2316,19001.8,484,""smooth"",""up"",""up"",""good_move"",26094.9,4292.8,2649.8,21802.1,1643,""oops"",""up"",""down"",""bad_move"",28869.3,2773.7,2317,26095.6,456.7,""smooth"",""up"",""up"",""good_move"",33279.8,4410.4,2542.8,28869.4,1867.6,""smooth"",""up"",""up"",""good_move"",37780,4500,2060.1,33280,2439.9,""smooth"",""left"",""left"",""good_move"",42015.2,4235,2513.1,37780.2,1721.9,""smooth"",""left"",""left"",""good_move"",49302,7286.5,1824.2,47017.1,460.7,""smooth"",""left"",""left"",""good_move"",53605.8,4303.1,2728.1,49302.7,1575,""oops"",""left"",""down"",""bad_move"",57093.1,3487.1,3051.2,53606,435.9,""smooth"",""left"",""left"",""good_move"",65559.2,8465.9,2830.9,62177.4,550.9,""smooth"",""left"",""left"",""good_move"",69563.4,4004,2849.8,65559.4,1154.2,""smooth"",""up"",""up"",""good_move""]","",""
"2108","","<div style=""width:500px;"">
  <p>What determined the result of this run?</p>
  </div>","39","html-slider-response","70","929145","0.0-5.0-1.12","126","1","2025-07-16 19:22:25","1f75c3e559b7213887762d5229550c2b","90.220.178.14","Mozilla/5.0 (Macintosh; Intel Mac OS X 10_15_7) AppleWebKit/537.36 (KHTML, like Gecko) Chrome/137.0.0.0 Safari/537.36","Macintosh","Chrome","137.0.0.0","OS X","10_15_7","https://app.prolific.com/","en-GB,en-US;q=0.9,en;q=0.8","6760580745ecb73102f83f3d","68764874ac79eee8c1d4cb03","6877fbe4185cf5565545691a","2","0","6760580745ecb73102f83f3d","2","0","2025-07-16T19:37:55.963Z","","","","","","","","","","","AttribQ","","50","","","","","","","","","","","","","","","","","","","","","","","","","","","","",""
"2244","","<div style=""width:500px;"">
  <p>How much control did you have over the ball?</p>
  </div>","36","html-slider-response","71","931391","0.0-5.0-2.12","126","1","2025-07-16 19:22:25","1f75c3e559b7213887762d5229550c2b","90.220.178.14","Mozilla/5.0 (Macintosh; Intel Mac OS X 10_15_7) AppleWebKit/537.36 (KHTML, like Gecko) Chrome/137.0.0.0 Safari/537.36","Macintosh","Chrome","137.0.0.0","OS X","10_15_7","https://app.prolific.com/","en-GB,en-US;q=0.9,en;q=0.8","6760580745ecb73102f83f3d","68764874ac79eee8c1d4cb03","6877fbe4185cf5565545691a","2","0","6760580745ecb73102f83f3d","2","0","2025-07-16T19:37:58.210Z","","","","","","","","","","","ControlQ","","50","","","","","","","","","","","","","","","","","","","","","","","","","","","","",""
"3037","","<div style=""width:500px;"">
  <p>How would you describe your current emotional state?</p>
  </div>","40","html-slider-response","72","934429","0.0-5.0-3.12","126","1","2025-07-16 19:22:25","1f75c3e559b7213887762d5229550c2b","90.220.178.14","Mozilla/5.0 (Macintosh; Intel Mac OS X 10_15_7) AppleWebKit/537.36 (KHTML, like Gecko) Chrome/137.0.0.0 Safari/537.36","Macintosh","Chrome","137.0.0.0","OS X","10_15_7","https://app.prolific.com/","en-GB,en-US;q=0.9,en;q=0.8","6760580745ecb73102f83f3d","68764874ac79eee8c1d4cb03","6877fbe4185cf5565545691a","2","0","6760580745ecb73102f83f3d","2","0","2025-07-16T19:38:01.248Z","","","","","","","","","","","StressQ","","50","","","","","","","","","","","","","","","","","","","","","","","","","","","","",""
"3915","","<div style=""width:500px;"">
  <p>What best describes how you currently feel?</p>
  </div>","60","html-slider-response","73","938347","0.0-5.0-4.12","126","1","2025-07-16 19:22:25","1f75c3e559b7213887762d5229550c2b","90.220.178.14","Mozilla/5.0 (Macintosh; Intel Mac OS X 10_15_7) AppleWebKit/537.36 (KHTML, like Gecko) Chrome/137.0.0.0 Safari/537.36","Macintosh","Chrome","137.0.0.0","OS X","10_15_7","https://app.prolific.com/","en-GB,en-US;q=0.9,en;q=0.8","6760580745ecb73102f83f3d","68764874ac79eee8c1d4cb03","6877fbe4185cf5565545691a","2","0","6760580745ecb73102f83f3d","2","0","2025-07-16T19:38:05.165Z","","","","","","","","","","","MotivationQ","","50","","","","","","","","","","","","","","","","","","","","","","","","","","","","",""
"","","","","ctl-task-cpt","74","959238","0.0-5.0-0.13","126","1","2025-07-16 19:22:25","1f75c3e559b7213887762d5229550c2b","90.220.178.14","Mozilla/5.0 (Macintosh; Intel Mac OS X 10_15_7) AppleWebKit/537.36 (KHTML, like Gecko) Chrome/137.0.0.0 Safari/537.36","Macintosh","Chrome","137.0.0.0","OS X","10_15_7","https://app.prolific.com/","en-GB,en-US;q=0.9,en;q=0.8","6760580745ecb73102f83f3d","68764874ac79eee8c1d4cb03","6877fbe4185cf5565545691a","2","0","6760580745ecb73102f83f3d","2","0","2025-07-16T19:38:26.056Z","","","","","","","","","","","","","","win-only","2","g1:SE,g2:NW","0.8","14","0","940717.9","1209.1","6236.9","17870.4","1","4","4","6","1","1","1","50","49","0.3787878787878788","1517.2","3000","2675","[""down"",""right""]","{""num_key_presses"":4,""num_perfect"":3,""num_errors"":0,""num_randdir"":1,""num_randdir_good_moves"":1,""num_whilered"":0,""num_whileblue"":0,""num_blue"":0,""num_good_moves"":4}","[812,809.796875,0.1,812,809.796875,102.6,812,809.796875,208.4,812,809.796875,319.8,812,809.796875,446,812,809.796875,546.7,798,831.796875,664.5,626,809.796875,781.6,702,693.796875,890.1,1112,1229.796875,990.4,1114,1237.796875,1094,1160,1259.796875,1220.8,1498,1471.796875,1337.6,1510,1475.796875,1455.8,1510,1475.796875,1567.2,1510,1475.796875,1686.9,1694,1359.796875,1791.4,1982,1151.796875,1902.7,1982,1151.796875,2010.3,1982,1151.796875,2121.1,1982,1151.796875,2233.1,1982,1151.796875,2340.4,1982,1151.796875,2446.1,1982,1151.796875,2551.5,1982,1151.796875,2655.9,1982,1151.796875,2869,1982,1151.796875,2979.8,1982,1151.796875,3103.9,1982,1151.796875,3214.1,1982,1151.796875,3319.4,1982,1151.796875,3435,1982,1151.796875,3567.7,1982,1151.796875,3668.8,1982,1151.796875,3768.9,1982,1151.796875,3877.3,1982,1151.796875,3988.8,1982,1151.796875,4096.7,1982,1151.796875,4245.8,1982,1151.796875,4370.3,1982,1151.796875,4480.3,1982,1151.796875,4580.9,1982,1151.796875,4695,1982,1151.796875,4849.5,1982,1151.796875,4952.4]","[1503.9,1503.9,1000,0,503.9,""smooth"",""right"",""right"",""good_move"",4764.3,3260.1,2749.4,1504.2,510.7,""oops"",""right"",""down"",""good_move"",7608.9,2844,2438.4,4765,405.6,""smooth"",""right"",""right"",""good_move"",11113.4,3503.8,3145.3,7609.6,358.5,""smooth"",""down"",""down"",""good_move""]","",""
"2200","","<div style=""width:500px;"">
  <p>What determined the result of this run?</p>
  </div>","63","html-slider-response","75","961440","0.0-5.0-1.13","126","1","2025-07-16 19:22:25","1f75c3e559b7213887762d5229550c2b","90.220.178.14","Mozilla/5.0 (Macintosh; Intel Mac OS X 10_15_7) AppleWebKit/537.36 (KHTML, like Gecko) Chrome/137.0.0.0 Safari/537.36","Macintosh","Chrome","137.0.0.0","OS X","10_15_7","https://app.prolific.com/","en-GB,en-US;q=0.9,en;q=0.8","6760580745ecb73102f83f3d","68764874ac79eee8c1d4cb03","6877fbe4185cf5565545691a","2","0","6760580745ecb73102f83f3d","2","0","2025-07-16T19:38:28.258Z","","","","","","","","","","","AttribQ","","50","","","","","","","","","","","","","","","","","","","","","","","","","","","","",""
"2366","","<div style=""width:500px;"">
  <p>How much control did you have over the ball?</p>
  </div>","64","html-slider-response","76","963807","0.0-5.0-2.13","126","1","2025-07-16 19:22:25","1f75c3e559b7213887762d5229550c2b","90.220.178.14","Mozilla/5.0 (Macintosh; Intel Mac OS X 10_15_7) AppleWebKit/537.36 (KHTML, like Gecko) Chrome/137.0.0.0 Safari/537.36","Macintosh","Chrome","137.0.0.0","OS X","10_15_7","https://app.prolific.com/","en-GB,en-US;q=0.9,en;q=0.8","6760580745ecb73102f83f3d","68764874ac79eee8c1d4cb03","6877fbe4185cf5565545691a","2","0","6760580745ecb73102f83f3d","2","0","2025-07-16T19:38:30.625Z","","","","","","","","","","","ControlQ","","50","","","","","","","","","","","","","","","","","","","","","","","","","","","","",""
"2029","","<div style=""width:500px;"">
  <p>How would you describe your current emotional state?</p>
  </div>","40","html-slider-response","77","965839","0.0-5.0-3.13","126","1","2025-07-16 19:22:25","1f75c3e559b7213887762d5229550c2b","90.220.178.14","Mozilla/5.0 (Macintosh; Intel Mac OS X 10_15_7) AppleWebKit/537.36 (KHTML, like Gecko) Chrome/137.0.0.0 Safari/537.36","Macintosh","Chrome","137.0.0.0","OS X","10_15_7","https://app.prolific.com/","en-GB,en-US;q=0.9,en;q=0.8","6760580745ecb73102f83f3d","68764874ac79eee8c1d4cb03","6877fbe4185cf5565545691a","2","0","6760580745ecb73102f83f3d","2","0","2025-07-16T19:38:32.657Z","","","","","","","","","","","StressQ","","50","","","","","","","","","","","","","","","","","","","","","","","","","","","","",""
"3867","","<div style=""width:500px;"">
  <p>What best describes how you currently feel?</p>
  </div>","60","html-slider-response","78","969708","0.0-5.0-4.13","126","1","2025-07-16 19:22:25","1f75c3e559b7213887762d5229550c2b","90.220.178.14","Mozilla/5.0 (Macintosh; Intel Mac OS X 10_15_7) AppleWebKit/537.36 (KHTML, like Gecko) Chrome/137.0.0.0 Safari/537.36","Macintosh","Chrome","137.0.0.0","OS X","10_15_7","https://app.prolific.com/","en-GB,en-US;q=0.9,en;q=0.8","6760580745ecb73102f83f3d","68764874ac79eee8c1d4cb03","6877fbe4185cf5565545691a","2","0","6760580745ecb73102f83f3d","2","0","2025-07-16T19:38:36.526Z","","","","","","","","","","","MotivationQ","","50","","","","","","","","","","","","","","","","","","","","","","","","","","","","",""
"","","","","ctl-task-cpt","79","1008996","0.0-5.0-0.14","126","1","2025-07-16 19:22:25","1f75c3e559b7213887762d5229550c2b","90.220.178.14","Mozilla/5.0 (Macintosh; Intel Mac OS X 10_15_7) AppleWebKit/537.36 (KHTML, like Gecko) Chrome/137.0.0.0 Safari/537.36","Macintosh","Chrome","137.0.0.0","OS X","10_15_7","https://app.prolific.com/","en-GB,en-US;q=0.9,en;q=0.8","6760580745ecb73102f83f3d","68764874ac79eee8c1d4cb03","6877fbe4185cf5565545691a","2","0","6760580745ecb73102f83f3d","2","0","2025-07-16T19:39:15.814Z","","","","","","","","","","","","","","win-only","2","g1:SE,g2:NW","0.9","15","0","972081.4","966.9","5976.8","36261.5","1","4","8","6","2","8","8","58","50","0.4393939393939394","1511.8","3000","2465","[""left"",""up""]","{""num_key_presses"":6,""num_perfect"":6,""num_errors"":0,""num_randdir"":0,""num_randdir_good_moves"":0,""num_whilered"":0,""num_whileblue"":0,""num_blue"":1,""num_good_moves"":6}","[816,811.796875,0.8,816,811.796875,124.3,816,811.796875,233.3,816,811.796875,348.1,816,811.796875,464.5,522,619.796875,566.4,440,459.796875,672.5,440,459.796875,821.1,236,319.796875,935,202,271.796875,1046.7,202,271.796875,1156.8,202,267.796875,1264.7,188,193.796875,1403.1,188,171.796875,1508.9,188,171.796875,1625.7,188,171.796875,1737.5,50,269.796875,1855.5,20,285.796875,1984.6,20,285.796875,2091.9,20,285.796875,2228,20,285.796875,2337.3,20,285.796875,2446.8,20,285.796875,2559.6,20,285.796875,2687.4,20,285.796875,2800.7,20,285.796875,2902.4,20,285.796875,3018.5,20,285.796875,3137.1,20,285.796875,3261.2,20,285.796875,3399.5,20,285.796875,3520.3,20,285.796875,3629.6,20,285.796875,3790.8,20,285.796875,3911.8,20,285.796875,4019,-32,243.796875,4145.8,-260,163.796875,4263.5,-276,163.796875,4376.6,-276,163.796875,4508.6,-276,163.796875,4616.7,-276,163.796875,4740.2,-276,163.796875,4845.7,-276,163.796875,4958.1]","[1373.3,1373.3,1000,0,373.3,""smooth"",""up"",""up"",""good_move"",5942.4,4568.8,2265.1,1373.6,2303.7,""smooth"",""up"",""up"",""good_move"",10714.8,4772.2,2046.4,5942.6,2725.8,""smooth"",""up"",""up"",""good_move"",15918.8,5203.9,2342.8,10715,2861.1,""smooth"",""left"",""left"",""good_move"",20587.8,4668.6,3013.1,15919.2,1655.5,""smooth"",""left"",""left"",""good_move"",29806,9218,3243.3,25938.1,624.6,""smooth"",""left"",""left"",""good_move""]","",""
"3081","","<div style=""width:500px;"">
  <p>What determined the result of this run?</p>
  </div>","80","html-slider-response","80","1012082","0.0-5.0-1.14","126","1","2025-07-16 19:22:25","1f75c3e559b7213887762d5229550c2b","90.220.178.14","Mozilla/5.0 (Macintosh; Intel Mac OS X 10_15_7) AppleWebKit/537.36 (KHTML, like Gecko) Chrome/137.0.0.0 Safari/537.36","Macintosh","Chrome","137.0.0.0","OS X","10_15_7","https://app.prolific.com/","en-GB,en-US;q=0.9,en;q=0.8","6760580745ecb73102f83f3d","68764874ac79eee8c1d4cb03","6877fbe4185cf5565545691a","2","0","6760580745ecb73102f83f3d","2","0","2025-07-16T19:39:18.900Z","","","","","","","","","","","AttribQ","","50","","","","","","","","","","","","","","","","","","","","","","","","","","","","",""
"2661","","<div style=""width:500px;"">
  <p>How much control did you have over the ball?</p>
  </div>","84","html-slider-response","81","1014746","0.0-5.0-2.14","126","1","2025-07-16 19:22:25","1f75c3e559b7213887762d5229550c2b","90.220.178.14","Mozilla/5.0 (Macintosh; Intel Mac OS X 10_15_7) AppleWebKit/537.36 (KHTML, like Gecko) Chrome/137.0.0.0 Safari/537.36","Macintosh","Chrome","137.0.0.0","OS X","10_15_7","https://app.prolific.com/","en-GB,en-US;q=0.9,en;q=0.8","6760580745ecb73102f83f3d","68764874ac79eee8c1d4cb03","6877fbe4185cf5565545691a","2","0","6760580745ecb73102f83f3d","2","0","2025-07-16T19:39:21.564Z","","","","","","","","","","","ControlQ","","50","","","","","","","","","","","","","","","","","","","","","","","","","","","","",""
"2533","","<div style=""width:500px;"">
  <p>How would you describe your current emotional state?</p>
  </div>","34","html-slider-response","82","1017280","0.0-5.0-3.14","126","1","2025-07-16 19:22:25","1f75c3e559b7213887762d5229550c2b","90.220.178.14","Mozilla/5.0 (Macintosh; Intel Mac OS X 10_15_7) AppleWebKit/537.36 (KHTML, like Gecko) Chrome/137.0.0.0 Safari/537.36","Macintosh","Chrome","137.0.0.0","OS X","10_15_7","https://app.prolific.com/","en-GB,en-US;q=0.9,en;q=0.8","6760580745ecb73102f83f3d","68764874ac79eee8c1d4cb03","6877fbe4185cf5565545691a","2","0","6760580745ecb73102f83f3d","2","0","2025-07-16T19:39:24.098Z","","","","","","","","","","","StressQ","","50","","","","","","","","","","","","","","","","","","","","","","","","","","","","",""
"2705","","<div style=""width:500px;"">
  <p>What best describes how you currently feel?</p>
  </div>","70","html-slider-response","83","1019986","0.0-5.0-4.14","126","1","2025-07-16 19:22:25","1f75c3e559b7213887762d5229550c2b","90.220.178.14","Mozilla/5.0 (Macintosh; Intel Mac OS X 10_15_7) AppleWebKit/537.36 (KHTML, like Gecko) Chrome/137.0.0.0 Safari/537.36","Macintosh","Chrome","137.0.0.0","OS X","10_15_7","https://app.prolific.com/","en-GB,en-US;q=0.9,en;q=0.8","6760580745ecb73102f83f3d","68764874ac79eee8c1d4cb03","6877fbe4185cf5565545691a","2","0","6760580745ecb73102f83f3d","2","0","2025-07-16T19:39:26.804Z","","","","","","","","","","","MotivationQ","","50","","","","","","","","","","","","","","","","","","","","","","","","","","","","",""
"","","","","ctl-task-cpt","84","1049635","0.0-5.0-0.15","126","1","2025-07-16 19:22:25","1f75c3e559b7213887762d5229550c2b","90.220.178.14","Mozilla/5.0 (Macintosh; Intel Mac OS X 10_15_7) AppleWebKit/537.36 (KHTML, like Gecko) Chrome/137.0.0.0 Safari/537.36","Macintosh","Chrome","137.0.0.0","OS X","10_15_7","https://app.prolific.com/","en-GB,en-US;q=0.9,en;q=0.8","6760580745ecb73102f83f3d","68764874ac79eee8c1d4cb03","6877fbe4185cf5565545691a","2","0","6760580745ecb73102f83f3d","2","0","2025-07-16T19:39:56.453Z","","","","","","","","","","","","","","win-only","0","g1:NW,g2:SE","0.8","16","0","1022360.1","1384.8","6387.9","26634.1","1","4","4","6","2","4","4","62","58","0.4696969696969697","1282.2","3000","2490","[""down"",""right""]","{""num_key_presses"":6,""num_perfect"":6,""num_errors"":0,""num_randdir"":0,""num_randdir_good_moves"":0,""num_whilered"":0,""num_whileblue"":0,""num_blue"":1,""num_good_moves"":6}","[812,825.796875,0.2,812,825.796875,103.5,812,825.796875,243.8,812,825.796875,361.4,812,825.796875,484.3,1108,1089.796875,593.1,1178,1195.796875,698.7,1178,1195.796875,811.1,1416,1383.796875,949,1532,1489.796875,1050.4,1532,1489.796875,1176.7,1532,1489.796875,1290.7,1532,1489.796875,1418.7,1532,1489.796875,1560.6,1540,1477.796875,1685.4,2050,937.796875,1818.2,2050,937.796875,1918.4,2050,937.796875,2023.1,2050,937.796875,2144.8,2050,937.796875,2266.1,2050,937.796875,2390.9,2050,937.796875,2509.9,2050,937.796875,2610.1,2050,937.796875,2725.7,2050,937.796875,2872.9,2050,937.796875,2992,2050,937.796875,3094.4,2050,937.796875,3196.6,2050,937.796875,3303,2050,937.796875,3438.4,2050,937.796875,3541.1,2050,937.796875,3650.7,2050,937.796875,3758.2,2050,937.796875,3861.1,2050,937.796875,3975.5,2050,937.796875,4083.6,2050,937.796875,4185.5,2050,937.796875,4301.3,2050,937.796875,4429,2050,937.796875,4539.7,2050,937.796875,4649.6,2050,937.796875,4761.2,2050,937.796875,4882.1]","[1549.5,1549.5,1000,0,549.5,""smooth"",""right"",""right"",""good_move"",4533.3,2983.4,2465.3,1549.9,518.1,""smooth"",""right"",""right"",""good_move"",7842.8,3309.2,2840.3,4533.6,468.9,""smooth"",""right"",""right"",""good_move"",10316.9,2473.8,2035.8,7843.1,438,""smooth"",""down"",""down"",""good_move"",12728.5,2410.7,1965,10317.8,445.7,""smooth"",""down"",""down"",""good_move"",19652.4,6923.7,2978.2,16183.5,490.7,""smooth"",""down"",""down"",""good_move""]","",""
"2352","","<div style=""width:500px;"">
  <p>What determined the result of this run?</p>
  </div>","89","html-slider-response","85","1051988","0.0-5.0-1.15","126","1","2025-07-16 19:22:25","1f75c3e559b7213887762d5229550c2b","90.220.178.14","Mozilla/5.0 (Macintosh; Intel Mac OS X 10_15_7) AppleWebKit/537.36 (KHTML, like Gecko) Chrome/137.0.0.0 Safari/537.36","Macintosh","Chrome","137.0.0.0","OS X","10_15_7","https://app.prolific.com/","en-GB,en-US;q=0.9,en;q=0.8","6760580745ecb73102f83f3d","68764874ac79eee8c1d4cb03","6877fbe4185cf5565545691a","2","0","6760580745ecb73102f83f3d","2","0","2025-07-16T19:39:58.806Z","","","","","","","","","","","AttribQ","","50","","","","","","","","","","","","","","","","","","","","","","","","","","","","",""
"2786","","<div style=""width:500px;"">
  <p>How much control did you have over the ball?</p>
  </div>","77","html-slider-response","86","1054775","0.0-5.0-2.15","126","1","2025-07-16 19:22:25","1f75c3e559b7213887762d5229550c2b","90.220.178.14","Mozilla/5.0 (Macintosh; Intel Mac OS X 10_15_7) AppleWebKit/537.36 (KHTML, like Gecko) Chrome/137.0.0.0 Safari/537.36","Macintosh","Chrome","137.0.0.0","OS X","10_15_7","https://app.prolific.com/","en-GB,en-US;q=0.9,en;q=0.8","6760580745ecb73102f83f3d","68764874ac79eee8c1d4cb03","6877fbe4185cf5565545691a","2","0","6760580745ecb73102f83f3d","2","0","2025-07-16T19:40:01.594Z","","","","","","","","","","","ControlQ","","50","","","","","","","","","","","","","","","","","","","","","","","","","","","","",""
"1987","","<div style=""width:500px;"">
  <p>How would you describe your current emotional state?</p>
