"rt","response_timestamp","stimulus","response","trial_type","trial_index","time_elapsed","internal_node_id","run_id","condition","recorded_at","source_code_version","ip","user_agent","device","browser","browser_version","platform","platform_version","referer","accept_language","PROLIFIC_PID","STUDY_ID","SESSION_ID","WEEK","BATCH","prolific_id","week","batch","realtime","success","responses","item_order","radio_event_ids","radio_event_times","key_event_times","mouse_event_times","straightlining","zigzagging","honeypot","eventType","view_history","slider_start","which_type","canvas_config","goals_layout","control_level","trial_number","tutorial_trial_number","trial_start_time","phase1_start_time","phase2_start_time","phase3_start_time","goal_1_value","goal_1_distance","goal_2_value","goal_2_distance","goal_selected","outcome","outcome_total","participant_final_score","participant_initial_score","participant_final_score_prop","goal_choice_rt","allocated_time","allocated_time_remaining","goal_direction","counts","mouse_movements","key_presses","question_order","question_id"
"18848","1752667935715","<p style='font-size:40px;line-height:1.25'><strong>Welcome to the experiment!</strong></p><p style='font-size:1.1em;line-height:1.25'>Thank you for participanting in our experiment again! You will be asked to play the Dysfunctional Ball Game again. We will briefly recap the rules before we start.</p><p style='font-size:1.1em;line-height:1.25'>Press <strong>Next</strong> to continue.</p>","0","custom-html-button-response","0","18852","0.0-0.0","110","1","2025-07-16 12:11:54","1f75c3e559b7213887762d5229550c2b","175.176.13.53","Mozilla/5.0 (Windows NT 10.0; Win64; x64) AppleWebKit/537.36 (KHTML, like Gecko) Chrome/138.0.0.0 Safari/537.36","WebKit","Chrome","138.0.0.0","Windows","10.0","https://app.prolific.com/","en-US,en;q=0.9","65f0831414fd6e9e51e08708","686e379bc37a29ffa5cdc956","6877954fb8163a289cf88d19","1","1","65f0831414fd6e9e51e08708","1","1","2025-07-16T12:12:15.717Z","","","","","","","","","","","","","","","","","","","","","","","","","","","","","","","","","","","","","","","","","",""
"1136","","","","fullscreen","1","20994","0.0-1.0","110","1","2025-07-16 12:11:54","1f75c3e559b7213887762d5229550c2b","175.176.13.53","Mozilla/5.0 (Windows NT 10.0; Win64; x64) AppleWebKit/537.36 (KHTML, like Gecko) Chrome/138.0.0.0 Safari/537.36","WebKit","Chrome","138.0.0.0","Windows","10.0","https://app.prolific.com/","en-US,en;q=0.9","65f0831414fd6e9e51e08708","686e379bc37a29ffa5cdc956","6877954fb8163a289cf88d19","1","1","65f0831414fd6e9e51e08708","1","1","","true","","","","","","","","","","","","","","","","","","","","","","","","","","","","","","","","","","","","","","","","",""
"2023","1752667939883","<p style='font-size:1.1em;line-height:1.25'>In the following, we will ask you a few questions relating to your feelings in the last 24 hours.<br></p><p style='font-size:1.1em;line-height:1.25'>Press the <strong>Next</strong> button to continue.</p>","0","custom-html-button-response","2","23019","0.0-2.0-0.0","110","1","2025-07-16 12:11:54","1f75c3e559b7213887762d5229550c2b","175.176.13.53","Mozilla/5.0 (Windows NT 10.0; Win64; x64) AppleWebKit/537.36 (KHTML, like Gecko) Chrome/138.0.0.0 Safari/537.36","WebKit","Chrome","138.0.0.0","Windows","10.0","https://app.prolific.com/","en-US,en;q=0.9","65f0831414fd6e9e51e08708","686e379bc37a29ffa5cdc956","6877954fb8163a289cf88d19","1","1","65f0831414fd6e9e51e08708","1","1","2025-07-16T12:12:19.883Z","","","","","","","","","","","","","","","","","","","","","","","","","","","","","","","","","","","","","","","","","",""
"62972.700000047684","","","","survey-template","3","86003","0.0-2.0-1.0","110","1","2025-07-16 12:11:54","1f75c3e559b7213887762d5229550c2b","175.176.13.53","Mozilla/5.0 (Windows NT 10.0; Win64; x64) AppleWebKit/537.36 (KHTML, like Gecko) Chrome/138.0.0.0 Safari/537.36","WebKit","Chrome","138.0.0.0","Windows","10.0","https://app.prolific.com/","en-US,en;q=0.9","65f0831414fd6e9e51e08708","686e379bc37a29ffa5cdc956","6877954fb8163a289cf88d19","1","1","65f0831414fd6e9e51e08708","1","1","2025-07-16T12:13:22.867Z","","{""Q01"":""0"",""Q02"":""0"",""Q03"":""0"",""Q04"":""0"",""Q05"":""1"",""Q06"":""0"",""Q07"":""0"",""Q08"":""0"",""Q09"":""1"",""Q10"":""1"",""Q11"":""0"",""Q12"":""2"",""Q13"":""5"",""Q14"":""1"",""Q15"":""1"",""Q16"":""1"",""Q17"":""1"",""Q18"":""0"",""Q19"":""1"",""Q20"":""0"",""Q21"":""1"",""Q22"":""0""}","[0,1,2,3,4,5,6,7,8,9,10,11,12,13,14,15,16,17,18,19,20,21]","[""Q01"",""Q02"",""Q03"",""Q04"",""Q05"",""Q06"",""Q07"",""Q08"",""Q09"",""Q10"",""Q11"",""Q12"",""Q13"",""Q14"",""Q15"",""Q16"",""Q17"",""Q18"",""Q19"",""Q20"",""Q21"",""Q22""]","[2974.5,5890.700000047684,7349,9849.799999952316,11631.700000047684,13607,15077.200000047684,16655.599999904633,23576,25575.299999952316,26848.5,29240.299999952316,32162.299999952316,35016,37459.200000047684,44647.39999985695,45932,49726.5,50866.200000047684,55984.09999990463,58153.700000047684,61590.5]","[]","[0.09999990463256836,2974.5,3997.7999999523163,5890.700000047684,7349,9849.799999952316,11631.700000047684,13607,15077.200000047684,16655.599999904633,18101.5,23576,25575.299999952316,26848.5,29240.299999952316,32162.299999952316,35016,37459.200000047684,38312.39999985695,44647.39999985695,45932,47682.39999985695,48267,49726.5,50866.200000047684,54517.59999990463,55984.09999990463,58153.700000047684,61590.5,62967.09999990463]","0.5","0.42857142857142855","0","drsp","","","","","","","","","","","","","","","","","","","","","","","","","","","","","","",""
"10483.700000047684","","","","survey-template","4","96490","0.0-2.0-2.0","110","1","2025-07-16 12:11:54","1f75c3e559b7213887762d5229550c2b","175.176.13.53","Mozilla/5.0 (Windows NT 10.0; Win64; x64) AppleWebKit/537.36 (KHTML, like Gecko) Chrome/138.0.0.0 Safari/537.36","WebKit","Chrome","138.0.0.0","Windows","10.0","https://app.prolific.com/","en-US,en;q=0.9","65f0831414fd6e9e51e08708","686e379bc37a29ffa5cdc956","6877954fb8163a289cf88d19","1","1","65f0831414fd6e9e51e08708","1","1","2025-07-16T12:13:33.355Z","","{""Q01"":""0"",""Q02"":""5"",""Q03"":""0""}","[0,1,2]","[""Q01"",""Q02"",""Q03""]","[2857.2999999523163,4304.099999904633,9415]","[]","[2857.2999999523163,4304.099999904633,6828.700000047684,9415,10482.5]","1","0","0","stress","","","","","","","","","","","","","","","","","","","","","","","","","","","","","","",""
"8771","","","","instructions","5","105264","0.0-3.0-0.0","110","1","2025-07-16 12:11:54","1f75c3e559b7213887762d5229550c2b","175.176.13.53","Mozilla/5.0 (Windows NT 10.0; Win64; x64) AppleWebKit/537.36 (KHTML, like Gecko) Chrome/138.0.0.0 Safari/537.36","WebKit","Chrome","138.0.0.0","Windows","10.0","https://app.prolific.com/","en-US,en;q=0.9","65f0831414fd6e9e51e08708","686e379bc37a29ffa5cdc956","6877954fb8163a289cf88d19","1","1","65f0831414fd6e9e51e08708","1","1","","","","","","","","","","","","","[{""page_index"":0,""viewing_time"":8771}]","","","","","","","","","","","","","","","","","","","","","","","","","","","","","",""
"6969","","<p>Before you start with this game please answer the following three questions yourself. </p>
  <p>Through this game, we measure several aspects of your cognitive performance, such as reaction times, multi-tasking capabilities </p>
  <p>and the ability to assess the situation you are in.</p>
  <p></p>
  <p><b>How good do you usually are in such tasks?</b></p>","91","html-slider-response","6","112236","0.0-4.0-0.0","110","1","2025-07-16 12:11:54","1f75c3e559b7213887762d5229550c2b","175.176.13.53","Mozilla/5.0 (Windows NT 10.0; Win64; x64) AppleWebKit/537.36 (KHTML, like Gecko) Chrome/138.0.0.0 Safari/537.36","WebKit","Chrome","138.0.0.0","Windows","10.0","https://app.prolific.com/","en-US,en;q=0.9","65f0831414fd6e9e51e08708","686e379bc37a29ffa5cdc956","6877954fb8163a289cf88d19","1","1","65f0831414fd6e9e51e08708","1","1","2025-07-16T12:13:49.100Z","","","","","","","","","","","PreSkillQ","","50","","","","","","","","","","","","","","","","","","","","","","","","","","","","",""
"4041","","<div style=""width:500px;"">
  <p>How well do you think you will perform in this task compared to other participants?</p>
  </div>","96","html-slider-response","7","116279","0.0-4.0-1.0","110","1","2025-07-16 12:11:54","1f75c3e559b7213887762d5229550c2b","175.176.13.53","Mozilla/5.0 (Windows NT 10.0; Win64; x64) AppleWebKit/537.36 (KHTML, like Gecko) Chrome/138.0.0.0 Safari/537.36","WebKit","Chrome","138.0.0.0","Windows","10.0","https://app.prolific.com/","en-US,en;q=0.9","65f0831414fd6e9e51e08708","686e379bc37a29ffa5cdc956","6877954fb8163a289cf88d19","1","1","65f0831414fd6e9e51e08708","1","1","2025-07-16T12:13:53.143Z","","","","","","","","","","","PrePerfQ","","50","","","","","","","","","","","","","","","","","","","","","","","","","","","","",""
"2809","","<div style=""width:500px;"">
  <p>What best describes how you currently feel?</p>
  </div>","99","html-slider-response","8","119091","0.0-4.0-2.0","110","1","2025-07-16 12:11:54","1f75c3e559b7213887762d5229550c2b","175.176.13.53","Mozilla/5.0 (Windows NT 10.0; Win64; x64) AppleWebKit/537.36 (KHTML, like Gecko) Chrome/138.0.0.0 Safari/537.36","WebKit","Chrome","138.0.0.0","Windows","10.0","https://app.prolific.com/","en-US,en;q=0.9","65f0831414fd6e9e51e08708","686e379bc37a29ffa5cdc956","6877954fb8163a289cf88d19","1","1","65f0831414fd6e9e51e08708","1","1","2025-07-16T12:13:55.955Z","","","","","","","","","","","PreMotivationQ","","50","","","","","","","","","","","","","","","","","","","","","","","","","","","","",""
"","","","","ctl-task-cpt","9","139276","0.0-5.0-0.0","110","1","2025-07-16 12:11:54","1f75c3e559b7213887762d5229550c2b","175.176.13.53","Mozilla/5.0 (Windows NT 10.0; Win64; x64) AppleWebKit/537.36 (KHTML, like Gecko) Chrome/138.0.0.0 Safari/537.36","WebKit","Chrome","138.0.0.0","Windows","10.0","https://app.prolific.com/","en-US,en;q=0.9","65f0831414fd6e9e51e08708","686e379bc37a29ffa5cdc956","6877954fb8163a289cf88d19","1","1","65f0831414fd6e9e51e08708","1","1","2025-07-16T12:14:16.140Z","","","","","","","","","","","","","","win-only","3","g1:SW,g2:NE","1","1","0","123259.5","1815.6","6816.9","17178.6","1","4","4","6","1","-1","-1","0","0","0","1897.6","3000","-2985","[""down"",""left""]","{""num_key_presses"":3,""num_perfect"":3,""num_errors"":0,""num_randdir"":0,""num_randdir_good_moves"":0,""num_whilered"":0,""num_whileblue"":0,""num_blue"":0,""num_good_moves"":3}","[291.22232142857143,300.12857142857143,0.1,291.22232142857143,300.12857142857143,101.1,291.22232142857143,300.12857142857143,213.9,291.22232142857143,300.12857142857143,316.4,291.22232142857143,300.12857142857143,421.6,291.22232142857143,300.12857142857143,526.5,291.22232142857143,300.12857142857143,631.9,-67.77767857142857,591.1285714285714,735.1,-90.77767857142857,627.1285714285714,835.2,-86.77767857142857,626.1285714285714,935.2,-31.777678571428574,609.1285714285714,1035.9,-15.777678571428574,597.1285714285714,1136.2,-11.777678571428574,584.1285714285714,1241.4,-11.777678571428574,584.1285714285714,1343.2,-11.777678571428574,584.1285714285714,1446,29.222321428571426,563.1285714285714,1548.3,29.222321428571426,563.1285714285714,1651.8,30.222321428571426,563.1285714285714,1758.2,30.222321428571426,563.1285714285714,1858.6,30.222321428571426,563.1285714285714,1961.6,30.222321428571426,563.1285714285714,2072.6,30.222321428571426,563.1285714285714,2176.2,30.222321428571426,563.1285714285714,2276.2,30.222321428571426,563.1285714285714,2376.2,30.222321428571426,563.1285714285714,2476.3,30.222321428571426,563.1285714285714,2581.3,189.22232142857143,489.12857142857143,2681.5,329.22232142857143,466.12857142857143,2781.6,356.22232142857143,469.12857142857143,2881.9,337.22232142857143,444.12857142857143,2986.2,313.22232142857143,421.12857142857143,3086.7,276.22232142857143,426.12857142857143,3191.6,275.22232142857143,427.12857142857143,3291.8,274.22232142857143,429.12857142857143,3395.6,274.22232142857143,429.12857142857143,3501.9,274.22232142857143,429.12857142857143,3601.9,274.22232142857143,429.12857142857143,3707,274.22232142857143,429.12857142857143,3811.8,274.22232142857143,429.12857142857143,3912,274.22232142857143,429.12857142857143,4016.4,274.22232142857143,429.12857142857143,4116.4,274.22232142857143,429.12857142857143,4222.4,274.22232142857143,429.12857142857143,4322.3,274.22232142857143,429.12857142857143,4422.5,274.22232142857143,429.12857142857143,4526,274.22232142857143,429.12857142857143,4626,274.22232142857143,429.12857142857143,4731,274.22232142857143,429.12857142857143,4831.7,274.22232142857143,429.12857142857143,4936.4]","[1697.4,1697.4,1000,0.1,697.4,""smooth"",""down"",""down"",""good_move"",5770.7,4072.6,2399.9,1698.1,1672.7,""smooth"",""down"",""down"",""good_move"",8155.7,2384.7,1842.2,5771,542.5,""smooth"",""left"",""left"",""good_move""]","",""
"3849","","<div style=""width:500px;"">
  <p>What determined the result of this run?</p>
  </div>","96","html-slider-response","10","143126","0.0-5.0-1.0","110","1","2025-07-16 12:11:54","1f75c3e559b7213887762d5229550c2b","175.176.13.53","Mozilla/5.0 (Windows NT 10.0; Win64; x64) AppleWebKit/537.36 (KHTML, like Gecko) Chrome/138.0.0.0 Safari/537.36","WebKit","Chrome","138.0.0.0","Windows","10.0","https://app.prolific.com/","en-US,en;q=0.9","65f0831414fd6e9e51e08708","686e379bc37a29ffa5cdc956","6877954fb8163a289cf88d19","1","1","65f0831414fd6e9e51e08708","1","1","2025-07-16T12:14:19.991Z","","","","","","","","","","","AttribQ","","50","","","","","","","","","","","","","","","","","","","","","","","","","","","","",""
"2692","","<div style=""width:500px;"">
  <p>How much control did you have over the ball?</p>
  </div>","91","html-slider-response","11","145821","0.0-5.0-2.0","110","1","2025-07-16 12:11:54","1f75c3e559b7213887762d5229550c2b","175.176.13.53","Mozilla/5.0 (Windows NT 10.0; Win64; x64) AppleWebKit/537.36 (KHTML, like Gecko) Chrome/138.0.0.0 Safari/537.36","WebKit","Chrome","138.0.0.0","Windows","10.0","https://app.prolific.com/","en-US,en;q=0.9","65f0831414fd6e9e51e08708","686e379bc37a29ffa5cdc956","6877954fb8163a289cf88d19","1","1","65f0831414fd6e9e51e08708","1","1","2025-07-16T12:14:22.685Z","","","","","","","","","","","ControlQ","","50","","","","","","","","","","","","","","","","","","","","","","","","","","","","",""
"4361","","<div style=""width:500px;"">
  <p>How would you describe your current emotional state?</p>
  </div>","9","html-slider-response","12","150183","0.0-5.0-3.0","110","1","2025-07-16 12:11:54","1f75c3e559b7213887762d5229550c2b","175.176.13.53","Mozilla/5.0 (Windows NT 10.0; Win64; x64) AppleWebKit/537.36 (KHTML, like Gecko) Chrome/138.0.0.0 Safari/537.36","WebKit","Chrome","138.0.0.0","Windows","10.0","https://app.prolific.com/","en-US,en;q=0.9","65f0831414fd6e9e51e08708","686e379bc37a29ffa5cdc956","6877954fb8163a289cf88d19","1","1","65f0831414fd6e9e51e08708","1","1","2025-07-16T12:14:27.047Z","","","","","","","","","","","StressQ","","50","","","","","","","","","","","","","","","","","","","","","","","","","","","","",""
"4114","","<div style=""width:500px;"">
  <p>What best describes how you currently feel?</p>
  </div>","92","html-slider-response","13","154299","0.0-5.0-4.0","110","1","2025-07-16 12:11:54","1f75c3e559b7213887762d5229550c2b","175.176.13.53","Mozilla/5.0 (Windows NT 10.0; Win64; x64) AppleWebKit/537.36 (KHTML, like Gecko) Chrome/138.0.0.0 Safari/537.36","WebKit","Chrome","138.0.0.0","Windows","10.0","https://app.prolific.com/","en-US,en;q=0.9","65f0831414fd6e9e51e08708","686e379bc37a29ffa5cdc956","6877954fb8163a289cf88d19","1","1","65f0831414fd6e9e51e08708","1","1","2025-07-16T12:14:31.163Z","","","","","","","","","","","MotivationQ","","50","","","","","","","","","","","","","","","","","","","","","","","","","","","","",""
"","","","","ctl-task-cpt","14","180804","0.0-5.0-0.1","110","1","2025-07-16 12:11:54","1f75c3e559b7213887762d5229550c2b","175.176.13.53","Mozilla/5.0 (Windows NT 10.0; Win64; x64) AppleWebKit/537.36 (KHTML, like Gecko) Chrome/138.0.0.0 Safari/537.36","WebKit","Chrome","138.0.0.0","Windows","10.0","https://app.prolific.com/","en-US,en;q=0.9","65f0831414fd6e9e51e08708","686e379bc37a29ffa5cdc956","6877954fb8163a289cf88d19","1","1","65f0831414fd6e9e51e08708","1","1","2025-07-16T12:14:57.668Z","","","","","","","","","","","","","","win-only","0","g1:NW,g2:SE","0.9","2","0","158464.7","1192.6","6195.4","23498.4","1","4","8","6","2","-8","-8","0","0","0","1641.4","3000","-2790","[""down"",""right""]","{""num_key_presses"":5,""num_perfect"":5,""num_errors"":0,""num_randdir"":0,""num_randdir_good_moves"":0,""num_whilered"":0,""num_whileblue"":0,""num_blue"":0,""num_good_moves"":5}","[299.22232142857143,292.12857142857143,0.3,299.22232142857143,292.12857142857143,100.5,299.22232142857143,292.12857142857143,201.1,299.22232142857143,292.12857142857143,303.4,299.22232142857143,292.12857142857143,409,299.22232142857143,292.12857142857143,513.7,299.22232142857143,292.12857142857143,615.8,299.22232142857143,292.12857142857143,719.2,299.22232142857143,292.12857142857143,824.1,333.22232142857143,298.12857142857143,928.8,465.22232142857143,461.12857142857143,1035.2,482.22232142857143,512.1285714285714,1138.8,503.22232142857143,532.1285714285714,1239.5,544.2223214285714,549.1285714285714,1343.7,549.2223214285714,558.1285714285714,1444.9,549.2223214285714,555.1285714285714,1551.1,549.2223214285714,555.1285714285714,1652.7,549.2223214285714,555.1285714285714,1753.7,549.2223214285714,555.1285714285714,1859.6,549.2223214285714,555.1285714285714,1964.8,549.2223214285714,555.1285714285714,2072.5,549.2223214285714,555.1285714285714,2173.8,549.2223214285714,555.1285714285714,2274.1,549.2223214285714,555.1285714285714,2379,549.2223214285714,555.1285714285714,2485,549.2223214285714,555.1285714285714,2588.5,549.2223214285714,555.1285714285714,2689.9,549.2223214285714,555.1285714285714,2790.2,549.2223214285714,555.1285714285714,2894.3,549.2223214285714,555.1285714285714,2995,549.2223214285714,555.1285714285714,3099.5,549.2223214285714,555.1285714285714,3202.1,549.2223214285714,555.1285714285714,3303.1,549.2223214285714,555.1285714285714,3404,549.2223214285714,555.1285714285714,3504.9,549.2223214285714,555.1285714285714,3608.6,549.2223214285714,555.1285714285714,3708.8,549.2223214285714,555.1285714285714,3809.2,549.2223214285714,555.1285714285714,3909.2,549.2223214285714,555.1285714285714,4009.2,549.2223214285714,555.1285714285714,4109.5,549.2223214285714,555.1285714285714,4210.2,549.2223214285714,555.1285714285714,4315.1,549.2223214285714,555.1285714285714,4422.6,549.2223214285714,555.1285714285714,4524.1,549.2223214285714,555.1285714285714,4624.9,549.2223214285714,555.1285714285714,4728,549.2223214285714,555.1285714285714,4829.9,549.2223214285714,555.1285714285714,4929.9]","[1987.2,1987.2,1000,0,987.2,""smooth"",""down"",""down"",""good_move"",5595.3,3607.7,3020.3,1987.6,587.4,""smooth"",""right"",""right"",""good_move"",8637.2,3041.5,2545.1,5595.8,496.3,""smooth"",""right"",""right"",""good_move"",10812,2174.5,1683.1,8637.5,491.4,""smooth"",""right"",""right"",""good_move"",14029.8,3217.4,2775.3,10812.4,442.1,""smooth"",""down"",""down"",""good_move""]","",""
"5419","","<div style=""width:500px;"">
  <p>What determined the result of this run?</p>
  </div>","98","html-slider-response","15","186224","0.0-5.0-1.1","110","1","2025-07-16 12:11:54","1f75c3e559b7213887762d5229550c2b","175.176.13.53","Mozilla/5.0 (Windows NT 10.0; Win64; x64) AppleWebKit/537.36 (KHTML, like Gecko) Chrome/138.0.0.0 Safari/537.36","WebKit","Chrome","138.0.0.0","Windows","10.0","https://app.prolific.com/","en-US,en;q=0.9","65f0831414fd6e9e51e08708","686e379bc37a29ffa5cdc956","6877954fb8163a289cf88d19","1","1","65f0831414fd6e9e51e08708","1","1","2025-07-16T12:15:03.089Z","","","","","","","","","","","AttribQ","","50","","","","","","","","","","","","","","","","","","","","","","","","","","","","",""
"6226","","<div style=""width:500px;"">
  <p>How much control did you have over the ball?</p>
  </div>","36","html-slider-response","16","192453","0.0-5.0-2.1","110","1","2025-07-16 12:11:54","1f75c3e559b7213887762d5229550c2b","175.176.13.53","Mozilla/5.0 (Windows NT 10.0; Win64; x64) AppleWebKit/537.36 (KHTML, like Gecko) Chrome/138.0.0.0 Safari/537.36","WebKit","Chrome","138.0.0.0","Windows","10.0","https://app.prolific.com/","en-US,en;q=0.9","65f0831414fd6e9e51e08708","686e379bc37a29ffa5cdc956","6877954fb8163a289cf88d19","1","1","65f0831414fd6e9e51e08708","1","1","2025-07-16T12:15:09.317Z","","","","","","","","","","","ControlQ","","50","","","","","","","","","","","","","","","","","","","","","","","","","","","","",""
"2594","","<div style=""width:500px;"">
  <p>How would you describe your current emotional state?</p>
  </div>","74","html-slider-response","17","195049","0.0-5.0-3.1","110","1","2025-07-16 12:11:54","1f75c3e559b7213887762d5229550c2b","175.176.13.53","Mozilla/5.0 (Windows NT 10.0; Win64; x64) AppleWebKit/537.36 (KHTML, like Gecko) Chrome/138.0.0.0 Safari/537.36","WebKit","Chrome","138.0.0.0","Windows","10.0","https://app.prolific.com/","en-US,en;q=0.9","65f0831414fd6e9e51e08708","686e379bc37a29ffa5cdc956","6877954fb8163a289cf88d19","1","1","65f0831414fd6e9e51e08708","1","1","2025-07-16T12:15:11.913Z","","","","","","","","","","","StressQ","","50","","","","","","","","","","","","","","","","","","","","","","","","","","","","",""
"3233","","<div style=""width:500px;"">
  <p>What best describes how you currently feel?</p>
  </div>","83","html-slider-response","18","198283","0.0-5.0-4.1","110","1","2025-07-16 12:11:54","1f75c3e559b7213887762d5229550c2b","175.176.13.53","Mozilla/5.0 (Windows NT 10.0; Win64; x64) AppleWebKit/537.36 (KHTML, like Gecko) Chrome/138.0.0.0 Safari/537.36","WebKit","Chrome","138.0.0.0","Windows","10.0","https://app.prolific.com/","en-US,en;q=0.9","65f0831414fd6e9e51e08708","686e379bc37a29ffa5cdc956","6877954fb8163a289cf88d19","1","1","65f0831414fd6e9e51e08708","1","1","2025-07-16T12:15:15.148Z","","","","","","","","","","","MotivationQ","","50","","","","","","","","","","","","","","","","","","","","","","","","","","","","",""
"","","","","ctl-task-cpt","19","232636","0.0-5.0-0.2","110","1","2025-07-16 12:11:54","1f75c3e559b7213887762d5229550c2b","175.176.13.53","Mozilla/5.0 (Windows NT 10.0; Win64; x64) AppleWebKit/537.36 (KHTML, like Gecko) Chrome/138.0.0.0 Safari/537.36","WebKit","Chrome","138.0.0.0","Windows","10.0","https://app.prolific.com/","en-US,en;q=0.9","65f0831414fd6e9e51e08708","686e379bc37a29ffa5cdc956","6877954fb8163a289cf88d19","1","1","65f0831414fd6e9e51e08708","1","1","2025-07-16T12:15:49.501Z","","","","","","","","","","","","","","win-only","0","g1:NW,g2:SE","0.8","3","0","202452.1","1404.7","6407.1","31331.8","1","4","8","6","1","1","0","0","0","0","1385.6","3000","390","[""left"",""up""]","{""num_key_presses"":6,""num_perfect"":5,""num_errors"":1,""num_randdir"":0,""num_randdir_good_moves"":0,""num_whilered"":0,""num_whileblue"":1,""num_blue"":3,""num_good_moves"":5}","[298.22232142857143,296.12857142857143,0.3,298.22232142857143,296.12857142857143,100.8,298.22232142857143,296.12857142857143,204.3,298.22232142857143,296.12857142857143,305.6,298.22232142857143,296.12857142857143,406.4,298.22232142857143,296.12857142857143,506.6,298.22232142857143,296.12857142857143,613.5,298.22232142857143,296.12857142857143,715,189.22232142857143,197.12857142857143,816.6,80.22232142857143,103.12857142857143,920.6,52.222321428571426,88.12857142857143,1022.6,53.222321428571426,70.12857142857143,1131.5,53.222321428571426,57.128571428571426,1231.6,53.222321428571426,57.128571428571426,1332.8,53.222321428571426,57.128571428571426,1436.5,53.222321428571426,57.128571428571426,1537.5,53.222321428571426,57.128571428571426,1642.3,53.222321428571426,57.128571428571426,1751.2,53.222321428571426,57.128571428571426,1851.8,53.222321428571426,57.128571428571426,1955.8,53.222321428571426,57.128571428571426,2057.4,53.222321428571426,57.128571428571426,2163.7,53.222321428571426,57.128571428571426,2268.1,53.222321428571426,57.128571428571426,2371.1,53.222321428571426,57.128571428571426,2471.6,53.222321428571426,57.128571428571426,2571.6,53.222321428571426,57.128571428571426,2675.7,53.222321428571426,57.128571428571426,2775.7,53.222321428571426,57.128571428571426,2876.2,53.222321428571426,57.128571428571426,2976.3,53.222321428571426,57.128571428571426,3086.7,53.222321428571426,57.128571428571426,3190.7,53.222321428571426,57.128571428571426,3292.3,53.222321428571426,57.128571428571426,3397.4,53.222321428571426,57.128571428571426,3501.5,53.222321428571426,57.128571428571426,3606.2,53.222321428571426,57.128571428571426,3711.7,53.222321428571426,57.128571428571426,3816.9,53.222321428571426,57.128571428571426,3917.6,53.222321428571426,57.128571428571426,4021,53.222321428571426,57.128571428571426,4121.6,53.222321428571426,57.128571428571426,4222.5,53.222321428571426,57.128571428571426,4326.5,53.222321428571426,57.128571428571426,4427.6,53.222321428571426,57.128571428571426,4535.3,53.222321428571426,57.128571428571426,4635.9,53.222321428571426,57.128571428571426,4736.6,53.222321428571426,57.128571428571426,4840.8,53.222321428571426,57.128571428571426,4942.4]","[1436.4,1436.5,1000,0,436.5,""smooth"",""up"",""up"",""good_move"",4331.3,2894.2,2439.7,1437.3,454.4,""smooth"",""up"",""up"",""good_move"",7405.3,3073.4,2707.1,4332.1,366.2,""while_blue"",""left"",""right"",""bad_move"",10605.5,3199.7,2467,7405.8,732.7,""smooth"",""left"",""left"",""good_move"",18061.6,7455.7,2775.1,14439.2,847.3,""smooth"",""left"",""left"",""good_move"",24827.8,6766.1,2742,21672,413.9,""smooth"",""left"",""left"",""good_move""]","",""
"4327","","<div style=""width:500px;"">
  <p>What determined the result of this run?</p>
  </div>","95","html-slider-response","20","236966","0.0-5.0-1.2","110","1","2025-07-16 12:11:54","1f75c3e559b7213887762d5229550c2b","175.176.13.53","Mozilla/5.0 (Windows NT 10.0; Win64; x64) AppleWebKit/537.36 (KHTML, like Gecko) Chrome/138.0.0.0 Safari/537.36","WebKit","Chrome","138.0.0.0","Windows","10.0","https://app.prolific.com/","en-US,en;q=0.9","65f0831414fd6e9e51e08708","686e379bc37a29ffa5cdc956","6877954fb8163a289cf88d19","1","1","65f0831414fd6e9e51e08708","1","1","2025-07-16T12:15:53.830Z","","","","","","","","","","","AttribQ","","50","","","","","","","","","","","","","","","","","","","","","","","","","","","","",""
"2943","","<div style=""width:500px;"">
  <p>How much control did you have over the ball?</p>
  </div>","88","html-slider-response","21","239912","0.0-5.0-2.2","110","1","2025-07-16 12:11:54","1f75c3e559b7213887762d5229550c2b","175.176.13.53","Mozilla/5.0 (Windows NT 10.0; Win64; x64) AppleWebKit/537.36 (KHTML, like Gecko) Chrome/138.0.0.0 Safari/537.36","WebKit","Chrome","138.0.0.0","Windows","10.0","https://app.prolific.com/","en-US,en;q=0.9","65f0831414fd6e9e51e08708","686e379bc37a29ffa5cdc956","6877954fb8163a289cf88d19","1","1","65f0831414fd6e9e51e08708","1","1","2025-07-16T12:15:56.776Z","","","","","","","","","","","ControlQ","","50","","","","","","","","","","","","","","","","","","","","","","","","","","","","",""
"3246","","<div style=""width:500px;"">
  <p>How would you describe your current emotional state?</p>
  </div>","14","html-slider-response","22","243160","0.0-5.0-3.2","110","1","2025-07-16 12:11:54","1f75c3e559b7213887762d5229550c2b","175.176.13.53","Mozilla/5.0 (Windows NT 10.0; Win64; x64) AppleWebKit/537.36 (KHTML, like Gecko) Chrome/138.0.0.0 Safari/537.36","WebKit","Chrome","138.0.0.0","Windows","10.0","https://app.prolific.com/","en-US,en;q=0.9","65f0831414fd6e9e51e08708","686e379bc37a29ffa5cdc956","6877954fb8163a289cf88d19","1","1","65f0831414fd6e9e51e08708","1","1","2025-07-16T12:16:00.024Z","","","","","","","","","","","StressQ","","50","","","","","","","","","","","","","","","","","","","","","","","","","","","","",""
"2262","","<div style=""width:500px;"">
  <p>What best describes how you currently feel?</p>
  </div>","87","html-slider-response","23","245424","0.0-5.0-4.2","110","1","2025-07-16 12:11:54","1f75c3e559b7213887762d5229550c2b","175.176.13.53","Mozilla/5.0 (Windows NT 10.0; Win64; x64) AppleWebKit/537.36 (KHTML, like Gecko) Chrome/138.0.0.0 Safari/537.36","WebKit","Chrome","138.0.0.0","Windows","10.0","https://app.prolific.com/","en-US,en;q=0.9","65f0831414fd6e9e51e08708","686e379bc37a29ffa5cdc956","6877954fb8163a289cf88d19","1","1","65f0831414fd6e9e51e08708","1","1","2025-07-16T12:16:02.288Z","","","","","","","","","","","MotivationQ","","50","","","","","","","","","","","","","","","","","","","","","","","","","","","","",""
"","","","","ctl-task-cpt","24","289901","0.0-5.0-0.3","110","1","2025-07-16 12:11:54","1f75c3e559b7213887762d5229550c2b","175.176.13.53","Mozilla/5.0 (Windows NT 10.0; Win64; x64) AppleWebKit/537.36 (KHTML, like Gecko) Chrome/138.0.0.0 Safari/537.36","WebKit","Chrome","138.0.0.0","Windows","10.0","https://app.prolific.com/","en-US,en;q=0.9","65f0831414fd6e9e51e08708","686e379bc37a29ffa5cdc956","6877954fb8163a289cf88d19","1","1","65f0831414fd6e9e51e08708","1","1","2025-07-16T12:16:46.765Z","","","","","","","","","","","","","","win-only","0","g1:NW,g2:SE","0.7","4","0","249591.2","1745","6751.6","41450.9","1","4","4","6","1","-1","-2","0","0","0","2340.1","3000","-2410","[""left"",""up""]","{""num_key_presses"":8,""num_perfect"":5,""num_errors"":1,""num_randdir"":2,""num_randdir_good_moves"":0,""num_whilered"":0,""num_whileblue"":1,""num_blue"":3,""num_good_moves"":5}","[294.22232142857143,297.12857142857143,0.5,294.22232142857143,297.12857142857143,103.5,294.22232142857143,297.12857142857143,203.9,294.22232142857143,297.12857142857143,305.6,294.22232142857143,297.12857142857143,406,294.22232142857143,297.12857142857143,508.6,294.22232142857143,297.12857142857143,610.7,294.22232142857143,297.12857142857143,712.1,276.22232142857143,274.12857142857143,816.3,194.22232142857143,224.12857142857143,916.8,197.22232142857143,223.12857142857143,1020.6,202.22232142857143,224.12857142857143,1126,210.22232142857143,232.12857142857143,1238.9,270.22232142857143,287.12857142857143,1339.3,443.22232142857143,517.1285714285714,1442.1,452.22232142857143,533.1285714285714,1552,439.22232142857143,519.1285714285714,1652.8,371.22232142857143,434.12857142857143,1753.5,230.22232142857143,235.12857142857143,1855.6,75.22232142857143,91.12857142857143,1959.2,46.222321428571426,55.128571428571426,2061.6,45.222321428571426,52.128571428571426,2162.1,45.222321428571426,53.128571428571426,2262.3,45.222321428571426,53.128571428571426,2367.8,45.222321428571426,53.128571428571426,2471.5,45.222321428571426,53.128571428571426,2572,45.222321428571426,53.128571428571426,2673.8,45.222321428571426,53.128571428571426,2774,45.222321428571426,53.128571428571426,2875.3,45.222321428571426,53.128571428571426,2976.9,45.222321428571426,53.128571428571426,3088.4,45.222321428571426,53.128571428571426,3190.6,45.222321428571426,53.128571428571426,3291.2,45.222321428571426,53.128571428571426,3396.9,45.222321428571426,53.128571428571426,3508.7,45.222321428571426,53.128571428571426,3610.9,45.222321428571426,53.128571428571426,3711.5,45.222321428571426,53.128571428571426,3811.6,45.222321428571426,53.128571428571426,3916.8,45.222321428571426,53.128571428571426,4021.1,45.222321428571426,53.128571428571426,4122.9,45.222321428571426,53.128571428571426,4225.7,45.222321428571426,53.128571428571426,4326.9,45.222321428571426,53.128571428571426,4435.9,45.222321428571426,53.128571428571426,4539,45.222321428571426,53.128571428571426,4640.4,45.222321428571426,53.128571428571426,4740.8,45.222321428571426,53.128571428571426,4841.2,45.222321428571426,53.128571428571426,4947]","[5799.8,5799.8,3327,2004.1,468.7,""smooth"",""up"",""up"",""good_move"",9153.3,3352.6,2872.4,5800.7,480.2,""oops"",""up"",""right"",""bad_move"",12562.3,3408.4,2985.6,9153.9,422.8,""while_blue"",""left"",""down"",""bad_move"",19093.4,6529.3,2392.3,16047.3,653.8,""smooth"",""up"",""up"",""good_move"",22254.6,3161,2584.7,19093.6,576.3,""smooth"",""up"",""up"",""good_move"",25246.7,2991,2460.2,22255.8,530.8,""smooth"",""left"",""left"",""good_move"",28311.4,3064.1,2510.1,25247.3,554,""smooth"",""left"",""left"",""good_move"",31673.6,3361.6,2926.9,28312,434.7,""oops"",""left"",""right"",""bad_move""]","",""
"3933","","<div style=""width:500px;"">
  <p>What determined the result of this run?</p>
  </div>","96","html-slider-response","25","293838","0.0-5.0-1.3","110","1","2025-07-16 12:11:54","1f75c3e559b7213887762d5229550c2b","175.176.13.53","Mozilla/5.0 (Windows NT 10.0; Win64; x64) AppleWebKit/537.36 (KHTML, like Gecko) Chrome/138.0.0.0 Safari/537.36","WebKit","Chrome","138.0.0.0","Windows","10.0","https://app.prolific.com/","en-US,en;q=0.9","65f0831414fd6e9e51e08708","686e379bc37a29ffa5cdc956","6877954fb8163a289cf88d19","1","1","65f0831414fd6e9e51e08708","1","1","2025-07-16T12:16:50.702Z","","","","","","","","","","","AttribQ","","50","","","","","","","","","","","","","","","","","","","","","","","","","","","","",""
"6639","","<div style=""width:500px;"">
  <p>How much control did you have over the ball?</p>
  </div>","27","html-slider-response","26","300479","0.0-5.0-2.3","110","1","2025-07-16 12:11:54","1f75c3e559b7213887762d5229550c2b","175.176.13.53","Mozilla/5.0 (Windows NT 10.0; Win64; x64) AppleWebKit/537.36 (KHTML, like Gecko) Chrome/138.0.0.0 Safari/537.36","WebKit","Chrome","138.0.0.0","Windows","10.0","https://app.prolific.com/","en-US,en;q=0.9","65f0831414fd6e9e51e08708","686e379bc37a29ffa5cdc956","6877954fb8163a289cf88d19","1","1","65f0831414fd6e9e51e08708","1","1","2025-07-16T12:16:57.343Z","","","","","","","","","","","ControlQ","","50","","","","","","","","","","","","","","","","","","","","","","","","","","","","",""
"3683","","<div style=""width:500px;"">
  <p>How would you describe your current emotional state?</p>
  </div>","55","html-slider-response","27","304165","0.0-5.0-3.3","110","1","2025-07-16 12:11:54","1f75c3e559b7213887762d5229550c2b","175.176.13.53","Mozilla/5.0 (Windows NT 10.0; Win64; x64) AppleWebKit/537.36 (KHTML, like Gecko) Chrome/138.0.0.0 Safari/537.36","WebKit","Chrome","138.0.0.0","Windows","10.0","https://app.prolific.com/","en-US,en;q=0.9","65f0831414fd6e9e51e08708","686e379bc37a29ffa5cdc956","6877954fb8163a289cf88d19","1","1","65f0831414fd6e9e51e08708","1","1","2025-07-16T12:17:01.029Z","","","","","","","","","","","StressQ","","50","","","","","","","","","","","","","","","","","","","","","","","","","","","","",""
"5098","","<div style=""width:500px;"">
  <p>What best describes how you currently feel?</p>
  </div>","82","html-slider-response","28","309265","0.0-5.0-4.3","110","1","2025-07-16 12:11:54","1f75c3e559b7213887762d5229550c2b","175.176.13.53","Mozilla/5.0 (Windows NT 10.0; Win64; x64) AppleWebKit/537.36 (KHTML, like Gecko) Chrome/138.0.0.0 Safari/537.36","WebKit","Chrome","138.0.0.0","Windows","10.0","https://app.prolific.com/","en-US,en;q=0.9","65f0831414fd6e9e51e08708","686e379bc37a29ffa5cdc956","6877954fb8163a289cf88d19","1","1","65f0831414fd6e9e51e08708","1","1","2025-07-16T12:17:06.129Z","","","","","","","","","","","MotivationQ","","50","","","","","","","","","","","","","","","","","","","","","","","","","","","","",""
"","","","","ctl-task-cpt","29","329632","0.0-5.0-0.4","110","1","2025-07-16 12:11:54","1f75c3e559b7213887762d5229550c2b","175.176.13.53","Mozilla/5.0 (Windows NT 10.0; Win64; x64) AppleWebKit/537.36 (KHTML, like Gecko) Chrome/138.0.0.0 Safari/537.36","WebKit","Chrome","138.0.0.0","Windows","10.0","https://app.prolific.com/","en-US,en;q=0.9","65f0831414fd6e9e51e08708","686e379bc37a29ffa5cdc956","6877954fb8163a289cf88d19","1","1","65f0831414fd6e9e51e08708","1","1","2025-07-16T12:17:26.496Z","","","","","","","","","","","","","","win-only","2","g1:SE,g2:NW","0.6","5","0","313433.3","1363","6367.2","17352.3","1","4","8","6","1","1","1","1","0","0.007575757575757576","1421.8","3000","1285","[""down"",""right""]","{""num_key_presses"":4,""num_perfect"":2,""num_errors"":0,""num_randdir"":2,""num_randdir_good_moves"":2,""num_whilered"":0,""num_whileblue"":0,""num_blue"":0,""num_good_moves"":4}","[297.22232142857143,298.12857142857143,0.4,297.22232142857143,298.12857142857143,115.7,297.22232142857143,298.12857142857143,224.2,297.22232142857143,298.12857142857143,328.3,297.22232142857143,298.12857142857143,428.9,297.22232142857143,298.12857142857143,530.3,297.22232142857143,298.12857142857143,634,393.22232142857143,359.12857142857143,751,435.22232142857143,495.12857142857143,852.6,471.22232142857143,544.1285714285714,953.4,497.22232142857143,558.1285714285714,1070.2,499.22232142857143,558.1285714285714,1173.8,514.2223214285714,561.1285714285714,1282.8,514.2223214285714,561.1285714285714,1388.7,514.2223214285714,561.1285714285714,1507.3,514.2223214285714,561.1285714285714,1610.3,514.2223214285714,561.1285714285714,1714.2,514.2223214285714,561.1285714285714,1819.6,514.2223214285714,561.1285714285714,1931.7,514.2223214285714,561.1285714285714,2034,514.2223214285714,561.1285714285714,2145.3,514.2223214285714,561.1285714285714,2247.2,514.2223214285714,561.1285714285714,2349.6,514.2223214285714,561.1285714285714,2465.9,514.2223214285714,561.1285714285714,2568.6,514.2223214285714,561.1285714285714,2669.1,514.2223214285714,561.1285714285714,2778.3,514.2223214285714,561.1285714285714,2883.9,514.2223214285714,561.1285714285714,2991,514.2223214285714,561.1285714285714,3092.6,514.2223214285714,561.1285714285714,3194.9,514.2223214285714,561.1285714285714,3298.3,514.2223214285714,561.1285714285714,3403.5,514.2223214285714,561.1285714285714,3508.7,514.2223214285714,561.1285714285714,3620.2,514.2223214285714,561.1285714285714,3724,514.2223214285714,561.1285714285714,3833.1,514.2223214285714,561.1285714285714,3935.2,514.2223214285714,561.1285714285714,4035.9,514.2223214285714,561.1285714285714,4144.8,514.2223214285714,561.1285714285714,4247.8,514.2223214285714,561.1285714285714,4353.7,514.2223214285714,561.1285714285714,4459,514.2223214285714,561.1285714285714,4564.3,514.2223214285714,561.1285714285714,4669,514.2223214285714,561.1285714285714,4777.9,514.2223214285714,561.1285714285714,4878.8,514.2223214285714,561.1285714285714,4978.8]","[1548.8,1548.8,1000,0,548.8,""smooth"",""right"",""right"",""good_move"",4828,3278.5,2662.6,1549.5,615.9,""smooth"",""right"",""right"",""good_move"",7594.8,2766,2111.9,4828.8,654.1,""oops"",""down"",""down"",""good_move"",10861.6,3266.2,2648.7,7595.4,617.5,""oops"",""down"",""down"",""good_move""]","",""
"4082","","<div style=""width:500px;"">
  <p>What determined the result of this run?</p>
  </div>","91","html-slider-response","30","333718","0.0-5.0-1.4","110","1","2025-07-16 12:11:54","1f75c3e559b7213887762d5229550c2b","175.176.13.53","Mozilla/5.0 (Windows NT 10.0; Win64; x64) AppleWebKit/537.36 (KHTML, like Gecko) Chrome/138.0.0.0 Safari/537.36","WebKit","Chrome","138.0.0.0","Windows","10.0","https://app.prolific.com/","en-US,en;q=0.9","65f0831414fd6e9e51e08708","686e379bc37a29ffa5cdc956","6877954fb8163a289cf88d19","1","1","65f0831414fd6e9e51e08708","1","1","2025-07-16T12:17:30.582Z","","","","","","","","","","","AttribQ","","50","","","","","","","","","","","","","","","","","","","","","","","","","","","","",""
"2761","","<div style=""width:500px;"">
  <p>How much control did you have over the ball?</p>
  </div>","81","html-slider-response","31","336481","0.0-5.0-2.4","110","1","2025-07-16 12:11:54","1f75c3e559b7213887762d5229550c2b","175.176.13.53","Mozilla/5.0 (Windows NT 10.0; Win64; x64) AppleWebKit/537.36 (KHTML, like Gecko) Chrome/138.0.0.0 Safari/537.36","WebKit","Chrome","138.0.0.0","Windows","10.0","https://app.prolific.com/","en-US,en;q=0.9","65f0831414fd6e9e51e08708","686e379bc37a29ffa5cdc956","6877954fb8163a289cf88d19","1","1","65f0831414fd6e9e51e08708","1","1","2025-07-16T12:17:33.345Z","","","","","","","","","","","ControlQ","","50","","","","","","","","","","","","","","","","","","","","","","","","","","","","",""
"3609","","<div style=""width:500px;"">
  <p>How would you describe your current emotional state?</p>
  </div>","15","html-slider-response","32","340094","0.0-5.0-3.4","110","1","2025-07-16 12:11:54","1f75c3e559b7213887762d5229550c2b","175.176.13.53","Mozilla/5.0 (Windows NT 10.0; Win64; x64) AppleWebKit/537.36 (KHTML, like Gecko) Chrome/138.0.0.0 Safari/537.36","WebKit","Chrome","138.0.0.0","Windows","10.0","https://app.prolific.com/","en-US,en;q=0.9","65f0831414fd6e9e51e08708","686e379bc37a29ffa5cdc956","6877954fb8163a289cf88d19","1","1","65f0831414fd6e9e51e08708","1","1","2025-07-16T12:17:36.958Z","","","","","","","","","","","StressQ","","50","","","","","","","","","","","","","","","","","","","","","","","","","","","","",""
"3004","","<div style=""width:500px;"">
  <p>What best describes how you currently feel?</p>
  </div>","92","html-slider-response","33","343101","0.0-5.0-4.4","110","1","2025-07-16 12:11:54","1f75c3e559b7213887762d5229550c2b","175.176.13.53","Mozilla/5.0 (Windows NT 10.0; Win64; x64) AppleWebKit/537.36 (KHTML, like Gecko) Chrome/138.0.0.0 Safari/537.36","WebKit","Chrome","138.0.0.0","Windows","10.0","https://app.prolific.com/","en-US,en;q=0.9","65f0831414fd6e9e51e08708","686e379bc37a29ffa5cdc956","6877954fb8163a289cf88d19","1","1","65f0831414fd6e9e51e08708","1","1","2025-07-16T12:17:39.965Z","","","","","","","","","","","MotivationQ","","50","","","","","","","","","","","","","","","","","","","","","","","","","","","","",""
"","","","","ctl-task-cpt","34","366917","0.0-5.0-0.5","110","1","2025-07-16 12:11:54","1f75c3e559b7213887762d5229550c2b","175.176.13.53","Mozilla/5.0 (Windows NT 10.0; Win64; x64) AppleWebKit/537.36 (KHTML, like Gecko) Chrome/138.0.0.0 Safari/537.36","WebKit","Chrome","138.0.0.0","Windows","10.0","https://app.prolific.com/","en-US,en;q=0.9","65f0831414fd6e9e51e08708","686e379bc37a29ffa5cdc956","6877954fb8163a289cf88d19","1","1","65f0831414fd6e9e51e08708","1","1","2025-07-16T12:18:03.782Z","","","","","","","","","","","","","","win-only","2","g1:SE,g2:NW","0.5","6","0","347270.4","1383.7","6390.7","20794","1","4","4","6","1","1","1","2","1","0.015151515151515152","1342.8","3000","1350","[""down"",""right""]","{""num_key_presses"":4,""num_perfect"":4,""num_errors"":0,""num_randdir"":0,""num_randdir_good_moves"":0,""num_whilered"":0,""num_whileblue"":0,""num_blue"":1,""num_good_moves"":4}","[292.22232142857143,299.12857142857143,0.3,292.22232142857143,299.12857142857143,108.5,292.22232142857143,299.12857142857143,209.3,292.22232142857143,299.12857142857143,312.1,292.22232142857143,299.12857142857143,419.3,292.22232142857143,299.12857142857143,536.6,292.22232142857143,299.12857142857143,639.9,461.22232142857143,382.12857142857143,745.2,520.2223214285714,499.12857142857143,846.2,554.2223214285714,542.1285714285714,959.6,554.2223214285714,562.1285714285714,1066,554.2223214285714,562.1285714285714,1166.5,554.2223214285714,560.1285714285714,1272.5,554.2223214285714,560.1285714285714,1376.3,554.2223214285714,560.1285714285714,1481.7,554.2223214285714,560.1285714285714,1584.5,554.2223214285714,560.1285714285714,1689.1,554.2223214285714,560.1285714285714,1793.6,554.2223214285714,560.1285714285714,1910.9,554.2223214285714,560.1285714285714,2011.7,554.2223214285714,560.1285714285714,2111.8,554.2223214285714,560.1285714285714,2213.6,554.2223214285714,560.1285714285714,2317.8,554.2223214285714,560.1285714285714,2421.4,554.2223214285714,560.1285714285714,2525.1,554.2223214285714,560.1285714285714,2636.2,554.2223214285714,560.1285714285714,2746.5,554.2223214285714,560.1285714285714,2848.5,554.2223214285714,560.1285714285714,2957.7,554.2223214285714,560.1285714285714,3060.6,554.2223214285714,560.1285714285714,3180.2,554.2223214285714,560.1285714285714,3289.3,554.2223214285714,560.1285714285714,3402.7,554.2223214285714,560.1285714285714,3503.8,554.2223214285714,560.1285714285714,3621.2,554.2223214285714,560.1285714285714,3725.6,554.2223214285714,560.1285714285714,3827.8,554.2223214285714,560.1285714285714,3938.6,554.2223214285714,560.1285714285714,4040,554.2223214285714,560.1285714285714,4144.3,554.2223214285714,560.1285714285714,4259.9,554.2223214285714,560.1285714285714,4360.3,554.2223214285714,560.1285714285714,4467.1,554.2223214285714,560.1285714285714,4572.5,554.2223214285714,560.1285714285714,4674.6,554.2223214285714,560.1285714285714,4775,554.2223214285714,560.1285714285714,4879,554.2223214285714,560.1285714285714,4981.1]","[5053.8,5053.8,2391.4,2022.6,639.9,""smooth"",""right"",""right"",""good_move"",8136,3081.5,2324.9,5054.6,756.5,""smooth"",""right"",""right"",""good_move"",11404.7,3267.9,2664.2,8136.9,603.7,""smooth"",""down"",""down"",""good_move"",14270.3,2864.8,2235,11405.5,629.8,""smooth"",""down"",""down"",""good_move""]","",""
"6004","","<div style=""width:500px;"">
  <p>What determined the result of this run?</p>
  </div>","94","html-slider-response","35","372925","0.0-5.0-1.5","110","1","2025-07-16 12:11:54","1f75c3e559b7213887762d5229550c2b","175.176.13.53","Mozilla/5.0 (Windows NT 10.0; Win64; x64) AppleWebKit/537.36 (KHTML, like Gecko) Chrome/138.0.0.0 Safari/537.36","WebKit","Chrome","138.0.0.0","Windows","10.0","https://app.prolific.com/","en-US,en;q=0.9","65f0831414fd6e9e51e08708","686e379bc37a29ffa5cdc956","6877954fb8163a289cf88d19","1","1","65f0831414fd6e9e51e08708","1","1","2025-07-16T12:18:09.789Z","","","","","","","","","","","AttribQ","","50","","","","","","","","","","","","","","","","","","","","","","","","","","","","",""
"4410","","<div style=""width:500px;"">
  <p>How much control did you have over the ball?</p>
  </div>","91","html-slider-response","36","377338","0.0-5.0-2.5","110","1","2025-07-16 12:11:54","1f75c3e559b7213887762d5229550c2b","175.176.13.53","Mozilla/5.0 (Windows NT 10.0; Win64; x64) AppleWebKit/537.36 (KHTML, like Gecko) Chrome/138.0.0.0 Safari/537.36","WebKit","Chrome","138.0.0.0","Windows","10.0","https://app.prolific.com/","en-US,en;q=0.9","65f0831414fd6e9e51e08708","686e379bc37a29ffa5cdc956","6877954fb8163a289cf88d19","1","1","65f0831414fd6e9e51e08708","1","1","2025-07-16T12:18:14.202Z","","","","","","","","","","","ControlQ","","50","","","","","","","","","","","","","","","","","","","","","","","","","","","","",""
"7611","","<div style=""width:500px;"">
  <p>How would you describe your current emotional state?</p>
  </div>","22","html-slider-response","37","384953","0.0-5.0-3.5","110","1","2025-07-16 12:11:54","1f75c3e559b7213887762d5229550c2b","175.176.13.53","Mozilla/5.0 (Windows NT 10.0; Win64; x64) AppleWebKit/537.36 (KHTML, like Gecko) Chrome/138.0.0.0 Safari/537.36","WebKit","Chrome","138.0.0.0","Windows","10.0","https://app.prolific.com/","en-US,en;q=0.9","65f0831414fd6e9e51e08708","686e379bc37a29ffa5cdc956","6877954fb8163a289cf88d19","1","1","65f0831414fd6e9e51e08708","1","1","2025-07-16T12:18:21.817Z","","","","","","","","","","","StressQ","","50","","","","","","","","","","","","","","","","","","","","","","","","","","","","",""
"5816","","<div style=""width:500px;"">
  <p>What best describes how you currently feel?</p>
  </div>","90","html-slider-response","38","390772","0.0-5.0-4.5","110","1","2025-07-16 12:11:54","1f75c3e559b7213887762d5229550c2b","175.176.13.53","Mozilla/5.0 (Windows NT 10.0; Win64; x64) AppleWebKit/537.36 (KHTML, like Gecko) Chrome/138.0.0.0 Safari/537.36","WebKit","Chrome","138.0.0.0","Windows","10.0","https://app.prolific.com/","en-US,en;q=0.9","65f0831414fd6e9e51e08708","686e379bc37a29ffa5cdc956","6877954fb8163a289cf88d19","1","1","65f0831414fd6e9e51e08708","1","1","2025-07-16T12:18:27.636Z","","","","","","","","","","","MotivationQ","","50","","","","","","","","","","","","","","","","","","","","","","","","","","","","",""
"","","","","ctl-task-cpt","39","427547","0.0-5.0-0.6","110","1","2025-07-16 12:11:54","1f75c3e559b7213887762d5229550c2b","175.176.13.53","Mozilla/5.0 (Windows NT 10.0; Win64; x64) AppleWebKit/537.36 (KHTML, like Gecko) Chrome/138.0.0.0 Safari/537.36","WebKit","Chrome","138.0.0.0","Windows","10.0","https://app.prolific.com/","en-US,en;q=0.9","65f0831414fd6e9e51e08708","686e379bc37a29ffa5cdc956","6877954fb8163a289cf88d19","1","1","65f0831414fd6e9e51e08708","1","1","2025-07-16T12:19:04.412Z","","","","","","","","","","","","","","win-only","1","g1:NE,g2:SW","0.4","7","0","394942.4","4206.5","9209.3","33751.3","1","4","8","6","1","1","1","3","2","0.022727272727272728","1637.2","3000","425","[""up"",""right""]","{""num_key_presses"":8,""num_perfect"":3,""num_errors"":0,""num_randdir"":5,""num_randdir_good_moves"":3,""num_whilered"":0,""num_whileblue"":0,""num_blue"":0,""num_good_moves"":6}","[298.22232142857143,299.12857142857143,0.5,298.22232142857143,299.12857142857143,102.6,298.22232142857143,299.12857142857143,203.4,298.22232142857143,299.12857142857143,306.7,298.22232142857143,299.12857142857143,411.8,298.22232142857143,299.12857142857143,516.9,298.22232142857143,299.12857142857143,617.6,298.22232142857143,299.12857142857143,725.8,424.22232142857143,223.12857142857143,826.7,545.2223214285714,156.12857142857143,932.9,542.2223214285714,144.12857142857143,1035.2,552.2223214285714,113.12857142857143,1141.7,553.2223214285714,87.12857142857143,1247.8,553.2223214285714,70.12857142857143,1350.7,558.2223214285714,61.128571428571426,1451.1,558.2223214285714,48.128571428571426,1552.5,558.2223214285714,48.128571428571426,1657.7,558.2223214285714,48.128571428571426,1764.3,558.2223214285714,48.128571428571426,1866.7,558.2223214285714,48.128571428571426,1972.2,558.2223214285714,48.128571428571426,2075.2,558.2223214285714,48.128571428571426,2179.8,558.2223214285714,48.128571428571426,2284.5,558.2223214285714,48.128571428571426,2387.5,558.2223214285714,48.128571428571426,2497.2,558.2223214285714,48.128571428571426,2599.4,558.2223214285714,48.128571428571426,2703.3,558.2223214285714,48.128571428571426,2803.9,558.2223214285714,48.128571428571426,2924.7,558.2223214285714,48.128571428571426,3043.1,558.2223214285714,48.128571428571426,3148.9,558.2223214285714,48.128571428571426,3259.8,558.2223214285714,48.128571428571426,3382.5,558.2223214285714,48.128571428571426,3482.5,558.2223214285714,48.128571428571426,3582.8,558.2223214285714,48.128571428571426,3691.9,558.2223214285714,48.128571428571426,3798,558.2223214285714,48.128571428571426,3916.7,558.2223214285714,48.128571428571426,4024.1,558.2223214285714,48.128571428571426,4126.1,558.2223214285714,48.128571428571426,4226.5,558.2223214285714,48.128571428571426,4329.4,558.2223214285714,48.128571428571426,4436.7,558.2223214285714,48.128571428571426,4543,558.2223214285714,48.128571428571426,4646.8,558.2223214285714,48.128571428571426,4750.9,558.2223214285714,48.128571428571426,4853.8,558.2223214285714,48.128571428571426,4958.9]","[1597.1,1597.1,1000,0,597.1,""oops"",""up"",""right"",""good_move"",4773.9,3175.6,2590.3,1598.3,585.3,""oops"",""up"",""up"",""good_move"",7825.2,3050.9,2538.5,4774.4,512.4,""smooth"",""right"",""right"",""good_move"",10948.2,3122.6,2649.5,7825.6,473.1,""oops"",""up"",""down"",""bad_move"",14496.3,3547.6,3084.4,10948.7,463.2,""oops"",""up"",""down"",""bad_move"",17528.2,3031,2538.7,14497.2,492.3,""smooth"",""up"",""up"",""good_move"",21207.4,3678.7,3123.4,17528.8,555.2,""smooth"",""up"",""up"",""good_move"",24384.7,3176.7,2651.4,21208,525.3,""oops"",""up"",""up"",""good_move""]","",""
"14082","","<div style=""width:500px;"">
  <p>What determined the result of this run?</p>
  </div>","95","html-slider-response","40","441632","0.0-5.0-1.6","110","1","2025-07-16 12:11:54","1f75c3e559b7213887762d5229550c2b","175.176.13.53","Mozilla/5.0 (Windows NT 10.0; Win64; x64) AppleWebKit/537.36 (KHTML, like Gecko) Chrome/138.0.0.0 Safari/537.36","WebKit","Chrome","138.0.0.0","Windows","10.0","https://app.prolific.com/","en-US,en;q=0.9","65f0831414fd6e9e51e08708","686e379bc37a29ffa5cdc956","6877954fb8163a289cf88d19","1","1","65f0831414fd6e9e51e08708","1","1","2025-07-16T12:19:18.497Z","","","","","","","","","","","AttribQ","","50","","","","","","","","","","","","","","","","","","","","","","","","","","","","",""
"2818","","<div style=""width:500px;"">
  <p>How much control did you have over the ball?</p>
  </div>","91","html-slider-response","41","444454","0.0-5.0-2.6","110","1","2025-07-16 12:11:54","1f75c3e559b7213887762d5229550c2b","175.176.13.53","Mozilla/5.0 (Windows NT 10.0; Win64; x64) AppleWebKit/537.36 (KHTML, like Gecko) Chrome/138.0.0.0 Safari/537.36","WebKit","Chrome","138.0.0.0","Windows","10.0","https://app.prolific.com/","en-US,en;q=0.9","65f0831414fd6e9e51e08708","686e379bc37a29ffa5cdc956","6877954fb8163a289cf88d19","1","1","65f0831414fd6e9e51e08708","1","1","2025-07-16T12:19:21.318Z","","","","","","","","","","","ControlQ","","50","","","","","","","","","","","","","","","","","","","","","","","","","","","","",""
"3630","","<div style=""width:500px;"">
  <p>How would you describe your current emotional state?</p>
  </div>","16","html-slider-response","42","448086","0.0-5.0-3.6","110","1","2025-07-16 12:11:54","1f75c3e559b7213887762d5229550c2b","175.176.13.53","Mozilla/5.0 (Windows NT 10.0; Win64; x64) AppleWebKit/537.36 (KHTML, like Gecko) Chrome/138.0.0.0 Safari/537.36","WebKit","Chrome","138.0.0.0","Windows","10.0","https://app.prolific.com/","en-US,en;q=0.9","65f0831414fd6e9e51e08708","686e379bc37a29ffa5cdc956","6877954fb8163a289cf88d19","1","1","65f0831414fd6e9e51e08708","1","1","2025-07-16T12:19:24.951Z","","","","","","","","","","","StressQ","","50","","","","","","","","","","","","","","","","","","","","","","","","","","","","",""
"2647","","<div style=""width:500px;"">
  <p>What best describes how you currently feel?</p>
  </div>","85","html-slider-response","43","450737","0.0-5.0-4.6","110","1","2025-07-16 12:11:54","1f75c3e559b7213887762d5229550c2b","175.176.13.53","Mozilla/5.0 (Windows NT 10.0; Win64; x64) AppleWebKit/537.36 (KHTML, like Gecko) Chrome/138.0.0.0 Safari/537.36","WebKit","Chrome","138.0.0.0","Windows","10.0","https://app.prolific.com/","en-US,en;q=0.9","65f0831414fd6e9e51e08708","686e379bc37a29ffa5cdc956","6877954fb8163a289cf88d19","1","1","65f0831414fd6e9e51e08708","1","1","2025-07-16T12:19:27.601Z","","","","","","","","","","","MotivationQ","","50","","","","","","","","","","","","","","","","","","","","","","","","","","","","",""
"","","","","ctl-task-cpt","44","486321","0.0-5.0-0.7","110","1","2025-07-16 12:11:54","1f75c3e559b7213887762d5229550c2b","175.176.13.53","Mozilla/5.0 (Windows NT 10.0; Win64; x64) AppleWebKit/537.36 (KHTML, like Gecko) Chrome/138.0.0.0 Safari/537.36","WebKit","Chrome","138.0.0.0","Windows","10.0","https://app.prolific.com/","en-US,en;q=0.9","65f0831414fd6e9e51e08708","686e379bc37a29ffa5cdc956","6877954fb8163a289cf88d19","1","1","65f0831414fd6e9e51e08708","1","1","2025-07-16T12:20:03.185Z","","","","","","","","","","","","","","win-only","0","g1:NW,g2:SE","0.3","8","0","454906.5","3538","8547.3","32560.4","1","4","4","6","1","1","1","4","3","0.030303030303030304","1767.3","3000","1865","[""left"",""up""]","{""num_key_presses"":6,""num_perfect"":3,""num_errors"":0,""num_randdir"":3,""num_randdir_good_moves"":2,""num_whilered"":0,""num_whileblue"":0,""num_blue"":2,""num_good_moves"":5}","[295.22232142857143,293.12857142857143,1.8,295.22232142857143,293.12857142857143,101.3,295.22232142857143,293.12857142857143,215.4,295.22232142857143,293.12857142857143,322.2,295.22232142857143,293.12857142857143,434.7,295.22232142857143,293.12857142857143,536.6,295.22232142857143,293.12857142857143,637.2,295.22232142857143,293.12857142857143,741.4,286.22232142857143,283.12857142857143,847.9,172.22232142857143,172.12857142857143,952.5,124.22232142857143,130.12857142857143,1055.6,117.22232142857143,120.12857142857143,1157.1,109.22232142857143,99.12857142857143,1260,90.22232142857143,83.12857142857143,1363.9,80.22232142857143,72.12857142857143,1469.9,83.22232142857143,66.12857142857143,1577.4,83.22232142857143,66.12857142857143,1687.5,83.22232142857143,66.12857142857143,1792.9,83.22232142857143,66.12857142857143,1898,83.22232142857143,66.12857142857143,2008.8,83.22232142857143,66.12857142857143,2123.4,83.22232142857143,66.12857142857143,2229.7,83.22232142857143,66.12857142857143,2330.3,83.22232142857143,66.12857142857143,2432.7,83.22232142857143,66.12857142857143,2535.8,83.22232142857143,66.12857142857143,2642.5,83.22232142857143,66.12857142857143,2743.4,83.22232142857143,66.12857142857143,2844.3,83.22232142857143,66.12857142857143,2955.1,83.22232142857143,66.12857142857143,3064,83.22232142857143,66.12857142857143,3172.8,83.22232142857143,66.12857142857143,3276.2,83.22232142857143,66.12857142857143,3377.9,83.22232142857143,66.12857142857143,3492.9,83.22232142857143,66.12857142857143,3599.9,83.22232142857143,66.12857142857143,3701,83.22232142857143,66.12857142857143,3801.2,83.22232142857143,66.12857142857143,3903,83.22232142857143,66.12857142857143,4011.6,83.22232142857143,66.12857142857143,4123.4,83.22232142857143,66.12857142857143,4229.8,83.22232142857143,66.12857142857143,4329.9,83.22232142857143,66.12857142857143,4437.3,83.22232142857143,66.12857142857143,4542.3,83.22232142857143,66.12857142857143,4646.9,83.22232142857143,66.12857142857143,4748.7,83.22232142857143,66.12857142857143,4853.1,83.22232142857143,66.12857142857143,4954]","[4396.4,4396.4,1828,2012,556.5,""oops"",""up"",""left"",""good_move"",7324.7,2926.9,2326.3,4397.8,600.6,""oops"",""up"",""right"",""bad_move"",10358.5,3033.1,2530.1,7325.5,502.9,""oops"",""left"",""left"",""good_move"",13671.6,3311.8,2840.8,10359.8,471,""smooth"",""left"",""left"",""good_move"",20566.7,6894.8,2704.1,17443.7,418.9,""smooth"",""up"",""up"",""good_move"",23752,3184.7,2690.4,20567.3,494.3,""smooth"",""up"",""up"",""good_move""]","",""
"3502","","<div style=""width:500px;"">
  <p>What determined the result of this run?</p>
  </div>","99","html-slider-response","45","489827","0.0-5.0-1.7","110","1","2025-07-16 12:11:54","1f75c3e559b7213887762d5229550c2b","175.176.13.53","Mozilla/5.0 (Windows NT 10.0; Win64; x64) AppleWebKit/537.36 (KHTML, like Gecko) Chrome/138.0.0.0 Safari/537.36","WebKit","Chrome","138.0.0.0","Windows","10.0","https://app.prolific.com/","en-US,en;q=0.9","65f0831414fd6e9e51e08708","686e379bc37a29ffa5cdc956","6877954fb8163a289cf88d19","1","1","65f0831414fd6e9e51e08708","1","1","2025-07-16T12:20:06.691Z","","","","","","","","","","","AttribQ","","50","","","","","","","","","","","","","","","","","","","","","","","","","","","","",""
"2666","","<div style=""width:500px;"">
  <p>How much control did you have over the ball?</p>
  </div>","85","html-slider-response","46","492496","0.0-5.0-2.7","110","1","2025-07-16 12:11:54","1f75c3e559b7213887762d5229550c2b","175.176.13.53","Mozilla/5.0 (Windows NT 10.0; Win64; x64) AppleWebKit/537.36 (KHTML, like Gecko) Chrome/138.0.0.0 Safari/537.36","WebKit","Chrome","138.0.0.0","Windows","10.0","https://app.prolific.com/","en-US,en;q=0.9","65f0831414fd6e9e51e08708","686e379bc37a29ffa5cdc956","6877954fb8163a289cf88d19","1","1","65f0831414fd6e9e51e08708","1","1","2025-07-16T12:20:09.360Z","","","","","","","","","","","ControlQ","","50","","","","","","","","","","","","","","","","","","","","","","","","","","","","",""
"4320","","<div style=""width:500px;"">
  <p>How would you describe your current emotional state?</p>
  </div>","9","html-slider-response","47","496819","0.0-5.0-3.7","110","1","2025-07-16 12:11:54","1f75c3e559b7213887762d5229550c2b","175.176.13.53","Mozilla/5.0 (Windows NT 10.0; Win64; x64) AppleWebKit/537.36 (KHTML, like Gecko) Chrome/138.0.0.0 Safari/537.36","WebKit","Chrome","138.0.0.0","Windows","10.0","https://app.prolific.com/","en-US,en;q=0.9","65f0831414fd6e9e51e08708","686e379bc37a29ffa5cdc956","6877954fb8163a289cf88d19","1","1","65f0831414fd6e9e51e08708","1","1","2025-07-16T12:20:13.683Z","","","","","","","","","","","StressQ","","50","","","","","","","","","","","","","","","","","","","","","","","","","","","","",""
"2828","","<div style=""width:500px;"">
  <p>What best describes how you currently feel?</p>
  </div>","93","html-slider-response","48","499651","0.0-5.0-4.7","110","1","2025-07-16 12:11:54","1f75c3e559b7213887762d5229550c2b","175.176.13.53","Mozilla/5.0 (Windows NT 10.0; Win64; x64) AppleWebKit/537.36 (KHTML, like Gecko) Chrome/138.0.0.0 Safari/537.36","WebKit","Chrome","138.0.0.0","Windows","10.0","https://app.prolific.com/","en-US,en;q=0.9","65f0831414fd6e9e51e08708","686e379bc37a29ffa5cdc956","6877954fb8163a289cf88d19","1","1","65f0831414fd6e9e51e08708","1","1","2025-07-16T12:20:16.515Z","","","","","","","","","","","MotivationQ","","50","","","","","","","","","","","","","","","","","","","","","","","","","","","","",""
"","","","","ctl-task-cpt","49","586322","0.0-5.0-0.8","110","1","2025-07-16 12:11:54","1f75c3e559b7213887762d5229550c2b","175.176.13.53","Mozilla/5.0 (Windows NT 10.0; Win64; x64) AppleWebKit/537.36 (KHTML, like Gecko) Chrome/138.0.0.0 Safari/537.36","WebKit","Chrome","138.0.0.0","Windows","10.0","https://app.prolific.com/","en-US,en;q=0.9","65f0831414fd6e9e51e08708","686e379bc37a29ffa5cdc956","6877954fb8163a289cf88d19","1","1","65f0831414fd6e9e51e08708","1","1","2025-07-16T12:21:43.186Z","","","","","","","","","","","","","","win-only","2","g1:SE,g2:NW","0.2","9","0","503819.2","1476.7","6483.6","83647.8","1","4","4","6","1","-1","-2","2","4","0.015151515151515152","1690.6","3000","-1405","[""down"",""right""]","{""num_key_presses"":21,""num_perfect"":4,""num_errors"":1,""num_randdir"":16,""num_randdir_good_moves"":6,""num_whilered"":0,""num_whileblue"":0,""num_blue"":1,""num_good_moves"":10}","[292.22232142857143,300.12857142857143,0.2,292.22232142857143,300.12857142857143,106.9,292.22232142857143,300.12857142857143,225.8,292.22232142857143,300.12857142857143,343,292.22232142857143,300.12857142857143,445.9,292.22232142857143,300.12857142857143,548.8,292.22232142857143,300.12857142857143,664.9,292.22232142857143,300.12857142857143,786.3,292.22232142857143,300.12857142857143,891,524.2223214285714,500.12857142857143,999.6,546.2223214285714,563.1285714285714,1109.4,547.2223214285714,570.1285714285714,1231.2,544.2223214285714,552.1285714285714,1371.4,543.2223214285714,550.1285714285714,1512.6,543.2223214285714,550.1285714285714,1620.7,543.2223214285714,550.1285714285714,1741.3,543.2223214285714,550.1285714285714,1849.1,543.2223214285714,550.1285714285714,1959.4,543.2223214285714,550.1285714285714,2078.4,543.2223214285714,550.1285714285714,2187.5,543.2223214285714,550.1285714285714,2304.3,543.2223214285714,550.1285714285714,2419,543.2223214285714,550.1285714285714,2527.1,543.2223214285714,550.1285714285714,2640.1,543.2223214285714,550.1285714285714,2757.6,543.2223214285714,550.1285714285714,2857.6,543.2223214285714,550.1285714285714,2982.4,543.2223214285714,550.1285714285714,3085.3,543.2223214285714,550.1285714285714,3201,543.2223214285714,550.1285714285714,3304.7,543.2223214285714,550.1285714285714,3414.1,543.2223214285714,550.1285714285714,3521.6,543.2223214285714,550.1285714285714,3632,543.2223214285714,550.1285714285714,3745.3,543.2223214285714,550.1285714285714,3860.8,543.2223214285714,550.1285714285714,3982.4,543.2223214285714,550.1285714285714,4104.3,543.2223214285714,550.1285714285714,4216.7,543.2223214285714,550.1285714285714,4330,543.2223214285714,550.1285714285714,4447.6,543.2223214285714,550.1285714285714,4554.9,543.2223214285714,550.1285714285714,4663.8,543.2223214285714,550.1285714285714,4772,543.2223214285714,550.1285714285714,4884]","[1606.2,1606.2,1000,0,606.2,""oops"",""down"",""up"",""bad_move"",6305.6,4699.1,2397.3,1606.5,2301.8,""smooth"",""down"",""down"",""good_move"",9298.3,2992.1,2373.2,6306.2,618.9,""oops"",""right"",""down"",""good_move"",12441.6,3143,2490,9298.6,653,""oops"",""right"",""up"",""bad_move"",18167.7,5725.2,2378.8,12442.6,3346.4,""smooth"",""right"",""right"",""good_move"",20946.5,2777.9,2062.2,18168.6,715.7,""oops"",""right"",""left"",""bad_move"",25089.1,4141.4,3559,20947.8,582.3,""oops"",""right"",""right"",""good_move"",28138.2,3048.5,2436.6,25089.7,611.9,""oops"",""right"",""left"",""bad_move"",31820.7,3682.1,2084.1,28138.6,1598,""oops"",""right"",""left"",""bad_move"",35632.8,3810.8,2388.4,31822,1422.4,""oops"",""right"",""right"",""good_move"",38619.6,2985.3,2539.5,35634.3,445.8,""smooth"",""right"",""right"",""good_move"",44670.4,6050.3,2219.5,41780.6,670.3,""smooth"",""right"",""right"",""good_move"",47366,2695.2,2185.3,44670.9,509.8,""oops"",""down"",""down"",""good_move"",51065.5,3698.5,3235,47367,463.5,""oops"",""down"",""left"",""bad_move"",54909.7,3843.4,2728.7,51066.3,1114.7,""oops"",""right"",""up"",""bad_move"",58914.5,4002.9,3456.6,54911.6,546.3,""oops"",""down"",""right"",""good_move"",61450.3,2535.4,2010.9,58914.9,524.5,""oops"",""down"",""left"",""bad_move"",65348,3896.3,2465.5,61451.7,1430.8,""oops"",""right"",""down"",""good_move"",68813.1,3464.8,3046.1,65348.4,418.7,""oops"",""right"",""left"",""bad_move"",70111.7,1296.4,2992.6,68815.3,-1696.2,""error"",""-"",""-"",""no_move"",74230.4,4117.5,2538.9,71130.3,561.2,""oops"",""right"",""up"",""bad_move""]","",""
"3971","","<div style=""width:500px;"">
  <p>What determined the result of this run?</p>
  </div>","73","html-slider-response","50","590296","0.0-5.0-1.8","110","1","2025-07-16 12:11:54","1f75c3e559b7213887762d5229550c2b","175.176.13.53","Mozilla/5.0 (Windows NT 10.0; Win64; x64) AppleWebKit/537.36 (KHTML, like Gecko) Chrome/138.0.0.0 Safari/537.36","WebKit","Chrome","138.0.0.0","Windows","10.0","https://app.prolific.com/","en-US,en;q=0.9","65f0831414fd6e9e51e08708","686e379bc37a29ffa5cdc956","6877954fb8163a289cf88d19","1","1","65f0831414fd6e9e51e08708","1","1","2025-07-16T12:21:47.160Z","","","","","","","","","","","AttribQ","","50","","","","","","","","","","","","","","","","","","","","","","","","","","","","",""
"7226","","<div style=""width:500px;"">
  <p>How much control did you have over the ball?</p>
  </div>","15","html-slider-response","51","597525","0.0-5.0-2.8","110","1","2025-07-16 12:11:54","1f75c3e559b7213887762d5229550c2b","175.176.13.53","Mozilla/5.0 (Windows NT 10.0; Win64; x64) AppleWebKit/537.36 (KHTML, like Gecko) Chrome/138.0.0.0 Safari/537.36","WebKit","Chrome","138.0.0.0","Windows","10.0","https://app.prolific.com/","en-US,en;q=0.9","65f0831414fd6e9e51e08708","686e379bc37a29ffa5cdc956","6877954fb8163a289cf88d19","1","1","65f0831414fd6e9e51e08708","1","1","2025-07-16T12:21:54.389Z","","","","","","","","","","","ControlQ","","50","","","","","","","","","","","","","","","","","","","","","","","","","","","","",""
"4162","","<div style=""width:500px;"">
  <p>How would you describe your current emotional state?</p>
  </div>","62","html-slider-response","52","601690","0.0-5.0-3.8","110","1","2025-07-16 12:11:54","1f75c3e559b7213887762d5229550c2b","175.176.13.53","Mozilla/5.0 (Windows NT 10.0; Win64; x64) AppleWebKit/537.36 (KHTML, like Gecko) Chrome/138.0.0.0 Safari/537.36","WebKit","Chrome","138.0.0.0","Windows","10.0","https://app.prolific.com/","en-US,en;q=0.9","65f0831414fd6e9e51e08708","686e379bc37a29ffa5cdc956","6877954fb8163a289cf88d19","1","1","65f0831414fd6e9e51e08708","1","1","2025-07-16T12:21:58.555Z","","","","","","","","","","","StressQ","","50","","","","","","","","","","","","","","","","","","","","","","","","","","","","",""
"3971","","<div style=""width:500px;"">
  <p>What best describes how you currently feel?</p>
  </div>","66","html-slider-response","53","605666","0.0-5.0-4.8","110","1","2025-07-16 12:11:54","1f75c3e559b7213887762d5229550c2b","175.176.13.53","Mozilla/5.0 (Windows NT 10.0; Win64; x64) AppleWebKit/537.36 (KHTML, like Gecko) Chrome/138.0.0.0 Safari/537.36","WebKit","Chrome","138.0.0.0","Windows","10.0","https://app.prolific.com/","en-US,en;q=0.9","65f0831414fd6e9e51e08708","686e379bc37a29ffa5cdc956","6877954fb8163a289cf88d19","1","1","65f0831414fd6e9e51e08708","1","1","2025-07-16T12:22:02.530Z","","","","","","","","","","","MotivationQ","","50","","","","","","","","","","","","","","","","","","","","","","","","","","","","",""
"","","","","ctl-task-cpt","54","687506","0.0-5.0-0.9","110","1","2025-07-16 12:11:54","1f75c3e559b7213887762d5229550c2b","175.176.13.53","Mozilla/5.0 (Windows NT 10.0; Win64; x64) AppleWebKit/537.36 (KHTML, like Gecko) Chrome/138.0.0.0 Safari/537.36","WebKit","Chrome","138.0.0.0","Windows","10.0","https://app.prolific.com/","en-US,en;q=0.9","65f0831414fd6e9e51e08708","686e379bc37a29ffa5cdc956","6877954fb8163a289cf88d19","1","1","65f0831414fd6e9e51e08708","1","1","2025-07-16T12:23:24.370Z","","","","","","","","","","","","","","win-only","2","g1:SE,g2:NW","0.4","10","0","609836.7","1399.1","6414.7","78810.7","1","4","8","6","1","-1","-3","0","2","0","1466.9","3000","-710","[""down"",""right""]","{""num_key_presses"":18,""num_perfect"":6,""num_errors"":2,""num_randdir"":9,""num_randdir_good_moves"":2,""num_whilered"":1,""num_whileblue"":1,""num_blue"":4,""num_good_moves"":8}","[300.22232142857143,295.12857142857143,0.2,300.22232142857143,295.12857142857143,115.1,300.22232142857143,295.12857142857143,221.3,300.22232142857143,295.12857142857143,346.2,300.22232142857143,295.12857142857143,453.2,300.22232142857143,295.12857142857143,571.2,318.22232142857143,299.12857142857143,695.4,581.2223214285714,527.1285714285714,817.8,590.2223214285714,557.1285714285714,941.6,592.2223214285714,560.1285714285714,1060.3,578.2223214285714,553.1285714285714,1164,575.2223214285714,553.1285714285714,1283,575.2223214285714,550.1285714285714,1406,575.2223214285714,550.1285714285714,1508,575.2223214285714,550.1285714285714,1627.8,575.2223214285714,550.1285714285714,1735.4,575.2223214285714,550.1285714285714,1854.6,575.2223214285714,550.1285714285714,1974.7,575.2223214285714,550.1285714285714,2096,575.2223214285714,550.1285714285714,2220.7,575.2223214285714,550.1285714285714,2337.7,575.2223214285714,550.1285714285714,2452.9,575.2223214285714,550.1285714285714,2553,575.2223214285714,550.1285714285714,2661.7,575.2223214285714,550.1285714285714,2762.7,575.2223214285714,550.1285714285714,2871.7,575.2223214285714,550.1285714285714,2979.8,575.2223214285714,550.1285714285714,3093.1,575.2223214285714,550.1285714285714,3200.1,575.2223214285714,550.1285714285714,3300.2,575.2223214285714,550.1285714285714,3414.2,575.2223214285714,550.1285714285714,3518.3,575.2223214285714,550.1285714285714,3641.4,575.2223214285714,550.1285714285714,3760.6,575.2223214285714,550.1285714285714,3880.4,575.2223214285714,550.1285714285714,3990.1,575.2223214285714,550.1285714285714,4108.7,575.2223214285714,550.1285714285714,4224.1,575.2223214285714,550.1285714285714,4336.8,575.2223214285714,550.1285714285714,4451.6,575.2223214285714,550.1285714285714,4564.4,575.2223214285714,550.1285714285714,4684.3,575.2223214285714,550.1285714285714,4796.8,575.2223214285714,550.1285714285714,4911.1]","[1550.3,1550.3,1000,0,550.3,""oops"",""right"",""down"",""good_move"",4799.2,3248.1,2733.4,1551.1,514.7,""smooth"",""right"",""right"",""good_move"",7833.1,3033.1,2495.4,4800,537.7,""oops"",""right"",""up"",""bad_move"",13951.3,6117.8,2158.1,7833.5,3959.7,""smooth"",""down"",""down"",""good_move"",17199.7,3247.9,2727.2,13951.8,520.7,""oops"",""down"",""left"",""bad_move"",24724.3,7523.1,2906.9,21382,435.4,""smooth"",""right"",""right"",""good_move"",28552.6,3827.8,2711.9,24724.8,1115.9,""smooth"",""right"",""right"",""good_move"",31392.8,2839.8,2404.6,28553,435.2,""oops"",""down"",""left"",""bad_move"",38134.6,6741,1960.3,35618.8,555.5,""oops"",""right"",""up"",""bad_move"",41640.4,3504.8,1886.8,38135.6,1618,""oops"",""down"",""left"",""bad_move"",45354.5,3713.5,3270.5,41641,443,""while_blue"",""right"",""up"",""bad_move"",53312.3,7957.3,2805.1,49949.9,557.3,""oops"",""right"",""up"",""bad_move"",56586.6,3273.8,2569.9,53312.8,704,""oops"",""down"",""up"",""bad_move"",57217.7,630.8,2563,56587,-1932.2,""error"",""-"",""-"",""no_move"",57383.8,165.6,2563,56587,-1766.2,""while_red"",""-"",""-"",""no_move"",62746,5527.8,2317.7,58230.7,2197.6,""smooth"",""right"",""right"",""good_move"",65963,3216.5,2352.2,62746.5,864.4,""smooth"",""right"",""right"",""good_move"",68999,3035.6,2351,65963.5,684.5,""oops"",""down"",""down"",""good_move""]","",""
"7041","","<div style=""width:500px;"">
  <p>What determined the result of this run?</p>
  </div>","39","html-slider-response","55","694550","0.0-5.0-1.9","110","1","2025-07-16 12:11:54","1f75c3e559b7213887762d5229550c2b","175.176.13.53","Mozilla/5.0 (Windows NT 10.0; Win64; x64) AppleWebKit/537.36 (KHTML, like Gecko) Chrome/138.0.0.0 Safari/537.36","WebKit","Chrome","138.0.0.0","Windows","10.0","https://app.prolific.com/","en-US,en;q=0.9","65f0831414fd6e9e51e08708","686e379bc37a29ffa5cdc956","6877954fb8163a289cf88d19","1","1","65f0831414fd6e9e51e08708","1","1","2025-07-16T12:23:31.414Z","","","","","","","","","","","AttribQ","","50","","","","","","","","","","","","","","","","","","","","","","","","","","","","",""
"3891","","<div style=""width:500px;"">
  <p>How much control did you have over the ball?</p>
  </div>","16","html-slider-response","56","698445","0.0-5.0-2.9","110","1","2025-07-16 12:11:54","1f75c3e559b7213887762d5229550c2b","175.176.13.53","Mozilla/5.0 (Windows NT 10.0; Win64; x64) AppleWebKit/537.36 (KHTML, like Gecko) Chrome/138.0.0.0 Safari/537.36","WebKit","Chrome","138.0.0.0","Windows","10.0","https://app.prolific.com/","en-US,en;q=0.9","65f0831414fd6e9e51e08708","686e379bc37a29ffa5cdc956","6877954fb8163a289cf88d19","1","1","65f0831414fd6e9e51e08708","1","1","2025-07-16T12:23:35.309Z","","","","","","","","","","","ControlQ","","50","","","","","","","","","","","","","","","","","","","","","","","","","","","","",""
"3157","","<div style=""width:500px;"">
  <p>How would you describe your current emotional state?</p>
  </div>","68","html-slider-response","57","701607","0.0-5.0-3.9","110","1","2025-07-16 12:11:54","1f75c3e559b7213887762d5229550c2b","175.176.13.53","Mozilla/5.0 (Windows NT 10.0; Win64; x64) AppleWebKit/537.36 (KHTML, like Gecko) Chrome/138.0.0.0 Safari/537.36","WebKit","Chrome","138.0.0.0","Windows","10.0","https://app.prolific.com/","en-US,en;q=0.9","65f0831414fd6e9e51e08708","686e379bc37a29ffa5cdc956","6877954fb8163a289cf88d19","1","1","65f0831414fd6e9e51e08708","1","1","2025-07-16T12:23:38.471Z","","","","","","","","","","","StressQ","","50","","","","","","","","","","","","","","","","","","","","","","","","","","","","",""
"3571","","<div style=""width:500px;"">
  <p>What best describes how you currently feel?</p>
  </div>","70","html-slider-response","58","705182","0.0-5.0-4.9","110","1","2025-07-16 12:11:54","1f75c3e559b7213887762d5229550c2b","175.176.13.53","Mozilla/5.0 (Windows NT 10.0; Win64; x64) AppleWebKit/537.36 (KHTML, like Gecko) Chrome/138.0.0.0 Safari/537.36","WebKit","Chrome","138.0.0.0","Windows","10.0","https://app.prolific.com/","en-US,en;q=0.9","65f0831414fd6e9e51e08708","686e379bc37a29ffa5cdc956","6877954fb8163a289cf88d19","1","1","65f0831414fd6e9e51e08708","1","1","2025-07-16T12:23:42.046Z","","","","","","","","","","","MotivationQ","","50","","","","","","","","","","","","","","","","","","","","","","","","","","","","",""
"","","","","ctl-task-cpt","59","745018","0.0-5.0-0.10","110","1","2025-07-16 12:11:54","1f75c3e559b7213887762d5229550c2b","175.176.13.53","Mozilla/5.0 (Windows NT 10.0; Win64; x64) AppleWebKit/537.36 (KHTML, like Gecko) Chrome/138.0.0.0 Safari/537.36","WebKit","Chrome","138.0.0.0","Windows","10.0","https://app.prolific.com/","en-US,en;q=0.9","65f0831414fd6e9e51e08708","686e379bc37a29ffa5cdc956","6877954fb8163a289cf88d19","1","1","65f0831414fd6e9e51e08708","1","1","2025-07-16T12:24:21.882Z","","","","","","","","","","","","","","win-only","2","g1:SE,g2:NW","0.5","11","0","709355.1","2452.1","7480","36784.5","1","4","4","6","1","1","1","1","0","0.007575757575757576","3703.8","3000","2300","[""down"",""right""]","{""num_key_presses"":6,""num_perfect"":4,""num_errors"":0,""num_randdir"":2,""num_randdir_good_moves"":1,""num_whilered"":0,""num_whileblue"":0,""num_blue"":2,""num_good_moves"":5}","[294.22232142857143,300.12857142857143,0.3,294.22232142857143,300.12857142857143,121,294.22232142857143,300.12857142857143,252.6,294.22232142857143,300.12857142857143,378.5,294.22232142857143,300.12857142857143,504.5,294.22232142857143,300.12857142857143,639.2,301.22232142857143,300.12857142857143,767.6,435.22232142857143,392.12857142857143,872.4,474.22232142857143,509.12857142857143,1004.7,485.22232142857143,550.1285714285714,1139.5,503.22232142857143,551.1285714285714,1271.7,509.22232142857143,551.1285714285714,1406.4,500.22232142857143,533.1285714285714,1512.7,465.22232142857143,486.12857142857143,1615.5,160.22232142857143,211.12857142857143,1720,71.22232142857143,162.12857142857143,1824.5,71.22232142857143,162.12857142857143,1932.2,71.22232142857143,162.12857142857143,2032.9,71.22232142857143,162.12857142857143,2139.4,71.22232142857143,162.12857142857143,2242.2,112.22232142857143,170.12857142857143,2374.7,708.2223214285714,550.1285714285714,2476.4,821.2223214285714,683.1285714285714,2611.4,811.2223214285714,683.1285714285714,2712.2,784.2223214285714,683.1285714285714,2818.8,765.2223214285714,674.1285714285714,2924.1,732.2223214285714,658.1285714285714,3033.6,709.2223214285714,653.1285714285714,3140.7,680.2223214285714,633.1285714285714,3240.8,626.2223214285714,577.1285714285714,3377.5,589.2223214285714,552.1285714285714,3479.1,589.2223214285714,552.1285714285714,3608.2,589.2223214285714,552.1285714285714,3717.6,589.2223214285714,552.1285714285714,3836.2,589.2223214285714,552.1285714285714,3963.2,589.2223214285714,552.1285714285714,4099.8,589.2223214285714,552.1285714285714,4206.1,589.2223214285714,552.1285714285714,4340.2,589.2223214285714,552.1285714285714,4467.2,589.2223214285714,552.1285714285714,4591.6,589.2223214285714,552.1285714285714,4700.9,589.2223214285714,552.1285714285714,4833.5,589.2223214285714,552.1285714285714,4936.5]","[1878.7,1878.7,1000,0,878.7,""oops"",""down"",""right"",""good_move"",5656.9,3775.9,2607.3,1881,1168.6,""oops"",""right"",""up"",""bad_move"",15742.7,10085.3,2117.8,12627.1,997.8,""smooth"",""down"",""down"",""good_move"",19116,3372.8,2459.2,15743.2,913.6,""smooth"",""down"",""down"",""good_move"",25169.6,6053,2500.9,22049.4,619.3,""smooth"",""down"",""down"",""good_move"",28580.4,3410.4,2748.5,25170,661.9,""smooth"",""right"",""right"",""good_move""]","",""
"4409","","<div style=""width:500px;"">
  <p>What determined the result of this run?</p>
  </div>","84","html-slider-response","60","749431","0.0-5.0-1.10","110","1","2025-07-16 12:11:54","1f75c3e559b7213887762d5229550c2b","175.176.13.53","Mozilla/5.0 (Windows NT 10.0; Win64; x64) AppleWebKit/537.36 (KHTML, like Gecko) Chrome/138.0.0.0 Safari/537.36","WebKit","Chrome","138.0.0.0","Windows","10.0","https://app.prolific.com/","en-US,en;q=0.9","65f0831414fd6e9e51e08708","686e379bc37a29ffa5cdc956","6877954fb8163a289cf88d19","1","1","65f0831414fd6e9e51e08708","1","1","2025-07-16T12:24:26.295Z","","","","","","","","","","","AttribQ","","50","","","","","","","","","","","","","","","","","","","","","","","","","","","","",""
"4020","","<div style=""width:500px;"">
  <p>How much control did you have over the ball?</p>
  </div>","77","html-slider-response","61","753457","0.0-5.0-2.10","110","1","2025-07-16 12:11:54","1f75c3e559b7213887762d5229550c2b","175.176.13.53","Mozilla/5.0 (Windows NT 10.0; Win64; x64) AppleWebKit/537.36 (KHTML, like Gecko) Chrome/138.0.0.0 Safari/537.36","WebKit","Chrome","138.0.0.0","Windows","10.0","https://app.prolific.com/","en-US,en;q=0.9","65f0831414fd6e9e51e08708","686e379bc37a29ffa5cdc956","6877954fb8163a289cf88d19","1","1","65f0831414fd6e9e51e08708","1","1","2025-07-16T12:24:30.322Z","","","","","","","","","","","ControlQ","","50","","","","","","","","","","","","","","","","","","","","","","","","","","","","",""
"3256","","<div style=""width:500px;"">
  <p>How would you describe your current emotional state?</p>
  </div>","18","html-slider-response","62","756720","0.0-5.0-3.10","110","1","2025-07-16 12:11:54","1f75c3e559b7213887762d5229550c2b","175.176.13.53","Mozilla/5.0 (Windows NT 10.0; Win64; x64) AppleWebKit/537.36 (KHTML, like Gecko) Chrome/138.0.0.0 Safari/537.36","WebKit","Chrome","138.0.0.0","Windows","10.0","https://app.prolific.com/","en-US,en;q=0.9","65f0831414fd6e9e51e08708","686e379bc37a29ffa5cdc956","6877954fb8163a289cf88d19","1","1","65f0831414fd6e9e51e08708","1","1","2025-07-16T12:24:33.584Z","","","","","","","","","","","StressQ","","50","","","","","","","","","","","","","","","","","","","","","","","","","","","","",""
"2511","","<div style=""width:500px;"">
  <p>What best describes how you currently feel?</p>
  </div>","88","html-slider-response","63","759233","0.0-5.0-4.10","110","1","2025-07-16 12:11:54","1f75c3e559b7213887762d5229550c2b","175.176.13.53","Mozilla/5.0 (Windows NT 10.0; Win64; x64) AppleWebKit/537.36 (KHTML, like Gecko) Chrome/138.0.0.0 Safari/537.36","WebKit","Chrome","138.0.0.0","Windows","10.0","https://app.prolific.com/","en-US,en;q=0.9","65f0831414fd6e9e51e08708","686e379bc37a29ffa5cdc956","6877954fb8163a289cf88d19","1","1","65f0831414fd6e9e51e08708","1","1","2025-07-16T12:24:36.097Z","","","","","","","","","","","MotivationQ","","50","","","","","","","","","","","","","","","","","","","","","","","","","","","","",""
"","","","","ctl-task-cpt","64","786918","0.0-5.0-0.11","110","1","2025-07-16 12:11:54","1f75c3e559b7213887762d5229550c2b","175.176.13.53","Mozilla/5.0 (Windows NT 10.0; Win64; x64) AppleWebKit/537.36 (KHTML, like Gecko) Chrome/138.0.0.0 Safari/537.36","WebKit","Chrome","138.0.0.0","Windows","10.0","https://app.prolific.com/","en-US,en;q=0.9","65f0831414fd6e9e51e08708","686e379bc37a29ffa5cdc956","6877954fb8163a289cf88d19","1","1","65f0831414fd6e9e51e08708","1","1","2025-07-16T12:25:03.782Z","","","","","","","","","","","","","","win-only","2","g1:SE,g2:NW","0.6","12","0","763402.2","1547.1","6561.5","24632.1","1","4","8","6","1","1","1","2","1","0.015151515151515152","1938.9","3000","2520","[""down"",""right""]","{""num_key_presses"":4,""num_perfect"":2,""num_errors"":0,""num_randdir"":2,""num_randdir_good_moves"":2,""num_whilered"":0,""num_whileblue"":0,""num_blue"":2,""num_good_moves"":4}","[294.22232142857143,301.12857142857143,1.2,294.22232142857143,301.12857142857143,112,294.22232142857143,301.12857142857143,226.9,294.22232142857143,301.12857142857143,343,294.22232142857143,301.12857142857143,453,294.22232142857143,301.12857142857143,564.6,294.22232142857143,301.12857142857143,674.1,294.22232142857143,301.12857142857143,778.6,294.22232142857143,301.12857142857143,890.9,357.22232142857143,345.12857142857143,1005.7,410.22232142857143,440.12857142857143,1119.9,420.22232142857143,487.12857142857143,1236.2,468.22232142857143,515.1285714285714,1347.2,482.22232142857143,528.1285714285714,1449,506.22232142857143,538.1285714285714,1569.9,528.2223214285714,538.1285714285714,1682,528.2223214285714,539.1285714285714,1792.8,528.2223214285714,539.1285714285714,1910.5,528.2223214285714,539.1285714285714,2026.3,528.2223214285714,539.1285714285714,2145.5,528.2223214285714,539.1285714285714,2257.5,528.2223214285714,539.1285714285714,2369.8,528.2223214285714,539.1285714285714,2479,528.2223214285714,539.1285714285714,2594.8,528.2223214285714,539.1285714285714,2709.3,528.2223214285714,539.1285714285714,2826.7,528.2223214285714,539.1285714285714,2939.2,528.2223214285714,539.1285714285714,3040.7,528.2223214285714,539.1285714285714,3158.7,528.2223214285714,539.1285714285714,3266.3,528.2223214285714,539.1285714285714,3370,528.2223214285714,539.1285714285714,3476.5,528.2223214285714,539.1285714285714,3597.2,528.2223214285714,539.1285714285714,3713.2,527.2223214285714,534.1285714285714,3826.5,527.2223214285714,532.1285714285714,3937.6,527.2223214285714,534.1285714285714,4037.7,528.2223214285714,540.1285714285714,4156.4,528.2223214285714,540.1285714285714,4271.2,528.2223214285714,540.1285714285714,4387.1,528.2223214285714,540.1285714285714,4500.1,528.2223214285714,540.1285714285714,4601.3,528.2223214285714,540.1285714285714,4715.4,528.2223214285714,540.1285714285714,4823.4,528.2223214285714,540.1285714285714,4936.4]","[4847.2,4847.3,2126.7,2017.5,703.1,""smooth"",""right"",""right"",""good_move"",12044.6,7195.9,2319,9192.1,533.5,""smooth"",""right"",""right"",""good_move"",14863.3,2818.4,2028.1,12044.9,790.3,""oops"",""down"",""down"",""good_move"",17582.6,2718.4,2064.2,14864.2,654.2,""oops"",""down"",""down"",""good_move""]","",""
"3973","","<div style=""width:500px;"">
  <p>What determined the result of this run?</p>
  </div>","93","html-slider-response","65","790894","0.0-5.0-1.11","110","1","2025-07-16 12:11:54","1f75c3e559b7213887762d5229550c2b","175.176.13.53","Mozilla/5.0 (Windows NT 10.0; Win64; x64) AppleWebKit/537.36 (KHTML, like Gecko) Chrome/138.0.0.0 Safari/537.36","WebKit","Chrome","138.0.0.0","Windows","10.0","https://app.prolific.com/","en-US,en;q=0.9","65f0831414fd6e9e51e08708","686e379bc37a29ffa5cdc956","6877954fb8163a289cf88d19","1","1","65f0831414fd6e9e51e08708","1","1","2025-07-16T12:25:07.758Z","","","","","","","","","","","AttribQ","","50","","","","","","","","","","","","","","","","","","","","","","","","","","","","",""
"2643","","<div style=""width:500px;"">
  <p>How much control did you have over the ball?</p>
  </div>","81","html-slider-response","66","793541","0.0-5.0-2.11","110","1","2025-07-16 12:11:54","1f75c3e559b7213887762d5229550c2b","175.176.13.53","Mozilla/5.0 (Windows NT 10.0; Win64; x64) AppleWebKit/537.36 (KHTML, like Gecko) Chrome/138.0.0.0 Safari/537.36","WebKit","Chrome","138.0.0.0","Windows","10.0","https://app.prolific.com/","en-US,en;q=0.9","65f0831414fd6e9e51e08708","686e379bc37a29ffa5cdc956","6877954fb8163a289cf88d19","1","1","65f0831414fd6e9e51e08708","1","1","2025-07-16T12:25:10.406Z","","","","","","","","","","","ControlQ","","50","","","","","","","","","","","","","","","","","","","","","","","","","","","","",""
"2655","","<div style=""width:500px;"">
  <p>How would you describe your current emotional state?</p>
  </div>","20","html-slider-response","67","796201","0.0-5.0-3.11","110","1","2025-07-16 12:11:54","1f75c3e559b7213887762d5229550c2b","175.176.13.53","Mozilla/5.0 (Windows NT 10.0; Win64; x64) AppleWebKit/537.36 (KHTML, like Gecko) Chrome/138.0.0.0 Safari/537.36","WebKit","Chrome","138.0.0.0","Windows","10.0","https://app.prolific.com/","en-US,en;q=0.9","65f0831414fd6e9e51e08708","686e379bc37a29ffa5cdc956","6877954fb8163a289cf88d19","1","1","65f0831414fd6e9e51e08708","1","1","2025-07-16T12:25:13.065Z","","","","","","","","","","","StressQ","","50","","","","","","","","","","","","","","","","","","","","","","","","","","","","",""
"2836","","<div style=""width:500px;"">
  <p>What best describes how you currently feel?</p>
  </div>","89","html-slider-response","68","799041","0.0-5.0-4.11","110","1","2025-07-16 12:11:54","1f75c3e559b7213887762d5229550c2b","175.176.13.53","Mozilla/5.0 (Windows NT 10.0; Win64; x64) AppleWebKit/537.36 (KHTML, like Gecko) Chrome/138.0.0.0 Safari/537.36","WebKit","Chrome","138.0.0.0","Windows","10.0","https://app.prolific.com/","en-US,en;q=0.9","65f0831414fd6e9e51e08708","686e379bc37a29ffa5cdc956","6877954fb8163a289cf88d19","1","1","65f0831414fd6e9e51e08708","1","1","2025-07-16T12:25:15.906Z","","","","","","","","","","","MotivationQ","","50","","","","","","","","","","","","","","","","","","","","","","","","","","","","",""
"","","","","ctl-task-cpt","69","854976","0.0-5.0-0.12","110","1","2025-07-16 12:11:54","1f75c3e559b7213887762d5229550c2b","175.176.13.53","Mozilla/5.0 (Windows NT 10.0; Win64; x64) AppleWebKit/537.36 (KHTML, like Gecko) Chrome/138.0.0.0 Safari/537.36","WebKit","Chrome","138.0.0.0","Windows","10.0","https://app.prolific.com/","en-US,en;q=0.9","65f0831414fd6e9e51e08708","686e379bc37a29ffa5cdc956","6877954fb8163a289cf88d19","1","1","65f0831414fd6e9e51e08708","1","1","2025-07-16T12:26:11.841Z","","","","","","","","","","","","","","win-only","3","g1:SW,g2:NE","0.7","13","0","803213.8","19794.3","24798.3","52908","1","4","8","6","1","1","1","3","2","0.022727272727272728","1683.1","3000","1365","[""down"",""left""]","{""num_key_presses"":8,""num_perfect"":5,""num_errors"":0,""num_randdir"":3,""num_randdir_good_moves"":1,""num_whilered"":0,""num_whileblue"":0,""num_blue"":1,""num_good_moves"":6}","[297.22232142857143,289.12857142857143,0.5,297.22232142857143,289.12857142857143,115.3,297.22232142857143,289.12857142857143,227.8,297.22232142857143,289.12857142857143,328.7,297.22232142857143,289.12857142857143,429.7,297.22232142857143,289.12857142857143,547.2,297.22232142857143,289.12857142857143,656,297.22232142857143,289.12857142857143,767.1,266.22232142857143,317.12857142857143,868.8,147.22232142857143,447.12857142857143,981.2,112.22232142857143,498.12857142857143,1091.3,102.22232142857143,511.12857142857143,1198.9,88.22232142857143,527.1285714285714,1317.9,74.22232142857143,540.1285714285714,1425.9,70.22232142857143,543.1285714285714,1538.8,70.22232142857143,543.1285714285714,1647.4,70.22232142857143,543.1285714285714,1748.9,70.22232142857143,543.1285714285714,1862,70.22232142857143,543.1285714285714,1963.9,70.22232142857143,543.1285714285714,2071.8,70.22232142857143,543.1285714285714,2179.6,70.22232142857143,543.1285714285714,2285.5,70.22232142857143,543.1285714285714,2396.5,70.22232142857143,543.1285714285714,2502.1,70.22232142857143,543.1285714285714,2613.7,70.22232142857143,543.1285714285714,2718.1,70.22232142857143,543.1285714285714,2826.2,70.22232142857143,543.1285714285714,2931.6,70.22232142857143,543.1285714285714,3033.3,70.22232142857143,543.1285714285714,3145.3,70.22232142857143,543.1285714285714,3258.3,70.22232142857143,543.1285714285714,3374.1,70.22232142857143,543.1285714285714,3486.3,70.22232142857143,543.1285714285714,3598.4,70.22232142857143,543.1285714285714,3705.7,70.22232142857143,543.1285714285714,3813,70.22232142857143,543.1285714285714,3922,70.22232142857143,543.1285714285714,4032,70.22232142857143,543.1285714285714,4143.1,70.22232142857143,543.1285714285714,4262.3,70.22232142857143,543.1285714285714,4374.4,70.22232142857143,543.1285714285714,4474.6,70.22232142857143,543.1285714285714,4580.5,70.22232142857143,543.1285714285714,4688.3,70.22232142857143,543.1285714285714,4790.1,70.22232142857143,543.1285714285714,4892.2,70.22232142857143,543.1285714285714,4995.3]","[1831.6,1831.6,1000,0,831.6,""smooth"",""down"",""down"",""good_move"",4632.7,2800.3,1874.9,1832.4,925.4,""smooth"",""down"",""down"",""good_move"",7891.7,3258.4,2518,4633.3,740.4,""oops"",""left"",""up"",""bad_move"",11612.9,3719.7,2315.7,7893.2,1404,""oops"",""left"",""down"",""good_move"",14983.4,3370.1,2755.4,11613.3,614.7,""oops"",""left"",""up"",""bad_move"",17611.7,2627.6,2019.6,14984.1,608,""smooth"",""down"",""down"",""good_move"",20506.3,2893.1,2305.9,17613.2,587.2,""smooth"",""left"",""left"",""good_move"",27736.8,7229.8,2694.1,24430.9,611.8,""smooth"",""left"",""left"",""good_move""]","",""
"5598","","<div style=""width:500px;"">
  <p>What determined the result of this run?</p>
  </div>","90","html-slider-response","70","860576","0.0-5.0-1.12","110","1","2025-07-16 12:11:54","1f75c3e559b7213887762d5229550c2b","175.176.13.53","Mozilla/5.0 (Windows NT 10.0; Win64; x64) AppleWebKit/537.36 (KHTML, like Gecko) Chrome/138.0.0.0 Safari/537.36","WebKit","Chrome","138.0.0.0","Windows","10.0","https://app.prolific.com/","en-US,en;q=0.9","65f0831414fd6e9e51e08708","686e379bc37a29ffa5cdc956","6877954fb8163a289cf88d19","1","1","65f0831414fd6e9e51e08708","1","1","2025-07-16T12:26:17.440Z","","","","","","","","","","","AttribQ","","50","","","","","","","","","","","","","","","","","","","","","","","","","","","","",""
"2817","","<div style=""width:500px;"">
  <p>How much control did you have over the ball?</p>
  </div>","89","html-slider-response","71","863397","0.0-5.0-2.12","110","1","2025-07-16 12:11:54","1f75c3e559b7213887762d5229550c2b","175.176.13.53","Mozilla/5.0 (Windows NT 10.0; Win64; x64) AppleWebKit/537.36 (KHTML, like Gecko) Chrome/138.0.0.0 Safari/537.36","WebKit","Chrome","138.0.0.0","Windows","10.0","https://app.prolific.com/","en-US,en;q=0.9","65f0831414fd6e9e51e08708","686e379bc37a29ffa5cdc956","6877954fb8163a289cf88d19","1","1","65f0831414fd6e9e51e08708","1","1","2025-07-16T12:26:20.261Z","","","","","","","","","","","ControlQ","","50","","","","","","","","","","","","","","","","","","","","","","","","","","","","",""
"4747","","<div style=""width:500px;"">
  <p>How would you describe your current emotional state?</p>
  </div>","23","html-slider-response","72","868150","0.0-5.0-3.12","110","1","2025-07-16 12:11:54","1f75c3e559b7213887762d5229550c2b","175.176.13.53","Mozilla/5.0 (Windows NT 10.0; Win64; x64) AppleWebKit/537.36 (KHTML, like Gecko) Chrome/138.0.0.0 Safari/537.36","WebKit","Chrome","138.0.0.0","Windows","10.0","https://app.prolific.com/","en-US,en;q=0.9","65f0831414fd6e9e51e08708","686e379bc37a29ffa5cdc956","6877954fb8163a289cf88d19","1","1","65f0831414fd6e9e51e08708","1","1","2025-07-16T12:26:25.014Z","","","","","","","","","","","StressQ","","50","","","","","","","","","","","","","","","","","","","","","","","","","","","","",""
"2440","","<div style=""width:500px;"">
  <p>What best describes how you currently feel?</p>
  </div>","95","html-slider-response","73","870595","0.0-5.0-4.12","110","1","2025-07-16 12:11:54","1f75c3e559b7213887762d5229550c2b","175.176.13.53","Mozilla/5.0 (Windows NT 10.0; Win64; x64) AppleWebKit/537.36 (KHTML, like Gecko) Chrome/138.0.0.0 Safari/537.36","WebKit","Chrome","138.0.0.0","Windows","10.0","https://app.prolific.com/","en-US,en;q=0.9","65f0831414fd6e9e51e08708","686e379bc37a29ffa5cdc956","6877954fb8163a289cf88d19","1","1","65f0831414fd6e9e51e08708","1","1","2025-07-16T12:26:27.459Z","","","","","","","","","","","MotivationQ","","50","","","","","","","","","","","","","","","","","","","","","","","","","","","","",""
"","","","","ctl-task-cpt","74","909455","0.0-5.0-0.13","110","1","2025-07-16 12:11:54","1f75c3e559b7213887762d5229550c2b","175.176.13.53","Mozilla/5.0 (Windows NT 10.0; Win64; x64) AppleWebKit/537.36 (KHTML, like Gecko) Chrome/138.0.0.0 Safari/537.36","WebKit","Chrome","138.0.0.0","Windows","10.0","https://app.prolific.com/","en-US,en;q=0.9","65f0831414fd6e9e51e08708","686e379bc37a29ffa5cdc956","6877954fb8163a289cf88d19","1","1","65f0831414fd6e9e51e08708","1","1","2025-07-16T12:27:06.319Z","","","","","","","","","","","","","","win-only","2","g1:SE,g2:NW","0.8","14","0","874767.8","1836.4","6841.6","35808.1","1","4","4","6","1","1","1","4","3","0.030303030303030304","1448.7","3000","2155","[""down"",""right""]","{""num_key_presses"":6,""num_perfect"":5,""num_errors"":0,""num_randdir"":1,""num_randdir_good_moves"":0,""num_whilered"":0,""num_whileblue"":0,""num_blue"":3,""num_good_moves"":5}","[290.22232142857143,298.12857142857143,0.2,290.22232142857143,298.12857142857143,140.9,290.22232142857143,298.12857142857143,269.2,290.22232142857143,298.12857142857143,391.7,290.22232142857143,298.12857142857143,521.4,290.22232142857143,298.12857142857143,641.5,374.22232142857143,371.12857142857143,771.3,447.22232142857143,493.12857142857143,908,471.22232142857143,513.1285714285714,1032.2,531.2223214285714,543.1285714285714,1155.2,540.2223214285714,544.1285714285714,1272,540.2223214285714,544.1285714285714,1392.2,540.2223214285714,544.1285714285714,1516.8,540.2223214285714,544.1285714285714,1650.2,540.2223214285714,544.1285714285714,1772.9,540.2223214285714,544.1285714285714,1890.5,540.2223214285714,544.1285714285714,2009.5,540.2223214285714,544.1285714285714,2131.7,540.2223214285714,544.1285714285714,2251.6,540.2223214285714,544.1285714285714,2356.6,540.2223214285714,544.1285714285714,2481.6,540.2223214285714,544.1285714285714,2585,540.2223214285714,544.1285714285714,2697.3,540.2223214285714,544.1285714285714,2804.9,540.2223214285714,544.1285714285714,2921.7,540.2223214285714,544.1285714285714,3051.7,540.2223214285714,544.1285714285714,3173.3,540.2223214285714,544.1285714285714,3311.1,540.2223214285714,544.1285714285714,3451.2,540.2223214285714,544.1285714285714,3573.4,540.2223214285714,544.1285714285714,3678.3,540.2223214285714,544.1285714285714,3816.4,540.2223214285714,544.1285714285714,3950.6,540.2223214285714,544.1285714285714,4091.3,540.2223214285714,544.1285714285714,4228.1,540.2223214285714,544.1285714285714,4369.4,540.2223214285714,544.1285714285714,4475,540.2223214285714,544.1285714285714,4586.4,540.2223214285714,544.1285714285714,4703.7,540.2223214285714,544.1285714285714,4805.6,540.2223214285714,544.1285714285714,4908.2]","[1591.9,1591.9,1000,0,591.9,""oops"",""right"",""up"",""bad_move"",5403,3809,2487.8,1594,1321.2,""smooth"",""down"",""down"",""good_move"",11716.7,6312.9,2989.2,8126.1,601.4,""smooth"",""down"",""down"",""good_move"",14824.5,3107.4,2246.7,11717.2,860.7,""smooth"",""down"",""down"",""good_move"",22039.5,7214.4,2827.6,18574.9,637,""smooth"",""right"",""right"",""good_move"",28340.3,6299.9,2465.9,25180.5,693.9,""smooth"",""right"",""right"",""good_move""]","",""
"2963","","<div style=""width:500px;"">
  <p>What determined the result of this run?</p>
  </div>","92","html-slider-response","75","912421","0.0-5.0-1.13","110","1","2025-07-16 12:11:54","1f75c3e559b7213887762d5229550c2b","175.176.13.53","Mozilla/5.0 (Windows NT 10.0; Win64; x64) AppleWebKit/537.36 (KHTML, like Gecko) Chrome/138.0.0.0 Safari/537.36","WebKit","Chrome","138.0.0.0","Windows","10.0","https://app.prolific.com/","en-US,en;q=0.9","65f0831414fd6e9e51e08708","686e379bc37a29ffa5cdc956","6877954fb8163a289cf88d19","1","1","65f0831414fd6e9e51e08708","1","1","2025-07-16T12:27:09.286Z","","","","","","","","","","","AttribQ","","50","","","","","","","","","","","","","","","","","","","","","","","","","","","","",""
"4176","","<div style=""width:500px;"">
  <p>How much control did you have over the ball?</p>
  </div>","88","html-slider-response","76","916600","0.0-5.0-2.13","110","1","2025-07-16 12:11:54","1f75c3e559b7213887762d5229550c2b","175.176.13.53","Mozilla/5.0 (Windows NT 10.0; Win64; x64) AppleWebKit/537.36 (KHTML, like Gecko) Chrome/138.0.0.0 Safari/537.36","WebKit","Chrome","138.0.0.0","Windows","10.0","https://app.prolific.com/","en-US,en;q=0.9","65f0831414fd6e9e51e08708","686e379bc37a29ffa5cdc956","6877954fb8163a289cf88d19","1","1","65f0831414fd6e9e51e08708","1","1","2025-07-16T12:27:13.464Z","","","","","","","","","","","ControlQ","","50","","","","","","","","","","","","","","","","","","","","","","","","","","","","",""
"3476","","<div style=""width:500px;"">
  <p>How would you describe your current emotional state?</p>
  </div>","23","html-slider-response","77","920079","0.0-5.0-3.13","110","1","2025-07-16 12:11:54","1f75c3e559b7213887762d5229550c2b","175.176.13.53","Mozilla/5.0 (Windows NT 10.0; Win64; x64) AppleWebKit/537.36 (KHTML, like Gecko) Chrome/138.0.0.0 Safari/537.36","WebKit","Chrome","138.0.0.0","Windows","10.0","https://app.prolific.com/","en-US,en;q=0.9","65f0831414fd6e9e51e08708","686e379bc37a29ffa5cdc956","6877954fb8163a289cf88d19","1","1","65f0831414fd6e9e51e08708","1","1","2025-07-16T12:27:16.943Z","","","","","","","","","","","StressQ","","50","","","","","","","","","","","","","","","","","","","","","","","","","","","","",""
"2511","","<div style=""width:500px;"">
  <p>What best describes how you currently feel?</p>
  </div>","91","html-slider-response","78","922593","0.0-5.0-4.13","110","1","2025-07-16 12:11:54","1f75c3e559b7213887762d5229550c2b","175.176.13.53","Mozilla/5.0 (Windows NT 10.0; Win64; x64) AppleWebKit/537.36 (KHTML, like Gecko) Chrome/138.0.0.0 Safari/537.36","WebKit","Chrome","138.0.0.0","Windows","10.0","https://app.prolific.com/","en-US,en;q=0.9","65f0831414fd6e9e51e08708","686e379bc37a29ffa5cdc956","6877954fb8163a289cf88d19","1","1","65f0831414fd6e9e51e08708","1","1","2025-07-16T12:27:19.457Z","","","","","","","","","","","MotivationQ","","50","","","","","","","","","","","","","","","","","","","","","","","","","","","","",""
