"rt","response_timestamp","stimulus","response","trial_type","trial_index","time_elapsed","internal_node_id","run_id","condition","recorded_at","source_code_version","ip","user_agent","device","browser","browser_version","platform","platform_version","referer","accept_language","PROLIFIC_PID","STUDY_ID","SESSION_ID","WEEK","BATCH","prolific_id","week","batch","realtime","success","responses","item_order","radio_event_ids","radio_event_times","key_event_times","mouse_event_times","straightlining","zigzagging","honeypot","eventType","view_history","slider_start","which_type","canvas_config","goals_layout","control_level","trial_number","tutorial_trial_number","trial_start_time","phase1_start_time","phase2_start_time","phase3_start_time","goal_1_value","goal_1_distance","goal_2_value","goal_2_distance","goal_selected","outcome","outcome_total","participant_final_score","participant_initial_score","participant_final_score_prop","goal_choice_rt","allocated_time","allocated_time_remaining","goal_direction","counts","mouse_movements","key_presses","question_order","question_id"
"12294","1752685169730","<p style='font-size:40px;line-height:1.25'><strong>Welcome to the experiment!</strong></p><p style='font-size:1.1em;line-height:1.25'>Thank you for participanting in our experiment again! You will be asked to play the Dysfunctional Ball Game again. We will briefly recap the rules before we start.</p><p style='font-size:1.1em;line-height:1.25'>Press <strong>Next</strong> to continue.</p>","0","custom-html-button-response","0","12300","0.0-0.0","122","1","2025-07-16 16:59:15","1f75c3e559b7213887762d5229550c2b","105.0.5.233","Mozilla/5.0 (Windows NT 10.0; Win64; x64) AppleWebKit/537.36 (KHTML, like Gecko) Chrome/138.0.0.0 Safari/537.36","WebKit","Chrome","138.0.0.0","Windows","10.0","https://app.prolific.com/","en-GB,en;q=0.9,en-US;q=0.8,zu;q=0.7,es;q=0.6","6129dca465e41b5ae1b262da","68764874ac79eee8c1d4cb03","6877da4e82b5cd19fb2d5dc7","2","0","6129dca465e41b5ae1b262da","2","0","2025-07-16T16:59:29.735Z","","","","","","","","","","","","","","","","","","","","","","","","","","","","","","","","","","","","","","","","","",""
"7267","","","","fullscreen","1","20643","0.0-1.0","122","1","2025-07-16 16:59:15","1f75c3e559b7213887762d5229550c2b","105.0.5.233","Mozilla/5.0 (Windows NT 10.0; Win64; x64) AppleWebKit/537.36 (KHTML, like Gecko) Chrome/138.0.0.0 Safari/537.36","WebKit","Chrome","138.0.0.0","Windows","10.0","https://app.prolific.com/","en-GB,en;q=0.9,en-US;q=0.8,zu;q=0.7,es;q=0.6","6129dca465e41b5ae1b262da","68764874ac79eee8c1d4cb03","6877da4e82b5cd19fb2d5dc7","2","0","6129dca465e41b5ae1b262da","2","0","","true","","","","","","","","","","","","","","","","","","","","","","","","","","","","","","","","","","","","","","","","",""
"3700","1752685181802","<p style='font-size:1.1em;line-height:1.25'>In the following, we will ask you a few questions relating to your feelings in the last 24 hours.<br></p><p style='font-size:1.1em;line-height:1.25'>Press the <strong>Next</strong> button to continue.</p>","0","custom-html-button-response","2","24370","0.0-2.0-0.0","122","1","2025-07-16 16:59:15","1f75c3e559b7213887762d5229550c2b","105.0.5.233","Mozilla/5.0 (Windows NT 10.0; Win64; x64) AppleWebKit/537.36 (KHTML, like Gecko) Chrome/138.0.0.0 Safari/537.36","WebKit","Chrome","138.0.0.0","Windows","10.0","https://app.prolific.com/","en-GB,en;q=0.9,en-US;q=0.8,zu;q=0.7,es;q=0.6","6129dca465e41b5ae1b262da","68764874ac79eee8c1d4cb03","6877da4e82b5cd19fb2d5dc7","2","0","6129dca465e41b5ae1b262da","2","0","2025-07-16T16:59:41.803Z","","","","","","","","","","","","","","","","","","","","","","","","","","","","","","","","","","","","","","","","","",""
"67342.79999999702","","","","survey-template","3","91759","0.0-2.0-1.0","122","1","2025-07-16 16:59:15","1f75c3e559b7213887762d5229550c2b","105.0.5.233","Mozilla/5.0 (Windows NT 10.0; Win64; x64) AppleWebKit/537.36 (KHTML, like Gecko) Chrome/138.0.0.0 Safari/537.36","WebKit","Chrome","138.0.0.0","Windows","10.0","https://app.prolific.com/","en-GB,en;q=0.9,en-US;q=0.8,zu;q=0.7,es;q=0.6","6129dca465e41b5ae1b262da","68764874ac79eee8c1d4cb03","6877da4e82b5cd19fb2d5dc7","2","0","6129dca465e41b5ae1b262da","2","0","2025-07-16T17:00:49.193Z","","{""Q01"":""0"",""Q02"":""0"",""Q03"":""0"",""Q04"":""1"",""Q05"":""2"",""Q06"":""1"",""Q07"":""0"",""Q08"":""0"",""Q09"":""2"",""Q10"":""1"",""Q11"":""3"",""Q12"":""1"",""Q13"":""5"",""Q14"":""4"",""Q15"":""5"",""Q16"":""1"",""Q17"":""1"",""Q18"":""0"",""Q19"":""4"",""Q20"":""4"",""Q21"":""4"",""Q22"":""4""}","[0,1,2,3,4,5,6,7,8,9,10,11,12,13,14,15,16,17,18,19,20,21]","[""Q01"",""Q02"",""Q03"",""Q04"",""Q05"",""Q06"",""Q07"",""Q08"",""Q09"",""Q10"",""Q11"",""Q12"",""Q13"",""Q14"",""Q15"",""Q16"",""Q17"",""Q18"",""Q19"",""Q20"",""Q21"",""Q22""]","[3705.2999999970198,5131.70000000298,6380.5,9000.5,13967.59999999404,15524.29999999702,17086,18778.79999999702,23333.29999999702,25162.5,27481.79999999702,29590.29999999702,34475.89999999106,36150.29999999702,43476.70000000298,45198,46727.20000000298,48720.29999999702,58934.09999999404,62144.79999999702,64423,66032.29999999702]","[]","[6.200000002980232,3705.2999999970198,5131.70000000298,6380.5,9000.5,12380.70000000298,13967.59999999404,15524.29999999702,17086,18778.79999999702,23333.29999999702,25162.5,27481.79999999702,29590.29999999702,32989,34475.89999999106,36150.29999999702,41929,43476.70000000298,45198,46727.20000000298,48720.29999999702,57502,58934.09999999404,62144.79999999702,64423,66032.29999999702,67328.79999999702]","0.2727272727272727","0.38095238095238093","0","drsp","","","","","","","","","","","","","","","","","","","","","","","","","","","","","","",""
"16843.70000000298","","","","survey-template","4","108610","0.0-2.0-2.0","122","1","2025-07-16 16:59:15","1f75c3e559b7213887762d5229550c2b","105.0.5.233","Mozilla/5.0 (Windows NT 10.0; Win64; x64) AppleWebKit/537.36 (KHTML, like Gecko) Chrome/138.0.0.0 Safari/537.36","WebKit","Chrome","138.0.0.0","Windows","10.0","https://app.prolific.com/","en-GB,en;q=0.9,en-US;q=0.8,zu;q=0.7,es;q=0.6","6129dca465e41b5ae1b262da","68764874ac79eee8c1d4cb03","6877da4e82b5cd19fb2d5dc7","2","0","6129dca465e41b5ae1b262da","2","0","2025-07-16T17:01:06.044Z","","{""Q01"":""2"",""Q02"":""2"",""Q03"":""1""}","[0,1,2]","[""Q01"",""Q02"",""Q03"",""Q01"",""Q03""]","[4717.0999999940395,6624.5999999940395,8739.79999999702,12878.70000000298,14690.29999999702]","[]","[4717.0999999940395,6624.5999999940395,8739.79999999702,9598,12878.70000000298,14690.29999999702,15694.29999999702,16839.89999999106]","0.3333333333333333","0.5","0","stress","","","","","","","","","","","","","","","","","","","","","","","","","","","","","","",""
"6458","","","","instructions","5","115072","0.0-3.0-0.0","122","1","2025-07-16 16:59:15","1f75c3e559b7213887762d5229550c2b","105.0.5.233","Mozilla/5.0 (Windows NT 10.0; Win64; x64) AppleWebKit/537.36 (KHTML, like Gecko) Chrome/138.0.0.0 Safari/537.36","WebKit","Chrome","138.0.0.0","Windows","10.0","https://app.prolific.com/","en-GB,en;q=0.9,en-US;q=0.8,zu;q=0.7,es;q=0.6","6129dca465e41b5ae1b262da","68764874ac79eee8c1d4cb03","6877da4e82b5cd19fb2d5dc7","2","0","6129dca465e41b5ae1b262da","2","0","","","","","","","","","","","","","[{""page_index"":0,""viewing_time"":6457}]","","","","","","","","","","","","","","","","","","","","","","","","","","","","","",""
"6657","","<p>Before you start with this game please answer the following three questions yourself. </p>
  <p>Through this game, we measure several aspects of your cognitive performance, such as reaction times, multi-tasking capabilities </p>
  <p>and the ability to assess the situation you are in.</p>
  <p></p>
  <p><b>How good do you usually are in such tasks?</b></p>","100","html-slider-response","6","121761","0.0-4.0-0.0","122","1","2025-07-16 16:59:15","1f75c3e559b7213887762d5229550c2b","105.0.5.233","Mozilla/5.0 (Windows NT 10.0; Win64; x64) AppleWebKit/537.36 (KHTML, like Gecko) Chrome/138.0.0.0 Safari/537.36","WebKit","Chrome","138.0.0.0","Windows","10.0","https://app.prolific.com/","en-GB,en;q=0.9,en-US;q=0.8,zu;q=0.7,es;q=0.6","6129dca465e41b5ae1b262da","68764874ac79eee8c1d4cb03","6877da4e82b5cd19fb2d5dc7","2","0","6129dca465e41b5ae1b262da","2","0","2025-07-16T17:01:19.195Z","","","","","","","","","","","PreSkillQ","","50","","","","","","","","","","","","","","","","","","","","","","","","","","","","",""
"4762","","<div style=""width:500px;"">
  <p>How well do you think you will perform in this task compared to other participants?</p>
  </div>","100","html-slider-response","7","126527","0.0-4.0-1.0","122","1","2025-07-16 16:59:15","1f75c3e559b7213887762d5229550c2b","105.0.5.233","Mozilla/5.0 (Windows NT 10.0; Win64; x64) AppleWebKit/537.36 (KHTML, like Gecko) Chrome/138.0.0.0 Safari/537.36","WebKit","Chrome","138.0.0.0","Windows","10.0","https://app.prolific.com/","en-GB,en;q=0.9,en-US;q=0.8,zu;q=0.7,es;q=0.6","6129dca465e41b5ae1b262da","68764874ac79eee8c1d4cb03","6877da4e82b5cd19fb2d5dc7","2","0","6129dca465e41b5ae1b262da","2","0","2025-07-16T17:01:23.961Z","","","","","","","","","","","PrePerfQ","","50","","","","","","","","","","","","","","","","","","","","","","","","","","","","",""
"4317","","<div style=""width:500px;"">
  <p>What best describes how you currently feel?</p>
  </div>","46","html-slider-response","8","130847","0.0-4.0-2.0","122","1","2025-07-16 16:59:15","1f75c3e559b7213887762d5229550c2b","105.0.5.233","Mozilla/5.0 (Windows NT 10.0; Win64; x64) AppleWebKit/537.36 (KHTML, like Gecko) Chrome/138.0.0.0 Safari/537.36","WebKit","Chrome","138.0.0.0","Windows","10.0","https://app.prolific.com/","en-GB,en;q=0.9,en-US;q=0.8,zu;q=0.7,es;q=0.6","6129dca465e41b5ae1b262da","68764874ac79eee8c1d4cb03","6877da4e82b5cd19fb2d5dc7","2","0","6129dca465e41b5ae1b262da","2","0","2025-07-16T17:01:28.280Z","","","","","","","","","","","PreMotivationQ","","50","","","","","","","","","","","","","","","","","","","","","","","","","","","","",""
"","","","","ctl-task-cpt","9","174362","0.0-5.0-0.0","122","1","2025-07-16 16:59:15","1f75c3e559b7213887762d5229550c2b","105.0.5.233","Mozilla/5.0 (Windows NT 10.0; Win64; x64) AppleWebKit/537.36 (KHTML, like Gecko) Chrome/138.0.0.0 Safari/537.36","WebKit","Chrome","138.0.0.0","Windows","10.0","https://app.prolific.com/","en-GB,en;q=0.9,en-US;q=0.8,zu;q=0.7,es;q=0.6","6129dca465e41b5ae1b262da","68764874ac79eee8c1d4cb03","6877da4e82b5cd19fb2d5dc7","2","0","6129dca465e41b5ae1b262da","2","0","2025-07-16T17:02:11.795Z","","","","","","","","","","","","","","win-only","2","g1:SE,g2:NW","1","1","0","134515.1","4050.5","9058.1","40499.9","1","4","4","6","2","4","3","3","0","0.022727272727272728","1544.6","3000","905","[""left"",""up""]","{""num_key_presses"":8,""num_perfect"":7,""num_errors"":1,""num_randdir"":0,""num_randdir_good_moves"":0,""num_whilered"":0,""num_whileblue"":1,""num_blue"":3,""num_good_moves"":7}","[297.22232142857143,296.12857142857143,5.1,297.22232142857143,296.12857142857143,114.7,297.22232142857143,296.12857142857143,215.3,297.22232142857143,296.12857142857143,324.7,297.22232142857143,296.12857142857143,425.7,297.22232142857143,296.12857142857143,526,297.22232142857143,296.12857142857143,639.4,297.22232142857143,296.12857142857143,740.5,297.22232142857143,296.12857142857143,840.7,240.22232142857143,238.12857142857143,945.9,102.22232142857143,109.12857142857143,1049.7,72.22232142857143,76.12857142857143,1155.1,70.22232142857143,73.12857142857143,1256.1,69.22232142857143,73.12857142857143,1364.7,69.22232142857143,73.12857142857143,1471.7,69.22232142857143,73.12857142857143,1576.7,69.22232142857143,73.12857142857143,1679.8,69.22232142857143,73.12857142857143,1788.2,69.22232142857143,73.12857142857143,1888.3,69.22232142857143,73.12857142857143,1988.6,69.22232142857143,73.12857142857143,2097,69.22232142857143,73.12857142857143,2197.2,69.22232142857143,73.12857142857143,2300.6,69.22232142857143,73.12857142857143,2408.1,69.22232142857143,73.12857142857143,2513,69.22232142857143,73.12857142857143,2618.5,69.22232142857143,73.12857142857143,2718.7,69.22232142857143,73.12857142857143,2827.2,69.22232142857143,73.12857142857143,2938.8,69.22232142857143,73.12857142857143,3046.5,69.22232142857143,73.12857142857143,3157.9,69.22232142857143,73.12857142857143,3261.8,69.22232142857143,73.12857142857143,3370.9,69.22232142857143,73.12857142857143,3470.9,69.22232142857143,73.12857142857143,3577.9,69.22232142857143,73.12857142857143,3686.4,69.22232142857143,73.12857142857143,3792.3,69.22232142857143,73.12857142857143,3895.2,69.22232142857143,73.12857142857143,3995.8,69.22232142857143,73.12857142857143,4103.1,69.22232142857143,73.12857142857143,4203.1,69.22232142857143,73.12857142857143,4306.3,69.22232142857143,73.12857142857143,4410.7,69.22232142857143,73.12857142857143,4524.5,69.22232142857143,73.12857142857143,4627.9,69.22232142857143,73.12857142857143,4733.9,69.22232142857143,73.12857142857143,4834.6,69.22232142857143,73.12857142857143,4942.1]","[1435.5,1435.5,1000,0.1,435.5,""smooth"",""up"",""up"",""good_move"",8511.5,7070.8,2298.9,5827.3,385.3,""smooth"",""up"",""up"",""good_move"",12122.8,3610.3,3220.7,8512.6,389.5,""smooth"",""up"",""up"",""good_move"",14821.6,2697.2,2354,12124.6,343.1,""while_blue"",""left"",""down"",""bad_move"",17754.4,2923.8,2275,14830.6,648.8,""smooth"",""left"",""left"",""good_move"",20607.5,2848.2,2380.6,17759.4,467.5,""smooth"",""up"",""up"",""good_move"",27406.6,6798.3,2276.2,24709,421.5,""smooth"",""left"",""left"",""good_move"",31304.6,3897,3418.5,27407.7,478.4,""smooth"",""left"",""left"",""good_move""]","",""
"4766","","<div style=""width:500px;"">
  <p>What determined the result of this run?</p>
  </div>","100","html-slider-response","10","179131","0.0-5.0-1.0","122","1","2025-07-16 16:59:15","1f75c3e559b7213887762d5229550c2b","105.0.5.233","Mozilla/5.0 (Windows NT 10.0; Win64; x64) AppleWebKit/537.36 (KHTML, like Gecko) Chrome/138.0.0.0 Safari/537.36","WebKit","Chrome","138.0.0.0","Windows","10.0","https://app.prolific.com/","en-GB,en;q=0.9,en-US;q=0.8,zu;q=0.7,es;q=0.6","6129dca465e41b5ae1b262da","68764874ac79eee8c1d4cb03","6877da4e82b5cd19fb2d5dc7","2","0","6129dca465e41b5ae1b262da","2","0","2025-07-16T17:02:16.565Z","","","","","","","","","","","AttribQ","","50","","","","","","","","","","","","","","","","","","","","","","","","","","","","",""
"4040","","<div style=""width:500px;"">
  <p>How much control did you have over the ball?</p>
  </div>","100","html-slider-response","11","183176","0.0-5.0-2.0","122","1","2025-07-16 16:59:15","1f75c3e559b7213887762d5229550c2b","105.0.5.233","Mozilla/5.0 (Windows NT 10.0; Win64; x64) AppleWebKit/537.36 (KHTML, like Gecko) Chrome/138.0.0.0 Safari/537.36","WebKit","Chrome","138.0.0.0","Windows","10.0","https://app.prolific.com/","en-GB,en;q=0.9,en-US;q=0.8,zu;q=0.7,es;q=0.6","6129dca465e41b5ae1b262da","68764874ac79eee8c1d4cb03","6877da4e82b5cd19fb2d5dc7","2","0","6129dca465e41b5ae1b262da","2","0","2025-07-16T17:02:20.610Z","","","","","","","","","","","ControlQ","","50","","","","","","","","","","","","","","","","","","","","","","","","","","","","",""
"4031","","<div style=""width:500px;"">
  <p>How would you describe your current emotional state?</p>
  </div>","35","html-slider-response","12","187210","0.0-5.0-3.0","122","1","2025-07-16 16:59:15","1f75c3e559b7213887762d5229550c2b","105.0.5.233","Mozilla/5.0 (Windows NT 10.0; Win64; x64) AppleWebKit/537.36 (KHTML, like Gecko) Chrome/138.0.0.0 Safari/537.36","WebKit","Chrome","138.0.0.0","Windows","10.0","https://app.prolific.com/","en-GB,en;q=0.9,en-US;q=0.8,zu;q=0.7,es;q=0.6","6129dca465e41b5ae1b262da","68764874ac79eee8c1d4cb03","6877da4e82b5cd19fb2d5dc7","2","0","6129dca465e41b5ae1b262da","2","0","2025-07-16T17:02:24.643Z","","","","","","","","","","","StressQ","","50","","","","","","","","","","","","","","","","","","","","","","","","","","","","",""
"3407","","<div style=""width:500px;"">
  <p>What best describes how you currently feel?</p>
  </div>","59","html-slider-response","13","190620","0.0-5.0-4.0","122","1","2025-07-16 16:59:15","1f75c3e559b7213887762d5229550c2b","105.0.5.233","Mozilla/5.0 (Windows NT 10.0; Win64; x64) AppleWebKit/537.36 (KHTML, like Gecko) Chrome/138.0.0.0 Safari/537.36","WebKit","Chrome","138.0.0.0","Windows","10.0","https://app.prolific.com/","en-GB,en;q=0.9,en-US;q=0.8,zu;q=0.7,es;q=0.6","6129dca465e41b5ae1b262da","68764874ac79eee8c1d4cb03","6877da4e82b5cd19fb2d5dc7","2","0","6129dca465e41b5ae1b262da","2","0","2025-07-16T17:02:28.053Z","","","","","","","","","","","MotivationQ","","50","","","","","","","","","","","","","","","","","","","","","","","","","","","","",""
"","","","","ctl-task-cpt","14","236086","0.0-5.0-0.1","122","1","2025-07-16 16:59:15","1f75c3e559b7213887762d5229550c2b","105.0.5.233","Mozilla/5.0 (Windows NT 10.0; Win64; x64) AppleWebKit/537.36 (KHTML, like Gecko) Chrome/138.0.0.0 Safari/537.36","WebKit","Chrome","138.0.0.0","Windows","10.0","https://app.prolific.com/","en-GB,en;q=0.9,en-US;q=0.8,zu;q=0.7,es;q=0.6","6129dca465e41b5ae1b262da","68764874ac79eee8c1d4cb03","6877da4e82b5cd19fb2d5dc7","2","0","6129dca465e41b5ae1b262da","2","0","2025-07-16T17:03:13.520Z","","","","","","","","","","","","","","win-only","1","g1:NE,g2:SW","0.9","2","0","194278.7","1676.7","6689.2","42447.8","1","4","8","6","2","-8","-8","0","3","0","1784.7","3000","-2190","[""down"",""left""]","{""num_key_presses"":7,""num_perfect"":6,""num_errors"":0,""num_randdir"":1,""num_randdir_good_moves"":0,""num_whilered"":0,""num_whileblue"":0,""num_blue"":4,""num_good_moves"":6}","[298.22232142857143,300.12857142857143,0.8,298.22232142857143,300.12857142857143,107.9,298.22232142857143,300.12857142857143,212.9,298.22232142857143,300.12857142857143,319.7,298.22232142857143,300.12857142857143,420.4,298.22232142857143,300.12857142857143,524.6,298.22232142857143,300.12857142857143,626.8,298.22232142857143,300.12857142857143,732.5,298.22232142857143,300.12857142857143,838.1,195.22232142857143,377.12857142857143,947.6,23.222321428571426,547.1285714285714,1061,6.222321428571426,581.1285714285714,1162.6,6.222321428571426,596.1285714285714,1264.7,9.222321428571426,598.1285714285714,1365.7,43.222321428571426,566.1285714285714,1465.9,51.222321428571426,559.1285714285714,1578.4,51.222321428571426,558.1285714285714,1681,51.222321428571426,558.1285714285714,1782.1,51.222321428571426,558.1285714285714,1891.4,51.222321428571426,558.1285714285714,1992.6,51.222321428571426,558.1285714285714,2096.6,51.222321428571426,558.1285714285714,2201,51.222321428571426,558.1285714285714,2310.6,51.222321428571426,558.1285714285714,2418.2,51.222321428571426,558.1285714285714,2522.3,51.222321428571426,558.1285714285714,2625.1,51.222321428571426,558.1285714285714,2730.3,51.222321428571426,558.1285714285714,2845.4,51.222321428571426,558.1285714285714,2957.3,51.222321428571426,558.1285714285714,3064.2,51.222321428571426,558.1285714285714,3164.3,51.222321428571426,558.1285714285714,3274.5,51.222321428571426,558.1285714285714,3377.2,51.222321428571426,558.1285714285714,3482.1,51.222321428571426,558.1285714285714,3586.6,51.222321428571426,558.1285714285714,3687.8,51.222321428571426,558.1285714285714,3791.1,51.222321428571426,558.1285714285714,3898.4,51.222321428571426,558.1285714285714,4006.3,51.222321428571426,558.1285714285714,4117.4,51.222321428571426,558.1285714285714,4224.1,51.222321428571426,558.1285714285714,4325.4,51.222321428571426,558.1285714285714,4427.6,51.222321428571426,558.1285714285714,4530.5,51.222321428571426,558.1285714285714,4643,51.222321428571426,558.1285714285714,4744.9,51.222321428571426,558.1285714285714,4849.1,51.222321428571426,558.1285714285714,4956.1]","[1491,1491,1000,0.1,491,""smooth"",""down"",""down"",""good_move"",4444,2951.1,2546.6,1493,404.4,""smooth"",""down"",""down"",""good_move"",7918.8,3473.9,3039.1,4444.9,434.8,""smooth"",""down"",""down"",""good_move"",10460.3,2540.4,1919.1,7919.9,621.3,""oops"",""left"",""up"",""bad_move"",16431.2,5967.3,2176,13814,441.2,""smooth"",""left"",""left"",""good_move"",22754.7,6319,2139.8,20131.5,483.4,""smooth"",""left"",""left"",""good_move"",32700.3,9944.6,2782.4,29492.4,425.5,""smooth"",""left"",""left"",""good_move""]","",""
"6942","","<div style=""width:500px;"">
  <p>What determined the result of this run?</p>
  </div>","27","html-slider-response","15","243033","0.0-5.0-1.1","122","1","2025-07-16 16:59:15","1f75c3e559b7213887762d5229550c2b","105.0.5.233","Mozilla/5.0 (Windows NT 10.0; Win64; x64) AppleWebKit/537.36 (KHTML, like Gecko) Chrome/138.0.0.0 Safari/537.36","WebKit","Chrome","138.0.0.0","Windows","10.0","https://app.prolific.com/","en-GB,en;q=0.9,en-US;q=0.8,zu;q=0.7,es;q=0.6","6129dca465e41b5ae1b262da","68764874ac79eee8c1d4cb03","6877da4e82b5cd19fb2d5dc7","2","0","6129dca465e41b5ae1b262da","2","0","2025-07-16T17:03:20.466Z","","","","","","","","","","","AttribQ","","50","","","","","","","","","","","","","","","","","","","","","","","","","","","","",""
"4726","","<div style=""width:500px;"">
  <p>How much control did you have over the ball?</p>
  </div>","76","html-slider-response","16","247763","0.0-5.0-2.1","122","1","2025-07-16 16:59:15","1f75c3e559b7213887762d5229550c2b","105.0.5.233","Mozilla/5.0 (Windows NT 10.0; Win64; x64) AppleWebKit/537.36 (KHTML, like Gecko) Chrome/138.0.0.0 Safari/537.36","WebKit","Chrome","138.0.0.0","Windows","10.0","https://app.prolific.com/","en-GB,en;q=0.9,en-US;q=0.8,zu;q=0.7,es;q=0.6","6129dca465e41b5ae1b262da","68764874ac79eee8c1d4cb03","6877da4e82b5cd19fb2d5dc7","2","0","6129dca465e41b5ae1b262da","2","0","2025-07-16T17:03:25.197Z","","","","","","","","","","","ControlQ","","50","","","","","","","","","","","","","","","","","","","","","","","","","","","","",""
"3275","","<div style=""width:500px;"">
  <p>How would you describe your current emotional state?</p>
  </div>","33","html-slider-response","17","251042","0.0-5.0-3.1","122","1","2025-07-16 16:59:15","1f75c3e559b7213887762d5229550c2b","105.0.5.233","Mozilla/5.0 (Windows NT 10.0; Win64; x64) AppleWebKit/537.36 (KHTML, like Gecko) Chrome/138.0.0.0 Safari/537.36","WebKit","Chrome","138.0.0.0","Windows","10.0","https://app.prolific.com/","en-GB,en;q=0.9,en-US;q=0.8,zu;q=0.7,es;q=0.6","6129dca465e41b5ae1b262da","68764874ac79eee8c1d4cb03","6877da4e82b5cd19fb2d5dc7","2","0","6129dca465e41b5ae1b262da","2","0","2025-07-16T17:03:28.475Z","","","","","","","","","","","StressQ","","50","","","","","","","","","","","","","","","","","","","","","","","","","","","","",""
"2980","","<div style=""width:500px;"">
  <p>What best describes how you currently feel?</p>
  </div>","68","html-slider-response","18","254025","0.0-5.0-4.1","122","1","2025-07-16 16:59:15","1f75c3e559b7213887762d5229550c2b","105.0.5.233","Mozilla/5.0 (Windows NT 10.0; Win64; x64) AppleWebKit/537.36 (KHTML, like Gecko) Chrome/138.0.0.0 Safari/537.36","WebKit","Chrome","138.0.0.0","Windows","10.0","https://app.prolific.com/","en-GB,en;q=0.9,en-US;q=0.8,zu;q=0.7,es;q=0.6","6129dca465e41b5ae1b262da","68764874ac79eee8c1d4cb03","6877da4e82b5cd19fb2d5dc7","2","0","6129dca465e41b5ae1b262da","2","0","2025-07-16T17:03:31.458Z","","","","","","","","","","","MotivationQ","","50","","","","","","","","","","","","","","","","","","","","","","","","","","","","",""
"","","","","ctl-task-cpt","19","284973","0.0-5.0-0.2","122","1","2025-07-16 16:59:15","1f75c3e559b7213887762d5229550c2b","105.0.5.233","Mozilla/5.0 (Windows NT 10.0; Win64; x64) AppleWebKit/537.36 (KHTML, like Gecko) Chrome/138.0.0.0 Safari/537.36","WebKit","Chrome","138.0.0.0","Windows","10.0","https://app.prolific.com/","en-GB,en;q=0.9,en-US;q=0.8,zu;q=0.7,es;q=0.6","6129dca465e41b5ae1b262da","68764874ac79eee8c1d4cb03","6877da4e82b5cd19fb2d5dc7","2","0","6129dca465e41b5ae1b262da","2","0","2025-07-16T17:04:02.406Z","","","","","","","","","","","","","","win-only","1","g1:NE,g2:SW","0.8","3","0","257687.6","1984.9","6995.2","27926.2","1","4","4","6","2","4","4","4","0","0.030303030303030304","1370.5","3000","1110","[""down"",""left""]","{""num_key_presses"":6,""num_perfect"":5,""num_errors"":0,""num_randdir"":1,""num_randdir_good_moves"":1,""num_whilered"":0,""num_whileblue"":0,""num_blue"":1,""num_good_moves"":6}","[296.22232142857143,300.12857142857143,0.5,296.22232142857143,300.12857142857143,101.3,296.22232142857143,300.12857142857143,201.7,296.22232142857143,300.12857142857143,307.9,296.22232142857143,300.12857142857143,411.9,296.22232142857143,300.12857142857143,520.7,296.22232142857143,300.12857142857143,624.1,196.22232142857143,402.12857142857143,728.7,97.22232142857143,500.12857142857143,830.5,78.22232142857143,526.1285714285714,932.7,67.22232142857143,542.1285714285714,1040.8,54.222321428571426,551.1285714285714,1148.6,53.222321428571426,552.1285714285714,1252.4,53.222321428571426,552.1285714285714,1362.9,53.222321428571426,552.1285714285714,1464.2,53.222321428571426,552.1285714285714,1573.1,53.222321428571426,552.1285714285714,1677.3,53.222321428571426,552.1285714285714,1779.6,53.222321428571426,552.1285714285714,1888.8,53.222321428571426,552.1285714285714,1989.7,53.222321428571426,552.1285714285714,2100,53.222321428571426,552.1285714285714,2201.4,53.222321428571426,552.1285714285714,2302.1,53.222321428571426,552.1285714285714,2410,53.222321428571426,552.1285714285714,2511.6,53.222321428571426,552.1285714285714,2620.7,53.222321428571426,552.1285714285714,2728,53.222321428571426,552.1285714285714,2828,53.222321428571426,552.1285714285714,2943,53.222321428571426,552.1285714285714,3044.4,53.222321428571426,552.1285714285714,3148.1,53.222321428571426,552.1285714285714,3248.6,53.222321428571426,552.1285714285714,3354.4,53.222321428571426,552.1285714285714,3461.2,53.222321428571426,552.1285714285714,3563.6,53.222321428571426,552.1285714285714,3671,53.222321428571426,552.1285714285714,3774.5,53.222321428571426,552.1285714285714,3880,53.222321428571426,552.1285714285714,3999.5,53.222321428571426,552.1285714285714,4099.8,53.222321428571426,552.1285714285714,4200,53.222321428571426,552.1285714285714,4301.1,53.222321428571426,552.1285714285714,4404,53.222321428571426,552.1285714285714,4509.8,53.222321428571426,552.1285714285714,4613.6,53.222321428571426,552.1285714285714,4730.3,53.222321428571426,552.1285714285714,4833,53.222321428571426,552.1285714285714,4942.8]","[1413.6,1413.6,1000,0,413.6,""smooth"",""down"",""down"",""good_move"",4613,3197,2767.7,1416.2,429.2,""smooth"",""down"",""down"",""good_move"",7230.7,2615.1,2187.3,4615.6,427.8,""smooth"",""down"",""down"",""good_move"",14185.1,6952.2,2378.3,11349.3,457.5,""oops"",""left"",""left"",""good_move"",17400,3213.4,2700.2,14186.6,513.2,""smooth"",""left"",""left"",""good_move"",20819.1,3417.7,3011.3,17401.4,406.4,""smooth"",""left"",""left"",""good_move""]","",""
"3630","","<div style=""width:500px;"">
  <p>What determined the result of this run?</p>
  </div>","89","html-slider-response","20","288608","0.0-5.0-1.2","122","1","2025-07-16 16:59:15","1f75c3e559b7213887762d5229550c2b","105.0.5.233","Mozilla/5.0 (Windows NT 10.0; Win64; x64) AppleWebKit/537.36 (KHTML, like Gecko) Chrome/138.0.0.0 Safari/537.36","WebKit","Chrome","138.0.0.0","Windows","10.0","https://app.prolific.com/","en-GB,en;q=0.9,en-US;q=0.8,zu;q=0.7,es;q=0.6","6129dca465e41b5ae1b262da","68764874ac79eee8c1d4cb03","6877da4e82b5cd19fb2d5dc7","2","0","6129dca465e41b5ae1b262da","2","0","2025-07-16T17:04:06.041Z","","","","","","","","","","","AttribQ","","50","","","","","","","","","","","","","","","","","","","","","","","","","","","","",""
"4688","","<div style=""width:500px;"">
  <p>How much control did you have over the ball?</p>
  </div>","95","html-slider-response","21","293305","0.0-5.0-2.2","122","1","2025-07-16 16:59:15","1f75c3e559b7213887762d5229550c2b","105.0.5.233","Mozilla/5.0 (Windows NT 10.0; Win64; x64) AppleWebKit/537.36 (KHTML, like Gecko) Chrome/138.0.0.0 Safari/537.36","WebKit","Chrome","138.0.0.0","Windows","10.0","https://app.prolific.com/","en-GB,en;q=0.9,en-US;q=0.8,zu;q=0.7,es;q=0.6","6129dca465e41b5ae1b262da","68764874ac79eee8c1d4cb03","6877da4e82b5cd19fb2d5dc7","2","0","6129dca465e41b5ae1b262da","2","0","2025-07-16T17:04:10.738Z","","","","","","","","","","","ControlQ","","50","","","","","","","","","","","","","","","","","","","","","","","","","","","","",""
"3859","","<div style=""width:500px;"">
  <p>How would you describe your current emotional state?</p>
  </div>","30","html-slider-response","22","297167","0.0-5.0-3.2","122","1","2025-07-16 16:59:15","1f75c3e559b7213887762d5229550c2b","105.0.5.233","Mozilla/5.0 (Windows NT 10.0; Win64; x64) AppleWebKit/537.36 (KHTML, like Gecko) Chrome/138.0.0.0 Safari/537.36","WebKit","Chrome","138.0.0.0","Windows","10.0","https://app.prolific.com/","en-GB,en;q=0.9,en-US;q=0.8,zu;q=0.7,es;q=0.6","6129dca465e41b5ae1b262da","68764874ac79eee8c1d4cb03","6877da4e82b5cd19fb2d5dc7","2","0","6129dca465e41b5ae1b262da","2","0","2025-07-16T17:04:14.600Z","","","","","","","","","","","StressQ","","50","","","","","","","","","","","","","","","","","","","","","","","","","","","","",""
"2806","","<div style=""width:500px;"">
  <p>What best describes how you currently feel?</p>
  </div>","70","html-slider-response","23","299976","0.0-5.0-4.2","122","1","2025-07-16 16:59:15","1f75c3e559b7213887762d5229550c2b","105.0.5.233","Mozilla/5.0 (Windows NT 10.0; Win64; x64) AppleWebKit/537.36 (KHTML, like Gecko) Chrome/138.0.0.0 Safari/537.36","WebKit","Chrome","138.0.0.0","Windows","10.0","https://app.prolific.com/","en-GB,en;q=0.9,en-US;q=0.8,zu;q=0.7,es;q=0.6","6129dca465e41b5ae1b262da","68764874ac79eee8c1d4cb03","6877da4e82b5cd19fb2d5dc7","2","0","6129dca465e41b5ae1b262da","2","0","2025-07-16T17:04:17.410Z","","","","","","","","","","","MotivationQ","","50","","","","","","","","","","","","","","","","","","","","","","","","","","","","",""
"","","","","ctl-task-cpt","24","330294","0.0-5.0-0.3","122","1","2025-07-16 16:59:15","1f75c3e559b7213887762d5229550c2b","105.0.5.233","Mozilla/5.0 (Windows NT 10.0; Win64; x64) AppleWebKit/537.36 (KHTML, like Gecko) Chrome/138.0.0.0 Safari/537.36","WebKit","Chrome","138.0.0.0","Windows","10.0","https://app.prolific.com/","en-GB,en;q=0.9,en-US;q=0.8,zu;q=0.7,es;q=0.6","6129dca465e41b5ae1b262da","68764874ac79eee8c1d4cb03","6877da4e82b5cd19fb2d5dc7","2","0","6129dca465e41b5ae1b262da","2","0","2025-07-16T17:04:47.727Z","","","","","","","","","","","","","","win-only","2","g1:SE,g2:NW","0.7","4","0","303637","1291.8","6305.3","27301.6","1","4","8","6","2","8","8","12","4","0.09090909090909091","1446.7","3000","665","[""left"",""up""]","{""num_key_presses"":8,""num_perfect"":5,""num_errors"":0,""num_randdir"":3,""num_randdir_good_moves"":2,""num_whilered"":0,""num_whileblue"":0,""num_blue"":0,""num_good_moves"":7}","[299.22232142857143,297.12857142857143,0.9,299.22232142857143,297.12857142857143,110.9,299.22232142857143,297.12857142857143,221.6,299.22232142857143,297.12857142857143,329.4,299.22232142857143,297.12857142857143,430.8,299.22232142857143,297.12857142857143,533.8,299.22232142857143,297.12857142857143,636.4,299.22232142857143,297.12857142857143,750.2,299.22232142857143,297.12857142857143,850.7,63.222321428571426,84.12857142857143,952.4,40.222321428571426,53.128571428571426,1060.7,40.222321428571426,52.128571428571426,1170.4,40.222321428571426,52.128571428571426,1275.5,40.222321428571426,52.128571428571426,1377.2,40.222321428571426,52.128571428571426,1486.9,40.222321428571426,52.128571428571426,1594.6,40.222321428571426,52.128571428571426,1697.1,40.222321428571426,52.128571428571426,1798.2,40.222321428571426,52.128571428571426,1900.6,40.222321428571426,52.128571428571426,2001.5,40.222321428571426,52.128571428571426,2104.6,184.22232142857143,140.12857142857143,2211.6,383.22232142857143,243.12857142857143,2312.6,386.22232142857143,249.12857142857143,2420.9,386.22232142857143,249.12857142857143,2521.7,386.22232142857143,249.12857142857143,2626.7,386.22232142857143,249.12857142857143,2729.7,386.22232142857143,249.12857142857143,2831.7,386.22232142857143,249.12857142857143,2943.8,386.22232142857143,249.12857142857143,3044.6,386.22232142857143,249.12857142857143,3152.3,386.22232142857143,249.12857142857143,3263.2,386.22232142857143,249.12857142857143,3366.4,386.22232142857143,249.12857142857143,3469,386.22232142857143,249.12857142857143,3580.3,386.22232142857143,249.12857142857143,3682.1,386.22232142857143,249.12857142857143,3794.5,386.22232142857143,249.12857142857143,3894.8,386.22232142857143,249.12857142857143,4000.8,386.22232142857143,249.12857142857143,4103.7,386.22232142857143,249.12857142857143,4207.4,386.22232142857143,249.12857142857143,4310.2,386.22232142857143,249.12857142857143,4412,386.22232142857143,249.12857142857143,4514.1,386.22232142857143,249.12857142857143,4618.1,386.22232142857143,249.12857142857143,4720.2,386.22232142857143,249.12857142857143,4824.2,386.22232142857143,249.12857142857143,4928.9]","[1414.4,1414.4,1000,0,414.4,""smooth"",""up"",""up"",""good_move"",4047.9,2632.1,2234.8,1415.8,397.3,""smooth"",""up"",""up"",""good_move"",6226.5,2176.3,1782.9,4050.2,393.4,""smooth"",""up"",""up"",""good_move"",8854.8,2627.4,2251.1,6227.4,376.3,""smooth"",""left"",""left"",""good_move"",11841,2983.6,2428.6,8857.4,555,""oops"",""left"",""down"",""bad_move"",15014.3,3172.2,2816.6,11842.2,355.6,""oops"",""left"",""left"",""good_move"",18046.5,3030,2679.9,15016.6,350,""oops"",""left"",""left"",""good_move"",20874.5,2826.7,2412.5,18047.8,414.3,""smooth"",""up"",""up"",""good_move""]","",""
"3429","","<div style=""width:500px;"">
  <p>What determined the result of this run?</p>
  </div>","100","html-slider-response","25","333725","0.0-5.0-1.3","122","1","2025-07-16 16:59:15","1f75c3e559b7213887762d5229550c2b","105.0.5.233","Mozilla/5.0 (Windows NT 10.0; Win64; x64) AppleWebKit/537.36 (KHTML, like Gecko) Chrome/138.0.0.0 Safari/537.36","WebKit","Chrome","138.0.0.0","Windows","10.0","https://app.prolific.com/","en-GB,en;q=0.9,en-US;q=0.8,zu;q=0.7,es;q=0.6","6129dca465e41b5ae1b262da","68764874ac79eee8c1d4cb03","6877da4e82b5cd19fb2d5dc7","2","0","6129dca465e41b5ae1b262da","2","0","2025-07-16T17:04:51.158Z","","","","","","","","","","","AttribQ","","50","","","","","","","","","","","","","","","","","","","","","","","","","","","","",""
"3094","","<div style=""width:500px;"">
  <p>How much control did you have over the ball?</p>
  </div>","60","html-slider-response","26","336822","0.0-5.0-2.3","122","1","2025-07-16 16:59:15","1f75c3e559b7213887762d5229550c2b","105.0.5.233","Mozilla/5.0 (Windows NT 10.0; Win64; x64) AppleWebKit/537.36 (KHTML, like Gecko) Chrome/138.0.0.0 Safari/537.36","WebKit","Chrome","138.0.0.0","Windows","10.0","https://app.prolific.com/","en-GB,en;q=0.9,en-US;q=0.8,zu;q=0.7,es;q=0.6","6129dca465e41b5ae1b262da","68764874ac79eee8c1d4cb03","6877da4e82b5cd19fb2d5dc7","2","0","6129dca465e41b5ae1b262da","2","0","2025-07-16T17:04:54.255Z","","","","","","","","","","","ControlQ","","50","","","","","","","","","","","","","","","","","","","","","","","","","","","","",""
"2627","","<div style=""width:500px;"">
  <p>How would you describe your current emotional state?</p>
  </div>","29","html-slider-response","27","339453","0.0-5.0-3.3","122","1","2025-07-16 16:59:15","1f75c3e559b7213887762d5229550c2b","105.0.5.233","Mozilla/5.0 (Windows NT 10.0; Win64; x64) AppleWebKit/537.36 (KHTML, like Gecko) Chrome/138.0.0.0 Safari/537.36","WebKit","Chrome","138.0.0.0","Windows","10.0","https://app.prolific.com/","en-GB,en;q=0.9,en-US;q=0.8,zu;q=0.7,es;q=0.6","6129dca465e41b5ae1b262da","68764874ac79eee8c1d4cb03","6877da4e82b5cd19fb2d5dc7","2","0","6129dca465e41b5ae1b262da","2","0","2025-07-16T17:04:56.886Z","","","","","","","","","","","StressQ","","50","","","","","","","","","","","","","","","","","","","","","","","","","","","","",""
"3351","","<div style=""width:500px;"">
  <p>What best describes how you currently feel?</p>
  </div>","74","html-slider-response","28","342808","0.0-5.0-4.3","122","1","2025-07-16 16:59:15","1f75c3e559b7213887762d5229550c2b","105.0.5.233","Mozilla/5.0 (Windows NT 10.0; Win64; x64) AppleWebKit/537.36 (KHTML, like Gecko) Chrome/138.0.0.0 Safari/537.36","WebKit","Chrome","138.0.0.0","Windows","10.0","https://app.prolific.com/","en-GB,en;q=0.9,en-US;q=0.8,zu;q=0.7,es;q=0.6","6129dca465e41b5ae1b262da","68764874ac79eee8c1d4cb03","6877da4e82b5cd19fb2d5dc7","2","0","6129dca465e41b5ae1b262da","2","0","2025-07-16T17:05:00.244Z","","","","","","","","","","","MotivationQ","","50","","","","","","","","","","","","","","","","","","","","","","","","","","","","",""
"","","","","ctl-task-cpt","29","386872","0.0-5.0-0.4","122","1","2025-07-16 16:59:15","1f75c3e559b7213887762d5229550c2b","105.0.5.233","Mozilla/5.0 (Windows NT 10.0; Win64; x64) AppleWebKit/537.36 (KHTML, like Gecko) Chrome/138.0.0.0 Safari/537.36","WebKit","Chrome","138.0.0.0","Windows","10.0","https://app.prolific.com/","en-GB,en;q=0.9,en-US;q=0.8,zu;q=0.7,es;q=0.6","6129dca465e41b5ae1b262da","68764874ac79eee8c1d4cb03","6877da4e82b5cd19fb2d5dc7","2","0","6129dca465e41b5ae1b262da","2","0","2025-07-16T17:05:44.305Z","","","","","","","","","","","","","","win-only","3","g1:SW,g2:NE","0.6","5","0","346471.8","1609.4","6612","41045.5","1","4","8","6","2","8","8","20","12","0.15151515151515152","1521.4","3000","265","[""up"",""right""]","{""num_key_presses"":10,""num_perfect"":6,""num_errors"":0,""num_randdir"":4,""num_randdir_good_moves"":2,""num_whilered"":0,""num_whileblue"":0,""num_blue"":1,""num_good_moves"":8}","[299.22232142857143,298.12857142857143,0.6,299.22232142857143,298.12857142857143,101.6,299.22232142857143,298.12857142857143,208.8,299.22232142857143,298.12857142857143,317,299.22232142857143,298.12857142857143,419,299.22232142857143,298.12857142857143,525.2,299.22232142857143,298.12857142857143,626.8,299.22232142857143,298.12857142857143,727.5,299.22232142857143,298.12857142857143,828.3,397.22232142857143,185.12857142857143,934.7,480.22232142857143,118.12857142857143,1036.1,513.2223214285714,92.12857142857143,1139.2,517.2223214285714,85.12857142857143,1248.7,517.2223214285714,85.12857142857143,1350.4,517.2223214285714,85.12857142857143,1452,517.2223214285714,85.12857142857143,1552.3,517.2223214285714,85.12857142857143,1658.6,517.2223214285714,85.12857142857143,1768.1,517.2223214285714,85.12857142857143,1875.8,517.2223214285714,85.12857142857143,1988.1,517.2223214285714,85.12857142857143,2098.7,517.2223214285714,85.12857142857143,2201.8,517.2223214285714,85.12857142857143,2303.3,517.2223214285714,85.12857142857143,2406,517.2223214285714,85.12857142857143,2514,517.2223214285714,85.12857142857143,2615.5,517.2223214285714,85.12857142857143,2725.4,517.2223214285714,85.12857142857143,2827.9,517.2223214285714,85.12857142857143,2938.8,517.2223214285714,85.12857142857143,3047.8,517.2223214285714,85.12857142857143,3151.3,517.2223214285714,85.12857142857143,3259.1,517.2223214285714,85.12857142857143,3364.7,517.2223214285714,85.12857142857143,3464.8,517.2223214285714,85.12857142857143,3567.1,517.2223214285714,85.12857142857143,3670.3,517.2223214285714,85.12857142857143,3775.4,517.2223214285714,85.12857142857143,3881.3,517.2223214285714,85.12857142857143,3993.2,517.2223214285714,85.12857142857143,4097.6,517.2223214285714,85.12857142857143,4197.6,517.2223214285714,85.12857142857143,4303.8,517.2223214285714,85.12857142857143,4412.9,517.2223214285714,85.12857142857143,4515.3,517.2223214285714,85.12857142857143,4619.3,517.2223214285714,85.12857142857143,4722.3,517.2223214285714,85.12857142857143,4829,517.2223214285714,85.12857142857143,4930.7]","[1496.2,1496.2,1000,0,496.2,""smooth"",""right"",""right"",""good_move"",4898.1,3400.8,2982.6,1497.3,418.2,""oops"",""right"",""down"",""bad_move"",8274.7,3375.5,2966.1,4899.2,409.4,""smooth"",""right"",""right"",""good_move"",11981.8,3705.9,3321.5,8275.9,384.4,""smooth"",""right"",""right"",""good_move"",18249.6,6266.6,2639.2,15204.5,405.9,""smooth"",""up"",""up"",""good_move"",22029.4,3778.4,3418,18251,360.4,""oops"",""up"",""down"",""bad_move"",25079.6,3049,2648.1,22030.6,400.9,""smooth"",""up"",""up"",""good_move"",28127,3046.6,2701.5,25080.6,345,""oops"",""up"",""up"",""good_move"",31412.5,3284.8,2851.3,28127.8,433.5,""oops"",""up"",""up"",""good_move"",34308.3,2893.9,2498.6,31414.4,395.3,""smooth"",""up"",""up"",""good_move""]","",""
"42640","","<div style=""width:500px;"">
  <p>What determined the result of this run?</p>
  </div>","84","html-slider-response","30","429516","0.0-5.0-1.4","122","1","2025-07-16 16:59:15","1f75c3e559b7213887762d5229550c2b","105.0.5.233","Mozilla/5.0 (Windows NT 10.0; Win64; x64) AppleWebKit/537.36 (KHTML, like Gecko) Chrome/138.0.0.0 Safari/537.36","WebKit","Chrome","138.0.0.0","Windows","10.0","https://app.prolific.com/","en-GB,en;q=0.9,en-US;q=0.8,zu;q=0.7,es;q=0.6","6129dca465e41b5ae1b262da","68764874ac79eee8c1d4cb03","6877da4e82b5cd19fb2d5dc7","2","0","6129dca465e41b5ae1b262da","2","0","2025-07-16T17:06:26.950Z","","","","","","","","","","","AttribQ","","50","","","","","","","","","","","","","","","","","","","","","","","","","","","","",""
"3431","","<div style=""width:500px;"">
  <p>How much control did you have over the ball?</p>
  </div>","67","html-slider-response","31","432950","0.0-5.0-2.4","122","1","2025-07-16 16:59:15","1f75c3e559b7213887762d5229550c2b","105.0.5.233","Mozilla/5.0 (Windows NT 10.0; Win64; x64) AppleWebKit/537.36 (KHTML, like Gecko) Chrome/138.0.0.0 Safari/537.36","WebKit","Chrome","138.0.0.0","Windows","10.0","https://app.prolific.com/","en-GB,en;q=0.9,en-US;q=0.8,zu;q=0.7,es;q=0.6","6129dca465e41b5ae1b262da","68764874ac79eee8c1d4cb03","6877da4e82b5cd19fb2d5dc7","2","0","6129dca465e41b5ae1b262da","2","0","2025-07-16T17:06:30.383Z","","","","","","","","","","","ControlQ","","50","","","","","","","","","","","","","","","","","","","","","","","","","","","","",""
"3247","","<div style=""width:500px;"">
  <p>How would you describe your current emotional state?</p>
  </div>","37","html-slider-response","32","436202","0.0-5.0-3.4","122","1","2025-07-16 16:59:15","1f75c3e559b7213887762d5229550c2b","105.0.5.233","Mozilla/5.0 (Windows NT 10.0; Win64; x64) AppleWebKit/537.36 (KHTML, like Gecko) Chrome/138.0.0.0 Safari/537.36","WebKit","Chrome","138.0.0.0","Windows","10.0","https://app.prolific.com/","en-GB,en;q=0.9,en-US;q=0.8,zu;q=0.7,es;q=0.6","6129dca465e41b5ae1b262da","68764874ac79eee8c1d4cb03","6877da4e82b5cd19fb2d5dc7","2","0","6129dca465e41b5ae1b262da","2","0","2025-07-16T17:06:33.635Z","","","","","","","","","","","StressQ","","50","","","","","","","","","","","","","","","","","","","","","","","","","","","","",""
"2807","","<div style=""width:500px;"">
  <p>What best describes how you currently feel?</p>
  </div>","67","html-slider-response","33","439011","0.0-5.0-4.4","122","1","2025-07-16 16:59:15","1f75c3e559b7213887762d5229550c2b","105.0.5.233","Mozilla/5.0 (Windows NT 10.0; Win64; x64) AppleWebKit/537.36 (KHTML, like Gecko) Chrome/138.0.0.0 Safari/537.36","WebKit","Chrome","138.0.0.0","Windows","10.0","https://app.prolific.com/","en-GB,en;q=0.9,en-US;q=0.8,zu;q=0.7,es;q=0.6","6129dca465e41b5ae1b262da","68764874ac79eee8c1d4cb03","6877da4e82b5cd19fb2d5dc7","2","0","6129dca465e41b5ae1b262da","2","0","2025-07-16T17:06:36.444Z","","","","","","","","","","","MotivationQ","","50","","","","","","","","","","","","","","","","","","","","","","","","","","","","",""
"","","","","ctl-task-cpt","34","498180","0.0-5.0-0.5","122","1","2025-07-16 16:59:15","1f75c3e559b7213887762d5229550c2b","105.0.5.233","Mozilla/5.0 (Windows NT 10.0; Win64; x64) AppleWebKit/537.36 (KHTML, like Gecko) Chrome/138.0.0.0 Safari/537.36","WebKit","Chrome","138.0.0.0","Windows","10.0","https://app.prolific.com/","en-GB,en;q=0.9,en-US;q=0.8,zu;q=0.7,es;q=0.6","6129dca465e41b5ae1b262da","68764874ac79eee8c1d4cb03","6877da4e82b5cd19fb2d5dc7","2","0","6129dca465e41b5ae1b262da","2","0","2025-07-16T17:07:35.614Z","","","","","","","","","","","","","","win-only","3","g1:SW,g2:NE","0.5","6","0","442669.1","1789.9","6805.1","56154","1","4","4","6","2","-4","-4","16","20","0.12121212121212122","1509.3","3000","-2030","[""up"",""right""]","{""num_key_presses"":11,""num_perfect"":5,""num_errors"":0,""num_randdir"":6,""num_randdir_good_moves"":2,""num_whilered"":0,""num_whileblue"":0,""num_blue"":4,""num_good_moves"":7}","[296.22232142857143,297.12857142857143,0.4,296.22232142857143,297.12857142857143,101.8,296.22232142857143,297.12857142857143,210.3,296.22232142857143,297.12857142857143,328.8,296.22232142857143,297.12857142857143,435.5,296.22232142857143,297.12857142857143,536,296.22232142857143,297.12857142857143,637.3,296.22232142857143,297.12857142857143,742.5,296.22232142857143,297.12857142857143,856.6,469.22232142857143,83.12857142857143,965.8,493.22232142857143,65.12857142857143,1067.1,517.2223214285714,44.128571428571426,1170.1,534.2223214285714,28.128571428571426,1289.4,534.2223214285714,28.128571428571426,1394.7,534.2223214285714,28.128571428571426,1495.3,534.2223214285714,28.128571428571426,1597.1,534.2223214285714,28.128571428571426,1697.7,534.2223214285714,28.128571428571426,1801.6,534.2223214285714,28.128571428571426,1913.9,534.2223214285714,28.128571428571426,2016.1,534.2223214285714,28.128571428571426,2117,534.2223214285714,28.128571428571426,2220.2,534.2223214285714,28.128571428571426,2322.2,534.2223214285714,28.128571428571426,2429.1,534.2223214285714,28.128571428571426,2534.2,534.2223214285714,28.128571428571426,2646.2,534.2223214285714,28.128571428571426,2753.2,534.2223214285714,28.128571428571426,2853.2,534.2223214285714,28.128571428571426,2963.5,534.2223214285714,28.128571428571426,3064.3,534.2223214285714,28.128571428571426,3167.8,534.2223214285714,28.128571428571426,3276.5,534.2223214285714,28.128571428571426,3380.6,534.2223214285714,28.128571428571426,3480.7,534.2223214285714,28.128571428571426,3583.4,534.2223214285714,28.128571428571426,3685.5,534.2223214285714,28.128571428571426,3794.6,534.2223214285714,28.128571428571426,3898.4,534.2223214285714,28.128571428571426,4007.6,534.2223214285714,28.128571428571426,4116.2,534.2223214285714,28.128571428571426,4216.7,534.2223214285714,28.128571428571426,4332.7,534.2223214285714,28.128571428571426,4443.5,534.2223214285714,28.128571428571426,4543.8,534.2223214285714,28.128571428571426,4644,534.2223214285714,28.128571428571426,4749.9,534.2223214285714,28.128571428571426,4852.2,534.2223214285714,28.128571428571426,4964.2]","[4583.6,4583.7,2172.4,2008.9,402.4,""smooth"",""right"",""right"",""good_move"",8484.3,3896.3,3404.5,4588,491.8,""smooth"",""right"",""right"",""good_move"",16664.7,8179.6,2903.8,13319.3,441.6,""smooth"",""right"",""right"",""good_move"",19212.7,2547.5,2130.4,16665.2,417.1,""oops"",""up"",""down"",""bad_move"",21957.8,2744.3,2318.8,19213.5,425.5,""oops"",""up"",""left"",""bad_move"",28186.1,6227.4,2447,25375.6,363.5,""oops"",""up"",""up"",""good_move"",31361.6,3174.3,2746.8,28187.3,427.5,""oops"",""up"",""up"",""good_move"",34610.1,3247.7,2809.3,31362.4,438.4,""oops"",""up"",""down"",""bad_move"",41094.1,6482.7,2543.2,38079.5,471.4,""smooth"",""up"",""up"",""good_move"",44268.8,3174.1,2742.1,41094.9,431.8,""smooth"",""up"",""up"",""good_move"",46588.2,2318.5,1939.4,44269.7,379.1,""oops"",""right"",""down"",""bad_move""]","",""
"3086","","<div style=""width:500px;"">
  <p>What determined the result of this run?</p>
  </div>","25","html-slider-response","35","501269","0.0-5.0-1.5","122","1","2025-07-16 16:59:15","1f75c3e559b7213887762d5229550c2b","105.0.5.233","Mozilla/5.0 (Windows NT 10.0; Win64; x64) AppleWebKit/537.36 (KHTML, like Gecko) Chrome/138.0.0.0 Safari/537.36","WebKit","Chrome","138.0.0.0","Windows","10.0","https://app.prolific.com/","en-GB,en;q=0.9,en-US;q=0.8,zu;q=0.7,es;q=0.6","6129dca465e41b5ae1b262da","68764874ac79eee8c1d4cb03","6877da4e82b5cd19fb2d5dc7","2","0","6129dca465e41b5ae1b262da","2","0","2025-07-16T17:07:38.702Z","","","","","","","","","","","AttribQ","","50","","","","","","","","","","","","","","","","","","","","","","","","","","","","",""
"3147","","<div style=""width:500px;"">
  <p>How much control did you have over the ball?</p>
  </div>","11","html-slider-response","36","504419","0.0-5.0-2.5","122","1","2025-07-16 16:59:15","1f75c3e559b7213887762d5229550c2b","105.0.5.233","Mozilla/5.0 (Windows NT 10.0; Win64; x64) AppleWebKit/537.36 (KHTML, like Gecko) Chrome/138.0.0.0 Safari/537.36","WebKit","Chrome","138.0.0.0","Windows","10.0","https://app.prolific.com/","en-GB,en;q=0.9,en-US;q=0.8,zu;q=0.7,es;q=0.6","6129dca465e41b5ae1b262da","68764874ac79eee8c1d4cb03","6877da4e82b5cd19fb2d5dc7","2","0","6129dca465e41b5ae1b262da","2","0","2025-07-16T17:07:41.852Z","","","","","","","","","","","ControlQ","","50","","","","","","","","","","","","","","","","","","","","","","","","","","","","",""
"3531","","<div style=""width:500px;"">
  <p>How would you describe your current emotional state?</p>
  </div>","44","html-slider-response","37","507953","0.0-5.0-3.5","122","1","2025-07-16 16:59:15","1f75c3e559b7213887762d5229550c2b","105.0.5.233","Mozilla/5.0 (Windows NT 10.0; Win64; x64) AppleWebKit/537.36 (KHTML, like Gecko) Chrome/138.0.0.0 Safari/537.36","WebKit","Chrome","138.0.0.0","Windows","10.0","https://app.prolific.com/","en-GB,en;q=0.9,en-US;q=0.8,zu;q=0.7,es;q=0.6","6129dca465e41b5ae1b262da","68764874ac79eee8c1d4cb03","6877da4e82b5cd19fb2d5dc7","2","0","6129dca465e41b5ae1b262da","2","0","2025-07-16T17:07:45.387Z","","","","","","","","","","","StressQ","","50","","","","","","","","","","","","","","","","","","","","","","","","","","","","",""
"2993","","<div style=""width:500px;"">
  <p>What best describes how you currently feel?</p>
  </div>","58","html-slider-response","38","510950","0.0-5.0-4.5","122","1","2025-07-16 16:59:15","1f75c3e559b7213887762d5229550c2b","105.0.5.233","Mozilla/5.0 (Windows NT 10.0; Win64; x64) AppleWebKit/537.36 (KHTML, like Gecko) Chrome/138.0.0.0 Safari/537.36","WebKit","Chrome","138.0.0.0","Windows","10.0","https://app.prolific.com/","en-GB,en;q=0.9,en-US;q=0.8,zu;q=0.7,es;q=0.6","6129dca465e41b5ae1b262da","68764874ac79eee8c1d4cb03","6877da4e82b5cd19fb2d5dc7","2","0","6129dca465e41b5ae1b262da","2","0","2025-07-16T17:07:48.383Z","","","","","","","","","","","MotivationQ","","50","","","","","","","","","","","","","","","","","","","","","","","","","","","","",""
"","","","","ctl-task-cpt","39","550479","0.0-5.0-0.6","122","1","2025-07-16 16:59:15","1f75c3e559b7213887762d5229550c2b","105.0.5.233","Mozilla/5.0 (Windows NT 10.0; Win64; x64) AppleWebKit/537.36 (KHTML, like Gecko) Chrome/138.0.0.0 Safari/537.36","WebKit","Chrome","138.0.0.0","Windows","10.0","https://app.prolific.com/","en-GB,en;q=0.9,en-US;q=0.8,zu;q=0.7,es;q=0.6","6129dca465e41b5ae1b262da","68764874ac79eee8c1d4cb03","6877da4e82b5cd19fb2d5dc7","2","0","6129dca465e41b5ae1b262da","2","0","2025-07-16T17:08:27.912Z","","","","","","","","","","","","","","win-only","0","g1:NW,g2:SE","0.4","7","0","514608.5","1451.6","6459.7","36501.6","1","4","8","6","2","8","8","24","16","0.18181818181818182","1562.4","3000","725","[""down"",""right""]","{""num_key_presses"":8,""num_perfect"":3,""num_errors"":0,""num_randdir"":5,""num_randdir_good_moves"":4,""num_whilered"":0,""num_whileblue"":0,""num_blue"":3,""num_good_moves"":7}","[297.22232142857143,297.12857142857143,0.5,297.22232142857143,297.12857142857143,110.8,297.22232142857143,297.12857142857143,210.9,297.22232142857143,297.12857142857143,314.7,297.22232142857143,297.12857142857143,422.1,297.22232142857143,297.12857142857143,529.4,297.22232142857143,297.12857142857143,642.3,297.22232142857143,297.12857142857143,747.2,297.22232142857143,297.12857142857143,849.4,423.22232142857143,403.12857142857143,958.3,517.2223214285714,518.1285714285714,1061.5,533.2223214285714,533.1285714285714,1168.1,545.2223214285714,543.1285714285714,1273.7,549.2223214285714,545.1285714285714,1376.8,549.2223214285714,545.1285714285714,1479.8,549.2223214285714,545.1285714285714,1580,549.2223214285714,545.1285714285714,1688.1,549.2223214285714,545.1285714285714,1790.4,549.2223214285714,545.1285714285714,1890.5,549.2223214285714,545.1285714285714,1991.6,549.2223214285714,545.1285714285714,2093.1,549.2223214285714,545.1285714285714,2200.5,549.2223214285714,545.1285714285714,2301.5,549.2223214285714,545.1285714285714,2411.8,549.2223214285714,545.1285714285714,2513.9,549.2223214285714,545.1285714285714,2622.9,549.2223214285714,545.1285714285714,2723.3,549.2223214285714,545.1285714285714,2827,549.2223214285714,545.1285714285714,2928.8,549.2223214285714,545.1285714285714,3038.6,549.2223214285714,545.1285714285714,3140.9,549.2223214285714,545.1285714285714,3244.7,549.2223214285714,545.1285714285714,3346.8,549.2223214285714,545.1285714285714,3454.7,549.2223214285714,545.1285714285714,3556.7,549.2223214285714,545.1285714285714,3658.8,549.2223214285714,545.1285714285714,3759.2,549.2223214285714,545.1285714285714,3860,549.2223214285714,545.1285714285714,3960.9,549.2223214285714,545.1285714285714,4062.5,549.2223214285714,545.1285714285714,4169.9,549.2223214285714,545.1285714285714,4282.1,549.2223214285714,545.1285714285714,4392.6,549.2223214285714,545.1285714285714,4497.7,549.2223214285714,545.1285714285714,4604.2,549.2223214285714,545.1285714285714,4704.9,549.2223214285714,545.1285714285714,4806.7,549.2223214285714,545.1285714285714,4910.5]","[1469.9,1469.9,1000,0,469.9,""oops"",""down"",""right"",""good_move"",4169,2698.4,2277.3,1470.6,421.1,""oops"",""down"",""left"",""bad_move"",12959.7,8789.8,1549.5,10959.3,450.9,""oops"",""down"",""right"",""good_move"",15894.3,2933.6,2505,12960.7,428.6,""oops"",""down"",""right"",""good_move"",22265.8,6369.7,2331.8,19524,410,""smooth"",""down"",""down"",""good_move"",24955.4,2688.7,2222.6,22266.9,466,""smooth"",""down"",""down"",""good_move"",27476.4,2519.4,2119.8,24957.1,399.6,""smooth"",""down"",""down"",""good_move"",29913.2,2433.5,2041.4,27479.7,392.1,""oops"",""right"",""right"",""good_move""]","",""
"3362","","<div style=""width:500px;"">
  <p>What determined the result of this run?</p>
  </div>","67","html-slider-response","40","553842","0.0-5.0-1.6","122","1","2025-07-16 16:59:15","1f75c3e559b7213887762d5229550c2b","105.0.5.233","Mozilla/5.0 (Windows NT 10.0; Win64; x64) AppleWebKit/537.36 (KHTML, like Gecko) Chrome/138.0.0.0 Safari/537.36","WebKit","Chrome","138.0.0.0","Windows","10.0","https://app.prolific.com/","en-GB,en;q=0.9,en-US;q=0.8,zu;q=0.7,es;q=0.6","6129dca465e41b5ae1b262da","68764874ac79eee8c1d4cb03","6877da4e82b5cd19fb2d5dc7","2","0","6129dca465e41b5ae1b262da","2","0","2025-07-16T17:08:31.276Z","","","","","","","","","","","AttribQ","","50","","","","","","","","","","","","","","","","","","","","","","","","","","","","",""
"3081","","<div style=""width:500px;"">
  <p>How much control did you have over the ball?</p>
  </div>","43","html-slider-response","41","556925","0.0-5.0-2.6","122","1","2025-07-16 16:59:15","1f75c3e559b7213887762d5229550c2b","105.0.5.233","Mozilla/5.0 (Windows NT 10.0; Win64; x64) AppleWebKit/537.36 (KHTML, like Gecko) Chrome/138.0.0.0 Safari/537.36","WebKit","Chrome","138.0.0.0","Windows","10.0","https://app.prolific.com/","en-GB,en;q=0.9,en-US;q=0.8,zu;q=0.7,es;q=0.6","6129dca465e41b5ae1b262da","68764874ac79eee8c1d4cb03","6877da4e82b5cd19fb2d5dc7","2","0","6129dca465e41b5ae1b262da","2","0","2025-07-16T17:08:34.358Z","","","","","","","","","","","ControlQ","","50","","","","","","","","","","","","","","","","","","","","","","","","","","","","",""
"3072","","<div style=""width:500px;"">
  <p>How would you describe your current emotional state?</p>
  </div>","39","html-slider-response","42","559998","0.0-5.0-3.6","122","1","2025-07-16 16:59:15","1f75c3e559b7213887762d5229550c2b","105.0.5.233","Mozilla/5.0 (Windows NT 10.0; Win64; x64) AppleWebKit/537.36 (KHTML, like Gecko) Chrome/138.0.0.0 Safari/537.36","WebKit","Chrome","138.0.0.0","Windows","10.0","https://app.prolific.com/","en-GB,en;q=0.9,en-US;q=0.8,zu;q=0.7,es;q=0.6","6129dca465e41b5ae1b262da","68764874ac79eee8c1d4cb03","6877da4e82b5cd19fb2d5dc7","2","0","6129dca465e41b5ae1b262da","2","0","2025-07-16T17:08:37.431Z","","","","","","","","","","","StressQ","","50","","","","","","","","","","","","","","","","","","","","","","","","","","","","",""
"3505","","<div style=""width:500px;"">
  <p>What best describes how you currently feel?</p>
  </div>","60","html-slider-response","43","563505","0.0-5.0-4.6","122","1","2025-07-16 16:59:15","1f75c3e559b7213887762d5229550c2b","105.0.5.233","Mozilla/5.0 (Windows NT 10.0; Win64; x64) AppleWebKit/537.36 (KHTML, like Gecko) Chrome/138.0.0.0 Safari/537.36","WebKit","Chrome","138.0.0.0","Windows","10.0","https://app.prolific.com/","en-GB,en;q=0.9,en-US;q=0.8,zu;q=0.7,es;q=0.6","6129dca465e41b5ae1b262da","68764874ac79eee8c1d4cb03","6877da4e82b5cd19fb2d5dc7","2","0","6129dca465e41b5ae1b262da","2","0","2025-07-16T17:08:40.938Z","","","","","","","","","","","MotivationQ","","50","","","","","","","","","","","","","","","","","","","","","","","","","","","","",""
"","","","","ctl-task-cpt","44","620830","0.0-5.0-0.7","122","1","2025-07-16 16:59:15","1f75c3e559b7213887762d5229550c2b","105.0.5.233","Mozilla/5.0 (Windows NT 10.0; Win64; x64) AppleWebKit/537.36 (KHTML, like Gecko) Chrome/138.0.0.0 Safari/537.36","WebKit","Chrome","138.0.0.0","Windows","10.0","https://app.prolific.com/","en-GB,en;q=0.9,en-US;q=0.8,zu;q=0.7,es;q=0.6","6129dca465e41b5ae1b262da","68764874ac79eee8c1d4cb03","6877da4e82b5cd19fb2d5dc7","2","0","6129dca465e41b5ae1b262da","2","0","2025-07-16T17:09:38.263Z","","","","","","","","","","","","","","win-only","3","g1:SW,g2:NE","0.3","8","0","567162.5","1255.2","6261.5","54313.7","1","4","4","6","2","-4","-4","20","24","0.15151515151515152","1651.2","3000","-1910","[""up"",""right""]","{""num_key_presses"":11,""num_perfect"":3,""num_errors"":0,""num_randdir"":8,""num_randdir_good_moves"":3,""num_whilered"":0,""num_whileblue"":0,""num_blue"":4,""num_good_moves"":6}","[299.22232142857143,291.12857142857143,1,299.22232142857143,291.12857142857143,104.2,299.22232142857143,291.12857142857143,208.2,299.22232142857143,291.12857142857143,318,299.22232142857143,291.12857142857143,421.1,299.22232142857143,291.12857142857143,525.1,299.22232142857143,291.12857142857143,627.6,299.22232142857143,291.12857142857143,735.6,299.22232142857143,291.12857142857143,839.1,414.22232142857143,190.12857142857143,942.2,452.22232142857143,152.12857142857143,1047.1,479.22232142857143,125.12857142857143,1149.7,500.22232142857143,106.12857142857143,1250.4,534.2223214285714,83.12857142857143,1354.4,538.2223214285714,79.12857142857143,1455.2,538.2223214285714,79.12857142857143,1559.1,538.2223214285714,79.12857142857143,1664.9,538.2223214285714,79.12857142857143,1765,538.2223214285714,79.12857142857143,1868.6,538.2223214285714,79.12857142857143,1971.5,538.2223214285714,79.12857142857143,2073.3,538.2223214285714,79.12857142857143,2181,538.2223214285714,79.12857142857143,2291.8,538.2223214285714,79.12857142857143,2394.9,538.2223214285714,79.12857142857143,2495.6,538.2223214285714,79.12857142857143,2599.5,538.2223214285714,79.12857142857143,2701.8,538.2223214285714,79.12857142857143,2803.3,538.2223214285714,79.12857142857143,2906.6,538.2223214285714,79.12857142857143,3012,538.2223214285714,79.12857142857143,3120.5,538.2223214285714,79.12857142857143,3223.9,538.2223214285714,79.12857142857143,3336.4,538.2223214285714,79.12857142857143,3437.8,538.2223214285714,79.12857142857143,3545.3,538.2223214285714,79.12857142857143,3651.6,538.2223214285714,79.12857142857143,3754.3,538.2223214285714,79.12857142857143,3856.2,538.2223214285714,79.12857142857143,3960.8,538.2223214285714,79.12857142857143,4061.8,538.2223214285714,79.12857142857143,4168.6,538.2223214285714,79.12857142857143,4289.5,538.2223214285714,79.12857142857143,4395.8,538.2223214285714,79.12857142857143,4503.4,538.2223214285714,79.12857142857143,4606.4,538.2223214285714,79.12857142857143,4710.4,538.2223214285714,79.12857142857143,4822.2,538.2223214285714,79.12857142857143,4931.7]","[1452.2,1452.2,1000,0,452.2,""smooth"",""right"",""right"",""good_move"",4789.2,3335.8,2879.8,1453.4,456,""oops"",""right"",""left"",""bad_move"",7715.3,2925,2502.9,4790.4,422,""oops"",""right"",""up"",""good_move"",10238.5,2522,2121.2,7716.5,400.8,""smooth"",""right"",""right"",""good_move"",12820.1,2580.8,2093.5,10239.3,487.3,""oops"",""right"",""down"",""bad_move"",19704.5,6881.7,3138.9,16097.5,468.1,""smooth"",""right"",""right"",""good_move"",22554.4,2849.1,2386.9,19705.3,462.2,""oops"",""right"",""up"",""good_move"",25322.7,2767.4,2382.9,22555.3,384.5,""oops"",""right"",""right"",""good_move"",28595.2,3271.5,2916.1,25323.8,355.3,""oops"",""up"",""down"",""bad_move"",35968.6,7371.6,2836.8,32714.9,416.9,""oops"",""up"",""down"",""bad_move"",38636.4,2667,2224.8,35969.5,442.1,""oops"",""up"",""down"",""bad_move""]","",""
"4184","","<div style=""width:500px;"">
  <p>What determined the result of this run?</p>
  </div>","13","html-slider-response","45","625017","0.0-5.0-1.7","122","1","2025-07-16 16:59:15","1f75c3e559b7213887762d5229550c2b","105.0.5.233","Mozilla/5.0 (Windows NT 10.0; Win64; x64) AppleWebKit/537.36 (KHTML, like Gecko) Chrome/138.0.0.0 Safari/537.36","WebKit","Chrome","138.0.0.0","Windows","10.0","https://app.prolific.com/","en-GB,en;q=0.9,en-US;q=0.8,zu;q=0.7,es;q=0.6","6129dca465e41b5ae1b262da","68764874ac79eee8c1d4cb03","6877da4e82b5cd19fb2d5dc7","2","0","6129dca465e41b5ae1b262da","2","0","2025-07-16T17:09:42.451Z","","","","","","","","","","","AttribQ","","50","","","","","","","","","","","","","","","","","","","","","","","","","","","","",""
"3190","","<div style=""width:500px;"">
  <p>How much control did you have over the ball?</p>
  </div>","13","html-slider-response","46","628210","0.0-5.0-2.7","122","1","2025-07-16 16:59:15","1f75c3e559b7213887762d5229550c2b","105.0.5.233","Mozilla/5.0 (Windows NT 10.0; Win64; x64) AppleWebKit/537.36 (KHTML, like Gecko) Chrome/138.0.0.0 Safari/537.36","WebKit","Chrome","138.0.0.0","Windows","10.0","https://app.prolific.com/","en-GB,en;q=0.9,en-US;q=0.8,zu;q=0.7,es;q=0.6","6129dca465e41b5ae1b262da","68764874ac79eee8c1d4cb03","6877da4e82b5cd19fb2d5dc7","2","0","6129dca465e41b5ae1b262da","2","0","2025-07-16T17:09:45.643Z","","","","","","","","","","","ControlQ","","50","","","","","","","","","","","","","","","","","","","","","","","","","","","","",""
"3558","","<div style=""width:500px;"">
  <p>How would you describe your current emotional state?</p>
  </div>","74","html-slider-response","47","631774","0.0-5.0-3.7","122","1","2025-07-16 16:59:15","1f75c3e559b7213887762d5229550c2b","105.0.5.233","Mozilla/5.0 (Windows NT 10.0; Win64; x64) AppleWebKit/537.36 (KHTML, like Gecko) Chrome/138.0.0.0 Safari/537.36","WebKit","Chrome","138.0.0.0","Windows","10.0","https://app.prolific.com/","en-GB,en;q=0.9,en-US;q=0.8,zu;q=0.7,es;q=0.6","6129dca465e41b5ae1b262da","68764874ac79eee8c1d4cb03","6877da4e82b5cd19fb2d5dc7","2","0","6129dca465e41b5ae1b262da","2","0","2025-07-16T17:09:49.207Z","","","","","","","","","","","StressQ","","50","","","","","","","","","","","","","","","","","","","","","","","","","","","","",""
"3685","","<div style=""width:500px;"">
  <p>What best describes how you currently feel?</p>
  </div>","59","html-slider-response","48","635461","0.0-5.0-4.7","122","1","2025-07-16 16:59:15","1f75c3e559b7213887762d5229550c2b","105.0.5.233","Mozilla/5.0 (Windows NT 10.0; Win64; x64) AppleWebKit/537.36 (KHTML, like Gecko) Chrome/138.0.0.0 Safari/537.36","WebKit","Chrome","138.0.0.0","Windows","10.0","https://app.prolific.com/","en-GB,en;q=0.9,en-US;q=0.8,zu;q=0.7,es;q=0.6","6129dca465e41b5ae1b262da","68764874ac79eee8c1d4cb03","6877da4e82b5cd19fb2d5dc7","2","0","6129dca465e41b5ae1b262da","2","0","2025-07-16T17:09:52.895Z","","","","","","","","","","","MotivationQ","","50","","","","","","","","","","","","","","","","","","","","","","","","","","","","",""
"","","","","ctl-task-cpt","49","724407","0.0-5.0-0.8","122","1","2025-07-16 16:59:15","1f75c3e559b7213887762d5229550c2b","105.0.5.233","Mozilla/5.0 (Windows NT 10.0; Win64; x64) AppleWebKit/537.36 (KHTML, like Gecko) Chrome/138.0.0.0 Safari/537.36","WebKit","Chrome","138.0.0.0","Windows","10.0","https://app.prolific.com/","en-GB,en;q=0.9,en-US;q=0.8,zu;q=0.7,es;q=0.6","6129dca465e41b5ae1b262da","68764874ac79eee8c1d4cb03","6877da4e82b5cd19fb2d5dc7","2","0","6129dca465e41b5ae1b262da","2","0","2025-07-16T17:11:21.841Z","","","","","","","","","","","","","","win-only","1","g1:NE,g2:SW","0.2","9","0","639120.7","1243","6248.4","85932","1","4","8","6","2","-8","-9","11","20","0.08333333333333333","1343.7","3000","-1830","[""down"",""left""]","{""num_key_presses"":19,""num_perfect"":2,""num_errors"":1,""num_randdir"":16,""num_randdir_good_moves"":9,""num_whilered"":0,""num_whileblue"":1,""num_blue"":6,""num_good_moves"":12}","[297.22232142857143,293.12857142857143,1.2,297.22232142857143,293.12857142857143,101.4,297.22232142857143,293.12857142857143,217.9,297.22232142857143,293.12857142857143,321.8,297.22232142857143,293.12857142857143,427.8,297.22232142857143,293.12857142857143,542.8,297.22232142857143,293.12857142857143,649,237.22232142857143,346.12857142857143,755.8,94.22232142857143,484.12857142857143,862.7,53.222321428571426,535.1285714285714,963,35.222321428571426,563.1285714285714,1073.4,34.222321428571426,565.1285714285714,1175.4,34.222321428571426,565.1285714285714,1275.4,34.222321428571426,565.1285714285714,1376.1,34.222321428571426,565.1285714285714,1484.6,34.222321428571426,565.1285714285714,1587.9,34.222321428571426,565.1285714285714,1700.3,34.222321428571426,565.1285714285714,1807.8,34.222321428571426,565.1285714285714,1909.5,34.222321428571426,565.1285714285714,2016.1,34.222321428571426,565.1285714285714,2119.3,34.222321428571426,565.1285714285714,2221.2,34.222321428571426,565.1285714285714,2327.9,34.222321428571426,565.1285714285714,2441.8,34.222321428571426,565.1285714285714,2550.7,34.222321428571426,565.1285714285714,2657.6,34.222321428571426,565.1285714285714,2763.6,34.222321428571426,565.1285714285714,2869.2,34.222321428571426,565.1285714285714,2980.2,34.222321428571426,565.1285714285714,3086.8,34.222321428571426,565.1285714285714,3187.7,34.222321428571426,565.1285714285714,3289.1,34.222321428571426,565.1285714285714,3394.9,34.222321428571426,565.1285714285714,3497.4,34.222321428571426,565.1285714285714,3598,34.222321428571426,565.1285714285714,3699.2,34.222321428571426,565.1285714285714,3800.1,34.222321428571426,565.1285714285714,3906.9,34.222321428571426,565.1285714285714,4006.9,34.222321428571426,565.1285714285714,4110.4,34.222321428571426,565.1285714285714,4214.3,34.222321428571426,565.1285714285714,4321.4,34.222321428571426,565.1285714285714,4426.7,34.222321428571426,565.1285714285714,4533.9,34.222321428571426,565.1285714285714,4640.1,34.222321428571426,565.1285714285714,4746.3,34.222321428571426,565.1285714285714,4846.4,34.222321428571426,565.1285714285714,4956.6]","[1408.3,1408.4,1000,0,408.4,""oops"",""down"",""up"",""bad_move"",4269.8,2860.1,2497.1,1409.8,363,""smooth"",""down"",""down"",""good_move"",7429.3,3143.4,2785,4286,358.4,""while_blue"",""down"",""left"",""good_move"",10381.4,2949.5,2557.3,7431.9,392.2,""oops"",""down"",""left"",""good_move"",13082.1,2700,2237.9,10382.1,462.1,""smooth"",""down"",""down"",""good_move"",17074.9,3989.5,3587.7,13085.4,401.8,""oops"",""down"",""left"",""good_move"",20406.9,3330.9,2213.1,17076.1,1117.8,""oops"",""down"",""right"",""bad_move"",23161.2,2752.6,2385.3,20408.6,367.3,""oops"",""down"",""right"",""bad_move"",25930.4,2768.4,2369.9,23162,398.5,""oops"",""down"",""down"",""good_move"",28758.2,2827,2458.1,25931.2,368.9,""oops"",""down"",""up"",""bad_move"",32123.1,3363.7,2020.9,28759.5,1342.7,""oops"",""down"",""down"",""good_move"",34587.4,2463.3,2082.5,32124.1,380.8,""oops"",""down"",""up"",""bad_move"",42049.1,7460.7,2665.2,38979,404.9,""oops"",""down"",""right"",""bad_move"",52871.1,10821.4,2784.5,49665,421.6,""oops"",""down"",""left"",""good_move"",60556.9,7685.1,3103.5,57014.6,438.8,""oops"",""down"",""left"",""good_move"",63654.8,3097.3,2599.8,60557.5,497.5,""oops"",""down"",""down"",""good_move"",66989,3331,2950.6,63658.1,380.3,""oops"",""down"",""down"",""good_move"",69896,2905.7,2524.3,66990.3,381.4,""oops"",""left"",""up"",""bad_move"",76999.9,7102.3,2653.8,73990.6,355.5,""oops"",""left"",""left"",""good_move""]","",""
"4760","","<div style=""width:500px;"">
  <p>What determined the result of this run?</p>
  </div>","16","html-slider-response","50","729170","0.0-5.0-1.8","122","1","2025-07-16 16:59:15","1f75c3e559b7213887762d5229550c2b","105.0.5.233","Mozilla/5.0 (Windows NT 10.0; Win64; x64) AppleWebKit/537.36 (KHTML, like Gecko) Chrome/138.0.0.0 Safari/537.36","WebKit","Chrome","138.0.0.0","Windows","10.0","https://app.prolific.com/","en-GB,en;q=0.9,en-US;q=0.8,zu;q=0.7,es;q=0.6","6129dca465e41b5ae1b262da","68764874ac79eee8c1d4cb03","6877da4e82b5cd19fb2d5dc7","2","0","6129dca465e41b5ae1b262da","2","0","2025-07-16T17:11:26.603Z","","","","","","","","","","","AttribQ","","50","","","","","","","","","","","","","","","","","","","","","","","","","","","","",""
"2971","","<div style=""width:500px;"">
  <p>How much control did you have over the ball?</p>
  </div>","6","html-slider-response","51","732165","0.0-5.0-2.8","122","1","2025-07-16 16:59:15","1f75c3e559b7213887762d5229550c2b","105.0.5.233","Mozilla/5.0 (Windows NT 10.0; Win64; x64) AppleWebKit/537.36 (KHTML, like Gecko) Chrome/138.0.0.0 Safari/537.36","WebKit","Chrome","138.0.0.0","Windows","10.0","https://app.prolific.com/","en-GB,en;q=0.9,en-US;q=0.8,zu;q=0.7,es;q=0.6","6129dca465e41b5ae1b262da","68764874ac79eee8c1d4cb03","6877da4e82b5cd19fb2d5dc7","2","0","6129dca465e41b5ae1b262da","2","0","2025-07-16T17:11:29.598Z","","","","","","","","","","","ControlQ","","50","","","","","","","","","","","","","","","","","","","","","","","","","","","","",""
"3902","","<div style=""width:500px;"">
  <p>How would you describe your current emotional state?</p>
  </div>","68","html-slider-response","52","736069","0.0-5.0-3.8","122","1","2025-07-16 16:59:15","1f75c3e559b7213887762d5229550c2b","105.0.5.233","Mozilla/5.0 (Windows NT 10.0; Win64; x64) AppleWebKit/537.36 (KHTML, like Gecko) Chrome/138.0.0.0 Safari/537.36","WebKit","Chrome","138.0.0.0","Windows","10.0","https://app.prolific.com/","en-GB,en;q=0.9,en-US;q=0.8,zu;q=0.7,es;q=0.6","6129dca465e41b5ae1b262da","68764874ac79eee8c1d4cb03","6877da4e82b5cd19fb2d5dc7","2","0","6129dca465e41b5ae1b262da","2","0","2025-07-16T17:11:33.503Z","","","","","","","","","","","StressQ","","50","","","","","","","","","","","","","","","","","","","","","","","","","","","","",""
"2709","","<div style=""width:500px;"">
  <p>What best describes how you currently feel?</p>
  </div>","50","html-slider-response","53","738782","0.0-5.0-4.8","122","1","2025-07-16 16:59:15","1f75c3e559b7213887762d5229550c2b","105.0.5.233","Mozilla/5.0 (Windows NT 10.0; Win64; x64) AppleWebKit/537.36 (KHTML, like Gecko) Chrome/138.0.0.0 Safari/537.36","WebKit","Chrome","138.0.0.0","Windows","10.0","https://app.prolific.com/","en-GB,en;q=0.9,en-US;q=0.8,zu;q=0.7,es;q=0.6","6129dca465e41b5ae1b262da","68764874ac79eee8c1d4cb03","6877da4e82b5cd19fb2d5dc7","2","0","6129dca465e41b5ae1b262da","2","0","2025-07-16T17:11:36.215Z","","","","","","","","","","","MotivationQ","","50","","","","","","","","","","","","","","","","","","","","","","","","","","","","",""
"","","","","ctl-task-cpt","54","829743","0.0-5.0-0.9","122","1","2025-07-16 16:59:15","1f75c3e559b7213887762d5229550c2b","105.0.5.233","Mozilla/5.0 (Windows NT 10.0; Win64; x64) AppleWebKit/537.36 (KHTML, like Gecko) Chrome/138.0.0.0 Safari/537.36","WebKit","Chrome","138.0.0.0","Windows","10.0","https://app.prolific.com/","en-GB,en;q=0.9,en-US;q=0.8,zu;q=0.7,es;q=0.6","6129dca465e41b5ae1b262da","68764874ac79eee8c1d4cb03","6877da4e82b5cd19fb2d5dc7","2","0","6129dca465e41b5ae1b262da","2","0","2025-07-16T17:13:07.176Z","","","","","","","","","","","","","","win-only","3","g1:SW,g2:NE","0.4","10","0","742444.5","1541","6552.3","87924.6","1","4","4","6","2","-4","-5","6","11","0.045454545454545456","1593.4","3000","-630","[""up"",""right""]","{""num_key_presses"":19,""num_perfect"":8,""num_errors"":1,""num_randdir"":10,""num_randdir_good_moves"":4,""num_whilered"":0,""num_whileblue"":1,""num_blue"":4,""num_good_moves"":12}","[297.22232142857143,293.12857142857143,12.6,297.22232142857143,293.12857142857143,103.6,297.22232142857143,293.12857142857143,215.3,297.22232142857143,293.12857142857143,318.7,297.22232142857143,293.12857142857143,430.7,297.22232142857143,293.12857142857143,536.7,297.22232142857143,293.12857142857143,649.4,297.22232142857143,293.12857142857143,758.5,350.22232142857143,230.12857142857143,865.3,423.22232142857143,161.12857142857143,967.2,488.22232142857143,113.12857142857143,1068.6,499.22232142857143,107.12857142857143,1176.6,521.2223214285714,87.12857142857143,1281.7,536.2223214285714,69.12857142857143,1389.8,536.2223214285714,69.12857142857143,1500.6,536.2223214285714,69.12857142857143,1609.1,536.2223214285714,69.12857142857143,1713.1,536.2223214285714,69.12857142857143,1816.9,536.2223214285714,69.12857142857143,1924.1,536.2223214285714,69.12857142857143,2025.2,536.2223214285714,69.12857142857143,2132,536.2223214285714,69.12857142857143,2235.2,536.2223214285714,69.12857142857143,2345.2,536.2223214285714,69.12857142857143,2447.2,536.2223214285714,69.12857142857143,2556.6,536.2223214285714,69.12857142857143,2665.2,536.2223214285714,69.12857142857143,2768.3,536.2223214285714,69.12857142857143,2875.7,536.2223214285714,69.12857142857143,2981.9,536.2223214285714,69.12857142857143,3084.8,536.2223214285714,69.12857142857143,3189.6,536.2223214285714,69.12857142857143,3295.2,536.2223214285714,69.12857142857143,3406.5,536.2223214285714,69.12857142857143,3508,536.2223214285714,69.12857142857143,3616,536.2223214285714,69.12857142857143,3716.7,536.2223214285714,69.12857142857143,3825.2,536.2223214285714,69.12857142857143,3932.3,536.2223214285714,69.12857142857143,4033.2,536.2223214285714,69.12857142857143,4143.8,536.2223214285714,69.12857142857143,4245.2,536.2223214285714,69.12857142857143,4345.9,536.2223214285714,69.12857142857143,4458,536.2223214285714,69.12857142857143,4563.8,536.2223214285714,69.12857142857143,4673.3,536.2223214285714,69.12857142857143,4776.8,536.2223214285714,69.12857142857143,4880.2,536.2223214285714,69.12857142857143,4989.5]","[1432,1431.9,1000,0.1,431.9,""oops"",""right"",""left"",""bad_move"",4834.1,3399.1,2968.2,1435,430.9,""oops"",""right"",""right"",""good_move"",11066.6,6229.5,2379.1,8244.1,443.4,""oops"",""right"",""down"",""bad_move"",14221.7,3150,2562.2,11071.7,587.8,""oops"",""right"",""down"",""bad_move"",16645,2421.1,1987.2,14223.9,433.9,""oops"",""right"",""left"",""bad_move"",19356.6,2705.5,2291.4,16651.1,414.1,""oops"",""right"",""up"",""good_move"",22263.7,2905.5,2513.8,19358.2,391.7,""smooth"",""right"",""right"",""good_move"",25663.7,3398.9,3023.2,22264.8,375.7,""smooth"",""right"",""right"",""good_move"",28712.7,3045.4,2202.1,25667.3,843.3,""smooth"",""right"",""right"",""good_move"",32063.9,3350.2,3035.6,28713.7,314.6,""while_blue"",""right"",""down"",""bad_move"",34836.3,2771.4,2379.7,32064.9,391.7,""smooth"",""right"",""right"",""good_move"",37254.7,2417.8,1921.3,34836.9,496.5,""smooth"",""up"",""up"",""good_move"",40770.3,3514.8,1854.8,37255.5,1660,""smooth"",""up"",""up"",""good_move"",44747.8,3976.7,3166.2,40771.2,810.4,""oops"",""up"",""left"",""bad_move"",58146.3,13397.4,3186.7,54441.4,518.2,""smooth"",""up"",""up"",""good_move"",64534.2,6387.3,2404.9,58146.9,3982.4,""smooth"",""up"",""up"",""good_move"",69843.5,5308.7,2460.7,64534.8,2848,""oops"",""up"",""right"",""good_move"",72930,3085.5,2656.5,69844.5,429,""oops"",""up"",""down"",""bad_move"",76880.7,3949.6,3522.1,72931.1,427.6,""oops"",""up"",""up"",""good_move""]","",""
"3838","","<div style=""width:500px;"">
  <p>What determined the result of this run?</p>
  </div>","33","html-slider-response","55","833585","0.0-5.0-1.9","122","1","2025-07-16 16:59:15","1f75c3e559b7213887762d5229550c2b","105.0.5.233","Mozilla/5.0 (Windows NT 10.0; Win64; x64) AppleWebKit/537.36 (KHTML, like Gecko) Chrome/138.0.0.0 Safari/537.36","WebKit","Chrome","138.0.0.0","Windows","10.0","https://app.prolific.com/","en-GB,en;q=0.9,en-US;q=0.8,zu;q=0.7,es;q=0.6","6129dca465e41b5ae1b262da","68764874ac79eee8c1d4cb03","6877da4e82b5cd19fb2d5dc7","2","0","6129dca465e41b5ae1b262da","2","0","2025-07-16T17:13:11.018Z","","","","","","","","","","","AttribQ","","50","","","","","","","","","","","","","","","","","","","","","","","","","","","","",""
"2727","","<div style=""width:500px;"">
  <p>How much control did you have over the ball?</p>
  </div>","8","html-slider-response","56","836314","0.0-5.0-2.9","122","1","2025-07-16 16:59:15","1f75c3e559b7213887762d5229550c2b","105.0.5.233","Mozilla/5.0 (Windows NT 10.0; Win64; x64) AppleWebKit/537.36 (KHTML, like Gecko) Chrome/138.0.0.0 Safari/537.36","WebKit","Chrome","138.0.0.0","Windows","10.0","https://app.prolific.com/","en-GB,en;q=0.9,en-US;q=0.8,zu;q=0.7,es;q=0.6","6129dca465e41b5ae1b262da","68764874ac79eee8c1d4cb03","6877da4e82b5cd19fb2d5dc7","2","0","6129dca465e41b5ae1b262da","2","0","2025-07-16T17:13:13.748Z","","","","","","","","","","","ControlQ","","50","","","","","","","","","","","","","","","","","","","","","","","","","","","","",""
"5500","","<div style=""width:500px;"">
  <p>How would you describe your current emotional state?</p>
  </div>","66","html-slider-response","57","841817","0.0-5.0-3.9","122","1","2025-07-16 16:59:15","1f75c3e559b7213887762d5229550c2b","105.0.5.233","Mozilla/5.0 (Windows NT 10.0; Win64; x64) AppleWebKit/537.36 (KHTML, like Gecko) Chrome/138.0.0.0 Safari/537.36","WebKit","Chrome","138.0.0.0","Windows","10.0","https://app.prolific.com/","en-GB,en;q=0.9,en-US;q=0.8,zu;q=0.7,es;q=0.6","6129dca465e41b5ae1b262da","68764874ac79eee8c1d4cb03","6877da4e82b5cd19fb2d5dc7","2","0","6129dca465e41b5ae1b262da","2","0","2025-07-16T17:13:19.251Z","","","","","","","","","","","StressQ","","50","","","","","","","","","","","","","","","","","","","","","","","","","","","","",""
"3657","","<div style=""width:500px;"">
  <p>What best describes how you currently feel?</p>
  </div>","50","html-slider-response","58","845480","0.0-5.0-4.9","122","1","2025-07-16 16:59:15","1f75c3e559b7213887762d5229550c2b","105.0.5.233","Mozilla/5.0 (Windows NT 10.0; Win64; x64) AppleWebKit/537.36 (KHTML, like Gecko) Chrome/138.0.0.0 Safari/537.36","WebKit","Chrome","138.0.0.0","Windows","10.0","https://app.prolific.com/","en-GB,en;q=0.9,en-US;q=0.8,zu;q=0.7,es;q=0.6","6129dca465e41b5ae1b262da","68764874ac79eee8c1d4cb03","6877da4e82b5cd19fb2d5dc7","2","0","6129dca465e41b5ae1b262da","2","0","2025-07-16T17:13:22.913Z","","","","","","","","","","","MotivationQ","","50","","","","","","","","","","","","","","","","","","","","","","","","","","","","",""
"","","","","ctl-task-cpt","59","889163","0.0-5.0-0.10","122","1","2025-07-16 16:59:15","1f75c3e559b7213887762d5229550c2b","105.0.5.233","Mozilla/5.0 (Windows NT 10.0; Win64; x64) AppleWebKit/537.36 (KHTML, like Gecko) Chrome/138.0.0.0 Safari/537.36","WebKit","Chrome","138.0.0.0","Windows","10.0","https://app.prolific.com/","en-GB,en;q=0.9,en-US;q=0.8,zu;q=0.7,es;q=0.6","6129dca465e41b5ae1b262da","68764874ac79eee8c1d4cb03","6877da4e82b5cd19fb2d5dc7","2","0","6129dca465e41b5ae1b262da","2","0","2025-07-16T17:14:06.597Z","","","","","","","","","","","","","","win-only","2","g1:SE,g2:NW","0.5","11","0","849141.2","1727.1","6737","40651.9","1","4","4","6","2","4","4","10","6","0.07575757575757576","1582.5","3000","1315","[""left"",""up""]","{""num_key_presses"":10,""num_perfect"":5,""num_errors"":0,""num_randdir"":5,""num_randdir_good_moves"":3,""num_whilered"":0,""num_whileblue"":0,""num_blue"":1,""num_good_moves"":8}","[297.22232142857143,300.12857142857143,4.2,297.22232142857143,300.12857142857143,113.6,297.22232142857143,300.12857142857143,213.6,297.22232142857143,300.12857142857143,325.9,297.22232142857143,300.12857142857143,433.7,297.22232142857143,300.12857142857143,543.7,297.22232142857143,300.12857142857143,651.6,297.22232142857143,300.12857142857143,761.4,185.22232142857143,195.12857142857143,862.9,89.22232142857143,121.12857142857143,971.1,83.22232142857143,110.12857142857143,1078.2,81.22232142857143,106.12857142857143,1186.8,69.22232142857143,91.12857142857143,1292.9,62.222321428571426,83.12857142857143,1398.3,62.222321428571426,83.12857142857143,1507.3,62.222321428571426,83.12857142857143,1614,62.222321428571426,83.12857142857143,1728,62.222321428571426,83.12857142857143,1839.4,62.222321428571426,83.12857142857143,1948.4,62.222321428571426,83.12857142857143,2053.3,62.222321428571426,83.12857142857143,2161.4,62.222321428571426,83.12857142857143,2271.6,62.222321428571426,83.12857142857143,2377.1,62.222321428571426,83.12857142857143,2477.3,62.222321428571426,83.12857142857143,2579.1,62.222321428571426,83.12857142857143,2681,62.222321428571426,83.12857142857143,2789.2,62.222321428571426,83.12857142857143,2897.2,62.222321428571426,83.12857142857143,3007.4,62.222321428571426,83.12857142857143,3111.5,62.222321428571426,83.12857142857143,3212.4,62.222321428571426,83.12857142857143,3316.7,62.222321428571426,83.12857142857143,3423.8,62.222321428571426,83.12857142857143,3529.4,62.222321428571426,83.12857142857143,3629.4,62.222321428571426,83.12857142857143,3738.8,62.222321428571426,83.12857142857143,3843,62.222321428571426,83.12857142857143,3950.2,62.222321428571426,83.12857142857143,4052.5,62.222321428571426,83.12857142857143,4154.1,62.222321428571426,83.12857142857143,4263.4,62.222321428571426,83.12857142857143,4372.1,62.222321428571426,83.12857142857143,4475.6,62.222321428571426,83.12857142857143,4576.3,62.222321428571426,83.12857142857143,4678,62.222321428571426,83.12857142857143,4787.2,62.222321428571426,83.12857142857143,4893]","[1430.6,1430.6,1000,0,430.6,""smooth"",""up"",""up"",""good_move"",5000.6,3567.8,2961.8,1432.8,606,""smooth"",""up"",""up"",""good_move"",8015.7,3014.1,2637,5001.6,377.1,""oops"",""up"",""up"",""good_move"",15543.2,7525.9,3336.3,11786,420.9,""oops"",""left"",""right"",""bad_move"",18100.9,2556.8,1835.7,15544.2,721,""oops"",""left"",""left"",""good_move"",21213.5,3110.2,2752.2,18103.3,358,""smooth"",""left"",""left"",""good_move"",24786.8,3571.7,3154.6,21215.1,417.1,""oops"",""left"",""down"",""bad_move"",27587.8,2799.8,2352.2,24788,447.6,""oops"",""left"",""up"",""good_move"",30448.1,2859.3,2440.4,27588.8,418.9,""smooth"",""left"",""left"",""good_move"",33525.9,3076.8,2482.6,30449.2,594.1,""smooth"",""left"",""left"",""good_move""]","",""
"4708","","<div style=""width:500px;"">
  <p>What determined the result of this run?</p>
  </div>","43","html-slider-response","60","893874","0.0-5.0-1.10","122","1","2025-07-16 16:59:15","1f75c3e559b7213887762d5229550c2b","105.0.5.233","Mozilla/5.0 (Windows NT 10.0; Win64; x64) AppleWebKit/537.36 (KHTML, like Gecko) Chrome/138.0.0.0 Safari/537.36","WebKit","Chrome","138.0.0.0","Windows","10.0","https://app.prolific.com/","en-GB,en;q=0.9,en-US;q=0.8,zu;q=0.7,es;q=0.6","6129dca465e41b5ae1b262da","68764874ac79eee8c1d4cb03","6877da4e82b5cd19fb2d5dc7","2","0","6129dca465e41b5ae1b262da","2","0","2025-07-16T17:14:11.307Z","","","","","","","","","","","AttribQ","","50","","","","","","","","","","","","","","","","","","","","","","","","","","","","",""
"4462","","<div style=""width:500px;"">
  <p>How much control did you have over the ball?</p>
  </div>","34","html-slider-response","61","898339","0.0-5.0-2.10","122","1","2025-07-16 16:59:15","1f75c3e559b7213887762d5229550c2b","105.0.5.233","Mozilla/5.0 (Windows NT 10.0; Win64; x64) AppleWebKit/537.36 (KHTML, like Gecko) Chrome/138.0.0.0 Safari/537.36","WebKit","Chrome","138.0.0.0","Windows","10.0","https://app.prolific.com/","en-GB,en;q=0.9,en-US;q=0.8,zu;q=0.7,es;q=0.6","6129dca465e41b5ae1b262da","68764874ac79eee8c1d4cb03","6877da4e82b5cd19fb2d5dc7","2","0","6129dca465e41b5ae1b262da","2","0","2025-07-16T17:14:15.772Z","","","","","","","","","","","ControlQ","","50","","","","","","","","","","","","","","","","","","","","","","","","","","","","",""
"6697","","<div style=""width:500px;"">
  <p>How would you describe your current emotional state?</p>
  </div>","50","html-slider-response","62","905038","0.0-5.0-3.10","122","1","2025-07-16 16:59:15","1f75c3e559b7213887762d5229550c2b","105.0.5.233","Mozilla/5.0 (Windows NT 10.0; Win64; x64) AppleWebKit/537.36 (KHTML, like Gecko) Chrome/138.0.0.0 Safari/537.36","WebKit","Chrome","138.0.0.0","Windows","10.0","https://app.prolific.com/","en-GB,en;q=0.9,en-US;q=0.8,zu;q=0.7,es;q=0.6","6129dca465e41b5ae1b262da","68764874ac79eee8c1d4cb03","6877da4e82b5cd19fb2d5dc7","2","0","6129dca465e41b5ae1b262da","2","0","2025-07-16T17:14:22.471Z","","","","","","","","","","","StressQ","","50","","","","","","","","","","","","","","","","","","","","","","","","","","","","",""
"55475","","<div style=""width:500px;"">
  <p>What best describes how you currently feel?</p>
  </div>","55","html-slider-response","63","960515","0.0-5.0-4.10","122","1","2025-07-16 16:59:15","1f75c3e559b7213887762d5229550c2b","105.0.5.233","Mozilla/5.0 (Windows NT 10.0; Win64; x64) AppleWebKit/537.36 (KHTML, like Gecko) Chrome/138.0.0.0 Safari/537.36","WebKit","Chrome","138.0.0.0","Windows","10.0","https://app.prolific.com/","en-GB,en;q=0.9,en-US;q=0.8,zu;q=0.7,es;q=0.6","6129dca465e41b5ae1b262da","68764874ac79eee8c1d4cb03","6877da4e82b5cd19fb2d5dc7","2","0","6129dca465e41b5ae1b262da","2","0","2025-07-16T17:15:17.949Z","","","","","","","","","","","MotivationQ","","50","","","","","","","","","","","","","","","","","","","","","","","","","","","","",""
"","","","","ctl-task-cpt","64","1016318","0.0-5.0-0.11","122","1","2025-07-16 16:59:15","1f75c3e559b7213887762d5229550c2b","105.0.5.233","Mozilla/5.0 (Windows NT 10.0; Win64; x64) AppleWebKit/537.36 (KHTML, like Gecko) Chrome/138.0.0.0 Safari/537.36","WebKit","Chrome","138.0.0.0","Windows","10.0","https://app.prolific.com/","en-GB,en;q=0.9,en-US;q=0.8,zu;q=0.7,es;q=0.6","6129dca465e41b5ae1b262da","68764874ac79eee8c1d4cb03","6877da4e82b5cd19fb2d5dc7","2","0","6129dca465e41b5ae1b262da","2","0","2025-07-16T17:16:13.751Z","","","","","","","","","","","","","","win-only","2","g1:SE,g2:NW","0.6","12","0","964178.2","1373.8","6387.4","52769.3","1","4","8","6","2","8","8","18","10","0.13636363636363635","1457.7","3000","2375","[""left"",""up""]","{""num_key_presses"":6,""num_perfect"":3,""num_errors"":0,""num_randdir"":3,""num_randdir_good_moves"":3,""num_whilered"":0,""num_whileblue"":0,""num_blue"":7,""num_good_moves"":6}","[299.22232142857143,290.12857142857143,0.6,299.22232142857143,290.12857142857143,115.9,299.22232142857143,290.12857142857143,235.5,299.22232142857143,290.12857142857143,351.5,299.22232142857143,290.12857142857143,479.3,299.22232142857143,290.12857142857143,595.1,299.22232142857143,290.12857142857143,712.8,235.22232142857143,255.12857142857143,825.8,22.222321428571426,52.128571428571426,950,13.222321428571426,40.128571428571426,1070.2,40.222321428571426,47.128571428571426,1191,59.222321428571426,58.128571428571426,1311.1,59.222321428571426,58.128571428571426,1416.6,59.222321428571426,58.128571428571426,1531.4,59.222321428571426,58.128571428571426,1639,59.222321428571426,58.128571428571426,1747,59.222321428571426,58.128571428571426,1880.9,59.222321428571426,58.128571428571426,1984.3,59.222321428571426,58.128571428571426,2088.7,59.222321428571426,58.128571428571426,2190.9,59.222321428571426,58.128571428571426,2325.1,59.222321428571426,58.128571428571426,2452.1,59.222321428571426,58.128571428571426,2581.5,59.222321428571426,58.128571428571426,2711.8,59.222321428571426,58.128571428571426,2843.3,59.222321428571426,58.128571428571426,2972.8,59.222321428571426,58.128571428571426,3106.3,59.222321428571426,58.128571428571426,3206.7,59.222321428571426,58.128571428571426,3330.6,59.222321428571426,58.128571428571426,3459,59.222321428571426,58.128571428571426,3563.6,59.222321428571426,58.128571428571426,3664.5,59.222321428571426,58.128571428571426,3780.1,59.222321428571426,58.128571428571426,3889.5,59.222321428571426,58.128571428571426,3997.9,59.222321428571426,58.128571428571426,4115.3,59.222321428571426,58.128571428571426,4225.1,59.222321428571426,58.128571428571426,4333.4,59.222321428571426,58.128571428571426,4456.2,59.222321428571426,58.128571428571426,4569.3,59.222321428571426,58.128571428571426,4677.2,59.222321428571426,58.128571428571426,4793.8,59.222321428571426,58.128571428571426,4901.6]","[12107,12107,2764.9,8856.4,485.7,""smooth"",""up"",""up"",""good_move"",16556.2,4446.4,1827,12109.8,2619.4,""oops"",""up"",""up"",""good_move"",26338.5,9781.4,3228.7,22655.6,454.2,""oops"",""up"",""up"",""good_move"",39265.7,12926.6,2129.4,36658,478.3,""smooth"",""left"",""left"",""good_move"",43749.5,4482.7,2482.8,39266.8,1999.9,""oops"",""left"",""left"",""good_move"",46148.3,2397.9,1738.5,43750.4,659.4,""smooth"",""left"",""left"",""good_move""]","",""
"3778","","<div style=""width:500px;"">
  <p>What determined the result of this run?</p>
  </div>","73","html-slider-response","65","1020099","0.0-5.0-1.11","122","1","2025-07-16 16:59:15","1f75c3e559b7213887762d5229550c2b","105.0.5.233","Mozilla/5.0 (Windows NT 10.0; Win64; x64) AppleWebKit/537.36 (KHTML, like Gecko) Chrome/138.0.0.0 Safari/537.36","WebKit","Chrome","138.0.0.0","Windows","10.0","https://app.prolific.com/","en-GB,en;q=0.9,en-US;q=0.8,zu;q=0.7,es;q=0.6","6129dca465e41b5ae1b262da","68764874ac79eee8c1d4cb03","6877da4e82b5cd19fb2d5dc7","2","0","6129dca465e41b5ae1b262da","2","0","2025-07-16T17:16:17.532Z","","","","","","","","","","","AttribQ","","50","","","","","","","","","","","","","","","","","","","","","","","","","","","","",""
"2403","","<div style=""width:500px;"">
  <p>How much control did you have over the ball?</p>
  </div>","61","html-slider-response","66","1022505","0.0-5.0-2.11","122","1","2025-07-16 16:59:15","1f75c3e559b7213887762d5229550c2b","105.0.5.233","Mozilla/5.0 (Windows NT 10.0; Win64; x64) AppleWebKit/537.36 (KHTML, like Gecko) Chrome/138.0.0.0 Safari/537.36","WebKit","Chrome","138.0.0.0","Windows","10.0","https://app.prolific.com/","en-GB,en;q=0.9,en-US;q=0.8,zu;q=0.7,es;q=0.6","6129dca465e41b5ae1b262da","68764874ac79eee8c1d4cb03","6877da4e82b5cd19fb2d5dc7","2","0","6129dca465e41b5ae1b262da","2","0","2025-07-16T17:16:19.938Z","","","","","","","","","","","ControlQ","","50","","","","","","","","","","","","","","","","","","","","","","","","","","","","",""
"3103","","<div style=""width:500px;"">
  <p>How would you describe your current emotional state?</p>
  </div>","43","html-slider-response","67","1025611","0.0-5.0-3.11","122","1","2025-07-16 16:59:15","1f75c3e559b7213887762d5229550c2b","105.0.5.233","Mozilla/5.0 (Windows NT 10.0; Win64; x64) AppleWebKit/537.36 (KHTML, like Gecko) Chrome/138.0.0.0 Safari/537.36","WebKit","Chrome","138.0.0.0","Windows","10.0","https://app.prolific.com/","en-GB,en;q=0.9,en-US;q=0.8,zu;q=0.7,es;q=0.6","6129dca465e41b5ae1b262da","68764874ac79eee8c1d4cb03","6877da4e82b5cd19fb2d5dc7","2","0","6129dca465e41b5ae1b262da","2","0","2025-07-16T17:16:23.044Z","","","","","","","","","","","StressQ","","50","","","","","","","","","","","","","","","","","","","","","","","","","","","","",""
"2363","","<div style=""width:500px;"">
  <p>What best describes how you currently feel?</p>
  </div>","59","html-slider-response","68","1027979","0.0-5.0-4.11","122","1","2025-07-16 16:59:15","1f75c3e559b7213887762d5229550c2b","105.0.5.233","Mozilla/5.0 (Windows NT 10.0; Win64; x64) AppleWebKit/537.36 (KHTML, like Gecko) Chrome/138.0.0.0 Safari/537.36","WebKit","Chrome","138.0.0.0","Windows","10.0","https://app.prolific.com/","en-GB,en;q=0.9,en-US;q=0.8,zu;q=0.7,es;q=0.6","6129dca465e41b5ae1b262da","68764874ac79eee8c1d4cb03","6877da4e82b5cd19fb2d5dc7","2","0","6129dca465e41b5ae1b262da","2","0","2025-07-16T17:16:25.412Z","","","","","","","","","","","MotivationQ","","50","","","","","","","","","","","","","","","","","","","","","","","","","","","","",""
"","","","","ctl-task-cpt","69","1071037","0.0-5.0-0.12","122","1","2025-07-16 16:59:15","1f75c3e559b7213887762d5229550c2b","105.0.5.233","Mozilla/5.0 (Windows NT 10.0; Win64; x64) AppleWebKit/537.36 (KHTML, like Gecko) Chrome/138.0.0.0 Safari/537.36","WebKit","Chrome","138.0.0.0","Windows","10.0","https://app.prolific.com/","en-GB,en;q=0.9,en-US;q=0.8,zu;q=0.7,es;q=0.6","6129dca465e41b5ae1b262da","68764874ac79eee8c1d4cb03","6877da4e82b5cd19fb2d5dc7","2","0","6129dca465e41b5ae1b262da","2","0","2025-07-16T17:17:08.470Z","","","","","","","","","","","","","","win-only","2","g1:SE,g2:NW","0.7","13","0","1031637.1","1489.1","6491.7","40010.7","1","4","8","6","2","8","8","26","18","0.19696969696969696","1801.9","3000","2480","[""left"",""up""]","{""num_key_presses"":6,""num_perfect"":4,""num_errors"":0,""num_randdir"":2,""num_randdir_good_moves"":2,""num_whilered"":0,""num_whileblue"":0,""num_blue"":2,""num_good_moves"":6}","[297.22232142857143,298.12857142857143,1.1,297.22232142857143,298.12857142857143,111.4,297.22232142857143,298.12857142857143,211.4,297.22232142857143,298.12857142857143,319.5,297.22232142857143,298.12857142857143,430.2,297.22232142857143,298.12857142857143,538.8,297.22232142857143,298.12857142857143,645.5,346.22232142857143,316.12857142857143,754.7,371.22232142857143,330.12857142857143,869.6,153.22232142857143,221.12857142857143,981.7,153.22232142857143,221.12857142857143,1082.7,153.22232142857143,221.12857142857143,1191.9,153.22232142857143,221.12857142857143,1301.4,74.22232142857143,85.12857142857143,1405.9,69.22232142857143,78.12857142857143,1506.5,69.22232142857143,76.12857142857143,1609.5,69.22232142857143,76.12857142857143,1721.6,69.22232142857143,76.12857142857143,1833.8,69.22232142857143,76.12857142857143,1938.9,69.22232142857143,76.12857142857143,2052.5,69.22232142857143,76.12857142857143,2154,69.22232142857143,76.12857142857143,2268.1,69.22232142857143,76.12857142857143,2369,69.22232142857143,76.12857142857143,2470.7,69.22232142857143,76.12857142857143,2577,69.22232142857143,76.12857142857143,2691.5,69.22232142857143,76.12857142857143,2801.5,69.22232142857143,76.12857142857143,2905.3,69.22232142857143,76.12857142857143,3014.9,69.22232142857143,76.12857142857143,3124.4,69.22232142857143,76.12857142857143,3231.2,69.22232142857143,76.12857142857143,3334,69.22232142857143,76.12857142857143,3441.6,69.22232142857143,76.12857142857143,3547.9,69.22232142857143,76.12857142857143,3659.3,69.22232142857143,76.12857142857143,3775.2,69.22232142857143,76.12857142857143,3881,69.22232142857143,76.12857142857143,3988.1,69.22232142857143,76.12857142857143,4097.7,69.22232142857143,76.12857142857143,4198.7,69.22232142857143,76.12857142857143,4307.7,69.22232142857143,76.12857142857143,4407.9,69.22232142857143,76.12857142857143,4515,69.22232142857143,76.12857142857143,4622.2,69.22232142857143,76.12857142857143,4725.3,69.22232142857143,76.12857142857143,4830.7,69.22232142857143,76.12857142857143,4936.1]","[1469.4,1469.4,1000,0,469.4,""smooth"",""up"",""up"",""good_move"",9523.8,8052.3,2868.3,6154.9,500.6,""smooth"",""up"",""up"",""good_move"",13698.7,4174.4,2638.5,9524.4,1535.8,""oops"",""up"",""up"",""good_move"",18244.4,4544.3,2421.7,13700.1,2122.6,""oops"",""left"",""left"",""good_move"",22897.1,4651.3,2057.1,18245.8,2594.2,""smooth"",""left"",""left"",""good_move"",32866.6,9968.8,3039.2,29375.9,451.5,""smooth"",""left"",""left"",""good_move""]","",""
"4138","","<div style=""width:500px;"">
  <p>What determined the result of this run?</p>
  </div>","82","html-slider-response","70","1075178","0.0-5.0-1.12","122","1","2025-07-16 16:59:15","1f75c3e559b7213887762d5229550c2b","105.0.5.233","Mozilla/5.0 (Windows NT 10.0; Win64; x64) AppleWebKit/537.36 (KHTML, like Gecko) Chrome/138.0.0.0 Safari/537.36","WebKit","Chrome","138.0.0.0","Windows","10.0","https://app.prolific.com/","en-GB,en;q=0.9,en-US;q=0.8,zu;q=0.7,es;q=0.6","6129dca465e41b5ae1b262da","68764874ac79eee8c1d4cb03","6877da4e82b5cd19fb2d5dc7","2","0","6129dca465e41b5ae1b262da","2","0","2025-07-16T17:17:12.611Z","","","","","","","","","","","AttribQ","","50","","","","","","","","","","","","","","","","","","","","","","","","","","","","",""
"2937","","<div style=""width:500px;"">
  <p>How much control did you have over the ball?</p>
  </div>","99","html-slider-response","71","1078118","0.0-5.0-2.12","122","1","2025-07-16 16:59:15","1f75c3e559b7213887762d5229550c2b","105.0.5.233","Mozilla/5.0 (Windows NT 10.0; Win64; x64) AppleWebKit/537.36 (KHTML, like Gecko) Chrome/138.0.0.0 Safari/537.36","WebKit","Chrome","138.0.0.0","Windows","10.0","https://app.prolific.com/","en-GB,en;q=0.9,en-US;q=0.8,zu;q=0.7,es;q=0.6","6129dca465e41b5ae1b262da","68764874ac79eee8c1d4cb03","6877da4e82b5cd19fb2d5dc7","2","0","6129dca465e41b5ae1b262da","2","0","2025-07-16T17:17:15.551Z","","","","","","","","","","","ControlQ","","50","","","","","","","","","","","","","","","","","","","","","","","","","","","","",""
"10178","","<div style=""width:500px;"">
  <p>How would you describe your current emotional state?</p>
  </div>","38","html-slider-response","72","1088299","0.0-5.0-3.12","122","1","2025-07-16 16:59:15","1f75c3e559b7213887762d5229550c2b","105.0.5.233","Mozilla/5.0 (Windows NT 10.0; Win64; x64) AppleWebKit/537.36 (KHTML, like Gecko) Chrome/138.0.0.0 Safari/537.36","WebKit","Chrome","138.0.0.0","Windows","10.0","https://app.prolific.com/","en-GB,en;q=0.9,en-US;q=0.8,zu;q=0.7,es;q=0.6","6129dca465e41b5ae1b262da","68764874ac79eee8c1d4cb03","6877da4e82b5cd19fb2d5dc7","2","0","6129dca465e41b5ae1b262da","2","0","2025-07-16T17:17:25.732Z","","","","","","","","","","","StressQ","","50","","","","","","","","","","","","","","","","","","","","","","","","","","","","",""
"4732","","<div style=""width:500px;"">
  <p>What best describes how you currently feel?</p>
  </div>","61","html-slider-response","73","1093033","0.0-5.0-4.12","122","1","2025-07-16 16:59:15","1f75c3e559b7213887762d5229550c2b","105.0.5.233","Mozilla/5.0 (Windows NT 10.0; Win64; x64) AppleWebKit/537.36 (KHTML, like Gecko) Chrome/138.0.0.0 Safari/537.36","WebKit","Chrome","138.0.0.0","Windows","10.0","https://app.prolific.com/","en-GB,en;q=0.9,en-US;q=0.8,zu;q=0.7,es;q=0.6","6129dca465e41b5ae1b262da","68764874ac79eee8c1d4cb03","6877da4e82b5cd19fb2d5dc7","2","0","6129dca465e41b5ae1b262da","2","0","2025-07-16T17:17:30.467Z","","","","","","","","","","","MotivationQ","","50","","","","","","","","","","","","","","","","","","","","","","","","","","","","",""
