"rt","response_timestamp","stimulus","response","trial_type","trial_index","time_elapsed","internal_node_id","run_id","condition","recorded_at","source_code_version","ip","user_agent","device","browser","browser_version","platform","platform_version","referer","accept_language","PROLIFIC_PID","STUDY_ID","SESSION_ID","WEEK","BATCH","prolific_id","week","batch","realtime","success","responses","item_order","radio_event_ids","radio_event_times","key_event_times","mouse_event_times","straightlining","zigzagging","honeypot","eventType","view_history","slider_start","which_type","canvas_config","goals_layout","control_level","trial_number","tutorial_trial_number","trial_start_time","phase1_start_time","phase2_start_time","phase3_start_time","goal_1_value","goal_1_distance","goal_2_value","goal_2_distance","goal_selected","outcome","outcome_total","participant_final_score","participant_initial_score","participant_final_score_prop","goal_choice_rt","allocated_time","allocated_time_remaining","goal_direction","counts","mouse_movements","key_presses","question_order","question_id"
"3304","1752653826694","<p style='font-size:40px;line-height:1.25'><strong>Welcome to the experiment!</strong></p><p style='font-size:1.1em;line-height:1.25'>Thank you for participanting in our experiment again! You will be asked to play the Dysfunctional Ball Game again. We will briefly recap the rules before we start.</p><p style='font-size:1.1em;line-height:1.25'>Press <strong>Next</strong> to continue.</p>","0","custom-html-button-response","0","3307","0.0-0.0","37","1","2025-07-16 08:17:01","1f75c3e559b7213887762d5229550c2b","41.114.217.78","Mozilla/5.0 (Windows NT 10.0; Win64; x64) AppleWebKit/537.36 (KHTML, like Gecko) Chrome/138.0.0.0 Safari/537.36","WebKit","Chrome","138.0.0.0","Windows","10.0","https://app.prolific.com/","en-ZA,en-GB;q=0.9,en-US;q=0.8,en;q=0.7","61601e9a6b8306196d2a129c","686e379bc37a29ffa5cdc956","68775fe8ec31592f2d0efc62","1","1","61601e9a6b8306196d2a129c","1","1","2025-07-16T08:17:06.695Z","","","","","","","","","","","","","","","","","","","","","","","","","","","","","","","","","","","","","","","","","",""
"6718","","","","fullscreen","1","11027","0.0-1.0","37","1","2025-07-16 08:17:01","1f75c3e559b7213887762d5229550c2b","41.114.217.78","Mozilla/5.0 (Windows NT 10.0; Win64; x64) AppleWebKit/537.36 (KHTML, like Gecko) Chrome/138.0.0.0 Safari/537.36","WebKit","Chrome","138.0.0.0","Windows","10.0","https://app.prolific.com/","en-ZA,en-GB;q=0.9,en-US;q=0.8,en;q=0.7","61601e9a6b8306196d2a129c","686e379bc37a29ffa5cdc956","68775fe8ec31592f2d0efc62","1","1","61601e9a6b8306196d2a129c","1","1","","true","","","","","","","","","","","","","","","","","","","","","","","","","","","","","","","","","","","","","","","","",""
"3398","1752653837813","<p style='font-size:1.1em;line-height:1.25'>In the following, we will ask you a few questions relating to your feelings in the last 24 hours.<br></p><p style='font-size:1.1em;line-height:1.25'>Press the <strong>Next</strong> button to continue.</p>","0","custom-html-button-response","2","14426","0.0-2.0-0.0","37","1","2025-07-16 08:17:01","1f75c3e559b7213887762d5229550c2b","41.114.217.78","Mozilla/5.0 (Windows NT 10.0; Win64; x64) AppleWebKit/537.36 (KHTML, like Gecko) Chrome/138.0.0.0 Safari/537.36","WebKit","Chrome","138.0.0.0","Windows","10.0","https://app.prolific.com/","en-ZA,en-GB;q=0.9,en-US;q=0.8,en;q=0.7","61601e9a6b8306196d2a129c","686e379bc37a29ffa5cdc956","68775fe8ec31592f2d0efc62","1","1","61601e9a6b8306196d2a129c","1","1","2025-07-16T08:17:17.814Z","","","","","","","","","","","","","","","","","","","","","","","","","","","","","","","","","","","","","","","","","",""
"147201.39999997616","","","","survey-template","3","161632","0.0-2.0-1.0","37","1","2025-07-16 08:17:01","1f75c3e559b7213887762d5229550c2b","41.114.217.78","Mozilla/5.0 (Windows NT 10.0; Win64; x64) AppleWebKit/537.36 (KHTML, like Gecko) Chrome/138.0.0.0 Safari/537.36","WebKit","Chrome","138.0.0.0","Windows","10.0","https://app.prolific.com/","en-ZA,en-GB;q=0.9,en-US;q=0.8,en;q=0.7","61601e9a6b8306196d2a129c","686e379bc37a29ffa5cdc956","68775fe8ec31592f2d0efc62","1","1","61601e9a6b8306196d2a129c","1","1","2025-07-16T08:19:45.020Z","","{""Q01"":""1"",""Q02"":""2"",""Q03"":""3"",""Q04"":""2"",""Q05"":""2"",""Q06"":""1"",""Q07"":""2"",""Q08"":""1"",""Q09"":""3"",""Q10"":""1"",""Q11"":""3"",""Q12"":""1"",""Q13"":""5"",""Q14"":""1"",""Q15"":""3"",""Q16"":""4"",""Q17"":""2"",""Q18"":""1"",""Q19"":""1"",""Q20"":""1"",""Q21"":""1"",""Q22"":""1""}","[0,1,2,3,4,5,6,7,8,9,10,11,12,13,14,15,16,17,18,19,20,21]","[""Q01"",""Q02"",""Q03"",""Q04"",""Q04"",""Q05"",""Q06"",""Q07"",""Q08"",""Q09"",""Q10"",""Q11"",""Q12"",""Q13"",""Q14"",""Q15"",""Q16"",""Q17"",""Q18"",""Q19"",""Q20"",""Q21"",""Q22""]","[6493.799999952316,14581.699999988079,18277.399999976158,23325.299999952316,30717.599999964237,37541.5,45165.5,48861.69999998808,50693.5,54421.299999952316,62757.299999952316,66221.5,70749.39999997616,74189.19999998808,76717.29999995232,80397.39999997616,84813.19999998808,88813.09999996424,132509.5,137845.5,141589.09999996424,144077.19999998808,146109.19999998808]","[]","[1.199999988079071,6493.799999952316,14581.699999988079,18277.399999976158,23325.299999952316,30717.599999964237,37541.5,44261.69999998808,45165.5,47285.69999998808,48861.69999998808,50693.5,54421.299999952316,62757.299999952316,66221.5,70749.39999997616,74189.19999998808,76717.29999995232,80397.39999997616,84813.19999998808,88813.09999996424,132509.5,137845.5,141589.09999996424,144077.19999998808,146109.19999998808,147197.69999998808]","0.5","0.38095238095238093","0","drsp","","","","","","","","","","","","","","","","","","","","","","","","","","","","","","",""
"14673.300000011921","","","","survey-template","4","176307","0.0-2.0-2.0","37","1","2025-07-16 08:17:01","1f75c3e559b7213887762d5229550c2b","41.114.217.78","Mozilla/5.0 (Windows NT 10.0; Win64; x64) AppleWebKit/537.36 (KHTML, like Gecko) Chrome/138.0.0.0 Safari/537.36","WebKit","Chrome","138.0.0.0","Windows","10.0","https://app.prolific.com/","en-ZA,en-GB;q=0.9,en-US;q=0.8,en;q=0.7","61601e9a6b8306196d2a129c","686e379bc37a29ffa5cdc956","68775fe8ec31592f2d0efc62","1","1","61601e9a6b8306196d2a129c","1","1","2025-07-16T08:19:59.695Z","","{""Q01"":""1"",""Q02"":""3"",""Q03"":""2""}","[0,1,2]","[""Q01"",""Q02"",""Q03""]","[5016.400000035763,9000.5,13840.200000047684]","[]","[5016.400000035763,8320.300000011921,9000.5,13840.200000047684,14672.5]","0.6666666666666666","0.5","0","stress","","","","","","","","","","","","","","","","","","","","","","","","","","","","","","",""
"163782","","","","instructions","5","340090","0.0-3.0-0.0","37","1","2025-07-16 08:17:01","1f75c3e559b7213887762d5229550c2b","41.114.217.78","Mozilla/5.0 (Windows NT 10.0; Win64; x64) AppleWebKit/537.36 (KHTML, like Gecko) Chrome/138.0.0.0 Safari/537.36","WebKit","Chrome","138.0.0.0","Windows","10.0","https://app.prolific.com/","en-ZA,en-GB;q=0.9,en-US;q=0.8,en;q=0.7","61601e9a6b8306196d2a129c","686e379bc37a29ffa5cdc956","68775fe8ec31592f2d0efc62","1","1","61601e9a6b8306196d2a129c","1","1","","","","","","","","","","","","","[{""page_index"":0,""viewing_time"":163782}]","","","","","","","","","","","","","","","","","","","","","","","","","","","","","",""
"52309","","<p>Before you start with this game please answer the following three questions yourself. </p>
  <p>Through this game, we measure several aspects of your cognitive performance, such as reaction times, multi-tasking capabilities </p>
  <p>and the ability to assess the situation you are in.</p>
  <p></p>
  <p><b>How good do you usually are in such tasks?</b></p>","50","html-slider-response","6","392401","0.0-4.0-0.0","37","1","2025-07-16 08:17:01","1f75c3e559b7213887762d5229550c2b","41.114.217.78","Mozilla/5.0 (Windows NT 10.0; Win64; x64) AppleWebKit/537.36 (KHTML, like Gecko) Chrome/138.0.0.0 Safari/537.36","WebKit","Chrome","138.0.0.0","Windows","10.0","https://app.prolific.com/","en-ZA,en-GB;q=0.9,en-US;q=0.8,en;q=0.7","61601e9a6b8306196d2a129c","686e379bc37a29ffa5cdc956","68775fe8ec31592f2d0efc62","1","1","61601e9a6b8306196d2a129c","1","1","2025-07-16T08:23:35.790Z","","","","","","","","","","","PreSkillQ","","50","","","","","","","","","","","","","","","","","","","","","","","","","","","","",""
"4159","","<div style=""width:500px;"">
  <p>How well do you think you will perform in this task compared to other participants?</p>
  </div>","65","html-slider-response","7","396561","0.0-4.0-1.0","37","1","2025-07-16 08:17:01","1f75c3e559b7213887762d5229550c2b","41.114.217.78","Mozilla/5.0 (Windows NT 10.0; Win64; x64) AppleWebKit/537.36 (KHTML, like Gecko) Chrome/138.0.0.0 Safari/537.36","WebKit","Chrome","138.0.0.0","Windows","10.0","https://app.prolific.com/","en-ZA,en-GB;q=0.9,en-US;q=0.8,en;q=0.7","61601e9a6b8306196d2a129c","686e379bc37a29ffa5cdc956","68775fe8ec31592f2d0efc62","1","1","61601e9a6b8306196d2a129c","1","1","2025-07-16T08:23:39.949Z","","","","","","","","","","","PrePerfQ","","50","","","","","","","","","","","","","","","","","","","","","","","","","","","","",""
"2959","","<div style=""width:500px;"">
  <p>What best describes how you currently feel?</p>
  </div>","50","html-slider-response","8","399521","0.0-4.0-2.0","37","1","2025-07-16 08:17:01","1f75c3e559b7213887762d5229550c2b","41.114.217.78","Mozilla/5.0 (Windows NT 10.0; Win64; x64) AppleWebKit/537.36 (KHTML, like Gecko) Chrome/138.0.0.0 Safari/537.36","WebKit","Chrome","138.0.0.0","Windows","10.0","https://app.prolific.com/","en-ZA,en-GB;q=0.9,en-US;q=0.8,en;q=0.7","61601e9a6b8306196d2a129c","686e379bc37a29ffa5cdc956","68775fe8ec31592f2d0efc62","1","1","61601e9a6b8306196d2a129c","1","1","2025-07-16T08:23:42.909Z","","","","","","","","","","","PreMotivationQ","","50","","","","","","","","","","","","","","","","","","","","","","","","","","","","",""
"","","","","ctl-task-cpt","9","436905","0.0-5.0-0.0","37","1","2025-07-16 08:17:01","1f75c3e559b7213887762d5229550c2b","41.114.217.78","Mozilla/5.0 (Windows NT 10.0; Win64; x64) AppleWebKit/537.36 (KHTML, like Gecko) Chrome/138.0.0.0 Safari/537.36","WebKit","Chrome","138.0.0.0","Windows","10.0","https://app.prolific.com/","en-ZA,en-GB;q=0.9,en-US;q=0.8,en;q=0.7","61601e9a6b8306196d2a129c","686e379bc37a29ffa5cdc956","68775fe8ec31592f2d0efc62","1","1","61601e9a6b8306196d2a129c","1","1","2025-07-16T08:24:20.293Z","","","","","","","","","","","","","","win-only","2","g1:SE,g2:NW","1","1","0","404566.6","1806.3","6811.9","34378.3","1","4","8","6","2","8","8","8","0","0.06060606060606061","1897.1","3000","765","[""left"",""up""]","{""num_key_presses"":6,""num_perfect"":6,""num_errors"":0,""num_randdir"":0,""num_randdir_good_moves"":0,""num_whilered"":0,""num_whileblue"":0,""num_blue"":3,""num_good_moves"":6}","[410.57142857142856,422.1808016640799,0.3,410.57142857142856,422.1808016640799,102.4,410.57142857142856,422.1808016640799,205.1,410.57142857142856,422.1808016640799,309,410.57142857142856,422.1808016640799,414.1,410.57142857142856,422.1808016640799,519.3,410.57142857142856,422.1808016640799,625.1,410.57142857142856,422.1808016640799,725.1,413.57142857142856,422.1808016640799,825.1,425.57142857142856,437.1808016640799,925.2,425.57142857142856,437.1808016640799,1030.1,-306.42857142857144,116.18080166407994,1135.1,-292.92857142857144,69.68080166407994,1235.2,-216.42857142857144,45.68080166407994,1335.1,-99.42857142857143,38.18080166407994,1435.1,-48.42857142857143,51.68080166407994,1535.1,37.07142857142857,89.18080166407994,1635.9,38.57142857142857,89.18080166407994,1741,38.57142857142857,89.18080166407994,1845.2,38.57142857142857,90.68080166407994,1949.4,38.57142857142857,90.68080166407994,2055.2,38.57142857142857,90.68080166407994,2155.3,38.57142857142857,92.18080166407994,2260.2,38.57142857142857,92.18080166407994,2364.3,38.57142857142857,92.18080166407994,2470.3,38.57142857142857,92.18080166407994,2575.3,38.57142857142857,92.18080166407994,2679.2,38.57142857142857,92.18080166407994,2779.2,38.57142857142857,92.18080166407994,2879.2,38.57142857142857,92.18080166407994,2979.4,38.57142857142857,92.18080166407994,3084.8,38.57142857142857,92.18080166407994,3184.9,38.57142857142857,92.18080166407994,3290.3,38.57142857142857,92.18080166407994,3394.3,38.57142857142857,92.18080166407994,3500.4,38.57142857142857,92.18080166407994,3604.4,38.57142857142857,92.18080166407994,3704.4,38.57142857142857,92.18080166407994,3805.5,38.57142857142857,92.18080166407994,3910.4,38.57142857142857,92.18080166407994,4014.3,38.57142857142857,92.18080166407994,4114.3,38.57142857142857,92.18080166407994,4220.4,38.57142857142857,92.18080166407994,4320.4,38.57142857142857,92.18080166407994,4425.4,38.57142857142857,92.18080166407994,4530.3,38.57142857142857,92.18080166407994,4634.5,38.57142857142857,92.18080166407994,4734.8,38.57142857142857,92.18080166407994,4839.5,38.57142857142857,92.18080166407994,4940.4]","[4988.7,4988.7,2630.2,2009.1,349.4,""smooth"",""left"",""left"",""good_move"",11356.4,6367.4,2800.7,8158.3,397.5,""smooth"",""left"",""left"",""good_move"",14756.3,3399.7,2971.1,11356.6,428.6,""smooth"",""left"",""left"",""good_move"",18204.4,3447.8,3076.8,14756.6,371,""smooth"",""up"",""up"",""good_move"",20748.2,2543.6,2159.4,18204.6,384.2,""smooth"",""up"",""up"",""good_move"",27468.6,6720.2,2180.8,24944.4,343.4,""smooth"",""up"",""up"",""good_move""]","",""
"8903","","<div style=""width:500px;"">
  <p>What determined the result of this run?</p>
  </div>","75","html-slider-response","10","445809","0.0-5.0-1.0","37","1","2025-07-16 08:17:01","1f75c3e559b7213887762d5229550c2b","41.114.217.78","Mozilla/5.0 (Windows NT 10.0; Win64; x64) AppleWebKit/537.36 (KHTML, like Gecko) Chrome/138.0.0.0 Safari/537.36","WebKit","Chrome","138.0.0.0","Windows","10.0","https://app.prolific.com/","en-ZA,en-GB;q=0.9,en-US;q=0.8,en;q=0.7","61601e9a6b8306196d2a129c","686e379bc37a29ffa5cdc956","68775fe8ec31592f2d0efc62","1","1","61601e9a6b8306196d2a129c","1","1","2025-07-16T08:24:29.197Z","","","","","","","","","","","AttribQ","","50","","","","","","","","","","","","","","","","","","","","","","","","","","","","",""
"3383","","<div style=""width:500px;"">
  <p>How much control did you have over the ball?</p>
  </div>","100","html-slider-response","11","449193","0.0-5.0-2.0","37","1","2025-07-16 08:17:01","1f75c3e559b7213887762d5229550c2b","41.114.217.78","Mozilla/5.0 (Windows NT 10.0; Win64; x64) AppleWebKit/537.36 (KHTML, like Gecko) Chrome/138.0.0.0 Safari/537.36","WebKit","Chrome","138.0.0.0","Windows","10.0","https://app.prolific.com/","en-ZA,en-GB;q=0.9,en-US;q=0.8,en;q=0.7","61601e9a6b8306196d2a129c","686e379bc37a29ffa5cdc956","68775fe8ec31592f2d0efc62","1","1","61601e9a6b8306196d2a129c","1","1","2025-07-16T08:24:32.581Z","","","","","","","","","","","ControlQ","","50","","","","","","","","","","","","","","","","","","","","","","","","","","","","",""
"6290","","<div style=""width:500px;"">
  <p>How would you describe your current emotional state?</p>
  </div>","50","html-slider-response","12","455484","0.0-5.0-3.0","37","1","2025-07-16 08:17:01","1f75c3e559b7213887762d5229550c2b","41.114.217.78","Mozilla/5.0 (Windows NT 10.0; Win64; x64) AppleWebKit/537.36 (KHTML, like Gecko) Chrome/138.0.0.0 Safari/537.36","WebKit","Chrome","138.0.0.0","Windows","10.0","https://app.prolific.com/","en-ZA,en-GB;q=0.9,en-US;q=0.8,en;q=0.7","61601e9a6b8306196d2a129c","686e379bc37a29ffa5cdc956","68775fe8ec31592f2d0efc62","1","1","61601e9a6b8306196d2a129c","1","1","2025-07-16T08:24:38.872Z","","","","","","","","","","","StressQ","","50","","","","","","","","","","","","","","","","","","","","","","","","","","","","",""
"8932","","<div style=""width:500px;"">
  <p>What best describes how you currently feel?</p>
  </div>","75","html-slider-response","13","464417","0.0-5.0-4.0","37","1","2025-07-16 08:17:01","1f75c3e559b7213887762d5229550c2b","41.114.217.78","Mozilla/5.0 (Windows NT 10.0; Win64; x64) AppleWebKit/537.36 (KHTML, like Gecko) Chrome/138.0.0.0 Safari/537.36","WebKit","Chrome","138.0.0.0","Windows","10.0","https://app.prolific.com/","en-ZA,en-GB;q=0.9,en-US;q=0.8,en;q=0.7","61601e9a6b8306196d2a129c","686e379bc37a29ffa5cdc956","68775fe8ec31592f2d0efc62","1","1","61601e9a6b8306196d2a129c","1","1","2025-07-16T08:24:47.805Z","","","","","","","","","","","MotivationQ","","50","","","","","","","","","","","","","","","","","","","","","","","","","","","","",""
"","","","","ctl-task-cpt","14","483151","0.0-5.0-0.1","37","1","2025-07-16 08:17:01","1f75c3e559b7213887762d5229550c2b","41.114.217.78","Mozilla/5.0 (Windows NT 10.0; Win64; x64) AppleWebKit/537.36 (KHTML, like Gecko) Chrome/138.0.0.0 Safari/537.36","WebKit","Chrome","138.0.0.0","Windows","10.0","https://app.prolific.com/","en-ZA,en-GB;q=0.9,en-US;q=0.8,en;q=0.7","61601e9a6b8306196d2a129c","686e379bc37a29ffa5cdc956","68775fe8ec31592f2d0efc62","1","1","61601e9a6b8306196d2a129c","1","1","2025-07-16T08:25:06.539Z","","","","","","","","","","","","","","win-only","2","g1:SE,g2:NW","0.9","2","0","469462.3","1343.8","6346.9","15725.8","1","4","4","6","1","1","1","9","8","0.06818181818181818","2007","3000","1185","[""down"",""right""]","{""num_key_presses"":4,""num_perfect"":4,""num_errors"":0,""num_randdir"":0,""num_randdir_good_moves"":0,""num_whilered"":0,""num_whileblue"":0,""num_blue"":0,""num_good_moves"":4}","[419.57142857142856,404.1808016640799,0.2,419.57142857142856,404.1808016640799,102.3,419.57142857142856,404.1808016640799,202.5,419.57142857142856,404.1808016640799,306.4,419.57142857142856,404.1808016640799,407,419.57142857142856,404.1808016640799,512,419.57142857142856,404.1808016640799,612.1,419.57142857142856,404.1808016640799,712.4,419.57142857142856,404.1808016640799,813,92.57142857142857,249.68080166407992,916.7,26.57142857142857,173.18080166407992,1021.7,53.57142857142857,141.68080166407992,1122.5,74.57142857142857,114.68080166407994,1227.7,373.07142857142856,239.18080166407992,1331.8,935.5714285714286,734.1808016640799,1432.3,829.0714285714286,810.6808016640799,1532.5,809.5714285714286,834.6808016640799,1632.5,721.0714285714286,803.1808016640799,1733.2,721.0714285714286,794.1808016640799,1837,728.5714285714286,783.6808016640799,1942.8,728.5714285714286,783.6808016640799,2047.5,728.5714285714286,783.6808016640799,2152.6,728.5714285714286,783.6808016640799,2252.7,728.5714285714286,783.6808016640799,2352.8,728.5714285714286,783.6808016640799,2456.4,728.5714285714286,783.6808016640799,2556.4,989.5714285714286,621.6808016640799,2656.6,1181.5714285714287,515.1808016640799,2756.8,1213.0714285714287,507.6808016640799,2861.5,1213.0714285714287,507.6808016640799,2962.3,1213.0714285714287,507.6808016640799,3066.8,1213.0714285714287,507.6808016640799,3167.7,1213.0714285714287,507.6808016640799,3267.9,1213.0714285714287,507.6808016640799,3372.9,1213.0714285714287,507.6808016640799,3476.6,1213.0714285714287,507.6808016640799,3577.2,1213.0714285714287,507.6808016640799,3682.4,1213.0714285714287,507.6808016640799,3782.4,1213.0714285714287,507.6808016640799,3887.6,1213.0714285714287,507.6808016640799,3987.7,1213.0714285714287,507.6808016640799,4087.7,1213.0714285714287,507.6808016640799,4187.9,1213.0714285714287,507.6808016640799,4298.4,1213.0714285714287,507.6808016640799,4401.9,1213.0714285714287,507.6808016640799,4502.9,1213.0714285714287,507.6808016640799,4606.4,1213.0714285714287,507.6808016640799,4706.5,1213.0714285714287,507.6808016640799,4806.5,1213.0714285714287,507.6808016640799,4906.6]","[1462,1462,1000,0,462,""smooth"",""down"",""down"",""good_move"",4053.7,2591.4,2206.9,1462.3,384.5,""smooth"",""down"",""down"",""good_move"",7237.7,3183.8,2817.7,4053.9,366.1,""smooth"",""right"",""right"",""good_move"",9294,2056.1,1422.9,7237.9,633.2,""smooth"",""right"",""right"",""good_move""]","",""
"4953","","<div style=""width:500px;"">
  <p>What determined the result of this run?</p>
  </div>","100","html-slider-response","15","488105","0.0-5.0-1.1","37","1","2025-07-16 08:17:01","1f75c3e559b7213887762d5229550c2b","41.114.217.78","Mozilla/5.0 (Windows NT 10.0; Win64; x64) AppleWebKit/537.36 (KHTML, like Gecko) Chrome/138.0.0.0 Safari/537.36","WebKit","Chrome","138.0.0.0","Windows","10.0","https://app.prolific.com/","en-ZA,en-GB;q=0.9,en-US;q=0.8,en;q=0.7","61601e9a6b8306196d2a129c","686e379bc37a29ffa5cdc956","68775fe8ec31592f2d0efc62","1","1","61601e9a6b8306196d2a129c","1","1","2025-07-16T08:25:11.493Z","","","","","","","","","","","AttribQ","","50","","","","","","","","","","","","","","","","","","","","","","","","","","","","",""
"4519","","<div style=""width:500px;"">
  <p>How much control did you have over the ball?</p>
  </div>","100","html-slider-response","16","492625","0.0-5.0-2.1","37","1","2025-07-16 08:17:01","1f75c3e559b7213887762d5229550c2b","41.114.217.78","Mozilla/5.0 (Windows NT 10.0; Win64; x64) AppleWebKit/537.36 (KHTML, like Gecko) Chrome/138.0.0.0 Safari/537.36","WebKit","Chrome","138.0.0.0","Windows","10.0","https://app.prolific.com/","en-ZA,en-GB;q=0.9,en-US;q=0.8,en;q=0.7","61601e9a6b8306196d2a129c","686e379bc37a29ffa5cdc956","68775fe8ec31592f2d0efc62","1","1","61601e9a6b8306196d2a129c","1","1","2025-07-16T08:25:16.013Z","","","","","","","","","","","ControlQ","","50","","","","","","","","","","","","","","","","","","","","","","","","","","","","",""
"6399","","<div style=""width:500px;"">
  <p>How would you describe your current emotional state?</p>
  </div>","50","html-slider-response","17","499025","0.0-5.0-3.1","37","1","2025-07-16 08:17:01","1f75c3e559b7213887762d5229550c2b","41.114.217.78","Mozilla/5.0 (Windows NT 10.0; Win64; x64) AppleWebKit/537.36 (KHTML, like Gecko) Chrome/138.0.0.0 Safari/537.36","WebKit","Chrome","138.0.0.0","Windows","10.0","https://app.prolific.com/","en-ZA,en-GB;q=0.9,en-US;q=0.8,en;q=0.7","61601e9a6b8306196d2a129c","686e379bc37a29ffa5cdc956","68775fe8ec31592f2d0efc62","1","1","61601e9a6b8306196d2a129c","1","1","2025-07-16T08:25:22.413Z","","","","","","","","","","","StressQ","","50","","","","","","","","","","","","","","","","","","","","","","","","","","","","",""
"2551","","<div style=""width:500px;"">
  <p>What best describes how you currently feel?</p>
  </div>","80","html-slider-response","18","501577","0.0-5.0-4.1","37","1","2025-07-16 08:17:01","1f75c3e559b7213887762d5229550c2b","41.114.217.78","Mozilla/5.0 (Windows NT 10.0; Win64; x64) AppleWebKit/537.36 (KHTML, like Gecko) Chrome/138.0.0.0 Safari/537.36","WebKit","Chrome","138.0.0.0","Windows","10.0","https://app.prolific.com/","en-ZA,en-GB;q=0.9,en-US;q=0.8,en;q=0.7","61601e9a6b8306196d2a129c","686e379bc37a29ffa5cdc956","68775fe8ec31592f2d0efc62","1","1","61601e9a6b8306196d2a129c","1","1","2025-07-16T08:25:24.965Z","","","","","","","","","","","MotivationQ","","50","","","","","","","","","","","","","","","","","","","","","","","","","","","","",""
"","","","","ctl-task-cpt","19","527431","0.0-5.0-0.2","37","1","2025-07-16 08:17:01","1f75c3e559b7213887762d5229550c2b","41.114.217.78","Mozilla/5.0 (Windows NT 10.0; Win64; x64) AppleWebKit/537.36 (KHTML, like Gecko) Chrome/138.0.0.0 Safari/537.36","WebKit","Chrome","138.0.0.0","Windows","10.0","https://app.prolific.com/","en-ZA,en-GB;q=0.9,en-US;q=0.8,en;q=0.7","61601e9a6b8306196d2a129c","686e379bc37a29ffa5cdc956","68775fe8ec31592f2d0efc62","1","1","61601e9a6b8306196d2a129c","1","1","2025-07-16T08:25:50.819Z","","","","","","","","","","","","","","win-only","2","g1:SE,g2:NW","0.8","3","0","506622.3","1158.4","6160.5","22846.9","1","4","8","6","2","8","7","16","9","0.12121212121212122","1775.6","3000","1150","[""left"",""up""]","{""num_key_presses"":6,""num_perfect"":4,""num_errors"":1,""num_randdir"":1,""num_randdir_good_moves"":1,""num_whilered"":0,""num_whileblue"":1,""num_blue"":1,""num_good_moves"":6}","[416.57142857142856,416.1808016640799,0.1,416.57142857142856,416.1808016640799,103.1,416.57142857142856,416.1808016640799,203.1,416.57142857142856,416.1808016640799,303.1,416.57142857142856,416.1808016640799,403.1,416.57142857142856,416.1808016640799,503.4,380.57142857142856,389.1808016640799,608,266.57142857142856,248.18080166407992,712.9,217.07142857142856,167.18080166407992,818.3,148.07142857142856,122.18080166407994,922.7,113.57142857142857,113.18080166407994,1023,65.57142857142857,95.18080166407994,1127.5,65.57142857142857,95.18080166407994,1227.5,65.57142857142857,95.18080166407994,1327.5,65.57142857142857,95.18080166407994,1427.5,65.57142857142857,95.18080166407994,1532.1,65.57142857142857,95.18080166407994,1633.4,65.57142857142857,95.18080166407994,1738.3,65.57142857142857,95.18080166407994,1842.5,65.57142857142857,95.18080166407994,1942.7,65.57142857142857,95.18080166407994,2048.4,65.57142857142857,95.18080166407994,2152.3,80.57142857142857,102.68080166407994,2253.4,1375.0714285714287,602.1808016640799,2353.4,1375.0714285714287,602.1808016640799,2453.5,1375.0714285714287,602.1808016640799,2557.3,1375.0714285714287,602.1808016640799,2658.3,1375.0714285714287,602.1808016640799,2762.6,1375.0714285714287,602.1808016640799,2862.6,1375.0714285714287,602.1808016640799,2967.4,1375.0714285714287,602.1808016640799,3067.4,1375.0714285714287,602.1808016640799,3168.6,1375.0714285714287,602.1808016640799,3272.2,1375.0714285714287,602.1808016640799,3377.4,1375.0714285714287,602.1808016640799,3477.4,1375.0714285714287,602.1808016640799,3577.7,1375.0714285714287,602.1808016640799,3682.4,1375.0714285714287,602.1808016640799,3787.3,1375.0714285714287,602.1808016640799,3887.4,1375.0714285714287,602.1808016640799,3992.6,1375.0714285714287,602.1808016640799,4097.5,1375.0714285714287,602.1808016640799,4202.1,1375.0714285714287,602.1808016640799,4303.2,1375.0714285714287,602.1808016640799,4406.9,1375.0714285714287,602.1808016640799,4506.9,1375.0714285714287,602.1808016640799,4608.3,1375.0714285714287,602.1808016640799,4712.5,1375.0714285714287,602.1808016640799,4812.7,1375.0714285714287,602.1808016640799,4917.2]","[1408,1408,1000,0,408,""smooth"",""left"",""left"",""good_move"",4232.5,2824.2,2483.8,1408.3,340.4,""smooth"",""left"",""left"",""good_move"",7456.3,3223.8,2837.7,4232.6,386.1,""smooth"",""left"",""left"",""good_move"",10240.2,2783.6,2438,7456.6,345.6,""smooth"",""up"",""up"",""good_move"",13096,2855.5,2500.1,10240.5,355.4,""while_blue"",""up"",""up"",""good_move"",16591.8,3495.5,3097.3,13096.3,398.2,""oops"",""up"",""up"",""good_move""]","",""
"5081","","<div style=""width:500px;"">
  <p>What determined the result of this run?</p>
  </div>","91","html-slider-response","20","532513","0.0-5.0-1.2","37","1","2025-07-16 08:17:01","1f75c3e559b7213887762d5229550c2b","41.114.217.78","Mozilla/5.0 (Windows NT 10.0; Win64; x64) AppleWebKit/537.36 (KHTML, like Gecko) Chrome/138.0.0.0 Safari/537.36","WebKit","Chrome","138.0.0.0","Windows","10.0","https://app.prolific.com/","en-ZA,en-GB;q=0.9,en-US;q=0.8,en;q=0.7","61601e9a6b8306196d2a129c","686e379bc37a29ffa5cdc956","68775fe8ec31592f2d0efc62","1","1","61601e9a6b8306196d2a129c","1","1","2025-07-16T08:25:55.901Z","","","","","","","","","","","AttribQ","","50","","","","","","","","","","","","","","","","","","","","","","","","","","","","",""
"2719","","<div style=""width:500px;"">
  <p>How much control did you have over the ball?</p>
  </div>","100","html-slider-response","21","535233","0.0-5.0-2.2","37","1","2025-07-16 08:17:01","1f75c3e559b7213887762d5229550c2b","41.114.217.78","Mozilla/5.0 (Windows NT 10.0; Win64; x64) AppleWebKit/537.36 (KHTML, like Gecko) Chrome/138.0.0.0 Safari/537.36","WebKit","Chrome","138.0.0.0","Windows","10.0","https://app.prolific.com/","en-ZA,en-GB;q=0.9,en-US;q=0.8,en;q=0.7","61601e9a6b8306196d2a129c","686e379bc37a29ffa5cdc956","68775fe8ec31592f2d0efc62","1","1","61601e9a6b8306196d2a129c","1","1","2025-07-16T08:25:58.621Z","","","","","","","","","","","ControlQ","","50","","","","","","","","","","","","","","","","","","","","","","","","","","","","",""
"2703","","<div style=""width:500px;"">
  <p>How would you describe your current emotional state?</p>
  </div>","50","html-slider-response","22","537937","0.0-5.0-3.2","37","1","2025-07-16 08:17:01","1f75c3e559b7213887762d5229550c2b","41.114.217.78","Mozilla/5.0 (Windows NT 10.0; Win64; x64) AppleWebKit/537.36 (KHTML, like Gecko) Chrome/138.0.0.0 Safari/537.36","WebKit","Chrome","138.0.0.0","Windows","10.0","https://app.prolific.com/","en-ZA,en-GB;q=0.9,en-US;q=0.8,en;q=0.7","61601e9a6b8306196d2a129c","686e379bc37a29ffa5cdc956","68775fe8ec31592f2d0efc62","1","1","61601e9a6b8306196d2a129c","1","1","2025-07-16T08:26:01.325Z","","","","","","","","","","","StressQ","","50","","","","","","","","","","","","","","","","","","","","","","","","","","","","",""
"7031","","<div style=""width:500px;"">
  <p>What best describes how you currently feel?</p>
  </div>","66","html-slider-response","23","544969","0.0-5.0-4.2","37","1","2025-07-16 08:17:01","1f75c3e559b7213887762d5229550c2b","41.114.217.78","Mozilla/5.0 (Windows NT 10.0; Win64; x64) AppleWebKit/537.36 (KHTML, like Gecko) Chrome/138.0.0.0 Safari/537.36","WebKit","Chrome","138.0.0.0","Windows","10.0","https://app.prolific.com/","en-ZA,en-GB;q=0.9,en-US;q=0.8,en;q=0.7","61601e9a6b8306196d2a129c","686e379bc37a29ffa5cdc956","68775fe8ec31592f2d0efc62","1","1","61601e9a6b8306196d2a129c","1","1","2025-07-16T08:26:08.357Z","","","","","","","","","","","MotivationQ","","50","","","","","","","","","","","","","","","","","","","","","","","","","","","","",""
"","","","","ctl-task-cpt","24","591739","0.0-5.0-0.3","37","1","2025-07-16 08:17:01","1f75c3e559b7213887762d5229550c2b","41.114.217.78","Mozilla/5.0 (Windows NT 10.0; Win64; x64) AppleWebKit/537.36 (KHTML, like Gecko) Chrome/138.0.0.0 Safari/537.36","WebKit","Chrome","138.0.0.0","Windows","10.0","https://app.prolific.com/","en-ZA,en-GB;q=0.9,en-US;q=0.8,en;q=0.7","61601e9a6b8306196d2a129c","686e379bc37a29ffa5cdc956","68775fe8ec31592f2d0efc62","1","1","61601e9a6b8306196d2a129c","1","1","2025-07-16T08:26:55.127Z","","","","","","","","","","","","","","win-only","3","g1:SW,g2:NE","0.7","4","0","550014","1214.6","6215.6","43751.4","1","4","4","6","2","-4","-4","12","16","0.09090909090909091","3416","3000","-3015","[""up"",""right""]","{""num_key_presses"":6,""num_perfect"":5,""num_errors"":0,""num_randdir"":1,""num_randdir_good_moves"":0,""num_whilered"":0,""num_whileblue"":0,""num_blue"":5,""num_good_moves"":5}","[410.57142857142856,417.6808016640799,0.2,410.57142857142856,417.6808016640799,101.5,410.57142857142856,417.6808016640799,210.8,410.57142857142856,417.6808016640799,316.4,410.57142857142856,417.6808016640799,416.5,410.57142857142856,417.6808016640799,517.5,410.57142857142856,417.6808016640799,621.8,410.57142857142856,417.6808016640799,725.7,410.57142857142856,417.6808016640799,826,410.57142857142856,417.6808016640799,927,410.57142857142856,417.6808016640799,1036.5,410.57142857142856,417.6808016640799,1137.5,410.57142857142856,417.6808016640799,1237.6,410.57142857142856,417.6808016640799,1344.1,410.57142857142856,417.6808016640799,1446.5,410.57142857142856,417.6808016640799,1546.5,410.57142857142856,417.6808016640799,1646.5,410.57142857142856,417.6808016640799,1747.6,410.57142857142856,417.6808016640799,1851.5,494.57142857142856,359.1808016640799,1951.7,503.57142857142856,351.6808016640799,2060.6,476.57142857142856,371.1808016640799,2160.9,230.57142857142856,569.1808016640799,2266.1,181.07142857142856,629.1808016640799,2368.8,164.57142857142856,660.6808016640799,2478,107.57142857142857,714.6808016640799,2581.8,104.57142857142857,717.6808016640799,2685.7,197.57142857142856,638.1808016640799,2786.6,772.0714285714286,171.68080166407992,2888,842.5714285714286,71.18080166407994,2994.5,845.5714285714286,57.68080166407994,3094.9,839.5714285714286,54.68080166407994,3196.9,785.5714285714286,68.18080166407994,3300.9,785.5714285714286,68.18080166407994,3400.9,785.5714285714286,68.18080166407994,3502.1,785.5714285714286,68.18080166407994,3602.5,794.5714285714286,71.18080166407994,3702.5,1375.0714285714287,311.1808016640799,3818.1,1375.0714285714287,311.1808016640799,3920.8,1375.0714285714287,311.1808016640799,4021.5,1375.0714285714287,311.1808016640799,4130.6,1375.0714285714287,311.1808016640799,4231.4,1375.0714285714287,311.1808016640799,4331.6,1375.0714285714287,311.1808016640799,4432.5,1375.0714285714287,311.1808016640799,4537.4,1375.0714285714287,311.1808016640799,4643.7,1375.0714285714287,311.1808016640799,4747.3,1375.0714285714287,311.1808016640799,4852.4,1375.0714285714287,311.1808016640799,4952.4]","[1641.8,1641.8,1000,0,641.8,""smooth"",""up"",""up"",""good_move"",4468.3,2826.3,2348.2,1642.1,478.1,""smooth"",""up"",""up"",""good_move"",18513.5,14045,2480.2,15679.7,353.6,""smooth"",""up"",""up"",""good_move"",24403.4,5889.7,2411.5,21561.2,430.7,""smooth"",""right"",""right"",""good_move"",28003.9,3600.1,3059.5,24403.8,540.6,""oops"",""right"",""left"",""bad_move"",34753.5,6749.3,2566.4,31729.8,457.3,""smooth"",""right"",""right"",""good_move""]","",""
"5813","","<div style=""width:500px;"">
  <p>What determined the result of this run?</p>
  </div>","0","html-slider-response","25","597553","0.0-5.0-1.3","37","1","2025-07-16 08:17:01","1f75c3e559b7213887762d5229550c2b","41.114.217.78","Mozilla/5.0 (Windows NT 10.0; Win64; x64) AppleWebKit/537.36 (KHTML, like Gecko) Chrome/138.0.0.0 Safari/537.36","WebKit","Chrome","138.0.0.0","Windows","10.0","https://app.prolific.com/","en-ZA,en-GB;q=0.9,en-US;q=0.8,en;q=0.7","61601e9a6b8306196d2a129c","686e379bc37a29ffa5cdc956","68775fe8ec31592f2d0efc62","1","1","61601e9a6b8306196d2a129c","1","1","2025-07-16T08:27:00.941Z","","","","","","","","","","","AttribQ","","50","","","","","","","","","","","","","","","","","","","","","","","","","","","","",""
"3023","","<div style=""width:500px;"">
  <p>How much control did you have over the ball?</p>
  </div>","32","html-slider-response","26","600577","0.0-5.0-2.3","37","1","2025-07-16 08:17:01","1f75c3e559b7213887762d5229550c2b","41.114.217.78","Mozilla/5.0 (Windows NT 10.0; Win64; x64) AppleWebKit/537.36 (KHTML, like Gecko) Chrome/138.0.0.0 Safari/537.36","WebKit","Chrome","138.0.0.0","Windows","10.0","https://app.prolific.com/","en-ZA,en-GB;q=0.9,en-US;q=0.8,en;q=0.7","61601e9a6b8306196d2a129c","686e379bc37a29ffa5cdc956","68775fe8ec31592f2d0efc62","1","1","61601e9a6b8306196d2a129c","1","1","2025-07-16T08:27:03.965Z","","","","","","","","","","","ControlQ","","50","","","","","","","","","","","","","","","","","","","","","","","","","","","","",""
"7039","","<div style=""width:500px;"">
  <p>How would you describe your current emotional state?</p>
  </div>","53","html-slider-response","27","607617","0.0-5.0-3.3","37","1","2025-07-16 08:17:01","1f75c3e559b7213887762d5229550c2b","41.114.217.78","Mozilla/5.0 (Windows NT 10.0; Win64; x64) AppleWebKit/537.36 (KHTML, like Gecko) Chrome/138.0.0.0 Safari/537.36","WebKit","Chrome","138.0.0.0","Windows","10.0","https://app.prolific.com/","en-ZA,en-GB;q=0.9,en-US;q=0.8,en;q=0.7","61601e9a6b8306196d2a129c","686e379bc37a29ffa5cdc956","68775fe8ec31592f2d0efc62","1","1","61601e9a6b8306196d2a129c","1","1","2025-07-16T08:27:11.005Z","","","","","","","","","","","StressQ","","50","","","","","","","","","","","","","","","","","","","","","","","","","","","","",""
"4255","","<div style=""width:500px;"">
  <p>What best describes how you currently feel?</p>
  </div>","62","html-slider-response","28","611873","0.0-5.0-4.3","37","1","2025-07-16 08:17:01","1f75c3e559b7213887762d5229550c2b","41.114.217.78","Mozilla/5.0 (Windows NT 10.0; Win64; x64) AppleWebKit/537.36 (KHTML, like Gecko) Chrome/138.0.0.0 Safari/537.36","WebKit","Chrome","138.0.0.0","Windows","10.0","https://app.prolific.com/","en-ZA,en-GB;q=0.9,en-US;q=0.8,en;q=0.7","61601e9a6b8306196d2a129c","686e379bc37a29ffa5cdc956","68775fe8ec31592f2d0efc62","1","1","61601e9a6b8306196d2a129c","1","1","2025-07-16T08:27:15.261Z","","","","","","","","","","","MotivationQ","","50","","","","","","","","","","","","","","","","","","","","","","","","","","","","",""
"","","","","ctl-task-cpt","29","644205","0.0-5.0-0.4","37","1","2025-07-16 08:17:01","1f75c3e559b7213887762d5229550c2b","41.114.217.78","Mozilla/5.0 (Windows NT 10.0; Win64; x64) AppleWebKit/537.36 (KHTML, like Gecko) Chrome/138.0.0.0 Safari/537.36","WebKit","Chrome","138.0.0.0","Windows","10.0","https://app.prolific.com/","en-ZA,en-GB;q=0.9,en-US;q=0.8,en;q=0.7","61601e9a6b8306196d2a129c","686e379bc37a29ffa5cdc956","68775fe8ec31592f2d0efc62","1","1","61601e9a6b8306196d2a129c","1","1","2025-07-16T08:27:47.593Z","","","","","","","","","","","","","","win-only","0","g1:NW,g2:SE","0.6","5","0","616918.3","942.6","5946.9","29310.6","1","4","4","6","2","4","4","16","12","0.12121212121212122","1823.8","3000","500","[""down"",""right""]","{""num_key_presses"":6,""num_perfect"":2,""num_errors"":0,""num_randdir"":4,""num_randdir_good_moves"":4,""num_whilered"":0,""num_whileblue"":0,""num_blue"":2,""num_good_moves"":6}","[416.57142857142856,410.1808016640799,0.2,416.57142857142856,410.1808016640799,102.6,416.57142857142856,410.1808016640799,203,416.57142857142856,410.1808016640799,308.3,416.57142857142856,410.1808016640799,409.8,416.57142857142856,410.1808016640799,513.7,550.0714285714286,567.6808016640799,618.4,716.5714285714286,731.1808016640799,718.7,716.5714285714286,731.1808016640799,824.3,716.5714285714286,740.1808016640799,924.6,716.5714285714286,740.1808016640799,1028.7,716.5714285714286,740.1808016640799,1132.6,719.5714285714286,746.1808016640799,1232.6,721.0714285714286,750.6808016640799,1333.6,725.5714285714286,758.1808016640799,1438.1,725.5714285714286,759.6808016640799,1540.4,725.5714285714286,759.6808016640799,1642.6,727.0714285714286,759.6808016640799,1743.8,728.5714285714286,759.6808016640799,1847.5,749.5714285714286,749.1808016640799,1948.6,1159.0714285714287,684.6808016640799,2057.6,1375.0714285714287,615.6808016640799,2157.9,1375.0714285714287,611.1808016640799,2263.6,1375.0714285714287,611.1808016640799,2363.6,1375.0714285714287,611.1808016640799,2468.4,1375.0714285714287,611.1808016640799,2574.6,1375.0714285714287,611.1808016640799,2674.9,1375.0714285714287,611.1808016640799,2778.3,1375.0714285714287,611.1808016640799,2878.6,1375.0714285714287,611.1808016640799,2983.7,1375.0714285714287,611.1808016640799,3087.9,1375.0714285714287,611.1808016640799,3192.7,1375.0714285714287,611.1808016640799,3298.2,1375.0714285714287,611.1808016640799,3402.6,1375.0714285714287,611.1808016640799,3502.7,1375.0714285714287,611.1808016640799,3607.9,1375.0714285714287,611.1808016640799,3708.7,1375.0714285714287,611.1808016640799,3813.7,1375.0714285714287,611.1808016640799,3917.6,1375.0714285714287,611.1808016640799,4018.6,1375.0714285714287,611.1808016640799,4124.6,1375.0714285714287,611.1808016640799,4227.7,1375.0714285714287,611.1808016640799,4327.7,1375.0714285714287,611.1808016640799,4427.8,1375.0714285714287,611.1808016640799,4533.4,1375.0714285714287,611.1808016640799,4633.7,1375.0714285714287,611.1808016640799,4739.2,1375.0714285714287,611.1808016640799,4839.4,1375.0714285714287,611.1808016640799,4942.5]","[1405.7,1405.7,1000,0,405.7,""smooth"",""down"",""down"",""good_move"",4101.4,2695.4,2262.6,1406,432.8,""smooth"",""down"",""down"",""good_move"",6773.5,2671.8,2273.1,4101.7,398.7,""oops"",""down"",""down"",""good_move"",13277.9,6504.2,2496.3,10379.9,401.7,""oops"",""right"",""right"",""good_move"",20509.4,7231.3,2756.9,17339.2,413.3,""oops"",""right"",""right"",""good_move"",23269.4,2759.8,2272.7,20509.6,487.1,""oops"",""right"",""right"",""good_move""]","",""
"3931","","<div style=""width:500px;"">
  <p>What determined the result of this run?</p>
  </div>","50","html-slider-response","30","648137","0.0-5.0-1.4","37","1","2025-07-16 08:17:01","1f75c3e559b7213887762d5229550c2b","41.114.217.78","Mozilla/5.0 (Windows NT 10.0; Win64; x64) AppleWebKit/537.36 (KHTML, like Gecko) Chrome/138.0.0.0 Safari/537.36","WebKit","Chrome","138.0.0.0","Windows","10.0","https://app.prolific.com/","en-ZA,en-GB;q=0.9,en-US;q=0.8,en;q=0.7","61601e9a6b8306196d2a129c","686e379bc37a29ffa5cdc956","68775fe8ec31592f2d0efc62","1","1","61601e9a6b8306196d2a129c","1","1","2025-07-16T08:27:51.525Z","","","","","","","","","","","AttribQ","","50","","","","","","","","","","","","","","","","","","","","","","","","","","","","",""
"7335","","<div style=""width:500px;"">
  <p>How much control did you have over the ball?</p>
  </div>","90","html-slider-response","31","655473","0.0-5.0-2.4","37","1","2025-07-16 08:17:01","1f75c3e559b7213887762d5229550c2b","41.114.217.78","Mozilla/5.0 (Windows NT 10.0; Win64; x64) AppleWebKit/537.36 (KHTML, like Gecko) Chrome/138.0.0.0 Safari/537.36","WebKit","Chrome","138.0.0.0","Windows","10.0","https://app.prolific.com/","en-ZA,en-GB;q=0.9,en-US;q=0.8,en;q=0.7","61601e9a6b8306196d2a129c","686e379bc37a29ffa5cdc956","68775fe8ec31592f2d0efc62","1","1","61601e9a6b8306196d2a129c","1","1","2025-07-16T08:27:58.861Z","","","","","","","","","","","ControlQ","","50","","","","","","","","","","","","","","","","","","","","","","","","","","","","",""
"2215","","<div style=""width:500px;"">
  <p>How would you describe your current emotional state?</p>
  </div>","50","html-slider-response","32","657689","0.0-5.0-3.4","37","1","2025-07-16 08:17:01","1f75c3e559b7213887762d5229550c2b","41.114.217.78","Mozilla/5.0 (Windows NT 10.0; Win64; x64) AppleWebKit/537.36 (KHTML, like Gecko) Chrome/138.0.0.0 Safari/537.36","WebKit","Chrome","138.0.0.0","Windows","10.0","https://app.prolific.com/","en-ZA,en-GB;q=0.9,en-US;q=0.8,en;q=0.7","61601e9a6b8306196d2a129c","686e379bc37a29ffa5cdc956","68775fe8ec31592f2d0efc62","1","1","61601e9a6b8306196d2a129c","1","1","2025-07-16T08:28:01.077Z","","","","","","","","","","","StressQ","","50","","","","","","","","","","","","","","","","","","","","","","","","","","","","",""
"3631","","<div style=""width:500px;"">
  <p>What best describes how you currently feel?</p>
  </div>","59","html-slider-response","33","661321","0.0-5.0-4.4","37","1","2025-07-16 08:17:01","1f75c3e559b7213887762d5229550c2b","41.114.217.78","Mozilla/5.0 (Windows NT 10.0; Win64; x64) AppleWebKit/537.36 (KHTML, like Gecko) Chrome/138.0.0.0 Safari/537.36","WebKit","Chrome","138.0.0.0","Windows","10.0","https://app.prolific.com/","en-ZA,en-GB;q=0.9,en-US;q=0.8,en;q=0.7","61601e9a6b8306196d2a129c","686e379bc37a29ffa5cdc956","68775fe8ec31592f2d0efc62","1","1","61601e9a6b8306196d2a129c","1","1","2025-07-16T08:28:04.709Z","","","","","","","","","","","MotivationQ","","50","","","","","","","","","","","","","","","","","","","","","","","","","","","","",""
"","","","","ctl-task-cpt","34","691356","0.0-5.0-0.5","37","1","2025-07-16 08:17:01","1f75c3e559b7213887762d5229550c2b","41.114.217.78","Mozilla/5.0 (Windows NT 10.0; Win64; x64) AppleWebKit/537.36 (KHTML, like Gecko) Chrome/138.0.0.0 Safari/537.36","WebKit","Chrome","138.0.0.0","Windows","10.0","https://app.prolific.com/","en-ZA,en-GB;q=0.9,en-US;q=0.8,en;q=0.7","61601e9a6b8306196d2a129c","686e379bc37a29ffa5cdc956","68775fe8ec31592f2d0efc62","1","1","61601e9a6b8306196d2a129c","1","1","2025-07-16T08:28:34.744Z","","","","","","","","","","","","","","win-only","0","g1:NW,g2:SE","0.5","6","0","666365.8","1158.7","6161.6","27016.1","1","4","8","6","2","8","7","23","16","0.17424242424242425","1424.4","3000","320","[""down"",""right""]","{""num_key_presses"":8,""num_perfect"":4,""num_errors"":1,""num_randdir"":3,""num_randdir_good_moves"":2,""num_whilered"":0,""num_whileblue"":1,""num_blue"":1,""num_good_moves"":7}","[407.57142857142856,414.6808016640799,0.2,407.57142857142856,414.6808016640799,104.8,407.57142857142856,414.6808016640799,207.9,407.57142857142856,414.6808016640799,312.5,407.57142857142856,414.6808016640799,417.5,410.57142857142856,420.6808016640799,523.5,581.5714285714286,558.6808016640799,623.5,664.0714285714286,659.1808016640799,723.5,673.0714285714286,692.1808016640799,823.7,677.5714285714286,713.1808016640799,927.4,707.5714285714286,743.1808016640799,1027.5,724.0714285714286,753.6808016640799,1131.5,743.5714285714286,761.1808016640799,1231.6,755.5714285714286,764.1808016640799,1331.9,755.5714285714286,764.1808016640799,1433.6,757.0714285714286,764.1808016640799,1536.6,757.0714285714286,764.1808016640799,1636.8,979.0714285714286,684.6808016640799,1737.3,1375.0714285714287,515.1808016640799,1840.5,1375.0714285714287,509.1808016640799,1942.6,1375.0714285714287,509.1808016640799,2046.6,1375.0714285714287,509.1808016640799,2146.6,1375.0714285714287,509.1808016640799,2246.6,1375.0714285714287,509.1808016640799,2352.6,1375.0714285714287,509.1808016640799,2458.8,1375.0714285714287,509.1808016640799,2561.5,1375.0714285714287,509.1808016640799,2661.5,1375.0714285714287,509.1808016640799,2762.6,1375.0714285714287,509.1808016640799,2866.7,1375.0714285714287,509.1808016640799,2972.7,1375.0714285714287,509.1808016640799,3077.8,1375.0714285714287,509.1808016640799,3181.6,1375.0714285714287,509.1808016640799,3281.9,1375.0714285714287,509.1808016640799,3387.4,1375.0714285714287,509.1808016640799,3489.4,1375.0714285714287,509.1808016640799,3589.4,1375.0714285714287,509.1808016640799,3692.7,1375.0714285714287,509.1808016640799,3796.7,1375.0714285714287,509.1808016640799,3896.7,1375.0714285714287,509.1808016640799,3997.8,1375.0714285714287,509.1808016640799,4101.6,1375.0714285714287,509.1808016640799,4201.6,1375.0714285714287,509.1808016640799,4302.8,1375.0714285714287,509.1808016640799,4407.7,1375.0714285714287,509.1808016640799,4507.9,1375.0714285714287,509.1808016640799,4612.7,1375.0714285714287,509.1808016640799,4712.8,1375.0714285714287,509.1808016640799,4816.7,1375.0714285714287,509.1808016640799,4918.5]","[1384.1,1384.1,1000,0,384.1,""smooth"",""down"",""down"",""good_move"",4583.1,3198.7,2693.8,1384.4,504.9,""oops"",""down"",""down"",""good_move"",7999.2,3415.9,3045.2,4583.3,370.7,""oops"",""down"",""down"",""good_move"",10543.2,2543.8,2208.5,7999.4,335.3,""smooth"",""right"",""right"",""good_move"",13098.8,2555.2,2172.3,10543.6,382.9,""oops"",""right"",""up"",""bad_move"",15287.5,2188.4,1835.4,13099.1,353,""smooth"",""right"",""right"",""good_move"",18169.1,2881.4,2565.8,15287.7,315.6,""while_blue"",""right"",""down"",""good_move"",20767.3,2597.8,2208,18169.5,389.8,""smooth"",""right"",""right"",""good_move""]","",""
"3292","","<div style=""width:500px;"">
  <p>What determined the result of this run?</p>
  </div>","88","html-slider-response","35","694649","0.0-5.0-1.5","37","1","2025-07-16 08:17:01","1f75c3e559b7213887762d5229550c2b","41.114.217.78","Mozilla/5.0 (Windows NT 10.0; Win64; x64) AppleWebKit/537.36 (KHTML, like Gecko) Chrome/138.0.0.0 Safari/537.36","WebKit","Chrome","138.0.0.0","Windows","10.0","https://app.prolific.com/","en-ZA,en-GB;q=0.9,en-US;q=0.8,en;q=0.7","61601e9a6b8306196d2a129c","686e379bc37a29ffa5cdc956","68775fe8ec31592f2d0efc62","1","1","61601e9a6b8306196d2a129c","1","1","2025-07-16T08:28:38.037Z","","","","","","","","","","","AttribQ","","50","","","","","","","","","","","","","","","","","","","","","","","","","","","","",""
"4855","","<div style=""width:500px;"">
  <p>How much control did you have over the ball?</p>
  </div>","81","html-slider-response","36","699505","0.0-5.0-2.5","37","1","2025-07-16 08:17:01","1f75c3e559b7213887762d5229550c2b","41.114.217.78","Mozilla/5.0 (Windows NT 10.0; Win64; x64) AppleWebKit/537.36 (KHTML, like Gecko) Chrome/138.0.0.0 Safari/537.36","WebKit","Chrome","138.0.0.0","Windows","10.0","https://app.prolific.com/","en-ZA,en-GB;q=0.9,en-US;q=0.8,en;q=0.7","61601e9a6b8306196d2a129c","686e379bc37a29ffa5cdc956","68775fe8ec31592f2d0efc62","1","1","61601e9a6b8306196d2a129c","1","1","2025-07-16T08:28:42.893Z","","","","","","","","","","","ControlQ","","50","","","","","","","","","","","","","","","","","","","","","","","","","","","","",""
"4279","","<div style=""width:500px;"">
  <p>How would you describe your current emotional state?</p>
  </div>","50","html-slider-response","37","703785","0.0-5.0-3.5","37","1","2025-07-16 08:17:01","1f75c3e559b7213887762d5229550c2b","41.114.217.78","Mozilla/5.0 (Windows NT 10.0; Win64; x64) AppleWebKit/537.36 (KHTML, like Gecko) Chrome/138.0.0.0 Safari/537.36","WebKit","Chrome","138.0.0.0","Windows","10.0","https://app.prolific.com/","en-ZA,en-GB;q=0.9,en-US;q=0.8,en;q=0.7","61601e9a6b8306196d2a129c","686e379bc37a29ffa5cdc956","68775fe8ec31592f2d0efc62","1","1","61601e9a6b8306196d2a129c","1","1","2025-07-16T08:28:47.173Z","","","","","","","","","","","StressQ","","50","","","","","","","","","","","","","","","","","","","","","","","","","","","","",""
"3807","","<div style=""width:500px;"">
  <p>What best describes how you currently feel?</p>
  </div>","68","html-slider-response","38","707593","0.0-5.0-4.5","37","1","2025-07-16 08:17:01","1f75c3e559b7213887762d5229550c2b","41.114.217.78","Mozilla/5.0 (Windows NT 10.0; Win64; x64) AppleWebKit/537.36 (KHTML, like Gecko) Chrome/138.0.0.0 Safari/537.36","WebKit","Chrome","138.0.0.0","Windows","10.0","https://app.prolific.com/","en-ZA,en-GB;q=0.9,en-US;q=0.8,en;q=0.7","61601e9a6b8306196d2a129c","686e379bc37a29ffa5cdc956","68775fe8ec31592f2d0efc62","1","1","61601e9a6b8306196d2a129c","1","1","2025-07-16T08:28:50.981Z","","","","","","","","","","","MotivationQ","","50","","","","","","","","","","","","","","","","","","","","","","","","","","","","",""
"","","","","ctl-task-cpt","39","747967","0.0-5.0-0.6","37","1","2025-07-16 08:17:01","1f75c3e559b7213887762d5229550c2b","41.114.217.78","Mozilla/5.0 (Windows NT 10.0; Win64; x64) AppleWebKit/537.36 (KHTML, like Gecko) Chrome/138.0.0.0 Safari/537.36","WebKit","Chrome","138.0.0.0","Windows","10.0","https://app.prolific.com/","en-ZA,en-GB;q=0.9,en-US;q=0.8,en;q=0.7","61601e9a6b8306196d2a129c","686e379bc37a29ffa5cdc956","68775fe8ec31592f2d0efc62","1","1","61601e9a6b8306196d2a129c","1","1","2025-07-16T08:29:31.355Z","","","","","","","","","","","","","","win-only","2","g1:SE,g2:NW","0.4","7","0","712637.4","970.6","5971.4","37357.2","1","4","8","6","2","-8","-8","15","23","0.11363636363636363","1292.8","3000","-3010","[""left"",""up""]","{""num_key_presses"":7,""num_perfect"":3,""num_errors"":0,""num_randdir"":4,""num_randdir_good_moves"":1,""num_whilered"":0,""num_whileblue"":0,""num_blue"":3,""num_good_moves"":4}","[419.57142857142856,413.1808016640799,0.1,419.57142857142856,413.1808016640799,100.3,419.57142857142856,413.1808016640799,200.3,419.57142857142856,413.1808016640799,306.3,419.57142857142856,413.1808016640799,413.1,419.57142857142856,413.1808016640799,515.1,419.57142857142856,413.1808016640799,624.3,38.57142857142857,218.18080166407992,725.5,-39.42857142857143,96.68080166407994,826.2,-39.42857142857143,47.18080166407994,930,-12.42857142857143,50.18080166407994,1030.9,122.57142857142857,105.68080166407994,1136.1,122.57142857142857,105.68080166407994,1240.8,122.57142857142857,105.68080166407994,1341.2,122.57142857142857,105.68080166407994,1445.4,124.07142857142857,107.18080166407994,1546.2,1375.0714285714287,455.1808016640799,1650.9,1375.0714285714287,455.1808016640799,1755.8,1375.0714285714287,455.1808016640799,1856.2,1375.0714285714287,455.1808016640799,1961.2,1375.0714285714287,455.1808016640799,2066.1,1375.0714285714287,455.1808016640799,2171.5,1375.0714285714287,455.1808016640799,2273.1,1375.0714285714287,455.1808016640799,2375.5,1375.0714285714287,455.1808016640799,2481.4,1375.0714285714287,455.1808016640799,2586.3,1375.0714285714287,455.1808016640799,2690.1,1375.0714285714287,455.1808016640799,2790.4,1375.0714285714287,455.1808016640799,2895.3,1375.0714285714287,455.1808016640799,2996,1375.0714285714287,455.1808016640799,3100.5,1375.0714285714287,455.1808016640799,3200.7,1375.0714285714287,455.1808016640799,3301,1375.0714285714287,455.1808016640799,3401.4,1375.0714285714287,455.1808016640799,3506.1,1375.0714285714287,455.1808016640799,3606.5,1375.0714285714287,455.1808016640799,3710.2,1375.0714285714287,455.1808016640799,3811,1375.0714285714287,455.1808016640799,3915.6,1375.0714285714287,455.1808016640799,4022.1,1375.0714285714287,455.1808016640799,4125.9,1375.0714285714287,455.1808016640799,4226.5,1375.0714285714287,455.1808016640799,4330.1,1375.0714285714287,455.1808016640799,4430.3,1375.0714285714287,455.1808016640799,4530.5,1375.0714285714287,455.1808016640799,4630.9,1375.0714285714287,455.1808016640799,4731.7,1375.0714285714287,455.1808016640799,4836.2,1375.0714285714287,455.1808016640799,4941.3]","[1358.4,1358.3,1000,0.1,358.3,""oops"",""left"",""down"",""bad_move"",7063.5,5704.9,2487.6,4194.7,381.2,""smooth"",""left"",""left"",""good_move"",13504.4,6440.6,2357.6,10745.5,401.3,""smooth"",""left"",""left"",""good_move"",16029.8,2525.3,2075.8,13504.5,449.5,""oops"",""left"",""down"",""bad_move"",22768.7,6738.6,2867.7,19315.9,585.1,""oops"",""left"",""right"",""bad_move"",26309.8,3540.7,3097.3,22769.1,443.4,""smooth"",""up"",""up"",""good_move"",29061.7,2751.6,2328.9,26310.1,422.7,""oops"",""up"",""up"",""good_move""]","",""
"3041","","<div style=""width:500px;"">
  <p>What determined the result of this run?</p>
  </div>","2","html-slider-response","40","751009","0.0-5.0-1.6","37","1","2025-07-16 08:17:01","1f75c3e559b7213887762d5229550c2b","41.114.217.78","Mozilla/5.0 (Windows NT 10.0; Win64; x64) AppleWebKit/537.36 (KHTML, like Gecko) Chrome/138.0.0.0 Safari/537.36","WebKit","Chrome","138.0.0.0","Windows","10.0","https://app.prolific.com/","en-ZA,en-GB;q=0.9,en-US;q=0.8,en;q=0.7","61601e9a6b8306196d2a129c","686e379bc37a29ffa5cdc956","68775fe8ec31592f2d0efc62","1","1","61601e9a6b8306196d2a129c","1","1","2025-07-16T08:29:34.397Z","","","","","","","","","","","AttribQ","","50","","","","","","","","","","","","","","","","","","","","","","","","","","","","",""
"5167","","<div style=""width:500px;"">
  <p>How much control did you have over the ball?</p>
  </div>","2","html-slider-response","41","756177","0.0-5.0-2.6","37","1","2025-07-16 08:17:01","1f75c3e559b7213887762d5229550c2b","41.114.217.78","Mozilla/5.0 (Windows NT 10.0; Win64; x64) AppleWebKit/537.36 (KHTML, like Gecko) Chrome/138.0.0.0 Safari/537.36","WebKit","Chrome","138.0.0.0","Windows","10.0","https://app.prolific.com/","en-ZA,en-GB;q=0.9,en-US;q=0.8,en;q=0.7","61601e9a6b8306196d2a129c","686e379bc37a29ffa5cdc956","68775fe8ec31592f2d0efc62","1","1","61601e9a6b8306196d2a129c","1","1","2025-07-16T08:29:39.565Z","","","","","","","","","","","ControlQ","","50","","","","","","","","","","","","","","","","","","","","","","","","","","","","",""
"2863","","<div style=""width:500px;"">
  <p>How would you describe your current emotional state?</p>
  </div>","80","html-slider-response","42","759041","0.0-5.0-3.6","37","1","2025-07-16 08:17:01","1f75c3e559b7213887762d5229550c2b","41.114.217.78","Mozilla/5.0 (Windows NT 10.0; Win64; x64) AppleWebKit/537.36 (KHTML, like Gecko) Chrome/138.0.0.0 Safari/537.36","WebKit","Chrome","138.0.0.0","Windows","10.0","https://app.prolific.com/","en-ZA,en-GB;q=0.9,en-US;q=0.8,en;q=0.7","61601e9a6b8306196d2a129c","686e379bc37a29ffa5cdc956","68775fe8ec31592f2d0efc62","1","1","61601e9a6b8306196d2a129c","1","1","2025-07-16T08:29:42.429Z","","","","","","","","","","","StressQ","","50","","","","","","","","","","","","","","","","","","","","","","","","","","","","",""
"2622","","<div style=""width:500px;"">
  <p>What best describes how you currently feel?</p>
  </div>","60","html-slider-response","43","761665","0.0-5.0-4.6","37","1","2025-07-16 08:17:01","1f75c3e559b7213887762d5229550c2b","41.114.217.78","Mozilla/5.0 (Windows NT 10.0; Win64; x64) AppleWebKit/537.36 (KHTML, like Gecko) Chrome/138.0.0.0 Safari/537.36","WebKit","Chrome","138.0.0.0","Windows","10.0","https://app.prolific.com/","en-ZA,en-GB;q=0.9,en-US;q=0.8,en;q=0.7","61601e9a6b8306196d2a129c","686e379bc37a29ffa5cdc956","68775fe8ec31592f2d0efc62","1","1","61601e9a6b8306196d2a129c","1","1","2025-07-16T08:29:45.053Z","","","","","","","","","","","MotivationQ","","50","","","","","","","","","","","","","","","","","","","","","","","","","","","","",""
"","","","","ctl-task-cpt","44","801517","0.0-5.0-0.7","37","1","2025-07-16 08:17:01","1f75c3e559b7213887762d5229550c2b","41.114.217.78","Mozilla/5.0 (Windows NT 10.0; Win64; x64) AppleWebKit/537.36 (KHTML, like Gecko) Chrome/138.0.0.0 Safari/537.36","WebKit","Chrome","138.0.0.0","Windows","10.0","https://app.prolific.com/","en-ZA,en-GB;q=0.9,en-US;q=0.8,en;q=0.7","61601e9a6b8306196d2a129c","686e379bc37a29ffa5cdc956","68775fe8ec31592f2d0efc62","1","1","61601e9a6b8306196d2a129c","1","1","2025-07-16T08:30:24.905Z","","","","","","","","","","","","","","win-only","2","g1:SE,g2:NW","0.3","8","0","766709.4","1399.8","6401.3","36832.6","1","4","4","6","2","4","4","19","15","0.14393939393939395","2199.4","3000","55","[""left"",""up""]","{""num_key_presses"":8,""num_perfect"":3,""num_errors"":0,""num_randdir"":5,""num_randdir_good_moves"":4,""num_whilered"":0,""num_whileblue"":0,""num_blue"":3,""num_good_moves"":7}","[425.57142857142856,419.1808016640799,0.2,425.57142857142856,419.1808016640799,101.5,425.57142857142856,419.1808016640799,202.5,425.57142857142856,419.1808016640799,306.4,425.57142857142856,419.1808016640799,411.2,425.57142857142856,419.1808016640799,511.7,425.57142857142856,419.1808016640799,615.8,425.57142857142856,419.1808016640799,717.1,425.57142857142856,419.1808016640799,820.5,425.57142857142856,419.1808016640799,920.7,272.57142857142856,329.1808016640799,1020.8,-150.42857142857144,17.180801664079937,1126.6,-147.42857142857144,2.1808016640799366,1232.9,-21.42857142857143,33.68080166407994,1333.2,35.57142857142857,57.68080166407994,1435.9,59.57142857142857,71.18080166407994,1540.5,67.07142857142857,74.18080166407994,1641.8,67.07142857142857,74.18080166407994,1747.6,67.07142857142857,74.18080166407994,1852.1,67.07142857142857,74.18080166407994,1952.5,67.07142857142857,74.18080166407994,2055.9,67.07142857142857,74.18080166407994,2160.7,67.07142857142857,74.18080166407994,2266.9,164.57142857142856,117.68080166407994,2370.9,1375.0714285714287,621.6808016640799,2476.7,1375.0714285714287,623.1808016640799,2580.9,1375.0714285714287,623.1808016640799,2686.5,1375.0714285714287,623.1808016640799,2788.6,1375.0714285714287,623.1808016640799,2891.5,1375.0714285714287,623.1808016640799,2996.4,1375.0714285714287,623.1808016640799,3101.7,1375.0714285714287,623.1808016640799,3202.9,1375.0714285714287,623.1808016640799,3306.1,1375.0714285714287,623.1808016640799,3410.8,1375.0714285714287,623.1808016640799,3511,1375.0714285714287,623.1808016640799,3615.7,1375.0714285714287,623.1808016640799,3718.7,1375.0714285714287,623.1808016640799,3820.8,1375.0714285714287,623.1808016640799,3925.9,1375.0714285714287,623.1808016640799,4025.9,1375.0714285714287,623.1808016640799,4126.8,1375.0714285714287,623.1808016640799,4232.6,1375.0714285714287,623.1808016640799,4337.1,1375.0714285714287,623.1808016640799,4438.1,1375.0714285714287,623.1808016640799,4540.8,1375.0714285714287,623.1808016640799,4646.6,1375.0714285714287,623.1808016640799,4751.1,1375.0714285714287,623.1808016640799,4851.1,1375.0714285714287,623.1808016640799,4953.2]","[1439.7,1439.7,1000,0,439.7,""smooth"",""up"",""up"",""good_move"",4135.9,2695.6,2327.1,1440.3,368.5,""oops"",""up"",""down"",""bad_move"",6872,2735.7,2403.9,4136.3,331.8,""oops"",""left"",""up"",""good_move"",19871.9,12999.7,2769.2,16744.5,358.2,""oops"",""left"",""up"",""good_move"",23064.5,3192.3,2798.2,19872.2,394.1,""oops"",""left"",""left"",""good_move"",25824.2,2759.4,2379.3,23064.8,380.1,""smooth"",""left"",""left"",""good_move"",28168.1,2343.7,1951.9,25824.4,391.8,""oops"",""left"",""left"",""good_move"",30344.3,2176,1835.5,28168.4,340.4,""smooth"",""up"",""up"",""good_move""]","",""
"6179","","<div style=""width:500px;"">
  <p>What determined the result of this run?</p>
  </div>","21","html-slider-response","45","807697","0.0-5.0-1.7","37","1","2025-07-16 08:17:01","1f75c3e559b7213887762d5229550c2b","41.114.217.78","Mozilla/5.0 (Windows NT 10.0; Win64; x64) AppleWebKit/537.36 (KHTML, like Gecko) Chrome/138.0.0.0 Safari/537.36","WebKit","Chrome","138.0.0.0","Windows","10.0","https://app.prolific.com/","en-ZA,en-GB;q=0.9,en-US;q=0.8,en;q=0.7","61601e9a6b8306196d2a129c","686e379bc37a29ffa5cdc956","68775fe8ec31592f2d0efc62","1","1","61601e9a6b8306196d2a129c","1","1","2025-07-16T08:30:31.085Z","","","","","","","","","","","AttribQ","","50","","","","","","","","","","","","","","","","","","","","","","","","","","","","",""
"5343","","<div style=""width:500px;"">
  <p>How much control did you have over the ball?</p>
  </div>","21","html-slider-response","46","813041","0.0-5.0-2.7","37","1","2025-07-16 08:17:01","1f75c3e559b7213887762d5229550c2b","41.114.217.78","Mozilla/5.0 (Windows NT 10.0; Win64; x64) AppleWebKit/537.36 (KHTML, like Gecko) Chrome/138.0.0.0 Safari/537.36","WebKit","Chrome","138.0.0.0","Windows","10.0","https://app.prolific.com/","en-ZA,en-GB;q=0.9,en-US;q=0.8,en;q=0.7","61601e9a6b8306196d2a129c","686e379bc37a29ffa5cdc956","68775fe8ec31592f2d0efc62","1","1","61601e9a6b8306196d2a129c","1","1","2025-07-16T08:30:36.429Z","","","","","","","","","","","ControlQ","","50","","","","","","","","","","","","","","","","","","","","","","","","","","","","",""
"5183","","<div style=""width:500px;"">
  <p>How would you describe your current emotional state?</p>
  </div>","59","html-slider-response","47","818225","0.0-5.0-3.7","37","1","2025-07-16 08:17:01","1f75c3e559b7213887762d5229550c2b","41.114.217.78","Mozilla/5.0 (Windows NT 10.0; Win64; x64) AppleWebKit/537.36 (KHTML, like Gecko) Chrome/138.0.0.0 Safari/537.36","WebKit","Chrome","138.0.0.0","Windows","10.0","https://app.prolific.com/","en-ZA,en-GB;q=0.9,en-US;q=0.8,en;q=0.7","61601e9a6b8306196d2a129c","686e379bc37a29ffa5cdc956","68775fe8ec31592f2d0efc62","1","1","61601e9a6b8306196d2a129c","1","1","2025-07-16T08:30:41.613Z","","","","","","","","","","","StressQ","","50","","","","","","","","","","","","","","","","","","","","","","","","","","","","",""
"3495","","<div style=""width:500px;"">
  <p>What best describes how you currently feel?</p>
  </div>","73","html-slider-response","48","821721","0.0-5.0-4.7","37","1","2025-07-16 08:17:01","1f75c3e559b7213887762d5229550c2b","41.114.217.78","Mozilla/5.0 (Windows NT 10.0; Win64; x64) AppleWebKit/537.36 (KHTML, like Gecko) Chrome/138.0.0.0 Safari/537.36","WebKit","Chrome","138.0.0.0","Windows","10.0","https://app.prolific.com/","en-ZA,en-GB;q=0.9,en-US;q=0.8,en;q=0.7","61601e9a6b8306196d2a129c","686e379bc37a29ffa5cdc956","68775fe8ec31592f2d0efc62","1","1","61601e9a6b8306196d2a129c","1","1","2025-07-16T08:30:45.109Z","","","","","","","","","","","MotivationQ","","50","","","","","","","","","","","","","","","","","","","","","","","","","","","","",""
"","","","","ctl-task-cpt","49","850260","0.0-5.0-0.8","37","1","2025-07-16 08:17:01","1f75c3e559b7213887762d5229550c2b","41.114.217.78","Mozilla/5.0 (Windows NT 10.0; Win64; x64) AppleWebKit/537.36 (KHTML, like Gecko) Chrome/138.0.0.0 Safari/537.36","WebKit","Chrome","138.0.0.0","Windows","10.0","https://app.prolific.com/","en-ZA,en-GB;q=0.9,en-US;q=0.8,en;q=0.7","61601e9a6b8306196d2a129c","686e379bc37a29ffa5cdc956","68775fe8ec31592f2d0efc62","1","1","61601e9a6b8306196d2a129c","1","1","2025-07-16T08:31:13.648Z","","","","","","","","","","","","","","win-only","1","g1:NE,g2:SW","0.2","9","0","826765.3","1095.2","6095.5","25520.8","1","4","8","6","2","8","8","27","19","0.20454545454545456","984.2","3000","800","[""down"",""left""]","{""num_key_presses"":6,""num_perfect"":2,""num_errors"":0,""num_randdir"":4,""num_randdir_good_moves"":4,""num_whilered"":0,""num_whileblue"":0,""num_blue"":1,""num_good_moves"":6}","[418.07142857142856,419.1808016640799,0.2,418.07142857142856,419.1808016640799,100.8,418.07142857142856,419.1808016640799,205.2,418.07142857142856,419.1808016640799,306.1,418.07142857142856,419.1808016640799,406.2,418.07142857142856,419.1808016640799,512.4,113.57142857142857,627.6808016640799,615.3,103.07142857142857,674.1808016640799,715.6,86.57142857142857,707.1808016640799,820.9,73.07142857142857,755.1808016640799,926,73.07142857142857,755.1808016640799,1026.9,73.07142857142857,755.1808016640799,1134.1,73.07142857142857,755.1808016640799,1236.4,1172.5714285714287,755.1808016640799,1341.4,1375.0714285714287,648.6808016640799,1441.4,1375.0714285714287,644.1808016640799,1546.5,1375.0714285714287,644.1808016640799,1648.9,1375.0714285714287,644.1808016640799,1750.2,1375.0714285714287,644.1808016640799,1850.9,1375.0714285714287,644.1808016640799,1955.1,1375.0714285714287,644.1808016640799,2055.4,1375.0714285714287,644.1808016640799,2155.9,1375.0714285714287,644.1808016640799,2256.3,1375.0714285714287,644.1808016640799,2356.3,1375.0714285714287,644.1808016640799,2456.4,1375.0714285714287,644.1808016640799,2556.4,1375.0714285714287,644.1808016640799,2660.1,1375.0714285714287,644.1808016640799,2760.6,1375.0714285714287,644.1808016640799,2860.6,1375.0714285714287,644.1808016640799,2965,1375.0714285714287,644.1808016640799,3066.5,1375.0714285714287,644.1808016640799,3170.5,1375.0714285714287,644.1808016640799,3271.5,1375.0714285714287,644.1808016640799,3376,1375.0714285714287,644.1808016640799,3483.3,1375.0714285714287,644.1808016640799,3586.6,1375.0714285714287,644.1808016640799,3691.4,1375.0714285714287,644.1808016640799,3796.6,1375.0714285714287,644.1808016640799,3896.6,1375.0714285714287,644.1808016640799,3996.6,1375.0714285714287,644.1808016640799,4096.6,1375.0714285714287,644.1808016640799,4200.8,1375.0714285714287,644.1808016640799,4301.1,1375.0714285714287,644.1808016640799,4405.2,1375.0714285714287,644.1808016640799,4505.3,1375.0714285714287,644.1808016640799,4606,1375.0714285714287,644.1808016640799,4706,1375.0714285714287,644.1808016640799,4806.5,1375.0714285714287,644.1808016640799,4906.6]","[1353.9,1353.9,1000,0,353.9,""oops"",""left"",""left"",""good_move"",4185.9,2831.6,2415.3,1354.3,416.3,""oops"",""left"",""down"",""good_move"",7633.7,3447.5,3072.3,4186.2,375.2,""oops"",""left"",""down"",""good_move"",10369.6,2735.5,2359.1,7634.1,376.4,""smooth"",""left"",""left"",""good_move"",13377.6,3007.7,2639.5,10369.9,368.2,""oops"",""left"",""left"",""good_move"",19337.9,5960.1,2539,16455.8,343.1,""smooth"",""down"",""down"",""good_move""]","",""
"5787","","<div style=""width:500px;"">
  <p>What determined the result of this run?</p>
  </div>","41","html-slider-response","50","856049","0.0-5.0-1.8","37","1","2025-07-16 08:17:01","1f75c3e559b7213887762d5229550c2b","41.114.217.78","Mozilla/5.0 (Windows NT 10.0; Win64; x64) AppleWebKit/537.36 (KHTML, like Gecko) Chrome/138.0.0.0 Safari/537.36","WebKit","Chrome","138.0.0.0","Windows","10.0","https://app.prolific.com/","en-ZA,en-GB;q=0.9,en-US;q=0.8,en;q=0.7","61601e9a6b8306196d2a129c","686e379bc37a29ffa5cdc956","68775fe8ec31592f2d0efc62","1","1","61601e9a6b8306196d2a129c","1","1","2025-07-16T08:31:19.437Z","","","","","","","","","","","AttribQ","","50","","","","","","","","","","","","","","","","","","","","","","","","","","","","",""
"2815","","<div style=""width:500px;"">
  <p>How much control did you have over the ball?</p>
  </div>","41","html-slider-response","51","858865","0.0-5.0-2.8","37","1","2025-07-16 08:17:01","1f75c3e559b7213887762d5229550c2b","41.114.217.78","Mozilla/5.0 (Windows NT 10.0; Win64; x64) AppleWebKit/537.36 (KHTML, like Gecko) Chrome/138.0.0.0 Safari/537.36","WebKit","Chrome","138.0.0.0","Windows","10.0","https://app.prolific.com/","en-ZA,en-GB;q=0.9,en-US;q=0.8,en;q=0.7","61601e9a6b8306196d2a129c","686e379bc37a29ffa5cdc956","68775fe8ec31592f2d0efc62","1","1","61601e9a6b8306196d2a129c","1","1","2025-07-16T08:31:22.253Z","","","","","","","","","","","ControlQ","","50","","","","","","","","","","","","","","","","","","","","","","","","","","","","",""
"4719","","<div style=""width:500px;"">
  <p>How would you describe your current emotional state?</p>
  </div>","60","html-slider-response","52","863585","0.0-5.0-3.8","37","1","2025-07-16 08:17:01","1f75c3e559b7213887762d5229550c2b","41.114.217.78","Mozilla/5.0 (Windows NT 10.0; Win64; x64) AppleWebKit/537.36 (KHTML, like Gecko) Chrome/138.0.0.0 Safari/537.36","WebKit","Chrome","138.0.0.0","Windows","10.0","https://app.prolific.com/","en-ZA,en-GB;q=0.9,en-US;q=0.8,en;q=0.7","61601e9a6b8306196d2a129c","686e379bc37a29ffa5cdc956","68775fe8ec31592f2d0efc62","1","1","61601e9a6b8306196d2a129c","1","1","2025-07-16T08:31:26.973Z","","","","","","","","","","","StressQ","","50","","","","","","","","","","","","","","","","","","","","","","","","","","","","",""
"8311","","<div style=""width:500px;"">
  <p>What best describes how you currently feel?</p>
  </div>","69","html-slider-response","53","871897","0.0-5.0-4.8","37","1","2025-07-16 08:17:01","1f75c3e559b7213887762d5229550c2b","41.114.217.78","Mozilla/5.0 (Windows NT 10.0; Win64; x64) AppleWebKit/537.36 (KHTML, like Gecko) Chrome/138.0.0.0 Safari/537.36","WebKit","Chrome","138.0.0.0","Windows","10.0","https://app.prolific.com/","en-ZA,en-GB;q=0.9,en-US;q=0.8,en;q=0.7","61601e9a6b8306196d2a129c","686e379bc37a29ffa5cdc956","68775fe8ec31592f2d0efc62","1","1","61601e9a6b8306196d2a129c","1","1","2025-07-16T08:31:35.285Z","","","","","","","","","","","MotivationQ","","50","","","","","","","","","","","","","","","","","","","","","","","","","","","","",""
"","","","","ctl-task-cpt","54","915138","0.0-5.0-0.9","37","1","2025-07-16 08:17:01","1f75c3e559b7213887762d5229550c2b","41.114.217.78","Mozilla/5.0 (Windows NT 10.0; Win64; x64) AppleWebKit/537.36 (KHTML, like Gecko) Chrome/138.0.0.0 Safari/537.36","WebKit","Chrome","138.0.0.0","Windows","10.0","https://app.prolific.com/","en-ZA,en-GB;q=0.9,en-US;q=0.8,en;q=0.7","61601e9a6b8306196d2a129c","686e379bc37a29ffa5cdc956","68775fe8ec31592f2d0efc62","1","1","61601e9a6b8306196d2a129c","1","1","2025-07-16T08:32:18.526Z","","","","","","","","","","","","","","win-only","0","g1:NW,g2:SE","0.4","10","0","876941.8","1094.8","6099.7","40221.7","1","4","4","6","1","-1","-1","26","27","0.19696969696969696","1752","3000","-2975","[""left"",""up""]","{""num_key_presses"":7,""num_perfect"":4,""num_errors"":0,""num_randdir"":3,""num_randdir_good_moves"":0,""num_whilered"":0,""num_whileblue"":0,""num_blue"":3,""num_good_moves"":4}","[412.07142857142856,414.6808016640799,0.4,412.07142857142856,414.6808016640799,100.4,412.07142857142856,414.6808016640799,205.7,412.07142857142856,414.6808016640799,306.3,412.07142857142856,414.6808016640799,411.8,419.57142857142856,420.6808016640799,516.7,674.5714285714286,678.6808016640799,617.3,689.5714285714286,723.6808016640799,720.5,692.5714285714286,734.1808016640799,821.7,706.0714285714286,741.6808016640799,927.1,722.5714285714286,741.6808016640799,1030.8,532.0714285714286,656.1808016640799,1136,-67.92857142857143,236.18080166407992,1236.6,13.07142857142857,155.18080166407992,1338.8,25.07142857142857,123.68080166407994,1440.6,26.57142857142857,71.18080166407994,1540.6,122.57142857142857,53.18080166407994,1640.7,122.57142857142857,53.18080166407994,1747,122.57142857142857,53.18080166407994,1849.6,122.57142857142857,53.18080166407994,1951.8,122.57142857142857,53.18080166407994,2055.7,1232.5714285714287,401.1808016640799,2160.8,1375.0714285714287,540.6808016640799,2260.8,1375.0714285714287,540.6808016640799,2362.1,1375.0714285714287,540.6808016640799,2466,1375.0714285714287,540.6808016640799,2570.8,1375.0714285714287,540.6808016640799,2670.9,1375.0714285714287,540.6808016640799,2771.7,1375.0714285714287,540.6808016640799,2875.6,1375.0714285714287,540.6808016640799,2975.7,1375.0714285714287,540.6808016640799,3076.8,1375.0714285714287,540.6808016640799,3179.3,1375.0714285714287,540.6808016640799,3281.9,1375.0714285714287,540.6808016640799,3382,1375.0714285714287,540.6808016640799,3482.3,1375.0714285714287,540.6808016640799,3583.5,1375.0714285714287,540.6808016640799,3686.4,1375.0714285714287,540.6808016640799,3788.3,1375.0714285714287,540.6808016640799,3890.7,1375.0714285714287,540.6808016640799,3991.6,1375.0714285714287,540.6808016640799,4097.4,1375.0714285714287,540.6808016640799,4201.9,1375.0714285714287,540.6808016640799,4306.9,1375.0714285714287,540.6808016640799,4411.3,1375.0714285714287,540.6808016640799,4518.9,1375.0714285714287,540.6808016640799,4620.5,1375.0714285714287,540.6808016640799,4720.8,1375.0714285714287,540.6808016640799,4820.9,1375.0714285714287,540.6808016640799,4925.8]","[1381.2,1381.2,1000,0,381.2,""smooth"",""left"",""left"",""good_move"",3509.3,2127.8,1746.4,1381.5,381.4,""smooth"",""left"",""left"",""good_move"",9644.9,6135.3,2314.4,6971.2,359.3,""oops"",""up"",""down"",""bad_move"",13197.1,3551.9,3165.4,9645.2,386.5,""smooth"",""up"",""up"",""good_move"",23613.1,10415.7,2673.5,20566.9,372.7,""oops"",""right"",""down"",""bad_move"",27116.8,3503.3,3025.7,23613.5,477.6,""oops"",""up"",""right"",""bad_move"",30926.8,3809.6,3399.7,27117.2,409.9,""smooth"",""up"",""up"",""good_move""]","",""
"5247","","<div style=""width:500px;"">
  <p>What determined the result of this run?</p>
  </div>","0","html-slider-response","55","920385","0.0-5.0-1.9","37","1","2025-07-16 08:17:01","1f75c3e559b7213887762d5229550c2b","41.114.217.78","Mozilla/5.0 (Windows NT 10.0; Win64; x64) AppleWebKit/537.36 (KHTML, like Gecko) Chrome/138.0.0.0 Safari/537.36","WebKit","Chrome","138.0.0.0","Windows","10.0","https://app.prolific.com/","en-ZA,en-GB;q=0.9,en-US;q=0.8,en;q=0.7","61601e9a6b8306196d2a129c","686e379bc37a29ffa5cdc956","68775fe8ec31592f2d0efc62","1","1","61601e9a6b8306196d2a129c","1","1","2025-07-16T08:32:23.773Z","","","","","","","","","","","AttribQ","","50","","","","","","","","","","","","","","","","","","","","","","","","","","","","",""
"2334","","<div style=""width:500px;"">
  <p>How much control did you have over the ball?</p>
  </div>","0","html-slider-response","56","922721","0.0-5.0-2.9","37","1","2025-07-16 08:17:01","1f75c3e559b7213887762d5229550c2b","41.114.217.78","Mozilla/5.0 (Windows NT 10.0; Win64; x64) AppleWebKit/537.36 (KHTML, like Gecko) Chrome/138.0.0.0 Safari/537.36","WebKit","Chrome","138.0.0.0","Windows","10.0","https://app.prolific.com/","en-ZA,en-GB;q=0.9,en-US;q=0.8,en;q=0.7","61601e9a6b8306196d2a129c","686e379bc37a29ffa5cdc956","68775fe8ec31592f2d0efc62","1","1","61601e9a6b8306196d2a129c","1","1","2025-07-16T08:32:26.109Z","","","","","","","","","","","ControlQ","","50","","","","","","","","","","","","","","","","","","","","","","","","","","","","",""
"3586","","<div style=""width:500px;"">
  <p>How would you describe your current emotional state?</p>
  </div>","63","html-slider-response","57","926308","0.0-5.0-3.9","37","1","2025-07-16 08:17:01","1f75c3e559b7213887762d5229550c2b","41.114.217.78","Mozilla/5.0 (Windows NT 10.0; Win64; x64) AppleWebKit/537.36 (KHTML, like Gecko) Chrome/138.0.0.0 Safari/537.36","WebKit","Chrome","138.0.0.0","Windows","10.0","https://app.prolific.com/","en-ZA,en-GB;q=0.9,en-US;q=0.8,en;q=0.7","61601e9a6b8306196d2a129c","686e379bc37a29ffa5cdc956","68775fe8ec31592f2d0efc62","1","1","61601e9a6b8306196d2a129c","1","1","2025-07-16T08:32:29.696Z","","","","","","","","","","","StressQ","","50","","","","","","","","","","","","","","","","","","","","","","","","","","","","",""
"2132","","<div style=""width:500px;"">
  <p>What best describes how you currently feel?</p>
  </div>","59","html-slider-response","58","928440","0.0-5.0-4.9","37","1","2025-07-16 08:17:01","1f75c3e559b7213887762d5229550c2b","41.114.217.78","Mozilla/5.0 (Windows NT 10.0; Win64; x64) AppleWebKit/537.36 (KHTML, like Gecko) Chrome/138.0.0.0 Safari/537.36","WebKit","Chrome","138.0.0.0","Windows","10.0","https://app.prolific.com/","en-ZA,en-GB;q=0.9,en-US;q=0.8,en;q=0.7","61601e9a6b8306196d2a129c","686e379bc37a29ffa5cdc956","68775fe8ec31592f2d0efc62","1","1","61601e9a6b8306196d2a129c","1","1","2025-07-16T08:32:31.829Z","","","","","","","","","","","MotivationQ","","50","","","","","","","","","","","","","","","","","","","","","","","","","","","","",""
"","","","","ctl-task-cpt","59","976757","0.0-5.0-0.10","37","1","2025-07-16 08:17:01","1f75c3e559b7213887762d5229550c2b","41.114.217.78","Mozilla/5.0 (Windows NT 10.0; Win64; x64) AppleWebKit/537.36 (KHTML, like Gecko) Chrome/138.0.0.0 Safari/537.36","WebKit","Chrome","138.0.0.0","Windows","10.0","https://app.prolific.com/","en-ZA,en-GB;q=0.9,en-US;q=0.8,en;q=0.7","61601e9a6b8306196d2a129c","686e379bc37a29ffa5cdc956","68775fe8ec31592f2d0efc62","1","1","61601e9a6b8306196d2a129c","1","1","2025-07-16T08:33:20.145Z","","","","","","","","","","","","","","win-only","2","g1:SE,g2:NW","0.5","11","0","933485.5","2142.8","7146.5","45296.7","1","4","8","6","2","-8","-11","15","26","0.11363636363636363","960","3000","-2995","[""left"",""up""]","{""num_key_presses"":12,""num_perfect"":5,""num_errors"":3,""num_randdir"":3,""num_randdir_good_moves"":1,""num_whilered"":1,""num_whileblue"":0,""num_blue"":2,""num_good_moves"":6}","[410.57142857142856,414.6808016640799,0.2,410.57142857142856,414.6808016640799,105.8,410.57142857142856,414.6808016640799,207.7,410.57142857142856,414.6808016640799,310.2,410.57142857142856,414.6808016640799,413.2,410.57142857142856,414.6808016640799,519.5,355.07142857142856,354.6808016640799,624,65.57142857142857,107.18080166407994,728.4,65.57142857142857,81.68080166407994,832.9,68.57142857142857,74.18080166407994,941.3,68.57142857142857,74.18080166407994,1043,341.57142857142856,149.18080166407992,1147.8,1316.5714285714287,317.1808016640799,1248.2,1337.5714285714287,317.1808016640799,1350.1,1337.5714285714287,317.1808016640799,1452.8,1337.5714285714287,317.1808016640799,1552.8,1337.5714285714287,317.1808016640799,1652.9,1337.5714285714287,317.1808016640799,1754.2,1337.5714285714287,317.1808016640799,1855.7,1337.5714285714287,317.1808016640799,1956.4,1337.5714285714287,317.1808016640799,2057.6,1337.5714285714287,317.1808016640799,2158.2,1337.5714285714287,317.1808016640799,2258.2,1337.5714285714287,317.1808016640799,2363.7,1337.5714285714287,317.1808016640799,2469.6,1337.5714285714287,317.1808016640799,2575.4,1337.5714285714287,317.1808016640799,2678.4,1337.5714285714287,317.1808016640799,2784,1337.5714285714287,317.1808016640799,2884.4,1337.5714285714287,317.1808016640799,2991.2,1337.5714285714287,317.1808016640799,3093.2,1337.5714285714287,317.1808016640799,3194.1,1337.5714285714287,317.1808016640799,3297.8,1337.5714285714287,317.1808016640799,3398,1337.5714285714287,317.1808016640799,3498.5,1337.5714285714287,317.1808016640799,3606.3,1337.5714285714287,317.1808016640799,3708.1,1337.5714285714287,317.1808016640799,3808.4,1337.5714285714287,317.1808016640799,3909.4,1337.5714285714287,317.1808016640799,4012.8,1337.5714285714287,317.1808016640799,4113.3,1337.5714285714287,317.1808016640799,4218.1,1337.5714285714287,317.1808016640799,4318.7,1337.5714285714287,317.1808016640799,4427.9,1337.5714285714287,317.1808016640799,4529.2,1337.5714285714287,317.1808016640799,4634.5,1337.5714285714287,317.1808016640799,4739.1,1337.5714285714287,317.1808016640799,4842.7,1337.5714285714287,317.1808016640799,4943.5]","[1375,1375,1000,0,375,""smooth"",""left"",""left"",""good_move"",5070.2,3695,3301.1,1375.2,393.9,""smooth"",""left"",""left"",""good_move"",8494.8,3424.4,3060.7,5070.4,363.7,""smooth"",""left"",""left"",""good_move"",14648.4,6153.4,2154.7,12109.9,383.8,""smooth"",""up"",""up"",""good_move"",17983,3334.2,2917.9,14648.8,416.3,""smooth"",""up"",""up"",""good_move"",24319.5,6336.3,2772.9,21171.9,374.8,""oops"",""up"",""right"",""bad_move"",27518.5,3198.6,2786.2,24319.9,412.4,""oops"",""up"",""down"",""bad_move"",30486.4,2967.6,2575.3,27518.8,392.3,""oops"",""left"",""up"",""good_move"",31414.4,927.7,2494.5,30486.8,-1566.9,""error"",""-"",""-"",""no_move"",32270.6,855.8,2494.5,30486.8,-710.7,""while_red"",""-"",""-"",""no_move"",32870.5,1455.7,2081.9,32417.6,-1629,""error"",""-"",""-"",""no_move"",34262.5,1391.8,2012.3,33874.6,-1624.4,""error"",""-"",""-"",""no_move""]","",""
"9451","","<div style=""width:500px;"">
  <p>What determined the result of this run?</p>
  </div>","47","html-slider-response","60","986209","0.0-5.0-1.10","37","1","2025-07-16 08:17:01","1f75c3e559b7213887762d5229550c2b","41.114.217.78","Mozilla/5.0 (Windows NT 10.0; Win64; x64) AppleWebKit/537.36 (KHTML, like Gecko) Chrome/138.0.0.0 Safari/537.36","WebKit","Chrome","138.0.0.0","Windows","10.0","https://app.prolific.com/","en-ZA,en-GB;q=0.9,en-US;q=0.8,en;q=0.7","61601e9a6b8306196d2a129c","686e379bc37a29ffa5cdc956","68775fe8ec31592f2d0efc62","1","1","61601e9a6b8306196d2a129c","1","1","2025-07-16T08:33:29.597Z","","","","","","","","","","","AttribQ","","50","","","","","","","","","","","","","","","","","","","","","","","","","","","","",""
"2967","","<div style=""width:500px;"">
  <p>How much control did you have over the ball?</p>
  </div>","7","html-slider-response","61","989177","0.0-5.0-2.10","37","1","2025-07-16 08:17:01","1f75c3e559b7213887762d5229550c2b","41.114.217.78","Mozilla/5.0 (Windows NT 10.0; Win64; x64) AppleWebKit/537.36 (KHTML, like Gecko) Chrome/138.0.0.0 Safari/537.36","WebKit","Chrome","138.0.0.0","Windows","10.0","https://app.prolific.com/","en-ZA,en-GB;q=0.9,en-US;q=0.8,en;q=0.7","61601e9a6b8306196d2a129c","686e379bc37a29ffa5cdc956","68775fe8ec31592f2d0efc62","1","1","61601e9a6b8306196d2a129c","1","1","2025-07-16T08:33:32.565Z","","","","","","","","","","","ControlQ","","50","","","","","","","","","","","","","","","","","","","","","","","","","","","","",""
"3167","","<div style=""width:500px;"">
  <p>How would you describe your current emotional state?</p>
  </div>","75","html-slider-response","62","992344","0.0-5.0-3.10","37","1","2025-07-16 08:17:01","1f75c3e559b7213887762d5229550c2b","41.114.217.78","Mozilla/5.0 (Windows NT 10.0; Win64; x64) AppleWebKit/537.36 (KHTML, like Gecko) Chrome/138.0.0.0 Safari/537.36","WebKit","Chrome","138.0.0.0","Windows","10.0","https://app.prolific.com/","en-ZA,en-GB;q=0.9,en-US;q=0.8,en;q=0.7","61601e9a6b8306196d2a129c","686e379bc37a29ffa5cdc956","68775fe8ec31592f2d0efc62","1","1","61601e9a6b8306196d2a129c","1","1","2025-07-16T08:33:35.733Z","","","","","","","","","","","StressQ","","50","","","","","","","","","","","","","","","","","","","","","","","","","","","","",""
"4391","","<div style=""width:500px;"">
  <p>What best describes how you currently feel?</p>
  </div>","61","html-slider-response","63","996737","0.0-5.0-4.10","37","1","2025-07-16 08:17:01","1f75c3e559b7213887762d5229550c2b","41.114.217.78","Mozilla/5.0 (Windows NT 10.0; Win64; x64) AppleWebKit/537.36 (KHTML, like Gecko) Chrome/138.0.0.0 Safari/537.36","WebKit","Chrome","138.0.0.0","Windows","10.0","https://app.prolific.com/","en-ZA,en-GB;q=0.9,en-US;q=0.8,en;q=0.7","61601e9a6b8306196d2a129c","686e379bc37a29ffa5cdc956","68775fe8ec31592f2d0efc62","1","1","61601e9a6b8306196d2a129c","1","1","2025-07-16T08:33:40.125Z","","","","","","","","","","","MotivationQ","","50","","","","","","","","","","","","","","","","","","","","","","","","","","","","",""
"","","","","ctl-task-cpt","64","1028222","0.0-5.0-0.11","37","1","2025-07-16 08:17:01","1f75c3e559b7213887762d5229550c2b","41.114.217.78","Mozilla/5.0 (Windows NT 10.0; Win64; x64) AppleWebKit/537.36 (KHTML, like Gecko) Chrome/138.0.0.0 Safari/537.36","WebKit","Chrome","138.0.0.0","Windows","10.0","https://app.prolific.com/","en-ZA,en-GB;q=0.9,en-US;q=0.8,en;q=0.7","61601e9a6b8306196d2a129c","686e379bc37a29ffa5cdc956","68775fe8ec31592f2d0efc62","1","1","61601e9a6b8306196d2a129c","1","1","2025-07-16T08:34:11.610Z","","","","","","","","","","","","","","win-only","3","g1:SW,g2:NE","0.6","12","0","1001781.8","918.6","5923","28466.8","1","4","4","6","2","4","4","19","15","0.14393939393939395","1512.2","3000","845","[""up"",""right""]","{""num_key_presses"":6,""num_perfect"":4,""num_errors"":0,""num_randdir"":2,""num_randdir_good_moves"":2,""num_whilered"":0,""num_whileblue"":0,""num_blue"":2,""num_good_moves"":6}","[416.57142857142856,408.6808016640799,0.2,416.57142857142856,408.6808016640799,101.7,416.57142857142856,408.6808016640799,203.9,416.57142857142856,408.6808016640799,307.7,416.57142857142856,408.6808016640799,412.1,416.57142857142856,408.6808016640799,516.9,416.57142857142856,408.6808016640799,617.7,416.57142857142856,408.6808016640799,718.7,416.57142857142856,408.6808016640799,823.8,292.07142857142856,501.6808016640799,928.8,203.57142857142856,581.1808016640799,1031.8,604.0714285714286,305.1808016640799,1133,749.5714285714286,128.18080166407992,1233.2,758.5714285714286,98.18080166407994,1337.4,766.0714285714286,83.18080166407994,1442,766.0714285714286,83.18080166407994,1548,766.0714285714286,83.18080166407994,1651.9,766.0714285714286,83.18080166407994,1752.4,766.0714285714286,83.18080166407994,1857.9,766.0714285714286,83.18080166407994,1962.1,766.0714285714286,83.18080166407994,2064.5,766.0714285714286,83.18080166407994,2165,766.0714285714286,83.18080166407994,2267,766.0714285714286,83.18080166407994,2367,766.0714285714286,83.18080166407994,2473.4,766.0714285714286,83.18080166407994,2577.6,766.0714285714286,83.18080166407994,2686.6,766.0714285714286,83.18080166407994,2788.4,766.0714285714286,83.18080166407994,2893.5,766.0714285714286,83.18080166407994,3000.2,766.0714285714286,83.18080166407994,3102.5,766.0714285714286,83.18080166407994,3207.4,766.0714285714286,83.18080166407994,3312.4,766.0714285714286,83.18080166407994,3414.9,766.0714285714286,83.18080166407994,3517.9,766.0714285714286,83.18080166407994,3622,766.0714285714286,83.18080166407994,3722.6,766.0714285714286,83.18080166407994,3827.8,766.0714285714286,83.18080166407994,3931,766.0714285714286,83.18080166407994,4032.9,766.0714285714286,83.18080166407994,4136.7,766.0714285714286,83.18080166407994,4237.3,766.0714285714286,83.18080166407994,4342.4,766.0714285714286,83.18080166407994,4442.9,766.0714285714286,83.18080166407994,4547.2,766.0714285714286,83.18080166407994,4649.9,766.0714285714286,83.18080166407994,4751.9,766.0714285714286,83.18080166407994,4856.7,766.0714285714286,83.18080166407994,4956.7]","[1421.9,1421.9,1000,0,421.9,""smooth"",""up"",""up"",""good_move"",4087.7,2665.5,2272.3,1422.3,393.1,""smooth"",""up"",""up"",""good_move"",6765.5,2677.6,2316.9,4087.9,360.7,""oops"",""up"",""up"",""good_move"",9597.6,2831.9,2488.6,6765.7,343.3,""oops"",""right"",""right"",""good_move"",12671.2,3073.3,2736.5,9597.9,336.8,""smooth"",""right"",""right"",""good_move"",22453.6,9782,2255.1,19802.3,396.2,""smooth"",""right"",""right"",""good_move""]","",""
"5042","","<div style=""width:500px;"">
  <p>What determined the result of this run?</p>
  </div>","81","html-slider-response","65","1033264","0.0-5.0-1.11","37","1","2025-07-16 08:17:01","1f75c3e559b7213887762d5229550c2b","41.114.217.78","Mozilla/5.0 (Windows NT 10.0; Win64; x64) AppleWebKit/537.36 (KHTML, like Gecko) Chrome/138.0.0.0 Safari/537.36","WebKit","Chrome","138.0.0.0","Windows","10.0","https://app.prolific.com/","en-ZA,en-GB;q=0.9,en-US;q=0.8,en;q=0.7","61601e9a6b8306196d2a129c","686e379bc37a29ffa5cdc956","68775fe8ec31592f2d0efc62","1","1","61601e9a6b8306196d2a129c","1","1","2025-07-16T08:34:16.653Z","","","","","","","","","","","AttribQ","","50","","","","","","","","","","","","","","","","","","","","","","","","","","","","",""
"3799","","<div style=""width:500px;"">
  <p>How much control did you have over the ball?</p>
  </div>","93","html-slider-response","66","1037064","0.0-5.0-2.11","37","1","2025-07-16 08:17:01","1f75c3e559b7213887762d5229550c2b","41.114.217.78","Mozilla/5.0 (Windows NT 10.0; Win64; x64) AppleWebKit/537.36 (KHTML, like Gecko) Chrome/138.0.0.0 Safari/537.36","WebKit","Chrome","138.0.0.0","Windows","10.0","https://app.prolific.com/","en-ZA,en-GB;q=0.9,en-US;q=0.8,en;q=0.7","61601e9a6b8306196d2a129c","686e379bc37a29ffa5cdc956","68775fe8ec31592f2d0efc62","1","1","61601e9a6b8306196d2a129c","1","1","2025-07-16T08:34:20.453Z","","","","","","","","","","","ControlQ","","50","","","","","","","","","","","","","","","","","","","","","","","","","","","","",""
"5103","","<div style=""width:500px;"">
  <p>How would you describe your current emotional state?</p>
  </div>","60","html-slider-response","67","1042169","0.0-5.0-3.11","37","1","2025-07-16 08:17:01","1f75c3e559b7213887762d5229550c2b","41.114.217.78","Mozilla/5.0 (Windows NT 10.0; Win64; x64) AppleWebKit/537.36 (KHTML, like Gecko) Chrome/138.0.0.0 Safari/537.36","WebKit","Chrome","138.0.0.0","Windows","10.0","https://app.prolific.com/","en-ZA,en-GB;q=0.9,en-US;q=0.8,en;q=0.7","61601e9a6b8306196d2a129c","686e379bc37a29ffa5cdc956","68775fe8ec31592f2d0efc62","1","1","61601e9a6b8306196d2a129c","1","1","2025-07-16T08:34:25.557Z","","","","","","","","","","","StressQ","","50","","","","","","","","","","","","","","","","","","","","","","","","","","","","",""
"3279","","<div style=""width:500px;"">
  <p>What best describes how you currently feel?</p>
  </div>","63","html-slider-response","68","1045449","0.0-5.0-4.11","37","1","2025-07-16 08:17:01","1f75c3e559b7213887762d5229550c2b","41.114.217.78","Mozilla/5.0 (Windows NT 10.0; Win64; x64) AppleWebKit/537.36 (KHTML, like Gecko) Chrome/138.0.0.0 Safari/537.36","WebKit","Chrome","138.0.0.0","Windows","10.0","https://app.prolific.com/","en-ZA,en-GB;q=0.9,en-US;q=0.8,en;q=0.7","61601e9a6b8306196d2a129c","686e379bc37a29ffa5cdc956","68775fe8ec31592f2d0efc62","1","1","61601e9a6b8306196d2a129c","1","1","2025-07-16T08:34:28.837Z","","","","","","","","","","","MotivationQ","","50","","","","","","","","","","","","","","","","","","","","","","","","","","","","",""
"","","","","ctl-task-cpt","69","1093227","0.0-5.0-0.12","37","1","2025-07-16 08:17:01","1f75c3e559b7213887762d5229550c2b","41.114.217.78","Mozilla/5.0 (Windows NT 10.0; Win64; x64) AppleWebKit/537.36 (KHTML, like Gecko) Chrome/138.0.0.0 Safari/537.36","WebKit","Chrome","138.0.0.0","Windows","10.0","https://app.prolific.com/","en-ZA,en-GB;q=0.9,en-US;q=0.8,en;q=0.7","61601e9a6b8306196d2a129c","686e379bc37a29ffa5cdc956","68775fe8ec31592f2d0efc62","1","1","61601e9a6b8306196d2a129c","1","1","2025-07-16T08:35:16.616Z","","","","","","","","","","","","","","win-only","1","g1:NE,g2:SW","0.7","13","0","1050493.5","1156.7","6161.9","44756.9","1","4","8","6","2","-8","-9","10","19","0.07575757575757576","1010.4","3000","-2230","[""down"",""left""]","{""num_key_presses"":9,""num_perfect"":5,""num_errors"":1,""num_randdir"":3,""num_randdir_good_moves"":1,""num_whilered"":0,""num_whileblue"":1,""num_blue"":4,""num_good_moves"":6}","[422.57142857142856,417.6808016640799,0.2,422.57142857142856,417.6808016640799,104.1,422.57142857142856,417.6808016640799,204.6,422.57142857142856,417.6808016640799,306.1,422.57142857142856,419.1808016640799,420.8,388.07142857142856,446.1808016640799,528.6,130.07142857142856,668.1808016640799,639.1,95.57142857142857,711.6808016640799,745.7,91.07142857142857,722.1808016640799,848.5,89.57142857142857,722.1808016640799,950.1,89.57142857142857,722.1808016640799,1054.1,89.57142857142857,722.1808016640799,1155.7,89.57142857142857,722.1808016640799,1271,1169.5714285714287,722.1808016640799,1371.9,1375.0714285714287,680.1808016640799,1472.2,1375.0714285714287,678.6808016640799,1573.8,1375.0714285714287,678.6808016640799,1674.9,1375.0714285714287,678.6808016640799,1778.9,1375.0714285714287,678.6808016640799,1888.1,1375.0714285714287,678.6808016640799,1989.6,1375.0714285714287,678.6808016640799,2095.7,1375.0714285714287,678.6808016640799,2195.9,1375.0714285714287,678.6808016640799,2299.4,1375.0714285714287,678.6808016640799,2405.1,1375.0714285714287,678.6808016640799,2508.7,1375.0714285714287,678.6808016640799,2609,1375.0714285714287,678.6808016640799,2709.3,1375.0714285714287,678.6808016640799,2819.1,1375.0714285714287,678.6808016640799,2919.7,1375.0714285714287,678.6808016640799,3020.6,1375.0714285714287,678.6808016640799,3124.4,1375.0714285714287,678.6808016640799,3224.7,1375.0714285714287,678.6808016640799,3333.9,1375.0714285714287,678.6808016640799,3439.5,1375.0714285714287,678.6808016640799,3539.5,1375.0714285714287,678.6808016640799,3639.5,1375.0714285714287,678.6808016640799,3744.7,1375.0714285714287,678.6808016640799,3849,1375.0714285714287,678.6808016640799,3949.4,1375.0714285714287,678.6808016640799,4054.8,1375.0714285714287,678.6808016640799,4162.6,1375.0714285714287,678.6808016640799,4263.6,1375.0714285714287,678.6808016640799,4364.6,1375.0714285714287,678.6808016640799,4469.9,1375.0714285714287,678.6808016640799,4570.7,1375.0714285714287,678.6808016640799,4674.7,1375.0714285714287,678.6808016640799,4775,1375.0714285714287,678.6808016640799,4875.3,1375.0714285714287,678.6808016640799,4981]","[1391.2,1391.2,1000,0,391.2,""smooth"",""down"",""down"",""good_move"",4295,2903.4,2521.1,1391.6,382.3,""smooth"",""down"",""down"",""good_move"",11831.2,7536,3171.4,8287.5,372.3,""oops"",""down"",""up"",""bad_move"",14054.9,2223.4,1768.1,11831.5,455.3,""smooth"",""left"",""left"",""good_move"",17375.4,3320.1,2976.3,14055.3,343.8,""smooth"",""left"",""left"",""good_move"",20055.2,2679.7,2341.1,17375.5,338.6,""oops"",""left"",""left"",""good_move"",23207.2,3151.7,2792.7,20055.5,359,""smooth"",""down"",""down"",""good_move"",28503.3,5295.6,2190.6,25973.4,339.3,""oops"",""down"",""right"",""bad_move"",31639.9,3136.2,2765.8,28503.7,370.4,""while_blue"",""down"",""up"",""bad_move""]","",""
"3236","","<div style=""width:500px;"">
  <p>What determined the result of this run?</p>
  </div>","0","html-slider-response","70","1096466","0.0-5.0-1.12","37","1","2025-07-16 08:17:01","1f75c3e559b7213887762d5229550c2b","41.114.217.78","Mozilla/5.0 (Windows NT 10.0; Win64; x64) AppleWebKit/537.36 (KHTML, like Gecko) Chrome/138.0.0.0 Safari/537.36","WebKit","Chrome","138.0.0.0","Windows","10.0","https://app.prolific.com/","en-ZA,en-GB;q=0.9,en-US;q=0.8,en;q=0.7","61601e9a6b8306196d2a129c","686e379bc37a29ffa5cdc956","68775fe8ec31592f2d0efc62","1","1","61601e9a6b8306196d2a129c","1","1","2025-07-16T08:35:19.854Z","","","","","","","","","","","AttribQ","","50","","","","","","","","","","","","","","","","","","","","","","","","","","","","",""
"4262","","<div style=""width:500px;"">
  <p>How much control did you have over the ball?</p>
  </div>","3","html-slider-response","71","1100728","0.0-5.0-2.12","37","1","2025-07-16 08:17:01","1f75c3e559b7213887762d5229550c2b","41.114.217.78","Mozilla/5.0 (Windows NT 10.0; Win64; x64) AppleWebKit/537.36 (KHTML, like Gecko) Chrome/138.0.0.0 Safari/537.36","WebKit","Chrome","138.0.0.0","Windows","10.0","https://app.prolific.com/","en-ZA,en-GB;q=0.9,en-US;q=0.8,en;q=0.7","61601e9a6b8306196d2a129c","686e379bc37a29ffa5cdc956","68775fe8ec31592f2d0efc62","1","1","61601e9a6b8306196d2a129c","1","1","2025-07-16T08:35:24.117Z","","","","","","","","","","","ControlQ","","50","","","","","","","","","","","","","","","","","","","","","","","","","","","","",""
"2223","","<div style=""width:500px;"">
  <p>How would you describe your current emotional state?</p>
  </div>","94","html-slider-response","72","1102953","0.0-5.0-3.12","37","1","2025-07-16 08:17:01","1f75c3e559b7213887762d5229550c2b","41.114.217.78","Mozilla/5.0 (Windows NT 10.0; Win64; x64) AppleWebKit/537.36 (KHTML, like Gecko) Chrome/138.0.0.0 Safari/537.36","WebKit","Chrome","138.0.0.0","Windows","10.0","https://app.prolific.com/","en-ZA,en-GB;q=0.9,en-US;q=0.8,en;q=0.7","61601e9a6b8306196d2a129c","686e379bc37a29ffa5cdc956","68775fe8ec31592f2d0efc62","1","1","61601e9a6b8306196d2a129c","1","1","2025-07-16T08:35:26.341Z","","","","","","","","","","","StressQ","","50","","","","","","","","","","","","","","","","","","","","","","","","","","","","",""
"5135","","<div style=""width:500px;"">
  <p>What best describes how you currently feel?</p>
  </div>","47","html-slider-response","73","1108089","0.0-5.0-4.12","37","1","2025-07-16 08:17:01","1f75c3e559b7213887762d5229550c2b","41.114.217.78","Mozilla/5.0 (Windows NT 10.0; Win64; x64) AppleWebKit/537.36 (KHTML, like Gecko) Chrome/138.0.0.0 Safari/537.36","WebKit","Chrome","138.0.0.0","Windows","10.0","https://app.prolific.com/","en-ZA,en-GB;q=0.9,en-US;q=0.8,en;q=0.7","61601e9a6b8306196d2a129c","686e379bc37a29ffa5cdc956","68775fe8ec31592f2d0efc62","1","1","61601e9a6b8306196d2a129c","1","1","2025-07-16T08:35:31.477Z","","","","","","","","","","","MotivationQ","","50","","","","","","","","","","","","","","","","","","","","","","","","","","","","",""
"","","","","ctl-task-cpt","74","1143387","0.0-5.0-0.13","37","1","2025-07-16 08:17:01","1f75c3e559b7213887762d5229550c2b","41.114.217.78","Mozilla/5.0 (Windows NT 10.0; Win64; x64) AppleWebKit/537.36 (KHTML, like Gecko) Chrome/138.0.0.0 Safari/537.36","WebKit","Chrome","138.0.0.0","Windows","10.0","https://app.prolific.com/","en-ZA,en-GB;q=0.9,en-US;q=0.8,en;q=0.7","61601e9a6b8306196d2a129c","686e379bc37a29ffa5cdc956","68775fe8ec31592f2d0efc62","1","1","61601e9a6b8306196d2a129c","1","1","2025-07-16T08:36:06.776Z","","","","","","","","","","","","","","win-only","0","g1:NW,g2:SE","0.8","14","0","1113133.3","980.2","5981.2","32266.1","1","4","4","6","2","4","4","14","10","0.10606060606060606","1290.8","3000","630","[""down"",""right""]","{""num_key_presses"":6,""num_perfect"":6,""num_errors"":0,""num_randdir"":0,""num_randdir_good_moves"":0,""num_whilered"":0,""num_whileblue"":0,""num_blue"":3,""num_good_moves"":6}","[406.07142857142856,413.1808016640799,0.2,406.07142857142856,413.1808016640799,104.6,406.07142857142856,413.1808016640799,206.9,406.07142857142856,413.1808016640799,308.8,406.07142857142856,413.1808016640799,414.1,406.07142857142856,413.1808016640799,516.2,406.07142857142856,413.1808016640799,620.4,577.0714285714286,611.1808016640799,724.8,652.0714285714286,728.1808016640799,826.5,668.5714285714286,740.1808016640799,931.7,731.5714285714286,741.6808016640799,1033.9,752.5714285714286,741.6808016640799,1135.5,761.5714285714286,741.6808016640799,1238.1,761.5714285714286,741.6808016640799,1355.7,761.5714285714286,741.6808016640799,1461.6,761.5714285714286,740.1808016640799,1564.7,853.0714285714286,642.6808016640799,1672.3,944.5714285714286,578.1808016640799,1775.2,944.5714285714286,578.1808016640799,1877.2,944.5714285714286,578.1808016640799,1980.7,944.5714285714286,578.1808016640799,2080.7,944.5714285714286,578.1808016640799,2181.5,944.5714285714286,578.1808016640799,2281.9,944.5714285714286,578.1808016640799,2386.1,944.5714285714286,578.1808016640799,2491.2,944.5714285714286,578.1808016640799,2591.2,944.5714285714286,578.1808016640799,2695.7,944.5714285714286,578.1808016640799,2799.4,944.5714285714286,578.1808016640799,2900.4,944.5714285714286,578.1808016640799,3006,944.5714285714286,578.1808016640799,3106.2,944.5714285714286,578.1808016640799,3210.8,944.5714285714286,578.1808016640799,3311.5,944.5714285714286,578.1808016640799,3416.1,944.5714285714286,578.1808016640799,3516.3,944.5714285714286,578.1808016640799,3616.8,944.5714285714286,578.1808016640799,3721.4,944.5714285714286,578.1808016640799,3822.1,944.5714285714286,578.1808016640799,3926,944.5714285714286,578.1808016640799,4026.5,944.5714285714286,578.1808016640799,4127.4,944.5714285714286,578.1808016640799,4228.6,944.5714285714286,578.1808016640799,4330,944.5714285714286,578.1808016640799,4436.9,944.5714285714286,578.1808016640799,4540.2,944.5714285714286,578.1808016640799,4641,944.5714285714286,578.1808016640799,4746.3,944.5714285714286,578.1808016640799,4846.5,944.5714285714286,578.1808016640799,4951]","[1412.1,1412.1,1000,0,412.1,""smooth"",""down"",""down"",""good_move"",8311,6898.5,2728.7,5205.9,376.4,""smooth"",""down"",""down"",""good_move"",14979.9,6668.6,2016.8,12440.2,522.9,""smooth"",""right"",""right"",""good_move"",17916.2,2936,2519,14980.2,417,""smooth"",""right"",""right"",""good_move"",20499.7,2583.3,2156.1,17916.4,427.2,""smooth"",""right"",""right"",""good_move"",26195.8,5696.1,2259,23529.8,407.1,""smooth"",""down"",""down"",""good_move""]","",""
"3972","","<div style=""width:500px;"">
  <p>What determined the result of this run?</p>
