"rt","response_timestamp","stimulus","response","trial_type","trial_index","time_elapsed","internal_node_id","run_id","condition","recorded_at","source_code_version","ip","user_agent","device","browser","browser_version","platform","platform_version","referer","accept_language","PROLIFIC_PID","STUDY_ID","SESSION_ID","WEEK","BATCH","prolific_id","week","batch","realtime","success","responses","item_order","radio_event_ids","radio_event_times","key_event_times","mouse_event_times","straightlining","zigzagging","honeypot","eventType","view_history","slider_start","which_type","canvas_config","goals_layout","control_level","trial_number","tutorial_trial_number","trial_start_time","phase1_start_time","phase2_start_time","phase3_start_time","goal_1_value","goal_1_distance","goal_2_value","goal_2_distance","goal_selected","outcome","outcome_total","participant_final_score","participant_initial_score","participant_final_score_prop","goal_choice_rt","allocated_time","allocated_time_remaining","goal_direction","counts","mouse_movements","key_presses","question_order","question_id"
"1716","1753253634585","<p style='font-size:40px;line-height:1.25'><strong>Welcome to the experiment!</strong></p><p style='font-size:1.1em;line-height:1.25'>Thank you for participanting in our experiment again! You will be asked to play the Dysfunctional Ball Game again. We will briefly recap the rules before we start.</p><p style='font-size:1.1em;line-height:1.25'>Press <strong>Next</strong> to continue.</p>","0","custom-html-button-response","0","1721","0.0-0.0","165","1","2025-07-23 06:53:51","1f75c3e559b7213887762d5229550c2b","95.146.241.52","Mozilla/5.0 (Windows NT 10.0; Win64; x64) AppleWebKit/537.36 (KHTML, like Gecko) Chrome/138.0.0.0 Safari/537.36","WebKit","Chrome","138.0.0.0","Windows","10.0","https://app.prolific.com/","en-US,en;q=0.9","60056657125e50465c15533e","683db9eb0562dbf637994deb","688086edb6fab804ecc9b2b4","2","1","60056657125e50465c15533e","2","1","2025-07-23T06:53:54.589Z","","","","","","","","","","","","","","","","","","","","","","","","","","","","","","","","","","","","","","","","","",""
"3764","","","","fullscreen","1","6506","0.0-1.0","165","1","2025-07-23 06:53:51","1f75c3e559b7213887762d5229550c2b","95.146.241.52","Mozilla/5.0 (Windows NT 10.0; Win64; x64) AppleWebKit/537.36 (KHTML, like Gecko) Chrome/138.0.0.0 Safari/537.36","WebKit","Chrome","138.0.0.0","Windows","10.0","https://app.prolific.com/","en-US,en;q=0.9","60056657125e50465c15533e","683db9eb0562dbf637994deb","688086edb6fab804ecc9b2b4","2","1","60056657125e50465c15533e","2","1","","true","","","","","","","","","","","","","","","","","","","","","","","","","","","","","","","","","","","","","","","","",""
"2387","1753253641761","<p style='font-size:1.1em;line-height:1.25'>In the following, we will ask you a few questions relating to your feelings in the last 24 hours.<br></p><p style='font-size:1.1em;line-height:1.25'>Press the <strong>Next</strong> button to continue.</p>","0","custom-html-button-response","2","8895","0.0-2.0-0.0","165","1","2025-07-23 06:53:51","1f75c3e559b7213887762d5229550c2b","95.146.241.52","Mozilla/5.0 (Windows NT 10.0; Win64; x64) AppleWebKit/537.36 (KHTML, like Gecko) Chrome/138.0.0.0 Safari/537.36","WebKit","Chrome","138.0.0.0","Windows","10.0","https://app.prolific.com/","en-US,en;q=0.9","60056657125e50465c15533e","683db9eb0562dbf637994deb","688086edb6fab804ecc9b2b4","2","1","60056657125e50465c15533e","2","1","2025-07-23T06:54:01.763Z","","","","","","","","","","","","","","","","","","","","","","","","","","","","","","","","","","","","","","","","","",""
"60652.59999996424","","","","survey-template","3","69600","0.0-2.0-1.0","165","1","2025-07-23 06:53:51","1f75c3e559b7213887762d5229550c2b","95.146.241.52","Mozilla/5.0 (Windows NT 10.0; Win64; x64) AppleWebKit/537.36 (KHTML, like Gecko) Chrome/138.0.0.0 Safari/537.36","WebKit","Chrome","138.0.0.0","Windows","10.0","https://app.prolific.com/","en-US,en;q=0.9","60056657125e50465c15533e","683db9eb0562dbf637994deb","688086edb6fab804ecc9b2b4","2","1","60056657125e50465c15533e","2","1","2025-07-23T06:55:02.468Z","","{""Q01"":""2"",""Q02"":""4"",""Q03"":""1"",""Q04"":""5"",""Q05"":""2"",""Q06"":""4"",""Q07"":""4"",""Q08"":""0"",""Q09"":""3"",""Q10"":""4"",""Q11"":""5"",""Q12"":""0"",""Q13"":""5"",""Q14"":""3"",""Q15"":""5"",""Q16"":""5"",""Q17"":""5"",""Q18"":""1"",""Q19"":""5"",""Q20"":""3"",""Q21"":""4"",""Q22"":""0""}","[0,1,2,3,4,5,6,7,8,9,10,11,12,13,14,15,16,17,18,19,20,21]","[""Q01"",""Q02"",""Q03"",""Q04"",""Q05"",""Q06"",""Q07"",""Q08"",""Q09"",""Q10"",""Q11"",""Q12"",""Q12"",""Q13"",""Q14"",""Q15"",""Q16"",""Q17"",""Q18"",""Q19"",""Q20"",""Q21"",""Q22""]","[3352.599999964237,4907.199999988079,8139.699999988079,9468.899999976158,11306.599999964237,13104.299999952316,14584.5,16066.599999964237,20959.899999976158,22491.5,23847.19999998808,25318.599999964237,29372.299999952316,30830.399999976158,32711.899999976158,35958.19999998808,39951.299999952316,41495.799999952316,47057.799999952316,48873.59999996424,51328.5,57211.39999997616,59339.299999952316]","[]","[3.599999964237213,3352.599999964237,4907.199999988079,8139.699999988079,9468.899999976158,11306.599999964237,13104.299999952316,14584.5,16066.599999964237,20959.899999976158,22491.5,23847.19999998808,25318.599999964237,26265,27574.099999964237,28572.399999976158,29372.299999952316,30830.399999976158,32711.899999976158,35958.19999998808,39951.299999952316,41495.799999952316,47057.799999952316,48873.59999996424,51328.5,57211.39999997616,59339.299999952316,60591.799999952316]","0.3181818181818182","0.23809523809523808","0","drsp","","","","","","","","","","","","","","","","","","","","","","","","","","","","","","",""
"7972.800000011921","","","","survey-template","4","77643","0.0-2.0-2.0","165","1","2025-07-23 06:53:51","1f75c3e559b7213887762d5229550c2b","95.146.241.52","Mozilla/5.0 (Windows NT 10.0; Win64; x64) AppleWebKit/537.36 (KHTML, like Gecko) Chrome/138.0.0.0 Safari/537.36","WebKit","Chrome","138.0.0.0","Windows","10.0","https://app.prolific.com/","en-US,en;q=0.9","60056657125e50465c15533e","683db9eb0562dbf637994deb","688086edb6fab804ecc9b2b4","2","1","60056657125e50465c15533e","2","1","2025-07-23T06:55:10.511Z","","{""Q01"":""5"",""Q02"":""5"",""Q03"":""4""}","[0,1,2]","[""Q01"",""Q02"",""Q03""]","[2316.400000035763,5138.600000023842,7166.600000023842]","[]","[2316.400000035763,5138.600000023842,7166.600000023842,7971.200000047684]","0.3333333333333333","0.5","0","stress","","","","","","","","","","","","","","","","","","","","","","","","","","","","","","",""
"3349","","","","instructions","5","81000","0.0-3.0-0.0","165","1","2025-07-23 06:53:51","1f75c3e559b7213887762d5229550c2b","95.146.241.52","Mozilla/5.0 (Windows NT 10.0; Win64; x64) AppleWebKit/537.36 (KHTML, like Gecko) Chrome/138.0.0.0 Safari/537.36","WebKit","Chrome","138.0.0.0","Windows","10.0","https://app.prolific.com/","en-US,en;q=0.9","60056657125e50465c15533e","683db9eb0562dbf637994deb","688086edb6fab804ecc9b2b4","2","1","60056657125e50465c15533e","2","1","","","","","","","","","","","","","[{""page_index"":0,""viewing_time"":3345}]","","","","","","","","","","","","","","","","","","","","","","","","","","","","","",""
"4026","","<p>Before you start with this game please answer the following three questions yourself. </p>
  <p>Through this game, we measure several aspects of your cognitive performance, such as reaction times, multi-tasking capabilities </p>
  <p>and the ability to assess the situation you are in.</p>
  <p></p>
  <p><b>How good do you usually are in such tasks?</b></p>","38","html-slider-response","6","85044","0.0-4.0-0.0","165","1","2025-07-23 06:53:51","1f75c3e559b7213887762d5229550c2b","95.146.241.52","Mozilla/5.0 (Windows NT 10.0; Win64; x64) AppleWebKit/537.36 (KHTML, like Gecko) Chrome/138.0.0.0 Safari/537.36","WebKit","Chrome","138.0.0.0","Windows","10.0","https://app.prolific.com/","en-US,en;q=0.9","60056657125e50465c15533e","683db9eb0562dbf637994deb","688086edb6fab804ecc9b2b4","2","1","60056657125e50465c15533e","2","1","2025-07-23T06:55:17.911Z","","","","","","","","","","","PreSkillQ","","50","","","","","","","","","","","","","","","","","","","","","","","","","","","","",""
"4504","","<div style=""width:500px;"">
  <p>How well do you think you will perform in this task compared to other participants?</p>
  </div>","39","html-slider-response","7","89551","0.0-4.0-1.0","165","1","2025-07-23 06:53:51","1f75c3e559b7213887762d5229550c2b","95.146.241.52","Mozilla/5.0 (Windows NT 10.0; Win64; x64) AppleWebKit/537.36 (KHTML, like Gecko) Chrome/138.0.0.0 Safari/537.36","WebKit","Chrome","138.0.0.0","Windows","10.0","https://app.prolific.com/","en-US,en;q=0.9","60056657125e50465c15533e","683db9eb0562dbf637994deb","688086edb6fab804ecc9b2b4","2","1","60056657125e50465c15533e","2","1","2025-07-23T06:55:22.418Z","","","","","","","","","","","PrePerfQ","","50","","","","","","","","","","","","","","","","","","","","","","","","","","","","",""
"6662","","<div style=""width:500px;"">
  <p>What best describes how you currently feel?</p>
  </div>","36","html-slider-response","8","96216","0.0-4.0-2.0","165","1","2025-07-23 06:53:51","1f75c3e559b7213887762d5229550c2b","95.146.241.52","Mozilla/5.0 (Windows NT 10.0; Win64; x64) AppleWebKit/537.36 (KHTML, like Gecko) Chrome/138.0.0.0 Safari/537.36","WebKit","Chrome","138.0.0.0","Windows","10.0","https://app.prolific.com/","en-US,en;q=0.9","60056657125e50465c15533e","683db9eb0562dbf637994deb","688086edb6fab804ecc9b2b4","2","1","60056657125e50465c15533e","2","1","2025-07-23T06:55:29.083Z","","","","","","","","","","","PreMotivationQ","","50","","","","","","","","","","","","","","","","","","","","","","","","","","","","",""
"","","","","ctl-task-cpt","9","126318","0.0-5.0-0.0","165","1","2025-07-23 06:53:51","1f75c3e559b7213887762d5229550c2b","95.146.241.52","Mozilla/5.0 (Windows NT 10.0; Win64; x64) AppleWebKit/537.36 (KHTML, like Gecko) Chrome/138.0.0.0 Safari/537.36","WebKit","Chrome","138.0.0.0","Windows","10.0","https://app.prolific.com/","en-US,en;q=0.9","60056657125e50465c15533e","683db9eb0562dbf637994deb","688086edb6fab804ecc9b2b4","2","1","60056657125e50465c15533e","2","1","2025-07-23T06:55:59.185Z","","","","","","","","","","","","","","win-only","3","g1:SW,g2:NE","1","1","0","99190.4","1709.9","6711.1","27051","1","4","8","6","2","8","8","8","0","0.06060606060606061","1261.5","3000","1490","[""up"",""right""]","{""num_key_presses"":6,""num_perfect"":6,""num_errors"":0,""num_randdir"":0,""num_randdir_good_moves"":0,""num_whilered"":0,""num_whileblue"":0,""num_blue"":1,""num_good_moves"":6}","[413.57142857142856,419.1808016640799,4.4,413.57142857142856,419.1808016640799,216.2,413.57142857142856,419.1808016640799,324,413.57142857142856,419.1808016640799,426.8,413.57142857142856,419.1808016640799,534.5,685.0714285714286,182.18080166407992,640.5,707.5714285714286,162.68080166407992,746.7,707.5714285714286,162.68080166407992,857.1,707.5714285714286,162.68080166407992,966.8,758.5714285714286,75.68080166407994,1071.5,758.5714285714286,75.68080166407994,1172.4,758.5714285714286,75.68080166407994,1273,758.5714285714286,75.68080166407994,1378.3,758.5714285714286,75.68080166407994,1486.4,758.5714285714286,75.68080166407994,1588.4,758.5714285714286,75.68080166407994,1694.4,758.5714285714286,75.68080166407994,1801.1,758.5714285714286,75.68080166407994,1902,758.5714285714286,75.68080166407994,2002.9,758.5714285714286,75.68080166407994,2105.7,758.5714285714286,75.68080166407994,2205.8,758.5714285714286,75.68080166407994,2306.3,758.5714285714286,75.68080166407994,2413.7,758.5714285714286,75.68080166407994,2520.5,758.5714285714286,75.68080166407994,2621.2,758.5714285714286,75.68080166407994,2722.2,758.5714285714286,75.68080166407994,2830.1,758.5714285714286,75.68080166407994,2930.4,758.5714285714286,75.68080166407994,3036.2,758.5714285714286,75.68080166407994,3136.7,758.5714285714286,75.68080166407994,3243.9,758.5714285714286,75.68080166407994,3344.3,758.5714285714286,75.68080166407994,3452.7,758.5714285714286,75.68080166407994,3554.9,758.5714285714286,75.68080166407994,3663.3,758.5714285714286,75.68080166407994,3769.9,758.5714285714286,75.68080166407994,3872.3,758.5714285714286,75.68080166407994,3978.2,758.5714285714286,75.68080166407994,4086.5,758.5714285714286,75.68080166407994,4193.1,758.5714285714286,75.68080166407994,4301.5,758.5714285714286,75.68080166407994,4401.8,758.5714285714286,75.68080166407994,4507.2,758.5714285714286,75.68080166407994,4610.2,758.5714285714286,75.68080166407994,4710.4,758.5714285714286,75.68080166407994,4818.9,758.5714285714286,75.68080166407994,4919.1]","[1507.1,1507.1,1000,0,507.2,""smooth"",""right"",""right"",""good_move"",8717.3,7208.2,3268.8,5095.1,353.4,""smooth"",""right"",""right"",""good_move"",11628.2,2910.4,2417.5,8717.8,492.9,""smooth"",""right"",""right"",""good_move"",14282.6,2653.6,2324.7,11629,328.9,""smooth"",""up"",""up"",""good_move"",17427.3,3144,2791.6,14283.4,352.4,""smooth"",""up"",""up"",""good_move"",20222.5,2794.8,2358.4,17427.8,436.3,""smooth"",""up"",""up"",""good_move""]","",""
"3147","","<div style=""width:500px;"">
  <p>What determined the result of this run?</p>
  </div>","72","html-slider-response","10","129471","0.0-5.0-1.0","165","1","2025-07-23 06:53:51","1f75c3e559b7213887762d5229550c2b","95.146.241.52","Mozilla/5.0 (Windows NT 10.0; Win64; x64) AppleWebKit/537.36 (KHTML, like Gecko) Chrome/138.0.0.0 Safari/537.36","WebKit","Chrome","138.0.0.0","Windows","10.0","https://app.prolific.com/","en-US,en;q=0.9","60056657125e50465c15533e","683db9eb0562dbf637994deb","688086edb6fab804ecc9b2b4","2","1","60056657125e50465c15533e","2","1","2025-07-23T06:56:02.338Z","","","","","","","","","","","AttribQ","","50","","","","","","","","","","","","","","","","","","","","","","","","","","","","",""
"2223","","<div style=""width:500px;"">
  <p>How much control did you have over the ball?</p>
  </div>","71","html-slider-response","11","131696","0.0-5.0-2.0","165","1","2025-07-23 06:53:51","1f75c3e559b7213887762d5229550c2b","95.146.241.52","Mozilla/5.0 (Windows NT 10.0; Win64; x64) AppleWebKit/537.36 (KHTML, like Gecko) Chrome/138.0.0.0 Safari/537.36","WebKit","Chrome","138.0.0.0","Windows","10.0","https://app.prolific.com/","en-US,en;q=0.9","60056657125e50465c15533e","683db9eb0562dbf637994deb","688086edb6fab804ecc9b2b4","2","1","60056657125e50465c15533e","2","1","2025-07-23T06:56:04.563Z","","","","","","","","","","","ControlQ","","50","","","","","","","","","","","","","","","","","","","","","","","","","","","","",""
"3282","","<div style=""width:500px;"">
  <p>How would you describe your current emotional state?</p>
  </div>","32","html-slider-response","12","134980","0.0-5.0-3.0","165","1","2025-07-23 06:53:51","1f75c3e559b7213887762d5229550c2b","95.146.241.52","Mozilla/5.0 (Windows NT 10.0; Win64; x64) AppleWebKit/537.36 (KHTML, like Gecko) Chrome/138.0.0.0 Safari/537.36","WebKit","Chrome","138.0.0.0","Windows","10.0","https://app.prolific.com/","en-US,en;q=0.9","60056657125e50465c15533e","683db9eb0562dbf637994deb","688086edb6fab804ecc9b2b4","2","1","60056657125e50465c15533e","2","1","2025-07-23T06:56:07.847Z","","","","","","","","","","","StressQ","","50","","","","","","","","","","","","","","","","","","","","","","","","","","","","",""
"3440","","<div style=""width:500px;"">
  <p>What best describes how you currently feel?</p>
  </div>","58","html-slider-response","13","138422","0.0-5.0-4.0","165","1","2025-07-23 06:53:51","1f75c3e559b7213887762d5229550c2b","95.146.241.52","Mozilla/5.0 (Windows NT 10.0; Win64; x64) AppleWebKit/537.36 (KHTML, like Gecko) Chrome/138.0.0.0 Safari/537.36","WebKit","Chrome","138.0.0.0","Windows","10.0","https://app.prolific.com/","en-US,en;q=0.9","60056657125e50465c15533e","683db9eb0562dbf637994deb","688086edb6fab804ecc9b2b4","2","1","60056657125e50465c15533e","2","1","2025-07-23T06:56:11.289Z","","","","","","","","","","","MotivationQ","","50","","","","","","","","","","","","","","","","","","","","","","","","","","","","",""
"","","","","ctl-task-cpt","14","176401","0.0-5.0-0.1","165","1","2025-07-23 06:53:51","1f75c3e559b7213887762d5229550c2b","95.146.241.52","Mozilla/5.0 (Windows NT 10.0; Win64; x64) AppleWebKit/537.36 (KHTML, like Gecko) Chrome/138.0.0.0 Safari/537.36","WebKit","Chrome","138.0.0.0","Windows","10.0","https://app.prolific.com/","en-US,en;q=0.9","60056657125e50465c15533e","683db9eb0562dbf637994deb","688086edb6fab804ecc9b2b4","2","1","60056657125e50465c15533e","2","1","2025-07-23T06:56:49.269Z","","","","","","","","","","","","","","win-only","3","g1:SW,g2:NE","0.9","2","0","141355.2","990.6","5997.7","34962.7","1","4","4","6","2","4","4","12","8","0.09090909090909091","1369","3000","755","[""up"",""right""]","{""num_key_presses"":8,""num_perfect"":7,""num_errors"":0,""num_randdir"":1,""num_randdir_good_moves"":0,""num_whilered"":0,""num_whileblue"":0,""num_blue"":2,""num_good_moves"":7}","[418.07142857142856,414.6808016640799,0.4,418.07142857142856,414.6808016640799,100.6,418.07142857142856,414.6808016640799,202.7,418.07142857142856,414.6808016640799,313.1,418.07142857142856,414.6808016640799,422.7,418.07142857142856,414.6808016640799,524.6,418.07142857142856,414.6808016640799,630.9,418.07142857142856,414.6808016640799,737.7,560.5714285714286,275.1808016640799,842.6,647.5714285714286,209.18080166407992,945.8,751.0714285714286,137.18080166407992,1048.5,800.5714285714286,90.68080166407994,1149,800.5714285714286,90.68080166407994,1249.8,800.5714285714286,90.68080166407994,1357.6,800.5714285714286,90.68080166407994,1464.5,800.5714285714286,90.68080166407994,1564.6,800.5714285714286,90.68080166407994,1666.1,800.5714285714286,90.68080166407994,1774.5,977.5714285714286,122.18080166407994,1883,997.0714285714286,128.18080166407992,1989.4,997.0714285714286,128.18080166407992,2090.7,997.0714285714286,128.18080166407992,2191,997.0714285714286,128.18080166407992,2291.6,997.0714285714286,128.18080166407992,2399.4,997.0714285714286,128.18080166407992,2502.6,997.0714285714286,128.18080166407992,2604.7,997.0714285714286,128.18080166407992,2713.6,997.0714285714286,128.18080166407992,2814.4,997.0714285714286,128.18080166407992,2915.5,997.0714285714286,128.18080166407992,3020.7,997.0714285714286,128.18080166407992,3121,997.0714285714286,128.18080166407992,3221.2,997.0714285714286,128.18080166407992,3329.3,997.0714285714286,128.18080166407992,3438.3,997.0714285714286,128.18080166407992,3540.5,997.0714285714286,128.18080166407992,3644.3,997.0714285714286,128.18080166407992,3745.4,997.0714285714286,128.18080166407992,3846.3,997.0714285714286,128.18080166407992,3954.1,997.0714285714286,128.18080166407992,4055.1,997.0714285714286,128.18080166407992,4159.5,997.0714285714286,128.18080166407992,4260.9,997.0714285714286,128.18080166407992,4364.2,997.0714285714286,128.18080166407992,4469.2,997.0714285714286,128.18080166407992,4570.5,997.0714285714286,128.18080166407992,4671.5,997.0714285714286,128.18080166407992,4776.3,997.0714285714286,128.18080166407992,4943.8]","[4685.5,4685.5,2338.4,2009.1,338,""smooth"",""right"",""right"",""good_move"",7396.1,2710.1,2319.8,4686,390.3,""smooth"",""right"",""right"",""good_move"",10828.8,3432.4,3112.4,7396.4,320,""smooth"",""right"",""right"",""good_move"",13283.5,2454.5,2132.1,10829,322.4,""oops"",""up"",""down"",""bad_move"",20191.3,6906.9,2604,17203.8,383.5,""smooth"",""up"",""up"",""good_move"",23868.2,3676.5,3161.1,20191.7,515.4,""smooth"",""up"",""up"",""good_move"",26493.5,2624.4,2195.5,23869.1,428.9,""smooth"",""up"",""up"",""good_move"",28823.9,2329,1934.2,26494.9,394.8,""smooth"",""up"",""up"",""good_move""]","",""
"3537","","<div style=""width:500px;"">
  <p>What determined the result of this run?</p>
  </div>","66","html-slider-response","15","179941","0.0-5.0-1.1","165","1","2025-07-23 06:53:51","1f75c3e559b7213887762d5229550c2b","95.146.241.52","Mozilla/5.0 (Windows NT 10.0; Win64; x64) AppleWebKit/537.36 (KHTML, like Gecko) Chrome/138.0.0.0 Safari/537.36","WebKit","Chrome","138.0.0.0","Windows","10.0","https://app.prolific.com/","en-US,en;q=0.9","60056657125e50465c15533e","683db9eb0562dbf637994deb","688086edb6fab804ecc9b2b4","2","1","60056657125e50465c15533e","2","1","2025-07-23T06:56:52.808Z","","","","","","","","","","","AttribQ","","50","","","","","","","","","","","","","","","","","","","","","","","","","","","","",""
"4277","","<div style=""width:500px;"">
  <p>How much control did you have over the ball?</p>
  </div>","65","html-slider-response","16","184219","0.0-5.0-2.1","165","1","2025-07-23 06:53:51","1f75c3e559b7213887762d5229550c2b","95.146.241.52","Mozilla/5.0 (Windows NT 10.0; Win64; x64) AppleWebKit/537.36 (KHTML, like Gecko) Chrome/138.0.0.0 Safari/537.36","WebKit","Chrome","138.0.0.0","Windows","10.0","https://app.prolific.com/","en-US,en;q=0.9","60056657125e50465c15533e","683db9eb0562dbf637994deb","688086edb6fab804ecc9b2b4","2","1","60056657125e50465c15533e","2","1","2025-07-23T06:56:57.087Z","","","","","","","","","","","ControlQ","","50","","","","","","","","","","","","","","","","","","","","","","","","","","","","",""
"4690","","<div style=""width:500px;"">
  <p>How would you describe your current emotional state?</p>
  </div>","33","html-slider-response","17","188912","0.0-5.0-3.1","165","1","2025-07-23 06:53:51","1f75c3e559b7213887762d5229550c2b","95.146.241.52","Mozilla/5.0 (Windows NT 10.0; Win64; x64) AppleWebKit/537.36 (KHTML, like Gecko) Chrome/138.0.0.0 Safari/537.36","WebKit","Chrome","138.0.0.0","Windows","10.0","https://app.prolific.com/","en-US,en;q=0.9","60056657125e50465c15533e","683db9eb0562dbf637994deb","688086edb6fab804ecc9b2b4","2","1","60056657125e50465c15533e","2","1","2025-07-23T06:57:01.779Z","","","","","","","","","","","StressQ","","50","","","","","","","","","","","","","","","","","","","","","","","","","","","","",""
"7127","","<div style=""width:500px;"">
  <p>What best describes how you currently feel?</p>
  </div>","66","html-slider-response","18","196041","0.0-5.0-4.1","165","1","2025-07-23 06:53:51","1f75c3e559b7213887762d5229550c2b","95.146.241.52","Mozilla/5.0 (Windows NT 10.0; Win64; x64) AppleWebKit/537.36 (KHTML, like Gecko) Chrome/138.0.0.0 Safari/537.36","WebKit","Chrome","138.0.0.0","Windows","10.0","https://app.prolific.com/","en-US,en;q=0.9","60056657125e50465c15533e","683db9eb0562dbf637994deb","688086edb6fab804ecc9b2b4","2","1","60056657125e50465c15533e","2","1","2025-07-23T06:57:08.908Z","","","","","","","","","","","MotivationQ","","50","","","","","","","","","","","","","","","","","","","","","","","","","","","","",""
"","","","","ctl-task-cpt","19","219123","0.0-5.0-0.2","165","1","2025-07-23 06:53:51","1f75c3e559b7213887762d5229550c2b","95.146.241.52","Mozilla/5.0 (Windows NT 10.0; Win64; x64) AppleWebKit/537.36 (KHTML, like Gecko) Chrome/138.0.0.0 Safari/537.36","WebKit","Chrome","138.0.0.0","Windows","10.0","https://app.prolific.com/","en-US,en;q=0.9","60056657125e50465c15533e","683db9eb0562dbf637994deb","688086edb6fab804ecc9b2b4","2","1","60056657125e50465c15533e","2","1","2025-07-23T06:57:31.990Z","","","","","","","","","","","","","","win-only","3","g1:SW,g2:NE","0.8","3","0","198992.7","1509.3","6512.3","20053.8","1","4","4","6","2","4","4","16","12","0.12121212121212122","1078","3000","1695","[""up"",""right""]","{""num_key_presses"":6,""num_perfect"":5,""num_errors"":0,""num_randdir"":1,""num_randdir_good_moves"":1,""num_whilered"":0,""num_whileblue"":0,""num_blue"":0,""num_good_moves"":6}","[407.57142857142856,422.1808016640799,0.3,407.57142857142856,422.1808016640799,103.6,407.57142857142856,422.1808016640799,212.2,407.57142857142856,422.1808016640799,322,407.57142857142856,422.1808016640799,428.2,407.57142857142856,422.1808016640799,532.6,512.5714285714286,314.1808016640799,632.7,680.5714285714286,167.18080166407992,806.9,757.0714285714286,113.18080166407994,911.3,757.0714285714286,113.18080166407994,1011.3,757.0714285714286,113.18080166407994,1112.3,757.0714285714286,113.18080166407994,1219,757.0714285714286,113.18080166407994,1327,757.0714285714286,113.18080166407994,1435.9,947.5714285714286,128.18080166407992,1540.9,1024.0714285714287,149.18080166407992,1642.9,1024.0714285714287,149.18080166407992,1755.1,1024.0714285714287,149.18080166407992,1855.6,1024.0714285714287,149.18080166407992,1962.2,1024.0714285714287,149.18080166407992,2067.1,1024.0714285714287,149.18080166407992,2167.2,1024.0714285714287,149.18080166407992,2271.9,1024.0714285714287,149.18080166407992,2378.2,1024.0714285714287,149.18080166407992,2483.7,1024.0714285714287,149.18080166407992,2586.7,1024.0714285714287,149.18080166407992,2696.3,1024.0714285714287,149.18080166407992,2803,1024.0714285714287,149.18080166407992,2908.8,1024.0714285714287,149.18080166407992,3009.5,1024.0714285714287,149.18080166407992,3110.5,1024.0714285714287,149.18080166407992,3214.4,1024.0714285714287,149.18080166407992,3318.4,1024.0714285714287,149.18080166407992,3423.7,1024.0714285714287,149.18080166407992,3525.1,1024.0714285714287,149.18080166407992,3630.2,1024.0714285714287,149.18080166407992,3730.9,1024.0714285714287,149.18080166407992,3831.1,1024.0714285714287,149.18080166407992,3936.5,1024.0714285714287,149.18080166407992,4039.1,1024.0714285714287,149.18080166407992,4140,1024.0714285714287,149.18080166407992,4241.3,1024.0714285714287,149.18080166407992,4343.6,1024.0714285714287,149.18080166407992,4449.6,1024.0714285714287,149.18080166407992,4550.7,1024.0714285714287,149.18080166407992,4661.3,1024.0714285714287,149.18080166407992,4767,1024.0714285714287,149.18080166407992,4868.6,1024.0714285714287,149.18080166407992,4972.7]","[1356.7,1356.7,1000,0,356.7,""smooth"",""right"",""right"",""good_move"",4174.4,2817,2499.6,1357.4,317.4,""smooth"",""right"",""right"",""good_move"",6124.5,1950.1,1584.2,4174.5,365.9,""oops"",""right"",""up"",""good_move"",8434.8,2308.9,2019.4,6126,289.5,""smooth"",""right"",""right"",""good_move"",10964.1,2526,2192,8438.1,334,""smooth"",""up"",""up"",""good_move"",13413.4,2448.8,2161.7,10964.6,287.1,""smooth"",""up"",""up"",""good_move""]","",""
"3671","","<div style=""width:500px;"">
  <p>What determined the result of this run?</p>
  </div>","60","html-slider-response","20","222797","0.0-5.0-1.2","165","1","2025-07-23 06:53:51","1f75c3e559b7213887762d5229550c2b","95.146.241.52","Mozilla/5.0 (Windows NT 10.0; Win64; x64) AppleWebKit/537.36 (KHTML, like Gecko) Chrome/138.0.0.0 Safari/537.36","WebKit","Chrome","138.0.0.0","Windows","10.0","https://app.prolific.com/","en-US,en;q=0.9","60056657125e50465c15533e","683db9eb0562dbf637994deb","688086edb6fab804ecc9b2b4","2","1","60056657125e50465c15533e","2","1","2025-07-23T06:57:35.664Z","","","","","","","","","","","AttribQ","","50","","","","","","","","","","","","","","","","","","","","","","","","","","","","",""
"3388","","<div style=""width:500px;"">
  <p>How much control did you have over the ball?</p>
  </div>","68","html-slider-response","21","226186","0.0-5.0-2.2","165","1","2025-07-23 06:53:51","1f75c3e559b7213887762d5229550c2b","95.146.241.52","Mozilla/5.0 (Windows NT 10.0; Win64; x64) AppleWebKit/537.36 (KHTML, like Gecko) Chrome/138.0.0.0 Safari/537.36","WebKit","Chrome","138.0.0.0","Windows","10.0","https://app.prolific.com/","en-US,en;q=0.9","60056657125e50465c15533e","683db9eb0562dbf637994deb","688086edb6fab804ecc9b2b4","2","1","60056657125e50465c15533e","2","1","2025-07-23T06:57:39.054Z","","","","","","","","","","","ControlQ","","50","","","","","","","","","","","","","","","","","","","","","","","","","","","","",""
"4491","","<div style=""width:500px;"">
  <p>How would you describe your current emotional state?</p>
  </div>","39","html-slider-response","22","230679","0.0-5.0-3.2","165","1","2025-07-23 06:53:51","1f75c3e559b7213887762d5229550c2b","95.146.241.52","Mozilla/5.0 (Windows NT 10.0; Win64; x64) AppleWebKit/537.36 (KHTML, like Gecko) Chrome/138.0.0.0 Safari/537.36","WebKit","Chrome","138.0.0.0","Windows","10.0","https://app.prolific.com/","en-US,en;q=0.9","60056657125e50465c15533e","683db9eb0562dbf637994deb","688086edb6fab804ecc9b2b4","2","1","60056657125e50465c15533e","2","1","2025-07-23T06:57:43.547Z","","","","","","","","","","","StressQ","","50","","","","","","","","","","","","","","","","","","","","","","","","","","","","",""
"2641","","<div style=""width:500px;"">
  <p>What best describes how you currently feel?</p>
  </div>","68","html-slider-response","23","233322","0.0-5.0-4.2","165","1","2025-07-23 06:53:51","1f75c3e559b7213887762d5229550c2b","95.146.241.52","Mozilla/5.0 (Windows NT 10.0; Win64; x64) AppleWebKit/537.36 (KHTML, like Gecko) Chrome/138.0.0.0 Safari/537.36","WebKit","Chrome","138.0.0.0","Windows","10.0","https://app.prolific.com/","en-US,en;q=0.9","60056657125e50465c15533e","683db9eb0562dbf637994deb","688086edb6fab804ecc9b2b4","2","1","60056657125e50465c15533e","2","1","2025-07-23T06:57:46.189Z","","","","","","","","","","","MotivationQ","","50","","","","","","","","","","","","","","","","","","","","","","","","","","","","",""
"","","","","ctl-task-cpt","24","304328","0.0-5.0-0.3","165","1","2025-07-23 06:53:51","1f75c3e559b7213887762d5229550c2b","95.146.241.52","Mozilla/5.0 (Windows NT 10.0; Win64; x64) AppleWebKit/537.36 (KHTML, like Gecko) Chrome/138.0.0.0 Safari/537.36","WebKit","Chrome","138.0.0.0","Windows","10.0","https://app.prolific.com/","en-US,en;q=0.9","60056657125e50465c15533e","683db9eb0562dbf637994deb","688086edb6fab804ecc9b2b4","2","1","60056657125e50465c15533e","2","1","2025-07-23T06:58:57.196Z","","","","","","","","","","","","","","win-only","0","g1:NW,g2:SE","0.7","4","0","236251.9","2815.9","7819","67979.8","1","4","8","6","2","8","5","21","16","0.1590909090909091","1119.4","3000","95","[""down"",""right""]","{""num_key_presses"":15,""num_perfect"":9,""num_errors"":3,""num_randdir"":3,""num_randdir_good_moves"":1,""num_whilered"":0,""num_whileblue"":2,""num_blue"":7,""num_good_moves"":10}","[418.07142857142856,420.6808016640799,0.1,418.07142857142856,420.6808016640799,100.6,418.07142857142856,420.6808016640799,207.3,418.07142857142856,420.6808016640799,314,418.07142857142856,420.6808016640799,415.3,418.07142857142856,420.6808016640799,532.8,553.0714285714286,522.6808016640799,637.9,680.5714285714286,767.1808016640799,741.7,709.0714285714286,803.1808016640799,846.7,779.5714285714286,764.1808016640799,948.8,779.5714285714286,764.1808016640799,1056.2,779.5714285714286,764.1808016640799,1161.5,779.5714285714286,764.1808016640799,1264.4,779.5714285714286,764.1808016640799,1364.4,779.5714285714286,764.1808016640799,1467.1,848.5714285714286,750.6808016640799,1572,929.5714285714286,737.1808016640799,1714.7,929.5714285714286,737.1808016640799,1815.4,929.5714285714286,737.1808016640799,1919.7,929.5714285714286,737.1808016640799,2031.2,929.5714285714286,737.1808016640799,2135,929.5714285714286,737.1808016640799,2241.9,929.5714285714286,737.1808016640799,2344.6,929.5714285714286,737.1808016640799,2445.8,929.5714285714286,737.1808016640799,2547.1,929.5714285714286,737.1808016640799,2647.1,929.5714285714286,737.1808016640799,2748,929.5714285714286,737.1808016640799,2852.7,929.5714285714286,737.1808016640799,2957.8,929.5714285714286,737.1808016640799,3064.8,929.5714285714286,737.1808016640799,3167.7,929.5714285714286,737.1808016640799,3271.3,929.5714285714286,737.1808016640799,3389.1,929.5714285714286,737.1808016640799,3496,929.5714285714286,737.1808016640799,3597.4,929.5714285714286,737.1808016640799,3700,929.5714285714286,737.1808016640799,3803,929.5714285714286,737.1808016640799,3903.2,929.5714285714286,737.1808016640799,4006.8,929.5714285714286,737.1808016640799,4117.4,929.5714285714286,737.1808016640799,4354.5,929.5714285714286,737.1808016640799,4454.6,929.5714285714286,737.1808016640799,4562.5,929.5714285714286,737.1808016640799,4668.5,929.5714285714286,737.1808016640799,4778.1,929.5714285714286,737.1808016640799,4894.5,929.5714285714286,737.1808016640799,4994.7]","[5805.9,5805.9,3475.1,2006.6,324.2,""smooth"",""down"",""down"",""good_move"",9224.2,3417.8,3013.1,5806.5,404.7,""oops"",""down"",""right"",""good_move"",12148.2,2917.8,2519.6,9230.4,398.2,""smooth"",""down"",""down"",""good_move"",15218,3069,2734.5,12149.1,334.5,""while_blue"",""down"",""left"",""bad_move"",15420.2,191.7,2909.1,15228.5,-2717.4,""error"",""-"",""-"",""no_move"",19047.5,3627.1,2221.4,16428.9,397.2,""oops"",""down"",""left"",""bad_move"",22242.8,3193.2,2865.3,19049.6,327.9,""smooth"",""right"",""right"",""good_move"",25612.2,3369.1,3024.4,22243.2,344.7,""smooth"",""right"",""right"",""good_move"",28237.6,2624.8,2306,25612.8,318.8,""while_blue"",""right"",""left"",""bad_move"",31231.1,2993.1,2628.5,28238,364.6,""smooth"",""right"",""right"",""good_move"",37743.6,6511.8,2531.8,34850.3,361.6,""smooth"",""right"",""right"",""good_move"",47870,10125.6,2340.2,45139.9,389.9,""smooth"",""right"",""right"",""good_move"",54068.3,6198.1,2691.6,50929.2,447.6,""oops"",""down"",""up"",""bad_move"",57106.5,3037.7,2668.4,54068.8,369.3,""smooth"",""down"",""down"",""good_move"",60020.1,2912.5,2535.9,57107.6,376.6,""smooth"",""down"",""down"",""good_move""]","",""
"18042","","<div style=""width:500px;"">
  <p>What determined the result of this run?</p>
  </div>","63","html-slider-response","25","322401","0.0-5.0-1.3","165","1","2025-07-23 06:53:51","1f75c3e559b7213887762d5229550c2b","95.146.241.52","Mozilla/5.0 (Windows NT 10.0; Win64; x64) AppleWebKit/537.36 (KHTML, like Gecko) Chrome/138.0.0.0 Safari/537.36","WebKit","Chrome","138.0.0.0","Windows","10.0","https://app.prolific.com/","en-US,en;q=0.9","60056657125e50465c15533e","683db9eb0562dbf637994deb","688086edb6fab804ecc9b2b4","2","1","60056657125e50465c15533e","2","1","2025-07-23T06:59:15.268Z","","","","","","","","","","","AttribQ","","50","","","","","","","","","","","","","","","","","","","","","","","","","","","","",""
"5637","","<div style=""width:500px;"">
  <p>How much control did you have over the ball?</p>
  </div>","58","html-slider-response","26","328040","0.0-5.0-2.3","165","1","2025-07-23 06:53:51","1f75c3e559b7213887762d5229550c2b","95.146.241.52","Mozilla/5.0 (Windows NT 10.0; Win64; x64) AppleWebKit/537.36 (KHTML, like Gecko) Chrome/138.0.0.0 Safari/537.36","WebKit","Chrome","138.0.0.0","Windows","10.0","https://app.prolific.com/","en-US,en;q=0.9","60056657125e50465c15533e","683db9eb0562dbf637994deb","688086edb6fab804ecc9b2b4","2","1","60056657125e50465c15533e","2","1","2025-07-23T06:59:20.907Z","","","","","","","","","","","ControlQ","","50","","","","","","","","","","","","","","","","","","","","","","","","","","","","",""
"8084","","<div style=""width:500px;"">
  <p>How would you describe your current emotional state?</p>
  </div>","57","html-slider-response","27","336126","0.0-5.0-3.3","165","1","2025-07-23 06:53:51","1f75c3e559b7213887762d5229550c2b","95.146.241.52","Mozilla/5.0 (Windows NT 10.0; Win64; x64) AppleWebKit/537.36 (KHTML, like Gecko) Chrome/138.0.0.0 Safari/537.36","WebKit","Chrome","138.0.0.0","Windows","10.0","https://app.prolific.com/","en-US,en;q=0.9","60056657125e50465c15533e","683db9eb0562dbf637994deb","688086edb6fab804ecc9b2b4","2","1","60056657125e50465c15533e","2","1","2025-07-23T06:59:28.994Z","","","","","","","","","","","StressQ","","50","","","","","","","","","","","","","","","","","","","","","","","","","","","","",""
"4890","","<div style=""width:500px;"">
  <p>What best describes how you currently feel?</p>
  </div>","61","html-slider-response","28","341019","0.0-5.0-4.3","165","1","2025-07-23 06:53:51","1f75c3e559b7213887762d5229550c2b","95.146.241.52","Mozilla/5.0 (Windows NT 10.0; Win64; x64) AppleWebKit/537.36 (KHTML, like Gecko) Chrome/138.0.0.0 Safari/537.36","WebKit","Chrome","138.0.0.0","Windows","10.0","https://app.prolific.com/","en-US,en;q=0.9","60056657125e50465c15533e","683db9eb0562dbf637994deb","688086edb6fab804ecc9b2b4","2","1","60056657125e50465c15533e","2","1","2025-07-23T06:59:33.886Z","","","","","","","","","","","MotivationQ","","50","","","","","","","","","","","","","","","","","","","","","","","","","","","","",""
"","","","","ctl-task-cpt","29","389169","0.0-5.0-0.4","165","1","2025-07-23 06:53:51","1f75c3e559b7213887762d5229550c2b","95.146.241.52","Mozilla/5.0 (Windows NT 10.0; Win64; x64) AppleWebKit/537.36 (KHTML, like Gecko) Chrome/138.0.0.0 Safari/537.36","WebKit","Chrome","138.0.0.0","Windows","10.0","https://app.prolific.com/","en-US,en;q=0.9","60056657125e50465c15533e","683db9eb0562dbf637994deb","688086edb6fab804ecc9b2b4","2","1","60056657125e50465c15533e","2","1","2025-07-23T07:00:22.036Z","","","","","","","","","","","","","","win-only","2","g1:SE,g2:NW","0.6","5","0","343982.8","2197.2","7199.4","45104.6","1","4","8","6","2","-8","-8","13","21","0.09848484848484848","1286.7","3000","-1935","[""left"",""up""]","{""num_key_presses"":11,""num_perfect"":6,""num_errors"":0,""num_randdir"":5,""num_randdir_good_moves"":2,""num_whilered"":0,""num_whileblue"":0,""num_blue"":1,""num_good_moves"":8}","[407.57142857142856,422.1808016640799,0.5,407.57142857142856,422.1808016640799,101,407.57142857142856,422.1808016640799,208,407.57142857142856,422.1808016640799,312.3,407.57142857142856,422.1808016640799,420.8,407.57142857142856,422.1808016640799,527.6,407.57142857142856,422.1808016640799,630.5,275.57142857142856,251.18080166407992,732.5,115.07142857142857,-29.319198335920063,834.2,86.57142857142857,-48.81919833592006,935.1,91.07142857142857,45.68080166407994,1040.9,91.07142857142857,72.68080166407994,1147.2,91.07142857142857,72.68080166407994,1297.9,91.07142857142857,72.68080166407994,1400,91.07142857142857,72.68080166407994,1516.7,91.07142857142857,72.68080166407994,1618.9,91.07142857142857,72.68080166407994,1720.5,91.07142857142857,72.68080166407994,1829.1,91.07142857142857,72.68080166407994,1929.3,91.07142857142857,72.68080166407994,2040.5,91.07142857142857,72.68080166407994,2144.6,91.07142857142857,72.68080166407994,2250.2,91.07142857142857,72.68080166407994,2353.3,91.07142857142857,72.68080166407994,2455.4,91.07142857142857,72.68080166407994,2567.6,91.07142857142857,72.68080166407994,2671,91.07142857142857,72.68080166407994,2771.9,91.07142857142857,72.68080166407994,2878.2,91.07142857142857,72.68080166407994,2981.1,91.07142857142857,72.68080166407994,3083.9,91.07142857142857,72.68080166407994,3188.3,91.07142857142857,72.68080166407994,3288.5,91.07142857142857,72.68080166407994,3393.4,91.07142857142857,72.68080166407994,3502.9,91.07142857142857,72.68080166407994,3604.9,91.07142857142857,72.68080166407994,3705.2,91.07142857142857,72.68080166407994,3814.8,91.07142857142857,72.68080166407994,3927.1,91.07142857142857,72.68080166407994,4027.2,91.07142857142857,72.68080166407994,4129.6,91.07142857142857,72.68080166407994,4231.9,91.07142857142857,72.68080166407994,4337.5,91.07142857142857,72.68080166407994,4438.3,91.07142857142857,72.68080166407994,4547.5,91.07142857142857,72.68080166407994,4650.7,91.07142857142857,72.68080166407994,4753.1,91.07142857142857,72.68080166407994,4854.3,91.07142857142857,72.68080166407994,4957.2]","[1521.4,1521.4,1000,0,521.4,""smooth"",""left"",""left"",""good_move"",4272.2,2750.3,2317.2,1521.9,433.1,""oops"",""left"",""right"",""bad_move"",7105.2,2829.8,2347.8,4275.4,482,""smooth"",""left"",""left"",""good_move"",9688.8,2583.2,2221.6,7105.8,361.5,""smooth"",""left"",""left"",""good_move"",13531.7,3841.9,3393.1,9689.8,448.8,""oops"",""left"",""right"",""bad_move"",16576.5,3044.6,2694.4,13532,350.2,""oops"",""left"",""up"",""good_move"",19341.6,2763.5,2352.4,16578.1,411.1,""smooth"",""left"",""left"",""good_move"",22358.8,3017,2629.9,19341.8,387.1,""smooth"",""left"",""left"",""good_move"",29112.6,6753.4,2740.7,25963.7,408.2,""smooth"",""up"",""up"",""good_move"",32068.3,2955.3,2520.6,29113,434.7,""oops"",""up"",""right"",""bad_move"",35132.3,3061.6,2553.9,32070.7,507.8,""oops"",""up"",""up"",""good_move""]","",""
"4703","","<div style=""width:500px;"">
  <p>What determined the result of this run?</p>
  </div>","30","html-slider-response","30","393874","0.0-5.0-1.4","165","1","2025-07-23 06:53:51","1f75c3e559b7213887762d5229550c2b","95.146.241.52","Mozilla/5.0 (Windows NT 10.0; Win64; x64) AppleWebKit/537.36 (KHTML, like Gecko) Chrome/138.0.0.0 Safari/537.36","WebKit","Chrome","138.0.0.0","Windows","10.0","https://app.prolific.com/","en-US,en;q=0.9","60056657125e50465c15533e","683db9eb0562dbf637994deb","688086edb6fab804ecc9b2b4","2","1","60056657125e50465c15533e","2","1","2025-07-23T07:00:26.741Z","","","","","","","","","","","AttribQ","","50","","","","","","","","","","","","","","","","","","","","","","","","","","","","",""
"4279","","<div style=""width:500px;"">
  <p>How much control did you have over the ball?</p>
  </div>","22","html-slider-response","31","398154","0.0-5.0-2.4","165","1","2025-07-23 06:53:51","1f75c3e559b7213887762d5229550c2b","95.146.241.52","Mozilla/5.0 (Windows NT 10.0; Win64; x64) AppleWebKit/537.36 (KHTML, like Gecko) Chrome/138.0.0.0 Safari/537.36","WebKit","Chrome","138.0.0.0","Windows","10.0","https://app.prolific.com/","en-US,en;q=0.9","60056657125e50465c15533e","683db9eb0562dbf637994deb","688086edb6fab804ecc9b2b4","2","1","60056657125e50465c15533e","2","1","2025-07-23T07:00:31.022Z","","","","","","","","","","","ControlQ","","50","","","","","","","","","","","","","","","","","","","","","","","","","","","","",""
"3994","","<div style=""width:500px;"">
  <p>How would you describe your current emotional state?</p>
  </div>","98","html-slider-response","32","402150","0.0-5.0-3.4","165","1","2025-07-23 06:53:51","1f75c3e559b7213887762d5229550c2b","95.146.241.52","Mozilla/5.0 (Windows NT 10.0; Win64; x64) AppleWebKit/537.36 (KHTML, like Gecko) Chrome/138.0.0.0 Safari/537.36","WebKit","Chrome","138.0.0.0","Windows","10.0","https://app.prolific.com/","en-US,en;q=0.9","60056657125e50465c15533e","683db9eb0562dbf637994deb","688086edb6fab804ecc9b2b4","2","1","60056657125e50465c15533e","2","1","2025-07-23T07:00:35.017Z","","","","","","","","","","","StressQ","","50","","","","","","","","","","","","","","","","","","","","","","","","","","","","",""
"4549","","<div style=""width:500px;"">
  <p>What best describes how you currently feel?</p>
  </div>","38","html-slider-response","33","406700","0.0-5.0-4.4","165","1","2025-07-23 06:53:51","1f75c3e559b7213887762d5229550c2b","95.146.241.52","Mozilla/5.0 (Windows NT 10.0; Win64; x64) AppleWebKit/537.36 (KHTML, like Gecko) Chrome/138.0.0.0 Safari/537.36","WebKit","Chrome","138.0.0.0","Windows","10.0","https://app.prolific.com/","en-US,en;q=0.9","60056657125e50465c15533e","683db9eb0562dbf637994deb","688086edb6fab804ecc9b2b4","2","1","60056657125e50465c15533e","2","1","2025-07-23T07:00:39.568Z","","","","","","","","","","","MotivationQ","","50","","","","","","","","","","","","","","","","","","","","","","","","","","","","",""
"","","","","ctl-task-cpt","34","473330","0.0-5.0-0.5","165","1","2025-07-23 06:53:51","1f75c3e559b7213887762d5229550c2b","95.146.241.52","Mozilla/5.0 (Windows NT 10.0; Win64; x64) AppleWebKit/537.36 (KHTML, like Gecko) Chrome/138.0.0.0 Safari/537.36","WebKit","Chrome","138.0.0.0","Windows","10.0","https://app.prolific.com/","en-US,en;q=0.9","60056657125e50465c15533e","683db9eb0562dbf637994deb","688086edb6fab804ecc9b2b4","2","1","60056657125e50465c15533e","2","1","2025-07-23T07:01:46.197Z","","","","","","","","","","","","","","win-only","3","g1:SW,g2:NE","0.5","6","0","409633.8","1216.9","6224.2","63606.5","1","4","4","6","2","-4","-5","8","13","0.06060606060606061","1176.3","3000","-1890","[""up"",""right""]","{""num_key_presses"":13,""num_perfect"":5,""num_errors"":1,""num_randdir"":7,""num_randdir_good_moves"":3,""num_whilered"":0,""num_whileblue"":1,""num_blue"":6,""num_good_moves"":8}","[415.07142857142856,428.1808016640799,0.1,415.07142857142856,428.1808016640799,109.4,415.07142857142856,428.1808016640799,211.3,415.07142857142856,428.1808016640799,313.8,415.07142857142856,428.1808016640799,425.3,415.07142857142856,428.1808016640799,528.8,623.5714285714286,224.18080166407992,637.9,703.0714285714286,147.68080166407992,739.6,721.0714285714286,132.68080166407992,846.8,743.5714285714286,113.18080166407994,950.2,743.5714285714286,111.68080166407994,1058.7,743.5714285714286,111.68080166407994,1160.6,743.5714285714286,111.68080166407994,1279,743.5714285714286,111.68080166407994,1385.6,743.5714285714286,111.68080166407994,1485.7,743.5714285714286,111.68080166407994,1588.1,1088.5714285714287,102.68080166407994,1688.7,1106.5714285714287,108.68080166407994,1792.7,1106.5714285714287,108.68080166407994,1900,1106.5714285714287,108.68080166407994,2009.1,1106.5714285714287,108.68080166407994,2110.8,1106.5714285714287,108.68080166407994,2213.4,1106.5714285714287,108.68080166407994,2316.6,1106.5714285714287,108.68080166407994,2422.5,1106.5714285714287,108.68080166407994,2524.3,1106.5714285714287,108.68080166407994,2625,1106.5714285714287,108.68080166407994,2730.1,1106.5714285714287,108.68080166407994,2841.8,1106.5714285714287,108.68080166407994,2960.3,1106.5714285714287,108.68080166407994,3060.7,1106.5714285714287,108.68080166407994,3174.6,1106.5714285714287,108.68080166407994,3285.7,1106.5714285714287,108.68080166407994,3387.1,1106.5714285714287,108.68080166407994,3522.9,1106.5714285714287,108.68080166407994,3626.8,1106.5714285714287,108.68080166407994,3742.3,1106.5714285714287,108.68080166407994,3844.7,1106.5714285714287,108.68080166407994,3957.1,1106.5714285714287,108.68080166407994,4059.4,1106.5714285714287,108.68080166407994,4172.6,1106.5714285714287,108.68080166407994,4273.2,1106.5714285714287,108.68080166407994,4374.6,1106.5714285714287,108.68080166407994,4519.6,1106.5714285714287,108.68080166407994,4621.9,1106.5714285714287,108.68080166407994,4725.3,1106.5714285714287,108.68080166407994,4827.3,1106.5714285714287,108.68080166407994,4930.4]","[1447.8,1447.8,1000,0,447.8,""oops"",""right"",""left"",""bad_move"",4993.4,3543.7,3056.6,1449.7,487.1,""smooth"",""right"",""right"",""good_move"",10855,5861.4,2104.9,8316.3,433.9,""oops"",""right"",""up"",""good_move"",13373.9,2518.5,2102.1,10855.4,416.4,""oops"",""right"",""left"",""bad_move"",16237.5,2863.5,2461.8,13374,401.7,""smooth"",""right"",""right"",""good_move"",18716.3,2478.5,2148.5,16237.8,330,""oops"",""right"",""left"",""bad_move"",21881.5,3164.8,2817.9,18716.7,346.9,""smooth"",""right"",""right"",""good_move"",24263.3,2381.3,2050.1,21882,331.2,""smooth"",""right"",""right"",""good_move"",30734.9,6471.3,2319.6,28080.6,334.7,""smooth"",""right"",""right"",""good_move"",33428.4,2693.3,2357.8,30735.1,335.5,""oops"",""right"",""up"",""good_move"",36588.8,3159.9,2838.3,33428.9,321.6,""oops"",""right"",""down"",""bad_move"",39082.4,2493.3,2245,36589.1,248.3,""while_blue"",""right"",""left"",""bad_move"",49743.9,10658.8,3100.3,46269.1,374.5,""oops"",""right"",""up"",""good_move""]","",""
"2966","","<div style=""width:500px;"">
  <p>What determined the result of this run?</p>
  </div>","11","html-slider-response","35","476297","0.0-5.0-1.5","165","1","2025-07-23 06:53:51","1f75c3e559b7213887762d5229550c2b","95.146.241.52","Mozilla/5.0 (Windows NT 10.0; Win64; x64) AppleWebKit/537.36 (KHTML, like Gecko) Chrome/138.0.0.0 Safari/537.36","WebKit","Chrome","138.0.0.0","Windows","10.0","https://app.prolific.com/","en-US,en;q=0.9","60056657125e50465c15533e","683db9eb0562dbf637994deb","688086edb6fab804ecc9b2b4","2","1","60056657125e50465c15533e","2","1","2025-07-23T07:01:49.164Z","","","","","","","","","","","AttribQ","","50","","","","","","","","","","","","","","","","","","","","","","","","","","","","",""
"4207","","<div style=""width:500px;"">
  <p>How much control did you have over the ball?</p>
  </div>","11","html-slider-response","36","480510","0.0-5.0-2.5","165","1","2025-07-23 06:53:51","1f75c3e559b7213887762d5229550c2b","95.146.241.52","Mozilla/5.0 (Windows NT 10.0; Win64; x64) AppleWebKit/537.36 (KHTML, like Gecko) Chrome/138.0.0.0 Safari/537.36","WebKit","Chrome","138.0.0.0","Windows","10.0","https://app.prolific.com/","en-US,en;q=0.9","60056657125e50465c15533e","683db9eb0562dbf637994deb","688086edb6fab804ecc9b2b4","2","1","60056657125e50465c15533e","2","1","2025-07-23T07:01:53.379Z","","","","","","","","","","","ControlQ","","50","","","","","","","","","","","","","","","","","","","","","","","","","","","","",""
"3100","","<div style=""width:500px;"">
  <p>How would you describe your current emotional state?</p>
  </div>","100","html-slider-response","37","483628","0.0-5.0-3.5","165","1","2025-07-23 06:53:51","1f75c3e559b7213887762d5229550c2b","95.146.241.52","Mozilla/5.0 (Windows NT 10.0; Win64; x64) AppleWebKit/537.36 (KHTML, like Gecko) Chrome/138.0.0.0 Safari/537.36","WebKit","Chrome","138.0.0.0","Windows","10.0","https://app.prolific.com/","en-US,en;q=0.9","60056657125e50465c15533e","683db9eb0562dbf637994deb","688086edb6fab804ecc9b2b4","2","1","60056657125e50465c15533e","2","1","2025-07-23T07:01:56.497Z","","","","","","","","","","","StressQ","","50","","","","","","","","","","","","","","","","","","","","","","","","","","","","",""
"3271","","<div style=""width:500px;"">
  <p>What best describes how you currently feel?</p>
  </div>","18","html-slider-response","38","486912","0.0-5.0-4.5","165","1","2025-07-23 06:53:51","1f75c3e559b7213887762d5229550c2b","95.146.241.52","Mozilla/5.0 (Windows NT 10.0; Win64; x64) AppleWebKit/537.36 (KHTML, like Gecko) Chrome/138.0.0.0 Safari/537.36","WebKit","Chrome","138.0.0.0","Windows","10.0","https://app.prolific.com/","en-US,en;q=0.9","60056657125e50465c15533e","683db9eb0562dbf637994deb","688086edb6fab804ecc9b2b4","2","1","60056657125e50465c15533e","2","1","2025-07-23T07:01:59.779Z","","","","","","","","","","","MotivationQ","","50","","","","","","","","","","","","","","","","","","","","","","","","","","","","",""
"","","","","ctl-task-cpt","39","540173","0.0-5.0-0.6","165","1","2025-07-23 06:53:51","1f75c3e559b7213887762d5229550c2b","95.146.241.52","Mozilla/5.0 (Windows NT 10.0; Win64; x64) AppleWebKit/537.36 (KHTML, like Gecko) Chrome/138.0.0.0 Safari/537.36","WebKit","Chrome","138.0.0.0","Windows","10.0","https://app.prolific.com/","en-US,en;q=0.9","60056657125e50465c15533e","683db9eb0562dbf637994deb","688086edb6fab804ecc9b2b4","2","1","60056657125e50465c15533e","2","1","2025-07-23T07:02:53.040Z","","","","","","","","","","","","","","win-only","2","g1:SE,g2:NW","0.4","7","0","489842.3","1072.7","6083.5","50247.8","1","4","4","6","2","-4","-5","3","8","0.022727272727272728","1078.8","3000","-1815","[""left"",""up""]","{""num_key_presses"":13,""num_perfect"":4,""num_errors"":1,""num_randdir"":8,""num_randdir_good_moves"":3,""num_whilered"":0,""num_whileblue"":0,""num_blue"":2,""num_good_moves"":7}","[419.57142857142856,411.6808016640799,0.2,419.57142857142856,411.6808016640799,116.3,419.57142857142856,411.6808016640799,221.2,419.57142857142856,411.6808016640799,326.4,419.57142857142856,411.6808016640799,437.3,248.57142857142856,249.68080166407992,540.6,175.07142857142856,149.18080166407992,650.5,148.07142857142856,116.18080166407994,758.8,95.57142857142857,68.18080166407994,865,92.57142857142857,65.18080166407994,966.3,92.57142857142857,65.18080166407994,1082,92.57142857142857,65.18080166407994,1186,92.57142857142857,65.18080166407994,1293.4,92.57142857142857,65.18080166407994,1414.1,160.07142857142856,66.68080166407994,1514.4,683.5714285714286,147.68080166407992,1619,746.5714285714286,161.18080166407992,1730.1,746.5714285714286,161.18080166407992,1834.8,746.5714285714286,161.18080166407992,1937.2,746.5714285714286,161.18080166407992,2041.9,746.5714285714286,161.18080166407992,2143.8,746.5714285714286,161.18080166407992,2255.3,746.5714285714286,161.18080166407992,2359.3,746.5714285714286,161.18080166407992,2460.7,746.5714285714286,161.18080166407992,2561.6,746.5714285714286,161.18080166407992,2667.5,746.5714285714286,161.18080166407992,2768.5,746.5714285714286,161.18080166407992,2880.5,746.5714285714286,161.18080166407992,2982,746.5714285714286,161.18080166407992,3084.1,746.5714285714286,161.18080166407992,3200.6,746.5714285714286,161.18080166407992,3310.2,746.5714285714286,161.18080166407992,3411.9,746.5714285714286,161.18080166407992,3514.9,746.5714285714286,161.18080166407992,3625.8,746.5714285714286,161.18080166407992,3729.4,746.5714285714286,161.18080166407992,3829.6,746.5714285714286,161.18080166407992,3933,746.5714285714286,161.18080166407992,4034.4,746.5714285714286,161.18080166407992,4142.7,746.5714285714286,161.18080166407992,4244.6,746.5714285714286,161.18080166407992,4347,746.5714285714286,161.18080166407992,4452,746.5714285714286,161.18080166407992,4561,746.5714285714286,161.18080166407992,4661.7,746.5714285714286,161.18080166407992,4768.2,746.5714285714286,161.18080166407992,4872.5,746.5714285714286,161.18080166407992,4973.2]","[1381.8,1381.8,1000,0,381.8,""oops"",""left"",""left"",""good_move"",3512.9,2130.8,1605.1,1382.1,525.7,""smooth"",""left"",""left"",""good_move"",6686.1,3172.9,2801.1,3513.2,371.9,""oops"",""left"",""right"",""bad_move"",9517.6,2828.8,2453.1,6688.9,375.7,""smooth"",""left"",""left"",""good_move"",12490,2971.9,2654.1,9518.1,317.8,""smooth"",""left"",""left"",""good_move"",16004.8,3514.1,3183,12490.8,331,""oops"",""up"",""up"",""good_move"",21782.7,5777.6,2276.8,19089.1,416.8,""oops"",""up"",""right"",""bad_move"",24504.3,2721.2,2321.1,21783.1,400.1,""smooth"",""up"",""up"",""good_move"",26918.4,2407.6,2002.5,24510.8,405.2,""oops"",""up"",""up"",""good_move"",33671,6750.5,2359.5,30869.1,442.5,""oops"",""left"",""down"",""bad_move"",36138.3,2466.9,1901.1,33671.4,565.8,""oops"",""left"",""down"",""bad_move"",39118.2,2978.6,2611.4,36139.6,367.2,""oops"",""left"",""down"",""bad_move"",40545.8,1427.4,2279.5,39118.4,-852.1,""error"",""-"",""-"",""no_move""]","",""
"2793","","<div style=""width:500px;"">
  <p>What determined the result of this run?</p>
  </div>","5","html-slider-response","40","542966","0.0-5.0-1.6","165","1","2025-07-23 06:53:51","1f75c3e559b7213887762d5229550c2b","95.146.241.52","Mozilla/5.0 (Windows NT 10.0; Win64; x64) AppleWebKit/537.36 (KHTML, like Gecko) Chrome/138.0.0.0 Safari/537.36","WebKit","Chrome","138.0.0.0","Windows","10.0","https://app.prolific.com/","en-US,en;q=0.9","60056657125e50465c15533e","683db9eb0562dbf637994deb","688086edb6fab804ecc9b2b4","2","1","60056657125e50465c15533e","2","1","2025-07-23T07:02:55.834Z","","","","","","","","","","","AttribQ","","50","","","","","","","","","","","","","","","","","","","","","","","","","","","","",""
"3538","","<div style=""width:500px;"">
  <p>How much control did you have over the ball?</p>
  </div>","3","html-slider-response","41","546510","0.0-5.0-2.6","165","1","2025-07-23 06:53:51","1f75c3e559b7213887762d5229550c2b","95.146.241.52","Mozilla/5.0 (Windows NT 10.0; Win64; x64) AppleWebKit/537.36 (KHTML, like Gecko) Chrome/138.0.0.0 Safari/537.36","WebKit","Chrome","138.0.0.0","Windows","10.0","https://app.prolific.com/","en-US,en;q=0.9","60056657125e50465c15533e","683db9eb0562dbf637994deb","688086edb6fab804ecc9b2b4","2","1","60056657125e50465c15533e","2","1","2025-07-23T07:02:59.379Z","","","","","","","","","","","ControlQ","","50","","","","","","","","","","","","","","","","","","","","","","","","","","","","",""
"2446","","<div style=""width:500px;"">
  <p>How would you describe your current emotional state?</p>
  </div>","100","html-slider-response","42","548968","0.0-5.0-3.6","165","1","2025-07-23 06:53:51","1f75c3e559b7213887762d5229550c2b","95.146.241.52","Mozilla/5.0 (Windows NT 10.0; Win64; x64) AppleWebKit/537.36 (KHTML, like Gecko) Chrome/138.0.0.0 Safari/537.36","WebKit","Chrome","138.0.0.0","Windows","10.0","https://app.prolific.com/","en-US,en;q=0.9","60056657125e50465c15533e","683db9eb0562dbf637994deb","688086edb6fab804ecc9b2b4","2","1","60056657125e50465c15533e","2","1","2025-07-23T07:03:01.835Z","","","","","","","","","","","StressQ","","50","","","","","","","","","","","","","","","","","","","","","","","","","","","","",""
"3234","","<div style=""width:500px;"">
  <p>What best describes how you currently feel?</p>
  </div>","32","html-slider-response","43","552207","0.0-5.0-4.6","165","1","2025-07-23 06:53:51","1f75c3e559b7213887762d5229550c2b","95.146.241.52","Mozilla/5.0 (Windows NT 10.0; Win64; x64) AppleWebKit/537.36 (KHTML, like Gecko) Chrome/138.0.0.0 Safari/537.36","WebKit","Chrome","138.0.0.0","Windows","10.0","https://app.prolific.com/","en-US,en;q=0.9","60056657125e50465c15533e","683db9eb0562dbf637994deb","688086edb6fab804ecc9b2b4","2","1","60056657125e50465c15533e","2","1","2025-07-23T07:03:05.075Z","","","","","","","","","","","MotivationQ","","50","","","","","","","","","","","","","","","","","","","","","","","","","","","","",""
"","","","","ctl-task-cpt","44","611849","0.0-5.0-0.7","165","1","2025-07-23 06:53:51","1f75c3e559b7213887762d5229550c2b","95.146.241.52","Mozilla/5.0 (Windows NT 10.0; Win64; x64) AppleWebKit/537.36 (KHTML, like Gecko) Chrome/138.0.0.0 Safari/537.36","WebKit","Chrome","138.0.0.0","Windows","10.0","https://app.prolific.com/","en-US,en;q=0.9","60056657125e50465c15533e","683db9eb0562dbf637994deb","688086edb6fab804ecc9b2b4","2","1","60056657125e50465c15533e","2","1","2025-07-23T07:04:04.716Z","","","","","","","","","","","","","","win-only","0","g1:NW,g2:SE","0.3","8","0","555150.3","1480.4","6486.1","56605.4","1","4","8","6","2","8","8","11","3","0.08333333333333333","1040.1","3000","220","[""down"",""right""]","{""num_key_presses"":14,""num_perfect"":4,""num_errors"":0,""num_randdir"":10,""num_randdir_good_moves"":6,""num_whilered"":0,""num_whileblue"":0,""num_blue"":3,""num_good_moves"":10}","[416.57142857142856,405.6808016640799,1.1,416.57142857142856,405.6808016640799,115.4,416.57142857142856,405.6808016640799,220.6,416.57142857142856,405.6808016640799,327,416.57142857142856,405.6808016640799,430.6,416.57142857142856,405.6808016640799,547.1,635.5714285714286,570.6808016640799,650.4,739.0714285714286,734.1808016640799,751.3,746.5714285714286,761.1808016640799,865.9,746.5714285714286,761.1808016640799,968.9,746.5714285714286,761.1808016640799,1071.9,746.5714285714286,761.1808016640799,1174.5,746.5714285714286,761.1808016640799,1278.8,746.5714285714286,761.1808016640799,1385.5,746.5714285714286,761.1808016640799,1498.1,997.0714285714286,677.1808016640799,1600.4,1216.0714285714287,618.6808016640799,1700.9,1217.5714285714287,618.6808016640799,1816,1217.5714285714287,618.6808016640799,1927.1,1217.5714285714287,618.6808016640799,2031,1217.5714285714287,618.6808016640799,2143.9,1217.5714285714287,618.6808016640799,2254.3,1217.5714285714287,618.6808016640799,2356.5,1217.5714285714287,618.6808016640799,2459.2,1217.5714285714287,618.6808016640799,2559.4,1217.5714285714287,618.6808016640799,2662,1217.5714285714287,618.6808016640799,2767.1,1217.5714285714287,618.6808016640799,2875.5,1217.5714285714287,618.6808016640799,2984.3,1217.5714285714287,618.6808016640799,3097.9,1217.5714285714287,618.6808016640799,3200.7,1217.5714285714287,618.6808016640799,3309.2,1217.5714285714287,618.6808016640799,3411.8,1217.5714285714287,618.6808016640799,3514.8,1217.5714285714287,618.6808016640799,3620.3,1217.5714285714287,618.6808016640799,3723.3,1217.5714285714287,618.6808016640799,3831.7,1217.5714285714287,618.6808016640799,3944.8,1217.5714285714287,618.6808016640799,4051.7,1217.5714285714287,618.6808016640799,4164.5,1217.5714285714287,618.6808016640799,4266.2,1217.5714285714287,618.6808016640799,4376.6,1217.5714285714287,618.6808016640799,4480,1217.5714285714287,618.6808016640799,4580.8,1217.5714285714287,618.6808016640799,4681.3,1217.5714285714287,618.6808016640799,4787.5,1217.5714285714287,618.6808016640799,4891.7]","[1553.5,1553.5,1000,0,553.5,""oops"",""right"",""left"",""bad_move"",4284.1,2729.4,2369.2,1554.8,360.1,""oops"",""right"",""left"",""bad_move"",7168.4,2884.1,2543.9,4284.3,340.2,""oops"",""right"",""right"",""good_move"",10269.3,3100.5,2761.5,7168.8,339,""smooth"",""right"",""right"",""good_move"",17301.1,7031.5,2877,14051.7,372.4,""oops"",""right"",""right"",""good_move"",20249.2,2947.8,2533.6,17301.4,414.2,""oops"",""right"",""down"",""good_move"",22597.1,2347.3,2011.4,20249.8,335.9,""oops"",""right"",""up"",""bad_move"",25261.9,2664.2,2350.6,22597.7,313.6,""smooth"",""right"",""right"",""good_move"",31085.1,5822.8,1921.7,28818.5,344.9,""smooth"",""right"",""right"",""good_move"",33912.1,2826.7,2461.8,31085.4,364.9,""oops"",""down"",""up"",""bad_move"",40554.8,6642.3,2556.4,37595.4,403,""oops"",""down"",""down"",""good_move"",43386.6,2831.3,2429,40555.3,402.3,""smooth"",""down"",""down"",""good_move"",46853.4,3464,3163.6,43389.5,300.3,""oops"",""down"",""down"",""good_move"",49959.6,3105.8,2761,46853.8,344.8,""oops"",""down"",""down"",""good_move""]","",""
"3294","","<div style=""width:500px;"">
  <p>What determined the result of this run?</p>
  </div>","35","html-slider-response","45","615151","0.0-5.0-1.7","165","1","2025-07-23 06:53:51","1f75c3e559b7213887762d5229550c2b","95.146.241.52","Mozilla/5.0 (Windows NT 10.0; Win64; x64) AppleWebKit/537.36 (KHTML, like Gecko) Chrome/138.0.0.0 Safari/537.36","WebKit","Chrome","138.0.0.0","Windows","10.0","https://app.prolific.com/","en-US,en;q=0.9","60056657125e50465c15533e","683db9eb0562dbf637994deb","688086edb6fab804ecc9b2b4","2","1","60056657125e50465c15533e","2","1","2025-07-23T07:04:08.022Z","","","","","","","","","","","AttribQ","","50","","","","","","","","","","","","","","","","","","","","","","","","","","","","",""
"5384","","<div style=""width:500px;"">
  <p>How much control did you have over the ball?</p>
  </div>","35","html-slider-response","46","620557","0.0-5.0-2.7","165","1","2025-07-23 06:53:51","1f75c3e559b7213887762d5229550c2b","95.146.241.52","Mozilla/5.0 (Windows NT 10.0; Win64; x64) AppleWebKit/537.36 (KHTML, like Gecko) Chrome/138.0.0.0 Safari/537.36","WebKit","Chrome","138.0.0.0","Windows","10.0","https://app.prolific.com/","en-US,en;q=0.9","60056657125e50465c15533e","683db9eb0562dbf637994deb","688086edb6fab804ecc9b2b4","2","1","60056657125e50465c15533e","2","1","2025-07-23T07:04:13.426Z","","","","","","","","","","","ControlQ","","50","","","","","","","","","","","","","","","","","","","","","","","","","","","","",""
"3106","","<div style=""width:500px;"">
  <p>How would you describe your current emotional state?</p>
  </div>","86","html-slider-response","47","623675","0.0-5.0-3.7","165","1","2025-07-23 06:53:51","1f75c3e559b7213887762d5229550c2b","95.146.241.52","Mozilla/5.0 (Windows NT 10.0; Win64; x64) AppleWebKit/537.36 (KHTML, like Gecko) Chrome/138.0.0.0 Safari/537.36","WebKit","Chrome","138.0.0.0","Windows","10.0","https://app.prolific.com/","en-US,en;q=0.9","60056657125e50465c15533e","683db9eb0562dbf637994deb","688086edb6fab804ecc9b2b4","2","1","60056657125e50465c15533e","2","1","2025-07-23T07:04:16.543Z","","","","","","","","","","","StressQ","","50","","","","","","","","","","","","","","","","","","","","","","","","","","","","",""
"3134","","<div style=""width:500px;"">
  <p>What best describes how you currently feel?</p>
  </div>","36","html-slider-response","48","626820","0.0-5.0-4.7","165","1","2025-07-23 06:53:51","1f75c3e559b7213887762d5229550c2b","95.146.241.52","Mozilla/5.0 (Windows NT 10.0; Win64; x64) AppleWebKit/537.36 (KHTML, like Gecko) Chrome/138.0.0.0 Safari/537.36","WebKit","Chrome","138.0.0.0","Windows","10.0","https://app.prolific.com/","en-US,en;q=0.9","60056657125e50465c15533e","683db9eb0562dbf637994deb","688086edb6fab804ecc9b2b4","2","1","60056657125e50465c15533e","2","1","2025-07-23T07:04:19.687Z","","","","","","","","","","","MotivationQ","","50","","","","","","","","","","","","","","","","","","","","","","","","","","","","",""
"","","","","ctl-task-cpt","49","679254","0.0-5.0-0.8","165","1","2025-07-23 06:53:51","1f75c3e559b7213887762d5229550c2b","95.146.241.52","Mozilla/5.0 (Windows NT 10.0; Win64; x64) AppleWebKit/537.36 (KHTML, like Gecko) Chrome/138.0.0.0 Safari/537.36","WebKit","Chrome","138.0.0.0","Windows","10.0","https://app.prolific.com/","en-US,en;q=0.9","60056657125e50465c15533e","683db9eb0562dbf637994deb","688086edb6fab804ecc9b2b4","2","1","60056657125e50465c15533e","2","1","2025-07-23T07:05:12.121Z","","","","","","","","","","","","","","win-only","0","g1:NW,g2:SE","0.2","9","0","629750.9","1049.6","6057.3","49406.6","1","4","8","6","2","8","7","18","11","0.13636363636363635","1402.1","3000","115","[""down"",""right""]","{""num_key_presses"":14,""num_perfect"":4,""num_errors"":1,""num_randdir"":9,""num_randdir_good_moves"":5,""num_whilered"":0,""num_whileblue"":1,""num_blue"":3,""num_good_moves"":10}","[415.07142857142856,423.6808016640799,0.2,415.07142857142856,423.6808016640799,120.1,415.07142857142856,423.6808016640799,223.1,415.07142857142856,423.6808016640799,334.3,415.07142857142856,423.6808016640799,437.4,697.0714285714286,648.6808016640799,543.9,785.5714285714286,833.1808016640799,648.4,785.5714285714286,833.1808016640799,756.7,785.5714285714286,833.1808016640799,869.5,785.5714285714286,833.1808016640799,988.3,785.5714285714286,833.1808016640799,1090.6,766.0714285714286,771.6808016640799,1200.6,766.0714285714286,770.1808016640799,1300.7,766.0714285714286,770.1808016640799,1406.1,766.0714285714286,770.1808016640799,1509.1,766.0714285714286,770.1808016640799,1614.2,766.0714285714286,770.1808016640799,1720.1,766.0714285714286,770.1808016640799,1835.8,1199.5714285714287,638.1808016640799,1953.3,1268.5714285714287,629.1808016640799,2063.9,1268.5714285714287,629.1808016640799,2166.4,1268.5714285714287,629.1808016640799,2267.1,1268.5714285714287,629.1808016640799,2371.9,1268.5714285714287,629.1808016640799,2472,1268.5714285714287,629.1808016640799,2584.7,1268.5714285714287,629.1808016640799,2689.2,1268.5714285714287,629.1808016640799,2794,1268.5714285714287,629.1808016640799,2907.3,1268.5714285714287,629.1808016640799,3021.6,1268.5714285714287,629.1808016640799,3128.7,1268.5714285714287,629.1808016640799,3245.9,1268.5714285714287,629.1808016640799,3358.8,1268.5714285714287,629.1808016640799,3460.4,1268.5714285714287,629.1808016640799,3562.4,1268.5714285714287,629.1808016640799,3663.8,1268.5714285714287,629.1808016640799,3771.6,1268.5714285714287,629.1808016640799,3873.6,1268.5714285714287,629.1808016640799,3975.6,1268.5714285714287,629.1808016640799,4083.9,1268.5714285714287,629.1808016640799,4186.1,1268.5714285714287,629.1808016640799,4292.7,1268.5714285714287,629.1808016640799,4402.9,1268.5714285714287,629.1808016640799,4503.9,1268.5714285714287,629.1808016640799,4618.4,1268.5714285714287,629.1808016640799,4725.7,1268.5714285714287,629.1808016640799,4827.1,1268.5714285714287,629.1808016640799,4929.4]","[1394.9,1394.9,1000,0,394.9,""smooth"",""right"",""right"",""good_move"",4268.8,2873.5,2498.1,1395.3,375.4,""oops"",""right"",""up"",""bad_move"",6906.7,2637.5,2296.7,4269.3,340.8,""while_blue"",""right"",""down"",""good_move"",10384.7,3477.3,3037.5,6907.4,439.8,""oops"",""right"",""up"",""bad_move"",12743,2358.1,2000.6,10384.9,357.5,""oops"",""right"",""down"",""good_move"",15175.3,2431.9,2072.8,12743.5,359,""oops"",""right"",""right"",""good_move"",17582.9,2406.9,2084.3,15176,322.6,""smooth"",""right"",""right"",""good_move"",19888,2304.8,1929.7,17583.2,375.1,""oops"",""down"",""down"",""good_move"",23023.5,3135.1,2741.3,19888.4,393.8,""oops"",""down"",""up"",""bad_move"",25918.5,2894.3,2522,23024.2,372.3,""oops"",""down"",""down"",""good_move"",28686.6,2766.6,1474.7,25920,1291.9,""oops"",""down"",""up"",""bad_move"",34723.1,6036.1,2285.7,32140.6,296.8,""smooth"",""down"",""down"",""good_move"",40594.3,5871.2,1946,38312.5,335.9,""oops"",""down"",""down"",""good_move"",43167.4,2570.5,2206.7,40596.9,363.8,""smooth"",""down"",""down"",""good_move""]","",""
"2436","","<div style=""width:500px;"">
  <p>What determined the result of this run?</p>
  </div>","25","html-slider-response","50","681695","0.0-5.0-1.8","165","1","2025-07-23 06:53:51","1f75c3e559b7213887762d5229550c2b","95.146.241.52","Mozilla/5.0 (Windows NT 10.0; Win64; x64) AppleWebKit/537.36 (KHTML, like Gecko) Chrome/138.0.0.0 Safari/537.36","WebKit","Chrome","138.0.0.0","Windows","10.0","https://app.prolific.com/","en-US,en;q=0.9","60056657125e50465c15533e","683db9eb0562dbf637994deb","688086edb6fab804ecc9b2b4","2","1","60056657125e50465c15533e","2","1","2025-07-23T07:05:14.563Z","","","","","","","","","","","AttribQ","","50","","","","","","","","","","","","","","","","","","","","","","","","","","","","",""
"2687","","<div style=""width:500px;"">
  <p>How much control did you have over the ball?</p>
  </div>","21","html-slider-response","51","684405","0.0-5.0-2.8","165","1","2025-07-23 06:53:51","1f75c3e559b7213887762d5229550c2b","95.146.241.52","Mozilla/5.0 (Windows NT 10.0; Win64; x64) AppleWebKit/537.36 (KHTML, like Gecko) Chrome/138.0.0.0 Safari/537.36","WebKit","Chrome","138.0.0.0","Windows","10.0","https://app.prolific.com/","en-US,en;q=0.9","60056657125e50465c15533e","683db9eb0562dbf637994deb","688086edb6fab804ecc9b2b4","2","1","60056657125e50465c15533e","2","1","2025-07-23T07:05:17.273Z","","","","","","","","","","","ControlQ","","50","","","","","","","","","","","","","","","","","","","","","","","","","","","","",""
"4154","","<div style=""width:500px;"">
  <p>How would you describe your current emotional state?</p>
  </div>","91","html-slider-response","52","688578","0.0-5.0-3.8","165","1","2025-07-23 06:53:51","1f75c3e559b7213887762d5229550c2b","95.146.241.52","Mozilla/5.0 (Windows NT 10.0; Win64; x64) AppleWebKit/537.36 (KHTML, like Gecko) Chrome/138.0.0.0 Safari/537.36","WebKit","Chrome","138.0.0.0","Windows","10.0","https://app.prolific.com/","en-US,en;q=0.9","60056657125e50465c15533e","683db9eb0562dbf637994deb","688086edb6fab804ecc9b2b4","2","1","60056657125e50465c15533e","2","1","2025-07-23T07:05:21.446Z","","","","","","","","","","","StressQ","","50","","","","","","","","","","","","","","","","","","","","","","","","","","","","",""
"4938","","<div style=""width:500px;"">
  <p>What best describes how you currently feel?</p>
  </div>","30","html-slider-response","53","693536","0.0-5.0-4.8","165","1","2025-07-23 06:53:51","1f75c3e559b7213887762d5229550c2b","95.146.241.52","Mozilla/5.0 (Windows NT 10.0; Win64; x64) AppleWebKit/537.36 (KHTML, like Gecko) Chrome/138.0.0.0 Safari/537.36","WebKit","Chrome","138.0.0.0","Windows","10.0","https://app.prolific.com/","en-US,en;q=0.9","60056657125e50465c15533e","683db9eb0562dbf637994deb","688086edb6fab804ecc9b2b4","2","1","60056657125e50465c15533e","2","1","2025-07-23T07:05:26.412Z","","","","","","","","","","","MotivationQ","","50","","","","","","","","","","","","","","","","","","","","","","","","","","","","",""
"","","","","ctl-task-cpt","54","759462","0.0-5.0-0.9","165","1","2025-07-23 06:53:51","1f75c3e559b7213887762d5229550c2b","95.146.241.52","Mozilla/5.0 (Windows NT 10.0; Win64; x64) AppleWebKit/537.36 (KHTML, like Gecko) Chrome/138.0.0.0 Safari/537.36","WebKit","Chrome","138.0.0.0","Windows","10.0","https://app.prolific.com/","en-US,en;q=0.9","60056657125e50465c15533e","683db9eb0562dbf637994deb","688086edb6fab804ecc9b2b4","2","1","60056657125e50465c15533e","2","1","2025-07-23T07:06:32.330Z","","","","","","","","","","","","","","win-only","1","g1:NE,g2:SW","0.4","10","0","696502.2","1884.4","6892.2","62880.9","1","4","4","6","2","-4","-4","14","18","0.10606060606060606","1107","3000","-1555","[""down"",""left""]","{""num_key_presses"":18,""num_perfect"":8,""num_errors"":0,""num_randdir"":10,""num_randdir_good_moves"":3,""num_whilered"":0,""num_whileblue"":0,""num_blue"":1,""num_good_moves"":11}","[416.57142857142856,416.1808016640799,1.3,416.57142857142856,416.1808016640799,106.7,416.57142857142856,416.1808016640799,211.7,416.57142857142856,416.1808016640799,312,416.57142857142856,416.1808016640799,425.2,416.57142857142856,416.1808016640799,527.9,143.57142857142856,767.1808016640799,647.3,97.07142857142857,788.1808016640799,747.9,46.07142857142857,785.1808016640799,852,41.57142857142857,785.1808016640799,969.5,41.57142857142857,785.1808016640799,1072.4,41.57142857142857,785.1808016640799,1176.6,41.57142857142857,785.1808016640799,1277.4,41.57142857142857,785.1808016640799,1382,41.57142857142857,785.1808016640799,1483.7,41.57142857142857,785.1808016640799,1587.5,41.57142857142857,785.1808016640799,1688.5,41.57142857142857,785.1808016640799,1791.8,41.57142857142857,785.1808016640799,1892.2,41.57142857142857,785.1808016640799,1998.1,41.57142857142857,785.1808016640799,2106.4,41.57142857142857,785.1808016640799,2211.4,41.57142857142857,785.1808016640799,2314.7,41.57142857142857,785.1808016640799,2418.5,41.57142857142857,785.1808016640799,2530.7,41.57142857142857,785.1808016640799,2631.6,119.57142857142857,741.6808016640799,2732.4,655.0714285714286,587.1808016640799,2839.9,694.0714285714286,585.6808016640799,2941.9,694.0714285714286,585.6808016640799,3045.5,694.0714285714286,585.6808016640799,3151.7,694.0714285714286,585.6808016640799,3255.3,694.0714285714286,585.6808016640799,3362.6,694.0714285714286,585.6808016640799,3466.2,694.0714285714286,585.6808016640799,3578.9,694.0714285714286,585.6808016640799,3680.6,694.0714285714286,585.6808016640799,3781.4,694.0714285714286,585.6808016640799,3892.9,694.0714285714286,585.6808016640799,4012.8,694.0714285714286,585.6808016640799,4122.8,694.0714285714286,585.6808016640799,4245.2,694.0714285714286,585.6808016640799,4358.9,694.0714285714286,585.6808016640799,4466,694.0714285714286,585.6808016640799,4572.6,694.0714285714286,585.6808016640799,4682.2,694.0714285714286,585.6808016640799,4784.5,694.0714285714286,585.6808016640799,4894.8]","[1328.5,1328.5,1000,0,328.5,""oops"",""down"",""right"",""bad_move"",4383.2,3054.4,2697.7,1328.8,356.7,""smooth"",""down"",""down"",""good_move"",6938.4,2554.8,2227.5,4383.7,327.2,""smooth"",""down"",""down"",""good_move"",9268.8,2329.6,1999.8,6939.2,329.8,""smooth"",""down"",""down"",""good_move"",11877.3,2608.3,2193.6,9269,414.7,""oops"",""left"",""up"",""bad_move"",14454.9,2577,2252.6,11877.9,324.4,""oops"",""left"",""up"",""bad_move"",16938.4,2483.3,2156,14455.1,327.3,""oops"",""left"",""right"",""bad_move"",19181.1,2242.3,1886.6,16938.9,355.6,""oops"",""left"",""down"",""good_move"",22486.6,3305,2991.8,19181.6,313.2,""smooth"",""left"",""left"",""good_move"",26085.2,3596.2,3304.2,22489.1,291.9,""oops"",""left"",""down"",""good_move"",29879.8,3794.3,3460.5,26085.5,333.8,""smooth"",""left"",""left"",""good_move"",32951.7,3071.5,2738,29880.2,333.5,""smooth"",""left"",""left"",""good_move"",36315.4,3363.5,3026.5,32951.9,337,""oops"",""left"",""right"",""bad_move"",39345.7,3028.8,2713.4,36316.9,315.4,""oops"",""left"",""right"",""bad_move"",45233,5887,2147.9,42689.9,395.2,""smooth"",""left"",""left"",""good_move"",49014.5,3781.2,3480.7,45233.4,300.4,""smooth"",""left"",""left"",""good_move"",51511.7,2496.7,2140.1,49015,356.6,""oops"",""left"",""up"",""bad_move"",54085.9,2573.7,2260.5,51512.2,313.2,""oops"",""left"",""left"",""good_move""]","",""
"8517","","<div style=""width:500px;"">
  <p>What determined the result of this run?</p>
  </div>","3","html-slider-response","55","767983","0.0-5.0-1.9","165","1","2025-07-23 06:53:51","1f75c3e559b7213887762d5229550c2b","95.146.241.52","Mozilla/5.0 (Windows NT 10.0; Win64; x64) AppleWebKit/537.36 (KHTML, like Gecko) Chrome/138.0.0.0 Safari/537.36","WebKit","Chrome","138.0.0.0","Windows","10.0","https://app.prolific.com/","en-US,en;q=0.9","60056657125e50465c15533e","683db9eb0562dbf637994deb","688086edb6fab804ecc9b2b4","2","1","60056657125e50465c15533e","2","1","2025-07-23T07:06:40.851Z","","","","","","","","","","","AttribQ","","50","","","","","","","","","","","","","","","","","","","","","","","","","","","","",""
"9236","","<div style=""width:500px;"">
  <p>How much control did you have over the ball?</p>
  </div>","7","html-slider-response","56","777230","0.0-5.0-2.9","165","1","2025-07-23 06:53:51","1f75c3e559b7213887762d5229550c2b","95.146.241.52","Mozilla/5.0 (Windows NT 10.0; Win64; x64) AppleWebKit/537.36 (KHTML, like Gecko) Chrome/138.0.0.0 Safari/537.36","WebKit","Chrome","138.0.0.0","Windows","10.0","https://app.prolific.com/","en-US,en;q=0.9","60056657125e50465c15533e","683db9eb0562dbf637994deb","688086edb6fab804ecc9b2b4","2","1","60056657125e50465c15533e","2","1","2025-07-23T07:06:50.098Z","","","","","","","","","","","ControlQ","","50","","","","","","","","","","","","","","","","","","","","","","","","","","","","",""
"21836","","<div style=""width:500px;"">
  <p>How would you describe your current emotional state?</p>
  </div>","98","html-slider-response","57","799082","0.0-5.0-3.9","165","1","2025-07-23 06:53:51","1f75c3e559b7213887762d5229550c2b","95.146.241.52","Mozilla/5.0 (Windows NT 10.0; Win64; x64) AppleWebKit/537.36 (KHTML, like Gecko) Chrome/138.0.0.0 Safari/537.36","WebKit","Chrome","138.0.0.0","Windows","10.0","https://app.prolific.com/","en-US,en;q=0.9","60056657125e50465c15533e","683db9eb0562dbf637994deb","688086edb6fab804ecc9b2b4","2","1","60056657125e50465c15533e","2","1","2025-07-23T07:07:11.956Z","","","","","","","","","","","StressQ","","50","","","","","","","","","","","","","","","","","","","","","","","","","","","","",""
"5827","","<div style=""width:500px;"">
  <p>What best describes how you currently feel?</p>
  </div>","21","html-slider-response","58","804931","0.0-5.0-4.9","165","1","2025-07-23 06:53:51","1f75c3e559b7213887762d5229550c2b","95.146.241.52","Mozilla/5.0 (Windows NT 10.0; Win64; x64) AppleWebKit/537.36 (KHTML, like Gecko) Chrome/138.0.0.0 Safari/537.36","WebKit","Chrome","138.0.0.0","Windows","10.0","https://app.prolific.com/","en-US,en;q=0.9","60056657125e50465c15533e","683db9eb0562dbf637994deb","688086edb6fab804ecc9b2b4","2","1","60056657125e50465c15533e","2","1","2025-07-23T07:07:17.798Z","","","","","","","","","","","MotivationQ","","50","","","","","","","","","","","","","","","","","","","","","","","","","","","","",""
"","","","","ctl-task-cpt","59","901286","0.0-5.0-0.10","165","1","2025-07-23 06:53:51","1f75c3e559b7213887762d5229550c2b","95.146.241.52","Mozilla/5.0 (Windows NT 10.0; Win64; x64) AppleWebKit/537.36 (KHTML, like Gecko) Chrome/138.0.0.0 Safari/537.36","WebKit","Chrome","138.0.0.0","Windows","10.0","https://app.prolific.com/","en-US,en;q=0.9","60056657125e50465c15533e","683db9eb0562dbf637994deb","688086edb6fab804ecc9b2b4","2","1","60056657125e50465c15533e","2","1","2025-07-23T07:08:54.153Z","","","","","","","","","","","","","","win-only","1","g1:NE,g2:SW","0.5","11","0","807905.3","6925.6","11936.1","93287.1","1","4","4","6","2","-4","-4","10","14","0.07575757575757576","1134.9","3000","-1610","[""down"",""left""]","{""num_key_presses"":21,""num_perfect"":10,""num_errors"":0,""num_randdir"":11,""num_randdir_good_moves"":2,""num_whilered"":0,""num_whileblue"":0,""num_blue"":5,""num_good_moves"":12}","[410.57142857142856,414.6808016640799,3.6,410.57142857142856,414.6808016640799,110.1,410.57142857142856,414.6808016640799,214.9,410.57142857142856,414.6808016640799,325.1,410.57142857142856,414.6808016640799,430.1,410.57142857142856,414.6808016640799,531.4,410.57142857142856,414.6808016640799,633.3,176.57142857142856,632.1808016640799,744.4,86.57142857142857,761.1808016640799,856.1,86.57142857142857,761.1808016640799,966.9,86.57142857142857,761.1808016640799,1066.9,86.57142857142857,761.1808016640799,1179,86.57142857142857,761.1808016640799,1282.4,86.57142857142857,761.1808016640799,1388.6,86.57142857142857,761.1808016640799,1494.2,86.57142857142857,761.1808016640799,1605,506.57142857142856,624.6808016640799,1707.1,611.5714285714286,597.6808016640799,1817,611.5714285714286,597.6808016640799,1929.4,611.5714285714286,597.6808016640799,2031,611.5714285714286,597.6808016640799,2139,611.5714285714286,597.6808016640799,2243.1,611.5714285714286,597.6808016640799,2343.7,611.5714285714286,597.6808016640799,2445.9,611.5714285714286,597.6808016640799,2548.6,611.5714285714286,597.6808016640799,2648.9,611.5714285714286,597.6808016640799,2763.4,611.5714285714286,597.6808016640799,2864.6,611.5714285714286,597.6808016640799,2977.3,611.5714285714286,597.6808016640799,3087.3,611.5714285714286,597.6808016640799,3188.5,611.5714285714286,597.6808016640799,3297.9,611.5714285714286,597.6808016640799,3408,611.5714285714286,597.6808016640799,3519.4,611.5714285714286,597.6808016640799,3631.1,611.5714285714286,597.6808016640799,3731.8,611.5714285714286,597.6808016640799,3837.1,611.5714285714286,597.6808016640799,3944.9,611.5714285714286,597.6808016640799,4054.2,611.5714285714286,597.6808016640799,4158.6,611.5714285714286,597.6808016640799,4259.7,611.5714285714286,597.6808016640799,4364.1,611.5714285714286,597.6808016640799,4466,611.5714285714286,597.6808016640799,4571.4,611.5714285714286,597.6808016640799,4680.8,611.5714285714286,597.6808016640799,4794.8,611.5714285714286,597.6808016640799,4897.3]","[4268.2,4268.2,1838,2026,404.2,""smooth"",""down"",""down"",""good_move"",11382.8,7113.9,2464.7,8572.9,345.2,""smooth"",""down"",""down"",""good_move"",14243.6,2860.5,2426.4,11383.1,434.1,""smooth"",""down"",""down"",""good_move"",17389.3,3145.2,2695.9,14244.1,449.3,""smooth"",""left"",""left"",""good_move"",21342.5,3952.7,1938,17389.8,2014.7,""oops"",""left"",""right"",""bad_move"",24280.1,2937.2,2558,21342.9,379.2,""smooth"",""left"",""left"",""good_move"",28382.7,4102.4,2122.1,24280.3,1980.3,""oops"",""left"",""right"",""bad_move"",31263.5,2880.5,2478.4,28383,402.1,""oops"",""left"",""right"",""bad_move"",34307.5,3042,2733.5,31265.5,308.5,""oops"",""left"",""right"",""bad_move"",37447.1,3139.5,2831.3,34307.6,308.2,""oops"",""left"",""up"",""bad_move"",39869.5,2421.7,2057.7,37447.9,364,""smooth"",""left"",""left"",""good_move"",42932.4,3062.6,2744.2,39869.8,318.4,""smooth"",""left"",""left"",""good_move"",48617.9,5685.2,2032.4,46168.3,417.2,""smooth"",""left"",""left"",""good_move"",51391.4,2773.3,2331.8,48618.1,441.5,""smooth"",""left"",""left"",""good_move"",54349.1,2957.1,2572.6,51392,384.5,""smooth"",""left"",""left"",""good_move"",60049.2,5699.8,2731.5,56901.8,415.9,""oops"",""down"",""up"",""bad_move"",63261.1,3211.5,2763.6,60049.6,447.9,""oops"",""down"",""down"",""good_move"",65981,2719.7,2389.8,63261.3,329.9,""oops"",""down"",""right"",""bad_move"",68570.6,2589.3,2270.4,65981.3,318.9,""oops"",""down"",""down"",""good_move"",71961.3,3390.5,3009,68570.8,381.5,""oops"",""left"",""right"",""bad_move"",74817.7,2856.2,2531.8,71961.5,324.4,""oops"",""left"",""right"",""bad_move""]","",""
"2492","","<div style=""width:500px;"">
  <p>What determined the result of this run?</p>
  </div>","4","html-slider-response","60","903779","0.0-5.0-1.10","165","1","2025-07-23 06:53:51","1f75c3e559b7213887762d5229550c2b","95.146.241.52","Mozilla/5.0 (Windows NT 10.0; Win64; x64) AppleWebKit/537.36 (KHTML, like Gecko) Chrome/138.0.0.0 Safari/537.36","WebKit","Chrome","138.0.0.0","Windows","10.0","https://app.prolific.com/","en-US,en;q=0.9","60056657125e50465c15533e","683db9eb0562dbf637994deb","688086edb6fab804ecc9b2b4","2","1","60056657125e50465c15533e","2","1","2025-07-23T07:08:56.646Z","","","","","","","","","","","AttribQ","","50","","","","","","","","","","","","","","","","","","","","","","","","","","","","",""
"2044","","<div style=""width:500px;"">
  <p>How much control did you have over the ball?</p>
  </div>","3","html-slider-response","61","905824","0.0-5.0-2.10","165","1","2025-07-23 06:53:51","1f75c3e559b7213887762d5229550c2b","95.146.241.52","Mozilla/5.0 (Windows NT 10.0; Win64; x64) AppleWebKit/537.36 (KHTML, like Gecko) Chrome/138.0.0.0 Safari/537.36","WebKit","Chrome","138.0.0.0","Windows","10.0","https://app.prolific.com/","en-US,en;q=0.9","60056657125e50465c15533e","683db9eb0562dbf637994deb","688086edb6fab804ecc9b2b4","2","1","60056657125e50465c15533e","2","1","2025-07-23T07:08:58.691Z","","","","","","","","","","","ControlQ","","50","","","","","","","","","","","","","","","","","","","","","","","","","","","","",""
"1959","","<div style=""width:500px;"">
  <p>How would you describe your current emotional state?</p>
  </div>","100","html-slider-response","62","907786","0.0-5.0-3.10","165","1","2025-07-23 06:53:51","1f75c3e559b7213887762d5229550c2b","95.146.241.52","Mozilla/5.0 (Windows NT 10.0; Win64; x64) AppleWebKit/537.36 (KHTML, like Gecko) Chrome/138.0.0.0 Safari/537.36","WebKit","Chrome","138.0.0.0","Windows","10.0","https://app.prolific.com/","en-US,en;q=0.9","60056657125e50465c15533e","683db9eb0562dbf637994deb","688086edb6fab804ecc9b2b4","2","1","60056657125e50465c15533e","2","1","2025-07-23T07:09:00.653Z","","","","","","","","","","","StressQ","","50","","","","","","","","","","","","","","","","","","","","","","","","","","","","",""
"3282","","<div style=""width:500px;"">
  <p>What best describes how you currently feel?</p>
  </div>","27","html-slider-response","63","911071","0.0-5.0-4.10","165","1","2025-07-23 06:53:51","1f75c3e559b7213887762d5229550c2b","95.146.241.52","Mozilla/5.0 (Windows NT 10.0; Win64; x64) AppleWebKit/537.36 (KHTML, like Gecko) Chrome/138.0.0.0 Safari/537.36","WebKit","Chrome","138.0.0.0","Windows","10.0","https://app.prolific.com/","en-US,en;q=0.9","60056657125e50465c15533e","683db9eb0562dbf637994deb","688086edb6fab804ecc9b2b4","2","1","60056657125e50465c15533e","2","1","2025-07-23T07:09:03.938Z","","","","","","","","","","","MotivationQ","","50","","","","","","","","","","","","","","","","","","","","","","","","","","","","",""
"","","","","ctl-task-cpt","64","978893","0.0-5.0-0.11","165","1","2025-07-23 06:53:51","1f75c3e559b7213887762d5229550c2b","95.146.241.52","Mozilla/5.0 (Windows NT 10.0; Win64; x64) AppleWebKit/537.36 (KHTML, like Gecko) Chrome/138.0.0.0 Safari/537.36","WebKit","Chrome","138.0.0.0","Windows","10.0","https://app.prolific.com/","en-US,en;q=0.9","60056657125e50465c15533e","683db9eb0562dbf637994deb","688086edb6fab804ecc9b2b4","2","1","60056657125e50465c15533e","2","1","2025-07-23T07:10:11.760Z","","","","","","","","","","","","","","win-only","2","g1:SE,g2:NW","0.6","12","0","914000.4","990.9","6011.4","64793","1","4","8","6","2","8","7","17","10","0.12878787878787878","1121.3","3000","740","[""left"",""up""]","{""num_key_presses"":16,""num_perfect"":9,""num_errors"":1,""num_randdir"":6,""num_randdir_good_moves"":2,""num_whilered"":0,""num_whileblue"":1,""num_blue"":5,""num_good_moves"":11}","[416.57142857142856,410.1808016640799,0.2,416.57142857142856,410.1808016640799,103.6,416.57142857142856,410.1808016640799,205.4,416.57142857142856,410.1808016640799,306.1,416.57142857142856,410.1808016640799,417.4,416.57142857142856,410.1808016640799,530.6,416.57142857142856,410.1808016640799,631.7,172.07142857142856,218.18080166407992,738.6,68.57142857142857,80.18080166407994,847,61.07142857142857,68.18080166407994,957.6,61.07142857142857,68.18080166407994,1071.4,61.07142857142857,68.18080166407994,1182.1,61.07142857142857,68.18080166407994,1298.2,61.07142857142857,68.18080166407994,1399.2,61.07142857142857,68.18080166407994,1500,493.07142857142856,173.18080166407992,1600.2,662.5714285714286,257.1808016640799,1708.6,662.5714285714286,257.1808016640799,1820.4,662.5714285714286,257.1808016640799,1927.7,662.5714285714286,257.1808016640799,2029.6,662.5714285714286,257.1808016640799,2143.3,662.5714285714286,257.1808016640799,2244.5,662.5714285714286,257.1808016640799,2346,662.5714285714286,257.1808016640799,2446.5,662.5714285714286,257.1808016640799,2548.7,662.5714285714286,257.1808016640799,2653.4,662.5714285714286,257.1808016640799,2763,662.5714285714286,257.1808016640799,2868.3,662.5714285714286,257.1808016640799,2980.4,662.5714285714286,257.1808016640799,3090,662.5714285714286,257.1808016640799,3202,662.5714285714286,257.1808016640799,3311.3,662.5714285714286,257.1808016640799,3424.5,662.5714285714286,257.1808016640799,3531.6,662.5714285714286,257.1808016640799,3640.6,662.5714285714286,257.1808016640799,3752.1,662.5714285714286,257.1808016640799,3861.9,662.5714285714286,257.1808016640799,3973,662.5714285714286,257.1808016640799,4083,662.5714285714286,257.1808016640799,4188.5,662.5714285714286,257.1808016640799,4299.7,662.5714285714286,257.1808016640799,4406.8,662.5714285714286,257.1808016640799,4511.6,662.5714285714286,257.1808016640799,4622.7,662.5714285714286,257.1808016640799,4733.8,662.5714285714286,257.1808016640799,4845.2,662.5714285714286,257.1808016640799,4954.5]","[1428.5,1428.5,1000,0,428.5,""smooth"",""left"",""left"",""good_move"",5662.3,4233.4,3164.6,1428.9,1068.8,""smooth"",""left"",""left"",""good_move"",8824,3161.5,2673.4,5662.5,488.1,""smooth"",""up"",""up"",""good_move"",11346.1,2521.8,2205.1,8824.3,316.7,""smooth"",""up"",""up"",""good_move"",20849.4,9503,1321.1,19126,402.3,""smooth"",""up"",""up"",""good_move"",24296,3446.5,3121.3,20849.6,325.2,""oops"",""left"",""down"",""bad_move"",27457.6,3161.2,2888.8,24296.4,272.4,""while_blue"",""left"",""right"",""bad_move"",30338,2880,2395,27458,485,""smooth"",""left"",""left"",""good_move"",33079.9,2741.6,2391.8,30338.3,349.8,""oops"",""left"",""right"",""bad_move"",35724,2644,2321.6,33080.1,322.4,""oops"",""left"",""down"",""bad_move"",38032.6,2307.2,2006.6,35725.4,300.6,""oops"",""up"",""down"",""bad_move"",41349.9,3317.1,3027.3,38032.8,289.8,""smooth"",""up"",""up"",""good_move"",43767.7,2417.6,2061.8,41350.2,355.8,""oops"",""up"",""up"",""good_move"",46958.9,3190.2,2845.9,43768.7,344.3,""smooth"",""up"",""up"",""good_move"",56221.2,9262.1,1768.4,54047.2,405.6,""smooth"",""left"",""left"",""good_move"",58599.4,2378,1833.4,56221.5,544.6,""oops"",""left"",""left"",""good_move""]","",""
"2386","","<div style=""width:500px;"">
  <p>What determined the result of this run?</p>
  </div>","6","html-slider-response","65","981281","0.0-5.0-1.11","165","1","2025-07-23 06:53:51","1f75c3e559b7213887762d5229550c2b","95.146.241.52","Mozilla/5.0 (Windows NT 10.0; Win64; x64) AppleWebKit/537.36 (KHTML, like Gecko) Chrome/138.0.0.0 Safari/537.36","WebKit","Chrome","138.0.0.0","Windows","10.0","https://app.prolific.com/","en-US,en;q=0.9","60056657125e50465c15533e","683db9eb0562dbf637994deb","688086edb6fab804ecc9b2b4","2","1","60056657125e50465c15533e","2","1","2025-07-23T07:10:14.148Z","","","","","","","","","","","AttribQ","","50","","","","","","","","","","","","","","","","","","","","","","","","","","","","",""
"2568","","<div style=""width:500px;"">
  <p>How much control did you have over the ball?</p>
  </div>","6","html-slider-response","66","983850","0.0-5.0-2.11","165","1","2025-07-23 06:53:51","1f75c3e559b7213887762d5229550c2b","95.146.241.52","Mozilla/5.0 (Windows NT 10.0; Win64; x64) AppleWebKit/537.36 (KHTML, like Gecko) Chrome/138.0.0.0 Safari/537.36","WebKit","Chrome","138.0.0.0","Windows","10.0","https://app.prolific.com/","en-US,en;q=0.9","60056657125e50465c15533e","683db9eb0562dbf637994deb","688086edb6fab804ecc9b2b4","2","1","60056657125e50465c15533e","2","1","2025-07-23T07:10:16.717Z","","","","","","","","","","","ControlQ","","50","","","","","","","","","","","","","","","","","","","","","","","","","","","","",""
"2672","","<div style=""width:500px;"">
  <p>How would you describe your current emotional state?</p>
  </div>","100","html-slider-response","67","986523","0.0-5.0-3.11","165","1","2025-07-23 06:53:51","1f75c3e559b7213887762d5229550c2b","95.146.241.52","Mozilla/5.0 (Windows NT 10.0; Win64; x64) AppleWebKit/537.36 (KHTML, like Gecko) Chrome/138.0.0.0 Safari/537.36","WebKit","Chrome","138.0.0.0","Windows","10.0","https://app.prolific.com/","en-US,en;q=0.9","60056657125e50465c15533e","683db9eb0562dbf637994deb","688086edb6fab804ecc9b2b4","2","1","60056657125e50465c15533e","2","1","2025-07-23T07:10:19.390Z","","","","","","","","","","","StressQ","","50","","","","","","","","","","","","","","","","","","","","","","","","","","","","",""
"2820","","<div style=""width:500px;"">
  <p>What best describes how you currently feel?</p>
  </div>","24","html-slider-response","68","989345","0.0-5.0-4.11","165","1","2025-07-23 06:53:51","1f75c3e559b7213887762d5229550c2b","95.146.241.52","Mozilla/5.0 (Windows NT 10.0; Win64; x64) AppleWebKit/537.36 (KHTML, like Gecko) Chrome/138.0.0.0 Safari/537.36","WebKit","Chrome","138.0.0.0","Windows","10.0","https://app.prolific.com/","en-US,en;q=0.9","60056657125e50465c15533e","683db9eb0562dbf637994deb","688086edb6fab804ecc9b2b4","2","1","60056657125e50465c15533e","2","1","2025-07-23T07:10:22.212Z","","","","","","","","","","","MotivationQ","","50","","","","","","","","","","","","","","","","","","","","","","","","","","","","",""
"","","","","ctl-task-cpt","69","1054756","0.0-5.0-0.12","165","1","2025-07-23 06:53:51","1f75c3e559b7213887762d5229550c2b","95.146.241.52","Mozilla/5.0 (Windows NT 10.0; Win64; x64) AppleWebKit/537.36 (KHTML, like Gecko) Chrome/138.0.0.0 Safari/537.36","WebKit","Chrome","138.0.0.0","Windows","10.0","https://app.prolific.com/","en-US,en;q=0.9","60056657125e50465c15533e","683db9eb0562dbf637994deb","688086edb6fab804ecc9b2b4","2","1","60056657125e50465c15533e","2","1","2025-07-23T07:11:27.623Z","","","","","","","","","","","","","","win-only","3","g1:SW,g2:NE","0.7","13","0","992274.4","942.1","5949.8","62392.7","1","4","4","6","2","4","4","21","17","0.1590909090909091","1325.8","3000","915","[""up"",""right""]","{""num_key_presses"":16,""num_perfect"":11,""num_errors"":0,""num_randdir"":5,""num_randdir_good_moves"":0,""num_whilered"":0,""num_whileblue"":0,""num_blue"":2,""num_good_moves"":11}","[416.57142857142856,410.1808016640799,0.2,416.57142857142856,410.1808016640799,111.2,416.57142857142856,410.1808016640799,223.7,416.57142857142856,410.1808016640799,342.8,497.57142857142856,314.1808016640799,469.7,764.5714285714286,62.18080166407994,578.7,869.5714285714286,2.1808016640799366,691.8,878.5714285714286,-0.8191983359200634,794.2,878.5714285714286,-0.8191983359200634,907.1,878.5714285714286,-0.8191983359200634,1024.3,796.0714285714286,66.68080166407994,1136.2,796.0714285714286,66.68080166407994,1250.3,796.0714285714286,66.68080166407994,1368.5,796.0714285714286,66.68080166407994,1473.5,796.0714285714286,66.68080166407994,1575.6,796.0714285714286,66.68080166407994,1692.1,796.0714285714286,66.68080166407994,1808.4,938.5714285714286,150.68080166407992,1922.6,1003.0714285714286,209.18080166407992,2029.6,1003.0714285714286,209.18080166407992,2135.6,1003.0714285714286,209.18080166407992,2241.4,1003.0714285714286,209.18080166407992,2344.5,1003.0714285714286,209.18080166407992,2461.1,1003.0714285714286,209.18080166407992,2575.9,1003.0714285714286,209.18080166407992,2692.8,1003.0714285714286,209.18080166407992,2793.2,1003.0714285714286,209.18080166407992,2909.4,1003.0714285714286,209.18080166407992,3024.4,1003.0714285714286,209.18080166407992,3128.2,1003.0714285714286,209.18080166407992,3228.5,1003.0714285714286,209.18080166407992,3343.3,1003.0714285714286,209.18080166407992,3444.1,1003.0714285714286,209.18080166407992,3558,1003.0714285714286,209.18080166407992,3659.4,1003.0714285714286,209.18080166407992,3760.7,1003.0714285714286,209.18080166407992,3880.1,1003.0714285714286,209.18080166407992,3980.5,1003.0714285714286,209.18080166407992,4088.4,1003.0714285714286,209.18080166407992,4190,1003.0714285714286,209.18080166407992,4305.9,1003.0714285714286,209.18080166407992,4406.4,1003.0714285714286,209.18080166407992,4514.8,1003.0714285714286,209.18080166407992,4617.9,1003.0714285714286,209.18080166407992,4725.9,1003.0714285714286,209.18080166407992,4835.1,1003.0714285714286,209.18080166407992,4942.8]","[5026.4,5026.4,2373.4,2025.3,627.7,""smooth"",""up"",""up"",""good_move"",8233.3,3206.6,2809.3,5026.7,397.3,""smooth"",""up"",""up"",""good_move"",11499,3265.6,2407.6,8233.4,858,""oops"",""up"",""down"",""bad_move"",13817.5,2317.4,1874.8,11500.1,442.6,""smooth"",""up"",""up"",""good_move"",17467.6,3649.9,2086.6,13817.7,1563.3,""smooth"",""up"",""up"",""good_move"",22012.3,4544.6,3344.1,17467.7,1200.5,""smooth"",""right"",""right"",""good_move"",25228,3215.5,2839.4,22012.5,376.1,""smooth"",""right"",""right"",""good_move"",28576.6,3348.4,2963.1,25228.2,385.3,""oops"",""right"",""left"",""bad_move"",31662.9,3085.6,2767.6,28577.3,318,""oops"",""right"",""left"",""bad_move"",38698.3,7035.2,2847.7,35525.7,324.9,""smooth"",""right"",""right"",""good_move"",42142.8,3444.2,2996.3,38698.6,447.9,""oops"",""right"",""down"",""bad_move"",44770.2,2626.5,2286.9,42143.7,339.6,""smooth"",""right"",""right"",""good_move"",47413.7,2643.4,2267.4,44770.3,376,""oops"",""right"",""left"",""bad_move"",50564.2,3150.2,2789.5,47414.1,360.7,""smooth"",""right"",""right"",""good_move"",53337,2772.6,2363.1,50564.4,409.5,""smooth"",""right"",""right"",""good_move"",56224.4,2886.2,2531.5,53338.3,354.6,""smooth"",""up"",""up"",""good_move""]","",""
"5671","","<div style=""width:500px;"">
  <p>What determined the result of this run?</p>
  </div>","12","html-slider-response","70","1060429","0.0-5.0-1.12","165","1","2025-07-23 06:53:51","1f75c3e559b7213887762d5229550c2b","95.146.241.52","Mozilla/5.0 (Windows NT 10.0; Win64; x64) AppleWebKit/537.36 (KHTML, like Gecko) Chrome/138.0.0.0 Safari/537.36","WebKit","Chrome","138.0.0.0","Windows","10.0","https://app.prolific.com/","en-US,en;q=0.9","60056657125e50465c15533e","683db9eb0562dbf637994deb","688086edb6fab804ecc9b2b4","2","1","60056657125e50465c15533e","2","1","2025-07-23T07:11:33.296Z","","","","","","","","","","","AttribQ","","50","","","","","","","","","","","","","","","","","","","","","","","","","","","","",""
"4698","","<div style=""width:500px;"">
  <p>How much control did you have over the ball?</p>
  </div>","10","html-slider-response","71","1065128","0.0-5.0-2.12","165","1","2025-07-23 06:53:51","1f75c3e559b7213887762d5229550c2b","95.146.241.52","Mozilla/5.0 (Windows NT 10.0; Win64; x64) AppleWebKit/537.36 (KHTML, like Gecko) Chrome/138.0.0.0 Safari/537.36","WebKit","Chrome","138.0.0.0","Windows","10.0","https://app.prolific.com/","en-US,en;q=0.9","60056657125e50465c15533e","683db9eb0562dbf637994deb","688086edb6fab804ecc9b2b4","2","1","60056657125e50465c15533e","2","1","2025-07-23T07:11:37.995Z","","","","","","","","","","","ControlQ","","50","","","","","","","","","","","","","","","","","","","","","","","","","","","","",""
"2830","","<div style=""width:500px;"">
  <p>How would you describe your current emotional state?</p>
  </div>","96","html-slider-response","72","1067960","0.0-5.0-3.12","165","1","2025-07-23 06:53:51","1f75c3e559b7213887762d5229550c2b","95.146.241.52","Mozilla/5.0 (Windows NT 10.0; Win64; x64) AppleWebKit/537.36 (KHTML, like Gecko) Chrome/138.0.0.0 Safari/537.36","WebKit","Chrome","138.0.0.0","Windows","10.0","https://app.prolific.com/","en-US,en;q=0.9","60056657125e50465c15533e","683db9eb0562dbf637994deb","688086edb6fab804ecc9b2b4","2","1","60056657125e50465c15533e","2","1","2025-07-23T07:11:40.828Z","","","","","","","","","","","StressQ","","50","","","","","","","","","","","","","","","","","","","","","","","","","","","","",""
"2764","","<div style=""width:500px;"">
  <p>What best describes how you currently feel?</p>
  </div>","35","html-slider-response","73","1070726","0.0-5.0-4.12","165","1","2025-07-23 06:53:51","1f75c3e559b7213887762d5229550c2b","95.146.241.52","Mozilla/5.0 (Windows NT 10.0; Win64; x64) AppleWebKit/537.36 (KHTML, like Gecko) Chrome/138.0.0.0 Safari/537.36","WebKit","Chrome","138.0.0.0","Windows","10.0","https://app.prolific.com/","en-US,en;q=0.9","60056657125e50465c15533e","683db9eb0562dbf637994deb","688086edb6fab804ecc9b2b4","2","1","60056657125e50465c15533e","2","1","2025-07-23T07:11:43.594Z","","","","","","","","","","","MotivationQ","","50","","","","","","","","","","","","","","","","","","","","","","","","","","","","",""
