"rt","response_timestamp","stimulus","response","trial_type","trial_index","time_elapsed","internal_node_id","run_id","condition","recorded_at","source_code_version","ip","user_agent","device","browser","browser_version","platform","platform_version","referer","accept_language","PROLIFIC_PID","STUDY_ID","SESSION_ID","WEEK","BATCH","prolific_id","week","batch","realtime","success","responses","item_order","radio_event_ids","radio_event_times","key_event_times","mouse_event_times","straightlining","zigzagging","honeypot","eventType","view_history","slider_start","which_type","canvas_config","goals_layout","control_level","trial_number","tutorial_trial_number","trial_start_time","phase1_start_time","phase2_start_time","phase3_start_time","goal_1_value","goal_1_distance","goal_2_value","goal_2_distance","goal_selected","outcome","outcome_total","participant_final_score","participant_initial_score","participant_final_score_prop","goal_choice_rt","allocated_time","allocated_time_remaining","goal_direction","counts","mouse_movements","key_presses","question_order","question_id"
"2376","1753901710558","<p style='font-size:40px;line-height:1.25'><strong>Welcome to the experiment!</strong></p><p style='font-size:1.1em;line-height:1.25'>Thank you for participanting in our experiment again! You will be asked to play the Dysfunctional Ball Game again. We will briefly recap the rules before we start.</p><p style='font-size:1.1em;line-height:1.25'>Press <strong>Next</strong> to continue.</p>","0","custom-html-button-response","0","2379","0.0-0.0","298","1","2025-07-30 18:55:07","1f75c3e559b7213887762d5229550c2b","95.146.241.52","Mozilla/5.0 (Windows NT 10.0; Win64; x64) AppleWebKit/537.36 (KHTML, like Gecko) Chrome/138.0.0.0 Safari/537.36","WebKit","Chrome","138.0.0.0","Windows","10.0","https://app.prolific.com/","en-US,en;q=0.9","60056657125e50465c15533e","6877631c9844ddd5501205fc","688a6a7e57420af39b0990fb","3","1","60056657125e50465c15533e","3","1","2025-07-30T18:55:10.560Z","","","","","","","","","","","","","","","","","","","","","","","","","","","","","","","","","","","","","","","","","",""
"2579","","","","fullscreen","1","5979","0.0-1.0","298","1","2025-07-30 18:55:07","1f75c3e559b7213887762d5229550c2b","95.146.241.52","Mozilla/5.0 (Windows NT 10.0; Win64; x64) AppleWebKit/537.36 (KHTML, like Gecko) Chrome/138.0.0.0 Safari/537.36","WebKit","Chrome","138.0.0.0","Windows","10.0","https://app.prolific.com/","en-US,en;q=0.9","60056657125e50465c15533e","6877631c9844ddd5501205fc","688a6a7e57420af39b0990fb","3","1","60056657125e50465c15533e","3","1","","true","","","","","","","","","","","","","","","","","","","","","","","","","","","","","","","","","","","","","","","","",""
"1767","1753901715927","<p style='font-size:1.1em;line-height:1.25'>In the following, we will ask you a few questions relating to your feelings in the last 24 hours.<br></p><p style='font-size:1.1em;line-height:1.25'>Press the <strong>Next</strong> button to continue.</p>","0","custom-html-button-response","2","7748","0.0-2.0-0.0","298","1","2025-07-30 18:55:07","1f75c3e559b7213887762d5229550c2b","95.146.241.52","Mozilla/5.0 (Windows NT 10.0; Win64; x64) AppleWebKit/537.36 (KHTML, like Gecko) Chrome/138.0.0.0 Safari/537.36","WebKit","Chrome","138.0.0.0","Windows","10.0","https://app.prolific.com/","en-US,en;q=0.9","60056657125e50465c15533e","6877631c9844ddd5501205fc","688a6a7e57420af39b0990fb","3","1","60056657125e50465c15533e","3","1","2025-07-30T18:55:15.928Z","","","","","","","","","","","","","","","","","","","","","","","","","","","","","","","","","","","","","","","","","",""
"145703.40000009537","","","","survey-template","3","153672","0.0-2.0-1.0","298","1","2025-07-30 18:55:07","1f75c3e559b7213887762d5229550c2b","95.146.241.52","Mozilla/5.0 (Windows NT 10.0; Win64; x64) AppleWebKit/537.36 (KHTML, like Gecko) Chrome/138.0.0.0 Safari/537.36","WebKit","Chrome","138.0.0.0","Windows","10.0","https://app.prolific.com/","en-US,en;q=0.9","60056657125e50465c15533e","6877631c9844ddd5501205fc","688a6a7e57420af39b0990fb","3","1","60056657125e50465c15533e","3","1","2025-07-30T18:57:41.865Z","","{""Q01"":""4"",""Q02"":""5"",""Q03"":""5"",""Q04"":""5"",""Q05"":""3"",""Q06"":""4"",""Q07"":""4"",""Q08"":""1"",""Q09"":""4"",""Q10"":""5"",""Q11"":""5"",""Q12"":""1"",""Q13"":""5"",""Q14"":""1"",""Q15"":""4"",""Q16"":""4"",""Q17"":""5"",""Q18"":""4"",""Q19"":""4"",""Q20"":""4"",""Q21"":""4"",""Q22"":""3""}","[0,1,2,3,4,5,6,7,8,9,10,11,12,13,14,15,16,17,18,19,20,21]","[""Q01"",""Q02"",""Q03"",""Q04"",""Q05"",""Q06"",""Q07"",""Q07"",""Q08"",""Q09"",""Q10"",""Q11"",""Q12"",""Q13"",""Q14"",""Q15"",""Q16"",""Q17"",""Q18"",""Q19"",""Q20"",""Q21"",""Q22"",""Q22""]","[15555,18296.5,19749.400000095367,22171.600000023842,24470.100000023842,25909,65464.800000071526,65892.40000009537,73560.10000002384,75192.30000007153,76506.90000009537,78084.20000004768,79483.30000007153,80728.70000004768,85122.70000004768,87558.5,124103.10000002384,125797.40000009537,129766,132064.40000009537,135092.60000002384,137004.40000009537,142861.5,144541.5]","[]","[2.700000047683716,15555,18296.5,19749.400000095367,20850.700000047684,22171.600000023842,24470.100000023842,25909,65464.800000071526,65892.40000009537,73560.10000002384,75192.30000007153,76506.90000009537,78084.20000004768,79483.30000007153,80728.70000004768,82105.40000009537,85122.70000004768,87558.5,124103.10000002384,125797.40000009537,127306.5,129766,132064.40000009537,135092.60000002384,137004.40000009537,142861.5,144541.5,145486.10000002384]","0.45454545454545453","0.2857142857142857","0","drsp","","","","","","","","","","","","","","","","","","","","","","","","","","","","","","",""
"35963.300000071526","","","","survey-template","4","189765","0.0-2.0-2.0","298","1","2025-07-30 18:55:07","1f75c3e559b7213887762d5229550c2b","95.146.241.52","Mozilla/5.0 (Windows NT 10.0; Win64; x64) AppleWebKit/537.36 (KHTML, like Gecko) Chrome/138.0.0.0 Safari/537.36","WebKit","Chrome","138.0.0.0","Windows","10.0","https://app.prolific.com/","en-US,en;q=0.9","60056657125e50465c15533e","6877631c9844ddd5501205fc","688a6a7e57420af39b0990fb","3","1","60056657125e50465c15533e","3","1","2025-07-30T18:58:17.945Z","","{""Q01"":""5"",""Q02"":""5"",""Q03"":""0""}","[0,1,2]","[""Q01"",""Q02"",""Q03""]","[31362.5,32581,34856.200000047684]","[]","[31362.5,32581,34856.200000047684,35962.39999997616]","0.6666666666666666","0.5","0","stress","","","","","","","","","","","","","","","","","","","","","","","","","","","","","","",""
"2608","","","","instructions","5","192377","0.0-3.0-0.0","298","1","2025-07-30 18:55:07","1f75c3e559b7213887762d5229550c2b","95.146.241.52","Mozilla/5.0 (Windows NT 10.0; Win64; x64) AppleWebKit/537.36 (KHTML, like Gecko) Chrome/138.0.0.0 Safari/537.36","WebKit","Chrome","138.0.0.0","Windows","10.0","https://app.prolific.com/","en-US,en;q=0.9","60056657125e50465c15533e","6877631c9844ddd5501205fc","688a6a7e57420af39b0990fb","3","1","60056657125e50465c15533e","3","1","","","","","","","","","","","","","[{""page_index"":0,""viewing_time"":2606}]","","","","","","","","","","","","","","","","","","","","","","","","","","","","","",""
"3778","","<p>Before you start with this game please answer the following three questions yourself. </p>
  <p>Through this game, we measure several aspects of your cognitive performance, such as reaction times, multi-tasking capabilities </p>
  <p>and the ability to assess the situation you are in.</p>
  <p></p>
  <p><b>How good do you usually are in such tasks?</b></p>","59","html-slider-response","6","196172","0.0-4.0-0.0","298","1","2025-07-30 18:55:07","1f75c3e559b7213887762d5229550c2b","95.146.241.52","Mozilla/5.0 (Windows NT 10.0; Win64; x64) AppleWebKit/537.36 (KHTML, like Gecko) Chrome/138.0.0.0 Safari/537.36","WebKit","Chrome","138.0.0.0","Windows","10.0","https://app.prolific.com/","en-US,en;q=0.9","60056657125e50465c15533e","6877631c9844ddd5501205fc","688a6a7e57420af39b0990fb","3","1","60056657125e50465c15533e","3","1","2025-07-30T18:58:24.353Z","","","","","","","","","","","PreSkillQ","","50","","","","","","","","","","","","","","","","","","","","","","","","","","","","",""
"2226","","<div style=""width:500px;"">
  <p>How well do you think you will perform in this task compared to other participants?</p>
  </div>","32","html-slider-response","7","198401","0.0-4.0-1.0","298","1","2025-07-30 18:55:07","1f75c3e559b7213887762d5229550c2b","95.146.241.52","Mozilla/5.0 (Windows NT 10.0; Win64; x64) AppleWebKit/537.36 (KHTML, like Gecko) Chrome/138.0.0.0 Safari/537.36","WebKit","Chrome","138.0.0.0","Windows","10.0","https://app.prolific.com/","en-US,en;q=0.9","60056657125e50465c15533e","6877631c9844ddd5501205fc","688a6a7e57420af39b0990fb","3","1","60056657125e50465c15533e","3","1","2025-07-30T18:58:26.581Z","","","","","","","","","","","PrePerfQ","","50","","","","","","","","","","","","","","","","","","","","","","","","","","","","",""
"2864","","<div style=""width:500px;"">
  <p>What best describes how you currently feel?</p>
  </div>","16","html-slider-response","8","201267","0.0-4.0-2.0","298","1","2025-07-30 18:55:07","1f75c3e559b7213887762d5229550c2b","95.146.241.52","Mozilla/5.0 (Windows NT 10.0; Win64; x64) AppleWebKit/537.36 (KHTML, like Gecko) Chrome/138.0.0.0 Safari/537.36","WebKit","Chrome","138.0.0.0","Windows","10.0","https://app.prolific.com/","en-US,en;q=0.9","60056657125e50465c15533e","6877631c9844ddd5501205fc","688a6a7e57420af39b0990fb","3","1","60056657125e50465c15533e","3","1","2025-07-30T18:58:29.447Z","","","","","","","","","","","PreMotivationQ","","50","","","","","","","","","","","","","","","","","","","","","","","","","","","","",""
"","","","","ctl-task-cpt","9","230688","0.0-5.0-0.0","298","1","2025-07-30 18:55:07","1f75c3e559b7213887762d5229550c2b","95.146.241.52","Mozilla/5.0 (Windows NT 10.0; Win64; x64) AppleWebKit/537.36 (KHTML, like Gecko) Chrome/138.0.0.0 Safari/537.36","WebKit","Chrome","138.0.0.0","Windows","10.0","https://app.prolific.com/","en-US,en;q=0.9","60056657125e50465c15533e","6877631c9844ddd5501205fc","688a6a7e57420af39b0990fb","3","1","60056657125e50465c15533e","3","1","2025-07-30T18:58:58.869Z","","","","","","","","","","","","","","win-only","3","g1:SW,g2:NE","1","1","0","203061.1","1419.1","6422.7","26389.7","1","4","8","6","2","8","8","8","0","0.06060606060606061","1549","3000","1475","[""up"",""right""]","{""num_key_presses"":6,""num_perfect"":6,""num_errors"":0,""num_randdir"":0,""num_randdir_good_moves"":0,""num_whilered"":0,""num_whileblue"":0,""num_blue"":1,""num_good_moves"":6}","[412.07142857142856,414.6808016640799,0.9,412.07142857142856,414.6808016640799,101.6,412.07142857142856,414.6808016640799,205.8,412.07142857142856,414.6808016640799,310.6,412.07142857142856,414.6808016640799,414.3,412.07142857142856,414.6808016640799,517.6,412.07142857142856,414.6808016640799,621.5,680.5714285714286,200.18080166407992,721.7,758.5714285714286,153.68080166407992,827,764.5714285714286,150.68080166407992,928.8,764.5714285714286,150.68080166407992,1029.4,764.5714285714286,150.68080166407992,1135.4,764.5714285714286,150.68080166407992,1240.5,767.5714285714286,95.18080166407994,1341.2,767.5714285714286,95.18080166407994,1445.5,767.5714285714286,95.18080166407994,1551.7,767.5714285714286,95.18080166407994,1659.5,767.5714285714286,95.18080166407994,1763.1,767.5714285714286,95.18080166407994,1864.3,767.5714285714286,95.18080166407994,1969,1022.5714285714286,195.68080166407992,2069.7,1058.5714285714287,215.18080166407992,2178.7,1058.5714285714287,215.18080166407992,2282.8,1058.5714285714287,215.18080166407992,2391,1058.5714285714287,215.18080166407992,2494.4,1058.5714285714287,215.18080166407992,2594.4,1058.5714285714287,215.18080166407992,2694.9,1058.5714285714287,215.18080166407992,2799.8,1058.5714285714287,215.18080166407992,2909.2,1058.5714285714287,215.18080166407992,3011.8,1058.5714285714287,215.18080166407992,3120.3,1058.5714285714287,215.18080166407992,3224.9,1058.5714285714287,215.18080166407992,3326.8,1058.5714285714287,215.18080166407992,3428.2,1058.5714285714287,215.18080166407992,3528.6,1058.5714285714287,215.18080166407992,3628.6,1058.5714285714287,215.18080166407992,3729.3,1058.5714285714287,215.18080166407992,3843.9,1058.5714285714287,215.18080166407992,3948,1058.5714285714287,215.18080166407992,4048.3,1058.5714285714287,215.18080166407992,4153.4,1058.5714285714287,215.18080166407992,4256.5,1058.5714285714287,215.18080166407992,4360,1058.5714285714287,215.18080166407992,4460.7,1058.5714285714287,215.18080166407992,4578,1058.5714285714287,215.18080166407992,4681.6,1058.5714285714287,215.18080166407992,4782.3,1058.5714285714287,215.18080166407992,4883.7,1058.5714285714287,215.18080166407992,4987.1]","[3576.8,3576.8,1205.3,2010.7,360.8,""smooth"",""right"",""right"",""good_move"",7610.8,4033,3642.3,3577.9,390.7,""smooth"",""right"",""right"",""good_move"",9839.8,2228.7,1877.6,7611.1,351.1,""smooth"",""right"",""right"",""good_move"",12806.8,2966.8,2626,9840.1,340.8,""smooth"",""up"",""up"",""good_move"",16521.3,3713.8,3420.7,12807.5,293.1,""smooth"",""up"",""up"",""good_move"",19847.1,3325.5,2889.7,16521.6,435.8,""smooth"",""up"",""up"",""good_move""]","",""
"8707","","<div style=""width:500px;"">
  <p>What determined the result of this run?</p>
  </div>","74","html-slider-response","10","239407","0.0-5.0-1.0","298","1","2025-07-30 18:55:07","1f75c3e559b7213887762d5229550c2b","95.146.241.52","Mozilla/5.0 (Windows NT 10.0; Win64; x64) AppleWebKit/537.36 (KHTML, like Gecko) Chrome/138.0.0.0 Safari/537.36","WebKit","Chrome","138.0.0.0","Windows","10.0","https://app.prolific.com/","en-US,en;q=0.9","60056657125e50465c15533e","6877631c9844ddd5501205fc","688a6a7e57420af39b0990fb","3","1","60056657125e50465c15533e","3","1","2025-07-30T18:59:07.590Z","","","","","","","","","","","AttribQ","","50","","","","","","","","","","","","","","","","","","","","","","","","","","","","",""
"2566","","<div style=""width:500px;"">
  <p>How much control did you have over the ball?</p>
  </div>","73","html-slider-response","11","241983","0.0-5.0-2.0","298","1","2025-07-30 18:55:07","1f75c3e559b7213887762d5229550c2b","95.146.241.52","Mozilla/5.0 (Windows NT 10.0; Win64; x64) AppleWebKit/537.36 (KHTML, like Gecko) Chrome/138.0.0.0 Safari/537.36","WebKit","Chrome","138.0.0.0","Windows","10.0","https://app.prolific.com/","en-US,en;q=0.9","60056657125e50465c15533e","6877631c9844ddd5501205fc","688a6a7e57420af39b0990fb","3","1","60056657125e50465c15533e","3","1","2025-07-30T18:59:10.163Z","","","","","","","","","","","ControlQ","","50","","","","","","","","","","","","","","","","","","","","","","","","","","","","",""
"2612","","<div style=""width:500px;"">
  <p>How would you describe your current emotional state?</p>
  </div>","17","html-slider-response","12","244598","0.0-5.0-3.0","298","1","2025-07-30 18:55:07","1f75c3e559b7213887762d5229550c2b","95.146.241.52","Mozilla/5.0 (Windows NT 10.0; Win64; x64) AppleWebKit/537.36 (KHTML, like Gecko) Chrome/138.0.0.0 Safari/537.36","WebKit","Chrome","138.0.0.0","Windows","10.0","https://app.prolific.com/","en-US,en;q=0.9","60056657125e50465c15533e","6877631c9844ddd5501205fc","688a6a7e57420af39b0990fb","3","1","60056657125e50465c15533e","3","1","2025-07-30T18:59:12.778Z","","","","","","","","","","","StressQ","","50","","","","","","","","","","","","","","","","","","","","","","","","","","","","",""
"2204","","<div style=""width:500px;"">
  <p>What best describes how you currently feel?</p>
  </div>","26","html-slider-response","13","246805","0.0-5.0-4.0","298","1","2025-07-30 18:55:07","1f75c3e559b7213887762d5229550c2b","95.146.241.52","Mozilla/5.0 (Windows NT 10.0; Win64; x64) AppleWebKit/537.36 (KHTML, like Gecko) Chrome/138.0.0.0 Safari/537.36","WebKit","Chrome","138.0.0.0","Windows","10.0","https://app.prolific.com/","en-US,en;q=0.9","60056657125e50465c15533e","6877631c9844ddd5501205fc","688a6a7e57420af39b0990fb","3","1","60056657125e50465c15533e","3","1","2025-07-30T18:59:14.985Z","","","","","","","","","","","MotivationQ","","50","","","","","","","","","","","","","","","","","","","","","","","","","","","","",""
"","","","","ctl-task-cpt","14","278571","0.0-5.0-0.1","298","1","2025-07-30 18:55:07","1f75c3e559b7213887762d5229550c2b","95.146.241.52","Mozilla/5.0 (Windows NT 10.0; Win64; x64) AppleWebKit/537.36 (KHTML, like Gecko) Chrome/138.0.0.0 Safari/537.36","WebKit","Chrome","138.0.0.0","Windows","10.0","https://app.prolific.com/","en-US,en;q=0.9","60056657125e50465c15533e","6877631c9844ddd5501205fc","688a6a7e57420af39b0990fb","3","1","60056657125e50465c15533e","3","1","2025-07-30T18:59:46.752Z","","","","","","","","","","","","","","win-only","3","g1:SW,g2:NE","0.9","2","0","248600.2","849.8","5853.2","28722.6","1","4","4","6","2","4","3","11","8","0.08333333333333333","919.5","3000","1335","[""up"",""right""]","{""num_key_presses"":8,""num_perfect"":6,""num_errors"":1,""num_randdir"":1,""num_randdir_good_moves"":0,""num_whilered"":0,""num_whileblue"":1,""num_blue"":1,""num_good_moves"":7}","[403.07142857142856,419.1808016640799,0.3,403.07142857142856,419.1808016640799,108.3,403.07142857142856,419.1808016640799,211.4,403.07142857142856,419.1808016640799,318.1,403.07142857142856,419.1808016640799,420.2,403.07142857142856,419.1808016640799,533.9,737.5714285714286,131.18080166407992,634.7,760.0714285714286,116.18080166407994,734.9,760.0714285714286,116.18080166407994,842.4,760.0714285714286,116.18080166407994,948,760.0714285714286,116.18080166407994,1055.9,760.0714285714286,116.18080166407994,1157.4,760.0714285714286,116.18080166407994,1262.5,760.0714285714286,116.18080166407994,1368.2,758.5714285714286,140.18080166407992,1471.8,842.5714285714286,452.1808016640799,1573.1,898.0714285714286,527.1808016640799,1676.6,898.0714285714286,527.1808016640799,1783.9,898.0714285714286,527.1808016640799,1886.1,898.0714285714286,527.1808016640799,1986.5,898.0714285714286,527.1808016640799,2086.6,898.0714285714286,527.1808016640799,2193.6,898.0714285714286,527.1808016640799,2298.1,898.0714285714286,527.1808016640799,2402.4,898.0714285714286,527.1808016640799,2504.7,898.0714285714286,527.1808016640799,2613.8,898.0714285714286,527.1808016640799,2716.7,898.0714285714286,527.1808016640799,2817.4,898.0714285714286,527.1808016640799,2918,898.0714285714286,527.1808016640799,3022.3,898.0714285714286,527.1808016640799,3123.6,898.0714285714286,527.1808016640799,3226.7,898.0714285714286,527.1808016640799,3326.8,898.0714285714286,527.1808016640799,3428.4,898.0714285714286,527.1808016640799,3535.7,898.0714285714286,527.1808016640799,3638.2,898.0714285714286,527.1808016640799,3743,898.0714285714286,527.1808016640799,3844.8,898.0714285714286,527.1808016640799,3947.5,898.0714285714286,527.1808016640799,4047.5,898.0714285714286,527.1808016640799,4149.2,898.0714285714286,527.1808016640799,4252.1,898.0714285714286,527.1808016640799,4352.6,898.0714285714286,527.1808016640799,4452.9,898.0714285714286,527.1808016640799,4559,898.0714285714286,527.1808016640799,4665.2,898.0714285714286,527.1808016640799,4773.2,898.0714285714286,527.1808016640799,4876.6,898.0714285714286,527.1808016640799,4977.3]","[1322.6,1321.1,1000,1.5,321.1,""smooth"",""right"",""right"",""good_move"",4599.4,3275.8,2917.8,1323.7,358,""smooth"",""right"",""right"",""good_move"",7985.9,3385.6,3037.8,4600.3,347.8,""smooth"",""right"",""right"",""good_move"",10662.4,2676.2,2330.9,7986.3,345.3,""oops"",""up"",""down"",""bad_move"",13058.4,2395.1,2066.6,10663.4,328.4,""smooth"",""up"",""up"",""good_move"",16053.3,2994.5,2658.3,13058.9,336.1,""smooth"",""up"",""up"",""good_move"",19378.4,3324.8,3020,16053.6,304.8,""while_blue"",""up"",""up"",""good_move"",22735.7,3353.3,3042.5,19382.4,310.8,""smooth"",""up"",""up"",""good_move""]","",""
"12324","","<div style=""width:500px;"">
  <p>What determined the result of this run?</p>
  </div>","75","html-slider-response","15","290902","0.0-5.0-1.1","298","1","2025-07-30 18:55:07","1f75c3e559b7213887762d5229550c2b","95.146.241.52","Mozilla/5.0 (Windows NT 10.0; Win64; x64) AppleWebKit/537.36 (KHTML, like Gecko) Chrome/138.0.0.0 Safari/537.36","WebKit","Chrome","138.0.0.0","Windows","10.0","https://app.prolific.com/","en-US,en;q=0.9","60056657125e50465c15533e","6877631c9844ddd5501205fc","688a6a7e57420af39b0990fb","3","1","60056657125e50465c15533e","3","1","2025-07-30T18:59:59.082Z","","","","","","","","","","","AttribQ","","50","","","","","","","","","","","","","","","","","","","","","","","","","","","","",""
"3170","","<div style=""width:500px;"">
  <p>How much control did you have over the ball?</p>
  </div>","71","html-slider-response","16","294075","0.0-5.0-2.1","298","1","2025-07-30 18:55:07","1f75c3e559b7213887762d5229550c2b","95.146.241.52","Mozilla/5.0 (Windows NT 10.0; Win64; x64) AppleWebKit/537.36 (KHTML, like Gecko) Chrome/138.0.0.0 Safari/537.36","WebKit","Chrome","138.0.0.0","Windows","10.0","https://app.prolific.com/","en-US,en;q=0.9","60056657125e50465c15533e","6877631c9844ddd5501205fc","688a6a7e57420af39b0990fb","3","1","60056657125e50465c15533e","3","1","2025-07-30T19:00:02.255Z","","","","","","","","","","","ControlQ","","50","","","","","","","","","","","","","","","","","","","","","","","","","","","","",""
"3435","","<div style=""width:500px;"">
  <p>How would you describe your current emotional state?</p>
  </div>","22","html-slider-response","17","297512","0.0-5.0-3.1","298","1","2025-07-30 18:55:07","1f75c3e559b7213887762d5229550c2b","95.146.241.52","Mozilla/5.0 (Windows NT 10.0; Win64; x64) AppleWebKit/537.36 (KHTML, like Gecko) Chrome/138.0.0.0 Safari/537.36","WebKit","Chrome","138.0.0.0","Windows","10.0","https://app.prolific.com/","en-US,en;q=0.9","60056657125e50465c15533e","6877631c9844ddd5501205fc","688a6a7e57420af39b0990fb","3","1","60056657125e50465c15533e","3","1","2025-07-30T19:00:05.693Z","","","","","","","","","","","StressQ","","50","","","","","","","","","","","","","","","","","","","","","","","","","","","","",""
"3610","","<div style=""width:500px;"">
  <p>What best describes how you currently feel?</p>
  </div>","25","html-slider-response","18","301125","0.0-5.0-4.1","298","1","2025-07-30 18:55:07","1f75c3e559b7213887762d5229550c2b","95.146.241.52","Mozilla/5.0 (Windows NT 10.0; Win64; x64) AppleWebKit/537.36 (KHTML, like Gecko) Chrome/138.0.0.0 Safari/537.36","WebKit","Chrome","138.0.0.0","Windows","10.0","https://app.prolific.com/","en-US,en;q=0.9","60056657125e50465c15533e","6877631c9844ddd5501205fc","688a6a7e57420af39b0990fb","3","1","60056657125e50465c15533e","3","1","2025-07-30T19:00:09.305Z","","","","","","","","","","","MotivationQ","","50","","","","","","","","","","","","","","","","","","","","","","","","","","","","",""
"","","","","ctl-task-cpt","19","325555","0.0-5.0-0.2","298","1","2025-07-30 18:55:07","1f75c3e559b7213887762d5229550c2b","95.146.241.52","Mozilla/5.0 (Windows NT 10.0; Win64; x64) AppleWebKit/537.36 (KHTML, like Gecko) Chrome/138.0.0.0 Safari/537.36","WebKit","Chrome","138.0.0.0","Windows","10.0","https://app.prolific.com/","en-US,en;q=0.9","60056657125e50465c15533e","6877631c9844ddd5501205fc","688a6a7e57420af39b0990fb","3","1","60056657125e50465c15533e","3","1","2025-07-30T19:00:33.736Z","","","","","","","","","","","","","","win-only","2","g1:SE,g2:NW","0.8","3","0","302915.4","1104.8","6109","21396.9","1","4","8","6","2","8","8","19","11","0.14393939393939395","1193.4","3000","1660","[""left"",""up""]","{""num_key_presses"":6,""num_perfect"":6,""num_errors"":0,""num_randdir"":0,""num_randdir_good_moves"":0,""num_whilered"":0,""num_whileblue"":0,""num_blue"":0,""num_good_moves"":6}","[415.07142857142856,419.1808016640799,0.6,415.07142857142856,419.1808016640799,105.5,415.07142857142856,419.1808016640799,214.7,415.07142857142856,419.1808016640799,319.8,415.07142857142856,419.1808016640799,425.1,415.07142857142856,419.1808016640799,532.2,415.07142857142856,419.1808016640799,633,247.07142857142856,248.18080166407992,736.6,115.07142857142857,93.68080166407994,838.3,79.07142857142857,93.68080166407994,947.6,79.07142857142857,93.68080166407994,1048.4,79.07142857142857,93.68080166407994,1148.9,79.07142857142857,93.68080166407994,1257.4,79.07142857142857,93.68080166407994,1358.3,79.07142857142857,93.68080166407994,1459.2,79.07142857142857,93.68080166407994,1564.1,79.07142857142857,93.68080166407994,1664.8,193.07142857142856,120.68080166407994,1767.2,325.07142857142856,173.18080166407992,1882,329.57142857142856,174.68080166407992,1986.5,329.57142857142856,174.68080166407992,2088.5,329.57142857142856,174.68080166407992,2192,329.57142857142856,174.68080166407992,2297.3,329.57142857142856,174.68080166407992,2402.7,329.57142857142856,174.68080166407992,2507.4,329.57142857142856,174.68080166407992,2620,329.57142857142856,174.68080166407992,2722,329.57142857142856,174.68080166407992,2832.8,329.57142857142856,174.68080166407992,2932.9,329.57142857142856,174.68080166407992,3045.5,329.57142857142856,174.68080166407992,3148.7,329.57142857142856,174.68080166407992,3252,329.57142857142856,174.68080166407992,3352.8,329.57142857142856,174.68080166407992,3454.9,329.57142857142856,174.68080166407992,3555.1,329.57142857142856,174.68080166407992,3665.2,329.57142857142856,174.68080166407992,3769,329.57142857142856,174.68080166407992,3872.7,329.57142857142856,174.68080166407992,3979.3,329.57142857142856,174.68080166407992,4083.4,329.57142857142856,174.68080166407992,4188.5,329.57142857142856,174.68080166407992,4289.5,329.57142857142856,174.68080166407992,4390.8,329.57142857142856,174.68080166407992,4495.2,329.57142857142856,174.68080166407992,4597.7,329.57142857142856,174.68080166407992,4711.7,329.57142857142856,174.68080166407992,4819.1,329.57142857142856,174.68080166407992,4921.4]","[1327.9,1327.9,1000,0,327.9,""smooth"",""left"",""left"",""good_move"",4538.4,3209.8,2893.3,1328.6,316.5,""smooth"",""left"",""left"",""good_move"",7210.5,2671.6,2299.9,4538.9,371.7,""smooth"",""left"",""left"",""good_move"",10298.2,3087.4,2812.1,7210.8,275.3,""smooth"",""up"",""up"",""good_move"",12898,2597.8,2182.3,10300.2,415.5,""smooth"",""up"",""up"",""good_move"",15159.7,2261,1953.8,12898.7,307.2,""smooth"",""up"",""up"",""good_move""]","",""
"3235","","<div style=""width:500px;"">
  <p>What determined the result of this run?</p>
  </div>","76","html-slider-response","20","328795","0.0-5.0-1.2","298","1","2025-07-30 18:55:07","1f75c3e559b7213887762d5229550c2b","95.146.241.52","Mozilla/5.0 (Windows NT 10.0; Win64; x64) AppleWebKit/537.36 (KHTML, like Gecko) Chrome/138.0.0.0 Safari/537.36","WebKit","Chrome","138.0.0.0","Windows","10.0","https://app.prolific.com/","en-US,en;q=0.9","60056657125e50465c15533e","6877631c9844ddd5501205fc","688a6a7e57420af39b0990fb","3","1","60056657125e50465c15533e","3","1","2025-07-30T19:00:36.975Z","","","","","","","","","","","AttribQ","","50","","","","","","","","","","","","","","","","","","","","","","","","","","","","",""
"3841","","<div style=""width:500px;"">
  <p>How much control did you have over the ball?</p>
  </div>","66","html-slider-response","21","332638","0.0-5.0-2.2","298","1","2025-07-30 18:55:07","1f75c3e559b7213887762d5229550c2b","95.146.241.52","Mozilla/5.0 (Windows NT 10.0; Win64; x64) AppleWebKit/537.36 (KHTML, like Gecko) Chrome/138.0.0.0 Safari/537.36","WebKit","Chrome","138.0.0.0","Windows","10.0","https://app.prolific.com/","en-US,en;q=0.9","60056657125e50465c15533e","6877631c9844ddd5501205fc","688a6a7e57420af39b0990fb","3","1","60056657125e50465c15533e","3","1","2025-07-30T19:00:40.819Z","","","","","","","","","","","ControlQ","","50","","","","","","","","","","","","","","","","","","","","","","","","","","","","",""
"2765","","<div style=""width:500px;"">
  <p>How would you describe your current emotional state?</p>
  </div>","21","html-slider-response","22","335406","0.0-5.0-3.2","298","1","2025-07-30 18:55:07","1f75c3e559b7213887762d5229550c2b","95.146.241.52","Mozilla/5.0 (Windows NT 10.0; Win64; x64) AppleWebKit/537.36 (KHTML, like Gecko) Chrome/138.0.0.0 Safari/537.36","WebKit","Chrome","138.0.0.0","Windows","10.0","https://app.prolific.com/","en-US,en;q=0.9","60056657125e50465c15533e","6877631c9844ddd5501205fc","688a6a7e57420af39b0990fb","3","1","60056657125e50465c15533e","3","1","2025-07-30T19:00:43.586Z","","","","","","","","","","","StressQ","","50","","","","","","","","","","","","","","","","","","","","","","","","","","","","",""
"135195","","<div style=""width:500px;"">
  <p>What best describes how you currently feel?</p>
  </div>","28","html-slider-response","23","470607","0.0-5.0-4.2","298","1","2025-07-30 18:55:07","1f75c3e559b7213887762d5229550c2b","95.146.241.52","Mozilla/5.0 (Windows NT 10.0; Win64; x64) AppleWebKit/537.36 (KHTML, like Gecko) Chrome/138.0.0.0 Safari/537.36","WebKit","Chrome","138.0.0.0","Windows","10.0","https://app.prolific.com/","en-US,en;q=0.9","60056657125e50465c15533e","6877631c9844ddd5501205fc","688a6a7e57420af39b0990fb","3","1","60056657125e50465c15533e","3","1","2025-07-30T19:02:58.788Z","","","","","","","","","","","MotivationQ","","50","","","","","","","","","","","","","","","","","","","","","","","","","","","","",""
"","","","","ctl-task-cpt","24","531205","0.0-5.0-0.3","298","1","2025-07-30 18:55:07","1f75c3e559b7213887762d5229550c2b","95.146.241.52","Mozilla/5.0 (Windows NT 10.0; Win64; x64) AppleWebKit/537.36 (KHTML, like Gecko) Chrome/138.0.0.0 Safari/537.36","WebKit","Chrome","138.0.0.0","Windows","10.0","https://app.prolific.com/","en-US,en;q=0.9","60056657125e50465c15533e","6877631c9844ddd5501205fc","688a6a7e57420af39b0990fb","3","1","60056657125e50465c15533e","3","1","2025-07-30T19:03:59.385Z","","","","","","","","","","","","","","win-only","1","g1:NE,g2:SW","0.7","4","0","472432.9","14952","19952.6","57529.2","1","4","4","6","2","-4","-4","15","19","0.11363636363636363","948.8","3000","-2505","[""down"",""left""]","{""num_key_presses"":10,""num_perfect"":7,""num_errors"":0,""num_randdir"":3,""num_randdir_good_moves"":0,""num_whilered"":0,""num_whileblue"":0,""num_blue"":2,""num_good_moves"":7}","[421.07142857142856,420.6808016640799,2.7,421.07142857142856,420.6808016640799,104.1,421.07142857142856,420.6808016640799,206.2,421.07142857142856,420.6808016640799,310.8,421.07142857142856,420.6808016640799,415.3,173.57142857142856,641.1808016640799,516.3,49.07142857142857,735.6808016640799,616.8,49.07142857142857,735.6808016640799,720.3,19.07142857142857,786.6808016640799,823.6,19.07142857142857,786.6808016640799,926.4,19.07142857142857,786.6808016640799,1030.2,19.07142857142857,786.6808016640799,1134.3,19.07142857142857,786.6808016640799,1234.4,19.07142857142857,786.6808016640799,1339.3,19.07142857142857,786.6808016640799,1443.6,19.07142857142857,786.6808016640799,1547.4,19.07142857142857,786.6808016640799,1650.7,19.07142857142857,786.6808016640799,1759.3,19.07142857142857,786.6808016640799,1861,19.07142857142857,786.6808016640799,1962,19.07142857142857,786.6808016640799,2064.7,19.07142857142857,786.6808016640799,2172.6,19.07142857142857,786.6808016640799,2279.3,19.07142857142857,786.6808016640799,2382.4,19.07142857142857,786.6808016640799,2482.7,19.07142857142857,786.6808016640799,2583.9,19.07142857142857,786.6808016640799,2685.3,19.07142857142857,786.6808016640799,2791.2,19.07142857142857,786.6808016640799,2893.6,19.07142857142857,786.6808016640799,2995.6,19.07142857142857,786.6808016640799,3097.3,19.07142857142857,786.6808016640799,3200.4,19.07142857142857,786.6808016640799,3301.3,19.07142857142857,786.6808016640799,3402.5,19.07142857142857,786.6808016640799,3507.4,19.07142857142857,786.6808016640799,3609.8,19.07142857142857,786.6808016640799,3714.7,19.07142857142857,786.6808016640799,3815.7,19.07142857142857,786.6808016640799,3919.4,19.07142857142857,786.6808016640799,4029.7,19.07142857142857,786.6808016640799,4133.3,19.07142857142857,786.6808016640799,4235.1,19.07142857142857,786.6808016640799,4335.6,19.07142857142857,786.6808016640799,4435.7,19.07142857142857,786.6808016640799,4536.2,19.07142857142857,786.6808016640799,4642.5,19.07142857142857,786.6808016640799,4745.1,19.07142857142857,786.6808016640799,4854.4,19.07142857142857,786.6808016640799,4959.2]","[9632.1,9632.1,3433.1,5874.3,324.7,""smooth"",""down"",""down"",""good_move"",12257.2,2624.2,2205.4,9633,418.8,""smooth"",""down"",""down"",""good_move"",15205.8,2948.3,2642.1,12257.5,306.2,""smooth"",""down"",""down"",""good_move"",17844.3,2638.2,2318.7,15206.1,319.5,""smooth"",""left"",""left"",""good_move"",20879.3,3033.9,2652.2,17845.4,381.7,""oops"",""left"",""right"",""bad_move"",23794.5,2914.4,2568.2,20880.1,346.2,""smooth"",""left"",""left"",""good_move"",27044.4,3249.5,2827.7,23794.9,421.8,""oops"",""left"",""up"",""bad_move"",29391.5,2346.3,1934.3,27045.3,412,""smooth"",""left"",""left"",""good_move"",32491.7,3099.8,2798.8,29391.9,301,""oops"",""left"",""up"",""bad_move"",35312,2819.9,2495.4,32492.1,324.5,""smooth"",""left"",""left"",""good_move""]","",""
"5846","","<div style=""width:500px;"">
  <p>What determined the result of this run?</p>
  </div>","22","html-slider-response","25","537064","0.0-5.0-1.3","298","1","2025-07-30 18:55:07","1f75c3e559b7213887762d5229550c2b","95.146.241.52","Mozilla/5.0 (Windows NT 10.0; Win64; x64) AppleWebKit/537.36 (KHTML, like Gecko) Chrome/138.0.0.0 Safari/537.36","WebKit","Chrome","138.0.0.0","Windows","10.0","https://app.prolific.com/","en-US,en;q=0.9","60056657125e50465c15533e","6877631c9844ddd5501205fc","688a6a7e57420af39b0990fb","3","1","60056657125e50465c15533e","3","1","2025-07-30T19:04:05.245Z","","","","","","","","","","","AttribQ","","50","","","","","","","","","","","","","","","","","","","","","","","","","","","","",""
"7937","","<div style=""width:500px;"">
  <p>How much control did you have over the ball?</p>
  </div>","28","html-slider-response","26","545003","0.0-5.0-2.3","298","1","2025-07-30 18:55:07","1f75c3e559b7213887762d5229550c2b","95.146.241.52","Mozilla/5.0 (Windows NT 10.0; Win64; x64) AppleWebKit/537.36 (KHTML, like Gecko) Chrome/138.0.0.0 Safari/537.36","WebKit","Chrome","138.0.0.0","Windows","10.0","https://app.prolific.com/","en-US,en;q=0.9","60056657125e50465c15533e","6877631c9844ddd5501205fc","688a6a7e57420af39b0990fb","3","1","60056657125e50465c15533e","3","1","2025-07-30T19:04:13.184Z","","","","","","","","","","","ControlQ","","50","","","","","","","","","","","","","","","","","","","","","","","","","","","","",""
"3631","","<div style=""width:500px;"">
  <p>How would you describe your current emotional state?</p>
  </div>","18","html-slider-response","27","548637","0.0-5.0-3.3","298","1","2025-07-30 18:55:07","1f75c3e559b7213887762d5229550c2b","95.146.241.52","Mozilla/5.0 (Windows NT 10.0; Win64; x64) AppleWebKit/537.36 (KHTML, like Gecko) Chrome/138.0.0.0 Safari/537.36","WebKit","Chrome","138.0.0.0","Windows","10.0","https://app.prolific.com/","en-US,en;q=0.9","60056657125e50465c15533e","6877631c9844ddd5501205fc","688a6a7e57420af39b0990fb","3","1","60056657125e50465c15533e","3","1","2025-07-30T19:04:16.817Z","","","","","","","","","","","StressQ","","50","","","","","","","","","","","","","","","","","","","","","","","","","","","","",""
"2313","","<div style=""width:500px;"">
  <p>What best describes how you currently feel?</p>
  </div>","19","html-slider-response","28","550952","0.0-5.0-4.3","298","1","2025-07-30 18:55:07","1f75c3e559b7213887762d5229550c2b","95.146.241.52","Mozilla/5.0 (Windows NT 10.0; Win64; x64) AppleWebKit/537.36 (KHTML, like Gecko) Chrome/138.0.0.0 Safari/537.36","WebKit","Chrome","138.0.0.0","Windows","10.0","https://app.prolific.com/","en-US,en;q=0.9","60056657125e50465c15533e","6877631c9844ddd5501205fc","688a6a7e57420af39b0990fb","3","1","60056657125e50465c15533e","3","1","2025-07-30T19:04:19.132Z","","","","","","","","","","","MotivationQ","","50","","","","","","","","","","","","","","","","","","","","","","","","","","","","",""
"","","","","ctl-task-cpt","29","583607","0.0-5.0-0.4","298","1","2025-07-30 18:55:07","1f75c3e559b7213887762d5229550c2b","95.146.241.52","Mozilla/5.0 (Windows NT 10.0; Win64; x64) AppleWebKit/537.36 (KHTML, like Gecko) Chrome/138.0.0.0 Safari/537.36","WebKit","Chrome","138.0.0.0","Windows","10.0","https://app.prolific.com/","en-US,en;q=0.9","60056657125e50465c15533e","6877631c9844ddd5501205fc","688a6a7e57420af39b0990fb","3","1","60056657125e50465c15533e","3","1","2025-07-30T19:04:51.788Z","","","","","","","","","","","","","","win-only","0","g1:NW,g2:SE","0.6","5","0","552725.8","929","5931.2","29630.5","1","4","8","6","2","8","8","23","15","0.17424242424242425","987.3","3000","730","[""down"",""right""]","{""num_key_presses"":8,""num_perfect"":4,""num_errors"":0,""num_randdir"":4,""num_randdir_good_moves"":3,""num_whilered"":0,""num_whileblue"":0,""num_blue"":1,""num_good_moves"":7}","[406.07142857142856,413.1808016640799,0.5,406.07142857142856,413.1808016640799,105.2,406.07142857142856,413.1808016640799,210.1,406.07142857142856,413.1808016640799,312.1,406.07142857142856,413.1808016640799,413.1,563.5714285714286,491.1808016640799,513.9,809.5714285714286,746.1808016640799,620.2,821.5714285714286,789.6808016640799,720.3,821.5714285714286,789.6808016640799,820.4,821.5714285714286,789.6808016640799,925.1,821.5714285714286,789.6808016640799,1025.4,821.5714285714286,789.6808016640799,1125.5,821.5714285714286,789.6808016640799,1236,821.5714285714286,789.6808016640799,1340.1,821.5714285714286,789.6808016640799,1481.1,821.5714285714286,789.6808016640799,1586.9,821.5714285714286,789.6808016640799,1693.1,821.5714285714286,789.6808016640799,1793.4,821.5714285714286,789.6808016640799,1897.6,821.5714285714286,789.6808016640799,1997.7,821.5714285714286,789.6808016640799,2104.4,821.5714285714286,789.6808016640799,2208.8,821.5714285714286,789.6808016640799,2312.8,821.5714285714286,789.6808016640799,2412.9,821.5714285714286,789.6808016640799,2519.3,821.5714285714286,789.6808016640799,2620.9,821.5714285714286,789.6808016640799,2723.2,821.5714285714286,789.6808016640799,2830,821.5714285714286,789.6808016640799,2938.8,821.5714285714286,789.6808016640799,3040.9,821.5714285714286,789.6808016640799,3143.5,821.5714285714286,789.6808016640799,3244.2,821.5714285714286,789.6808016640799,3347.9,821.5714285714286,789.6808016640799,3448.8,821.5714285714286,789.6808016640799,3551.2,821.5714285714286,789.6808016640799,3655.3,821.5714285714286,789.6808016640799,3758,821.5714285714286,789.6808016640799,3858.2,821.5714285714286,789.6808016640799,3967.9,821.5714285714286,789.6808016640799,4072.9,821.5714285714286,789.6808016640799,4176.8,821.5714285714286,789.6808016640799,4276.8,821.5714285714286,789.6808016640799,4381.4,821.5714285714286,789.6808016640799,4487.3,821.5714285714286,789.6808016640799,4590.1,821.5714285714286,789.6808016640799,4690.2,821.5714285714286,789.6808016640799,4790.4,821.5714285714286,789.6808016640799,4894.7,821.5714285714286,789.6808016640799,4996.8]","[1374.7,1374.8,1000,0,374.8,""oops"",""down"",""down"",""good_move"",3644.7,2269.2,1849.6,1375.5,419.6,""oops"",""down"",""left"",""bad_move"",6727.9,3082.8,2788.6,3645.1,294.2,""oops"",""down"",""right"",""good_move"",13286.7,6558,2215.7,10596.3,474.8,""oops"",""down"",""right"",""good_move"",15571.9,2284.8,1925.3,13287.1,359.5,""smooth"",""down"",""down"",""good_move"",18332.1,2760,2410.9,15572.2,349.1,""smooth"",""down"",""down"",""good_move"",20639.3,2306.6,1867,18332.7,439.6,""smooth"",""down"",""right"",""good_move"",23563.9,2923.9,2504.3,20640,419.6,""smooth"",""right"",""right"",""good_move""]","",""
"4134","","<div style=""width:500px;"">
  <p>What determined the result of this run?</p>
  </div>","62","html-slider-response","30","587743","0.0-5.0-1.4","298","1","2025-07-30 18:55:07","1f75c3e559b7213887762d5229550c2b","95.146.241.52","Mozilla/5.0 (Windows NT 10.0; Win64; x64) AppleWebKit/537.36 (KHTML, like Gecko) Chrome/138.0.0.0 Safari/537.36","WebKit","Chrome","138.0.0.0","Windows","10.0","https://app.prolific.com/","en-US,en;q=0.9","60056657125e50465c15533e","6877631c9844ddd5501205fc","688a6a7e57420af39b0990fb","3","1","60056657125e50465c15533e","3","1","2025-07-30T19:04:55.923Z","","","","","","","","","","","AttribQ","","50","","","","","","","","","","","","","","","","","","","","","","","","","","","","",""
"3416","","<div style=""width:500px;"">
  <p>How much control did you have over the ball?</p>
  </div>","58","html-slider-response","31","591160","0.0-5.0-2.4","298","1","2025-07-30 18:55:07","1f75c3e559b7213887762d5229550c2b","95.146.241.52","Mozilla/5.0 (Windows NT 10.0; Win64; x64) AppleWebKit/537.36 (KHTML, like Gecko) Chrome/138.0.0.0 Safari/537.36","WebKit","Chrome","138.0.0.0","Windows","10.0","https://app.prolific.com/","en-US,en;q=0.9","60056657125e50465c15533e","6877631c9844ddd5501205fc","688a6a7e57420af39b0990fb","3","1","60056657125e50465c15533e","3","1","2025-07-30T19:04:59.340Z","","","","","","","","","","","ControlQ","","50","","","","","","","","","","","","","","","","","","","","","","","","","","","","",""
"1871","","<div style=""width:500px;"">
  <p>How would you describe your current emotional state?</p>
  </div>","51","html-slider-response","32","593033","0.0-5.0-3.4","298","1","2025-07-30 18:55:07","1f75c3e559b7213887762d5229550c2b","95.146.241.52","Mozilla/5.0 (Windows NT 10.0; Win64; x64) AppleWebKit/537.36 (KHTML, like Gecko) Chrome/138.0.0.0 Safari/537.36","WebKit","Chrome","138.0.0.0","Windows","10.0","https://app.prolific.com/","en-US,en;q=0.9","60056657125e50465c15533e","6877631c9844ddd5501205fc","688a6a7e57420af39b0990fb","3","1","60056657125e50465c15533e","3","1","2025-07-30T19:05:01.213Z","","","","","","","","","","","StressQ","","50","","","","","","","","","","","","","","","","","","","","","","","","","","","","",""
"1977","","<div style=""width:500px;"">
  <p>What best describes how you currently feel?</p>
  </div>","19","html-slider-response","33","595014","0.0-5.0-4.4","298","1","2025-07-30 18:55:07","1f75c3e559b7213887762d5229550c2b","95.146.241.52","Mozilla/5.0 (Windows NT 10.0; Win64; x64) AppleWebKit/537.36 (KHTML, like Gecko) Chrome/138.0.0.0 Safari/537.36","WebKit","Chrome","138.0.0.0","Windows","10.0","https://app.prolific.com/","en-US,en;q=0.9","60056657125e50465c15533e","6877631c9844ddd5501205fc","688a6a7e57420af39b0990fb","3","1","60056657125e50465c15533e","3","1","2025-07-30T19:05:03.194Z","","","","","","","","","","","MotivationQ","","50","","","","","","","","","","","","","","","","","","","","","","","","","","","","",""
"","","","","ctl-task-cpt","34","632194","0.0-5.0-0.5","298","1","2025-07-30 18:55:07","1f75c3e559b7213887762d5229550c2b","95.146.241.52","Mozilla/5.0 (Windows NT 10.0; Win64; x64) AppleWebKit/537.36 (KHTML, like Gecko) Chrome/138.0.0.0 Safari/537.36","WebKit","Chrome","138.0.0.0","Windows","10.0","https://app.prolific.com/","en-US,en;q=0.9","60056657125e50465c15533e","6877631c9844ddd5501205fc","688a6a7e57420af39b0990fb","3","1","60056657125e50465c15533e","3","1","2025-07-30T19:05:40.374Z","","","","","","","","","","","","","","win-only","2","g1:SE,g2:NW","0.5","6","0","596786.7","12228.4","17231.9","34161.9","1","4","4","6","2","4","4","27","23","0.20454545454545456","1075.6","3000","715","[""left"",""up""]","{""num_key_presses"":6,""num_perfect"":4,""num_errors"":0,""num_randdir"":2,""num_randdir_good_moves"":2,""num_whilered"":0,""num_whileblue"":0,""num_blue"":0,""num_good_moves"":6}","[407.57142857142856,419.1808016640799,0.8,407.57142857142856,419.1808016640799,104.8,407.57142857142856,419.1808016640799,206.1,407.57142857142856,419.1808016640799,309,407.57142857142856,419.1808016640799,420.2,440.57142857142856,438.6808016640799,523.6,356.57142857142856,377.1808016640799,624.9,101.57142857142857,132.68080166407992,724.9,76.07142857142857,104.18080166407994,830.4,76.07142857142857,104.18080166407994,934.4,76.07142857142857,104.18080166407994,1037.9,76.07142857142857,104.18080166407994,1140.3,76.07142857142857,104.18080166407994,1243.4,76.07142857142857,104.18080166407994,1347,76.07142857142857,104.18080166407994,1448.7,76.07142857142857,104.18080166407994,1550.3,76.07142857142857,104.18080166407994,1651.6,76.07142857142857,104.18080166407994,1754.3,76.07142857142857,104.18080166407994,1866.6,76.07142857142857,104.18080166407994,1971.3,76.07142857142857,104.18080166407994,2074.2,76.07142857142857,104.18080166407994,2182.8,76.07142857142857,104.18080166407994,2288.3,76.07142857142857,104.18080166407994,2388.6,76.07142857142857,104.18080166407994,2493.4,76.07142857142857,104.18080166407994,2601.2,76.07142857142857,104.18080166407994,2702.9,76.07142857142857,104.18080166407994,2816.3,76.07142857142857,104.18080166407994,2916.9,76.07142857142857,104.18080166407994,3016.9,76.07142857142857,104.18080166407994,3119.9,76.07142857142857,104.18080166407994,3228.6,76.07142857142857,104.18080166407994,3329.7,76.07142857142857,104.18080166407994,3430.7,76.07142857142857,104.18080166407994,3533.7,76.07142857142857,104.18080166407994,3638.9,76.07142857142857,104.18080166407994,3748.6,76.07142857142857,104.18080166407994,3852.8,76.07142857142857,104.18080166407994,3954.8,76.07142857142857,104.18080166407994,4059.9,76.07142857142857,104.18080166407994,4168.1,76.07142857142857,104.18080166407994,4273.4,76.07142857142857,104.18080166407994,4375.5,76.07142857142857,104.18080166407994,4479.2,76.07142857142857,104.18080166407994,4583,76.07142857142857,104.18080166407994,4683.3,76.07142857142857,104.18080166407994,4788.2,76.07142857142857,104.18080166407994,4888.2,76.07142857142857,104.18080166407994,4988.8]","[2362.2,2362.3,1000,0,1362.3,""oops"",""left"",""up"",""good_move"",5943.7,3581.1,3178.7,2362.6,402.4,""smooth"",""left"",""left"",""good_move"",8517.4,2573.4,2109.6,5944,463.8,""smooth"",""left"",""left"",""good_move"",11134.8,2617,2305.9,8517.8,311.1,""smooth"",""up"",""up"",""good_move"",14040.9,2906,2605,11134.9,301,""smooth"",""left"",""left"",""good_move"",16799.4,2758.3,2409,14041.1,349.3,""oops"",""up"",""up"",""good_move""]","",""
"7511","","<div style=""width:500px;"">
  <p>What determined the result of this run?</p>
  </div>","68","html-slider-response","35","639707","0.0-5.0-1.5","298","1","2025-07-30 18:55:07","1f75c3e559b7213887762d5229550c2b","95.146.241.52","Mozilla/5.0 (Windows NT 10.0; Win64; x64) AppleWebKit/537.36 (KHTML, like Gecko) Chrome/138.0.0.0 Safari/537.36","WebKit","Chrome","138.0.0.0","Windows","10.0","https://app.prolific.com/","en-US,en;q=0.9","60056657125e50465c15533e","6877631c9844ddd5501205fc","688a6a7e57420af39b0990fb","3","1","60056657125e50465c15533e","3","1","2025-07-30T19:05:47.887Z","","","","","","","","","","","AttribQ","","50","","","","","","","","","","","","","","","","","","","","","","","","","","","","",""
"2760","","<div style=""width:500px;"">
  <p>How much control did you have over the ball?</p>
  </div>","65","html-slider-response","36","642468","0.0-5.0-2.5","298","1","2025-07-30 18:55:07","1f75c3e559b7213887762d5229550c2b","95.146.241.52","Mozilla/5.0 (Windows NT 10.0; Win64; x64) AppleWebKit/537.36 (KHTML, like Gecko) Chrome/138.0.0.0 Safari/537.36","WebKit","Chrome","138.0.0.0","Windows","10.0","https://app.prolific.com/","en-US,en;q=0.9","60056657125e50465c15533e","6877631c9844ddd5501205fc","688a6a7e57420af39b0990fb","3","1","60056657125e50465c15533e","3","1","2025-07-30T19:05:50.648Z","","","","","","","","","","","ControlQ","","50","","","","","","","","","","","","","","","","","","","","","","","","","","","","",""
"1886","","<div style=""width:500px;"">
  <p>How would you describe your current emotional state?</p>
  </div>","19","html-slider-response","37","644355","0.0-5.0-3.5","298","1","2025-07-30 18:55:07","1f75c3e559b7213887762d5229550c2b","95.146.241.52","Mozilla/5.0 (Windows NT 10.0; Win64; x64) AppleWebKit/537.36 (KHTML, like Gecko) Chrome/138.0.0.0 Safari/537.36","WebKit","Chrome","138.0.0.0","Windows","10.0","https://app.prolific.com/","en-US,en;q=0.9","60056657125e50465c15533e","6877631c9844ddd5501205fc","688a6a7e57420af39b0990fb","3","1","60056657125e50465c15533e","3","1","2025-07-30T19:05:52.535Z","","","","","","","","","","","StressQ","","50","","","","","","","","","","","","","","","","","","","","","","","","","","","","",""
"1935","","<div style=""width:500px;"">
  <p>What best describes how you currently feel?</p>
  </div>","21","html-slider-response","38","646292","0.0-5.0-4.5","298","1","2025-07-30 18:55:07","1f75c3e559b7213887762d5229550c2b","95.146.241.52","Mozilla/5.0 (Windows NT 10.0; Win64; x64) AppleWebKit/537.36 (KHTML, like Gecko) Chrome/138.0.0.0 Safari/537.36","WebKit","Chrome","138.0.0.0","Windows","10.0","https://app.prolific.com/","en-US,en;q=0.9","60056657125e50465c15533e","6877631c9844ddd5501205fc","688a6a7e57420af39b0990fb","3","1","60056657125e50465c15533e","3","1","2025-07-30T19:05:54.472Z","","","","","","","","","","","MotivationQ","","50","","","","","","","","","","","","","","","","","","","","","","","","","","","","",""
"","","","","ctl-task-cpt","39","717864","0.0-5.0-0.6","298","1","2025-07-30 18:55:07","1f75c3e559b7213887762d5229550c2b","95.146.241.52","Mozilla/5.0 (Windows NT 10.0; Win64; x64) AppleWebKit/537.36 (KHTML, like Gecko) Chrome/138.0.0.0 Safari/537.36","WebKit","Chrome","138.0.0.0","Windows","10.0","https://app.prolific.com/","en-US,en;q=0.9","60056657125e50465c15533e","6877631c9844ddd5501205fc","688a6a7e57420af39b0990fb","3","1","60056657125e50465c15533e","3","1","2025-07-30T19:07:06.044Z","","","","","","","","","","","","","","win-only","1","g1:NE,g2:SW","0.4","7","0","648064.1","1160.5","6166.9","68550.4","1","4","8","6","2","-8","-9","18","27","0.13636363636363635","1511.1","3000","-2550","[""down"",""left""]","{""num_key_presses"":9,""num_perfect"":4,""num_errors"":1,""num_randdir"":4,""num_randdir_good_moves"":2,""num_whilered"":0,""num_whileblue"":1,""num_blue"":11,""num_good_moves"":6}","[413.57142857142856,410.1808016640799,0.2,413.57142857142856,410.1808016640799,106.9,413.57142857142856,410.1808016640799,209.2,413.57142857142856,410.1808016640799,314.6,413.57142857142856,410.1808016640799,416.4,155.57142857142856,575.1808016640799,522.3,91.07142857142857,641.1808016640799,623.9,91.07142857142857,641.1808016640799,728.5,91.07142857142857,641.1808016640799,829.6,85.07142857142857,707.1808016640799,929.7,92.57142857142857,749.1808016640799,1029.9,92.57142857142857,749.1808016640799,1135.6,92.57142857142857,749.1808016640799,1237.8,92.57142857142857,749.1808016640799,1343.9,92.57142857142857,749.1808016640799,1446.9,92.57142857142857,749.1808016640799,1551.6,92.57142857142857,749.1808016640799,1653.5,92.57142857142857,749.1808016640799,1758.1,92.57142857142857,749.1808016640799,1859.9,92.57142857142857,749.1808016640799,1963.2,92.57142857142857,749.1808016640799,2069.7,344.57142857142856,656.1808016640799,2175.2,598.0714285714286,572.1808016640799,2275.8,601.0714285714286,572.1808016640799,2384.4,601.0714285714286,572.1808016640799,2486.3,601.0714285714286,572.1808016640799,2587.3,601.0714285714286,572.1808016640799,2691.5,601.0714285714286,572.1808016640799,2792.1,601.0714285714286,572.1808016640799,2895,601.0714285714286,572.1808016640799,2995.7,601.0714285714286,572.1808016640799,3096.3,601.0714285714286,572.1808016640799,3202.8,601.0714285714286,572.1808016640799,3309.1,601.0714285714286,572.1808016640799,3411.8,601.0714285714286,572.1808016640799,3512.3,601.0714285714286,572.1808016640799,3616.5,601.0714285714286,572.1808016640799,3717.5,601.0714285714286,572.1808016640799,3821.3,601.0714285714286,572.1808016640799,3928.5,601.0714285714286,572.1808016640799,4036.9,601.0714285714286,572.1808016640799,4139.4,601.0714285714286,572.1808016640799,4245.5,601.0714285714286,572.1808016640799,4346.6,601.0714285714286,572.1808016640799,4446.8,601.0714285714286,572.1808016640799,4554.1,601.0714285714286,572.1808016640799,4657.6,601.0714285714286,572.1808016640799,4759.5,601.0714285714286,572.1808016640799,4861,601.0714285714286,572.1808016640799,4963.5]","[1427.7,1427.6,1000,0.1,427.7,""smooth"",""down"",""down"",""good_move"",4691,3262.5,3003.8,1428.5,258.7,""while_blue"",""down"",""up"",""bad_move"",7692.4,3000.9,2631.1,4691.5,369.8,""oops"",""down"",""right"",""bad_move"",19870.3,12177.6,2354,17096.9,419.4,""oops"",""down"",""down"",""good_move"",22609.9,2739.1,2407.6,19870.8,331.5,""smooth"",""down"",""down"",""good_move"",25608.9,2998.7,2620.5,22610.2,378.2,""oops"",""down"",""right"",""bad_move"",43872.5,18263.2,2633,40662.6,576.9,""smooth"",""down"",""down"",""good_move"",57246.8,13373.8,2786,54057.5,403.3,""smooth"",""left"",""left"",""good_move"",60117.1,2869.9,2312.4,57247.2,557.5,""oops"",""left"",""left"",""good_move""]","",""
"35611","","<div style=""width:500px;"">
  <p>What determined the result of this run?</p>
  </div>","17","html-slider-response","40","753476","0.0-5.0-1.6","298","1","2025-07-30 18:55:07","1f75c3e559b7213887762d5229550c2b","95.146.241.52","Mozilla/5.0 (Windows NT 10.0; Win64; x64) AppleWebKit/537.36 (KHTML, like Gecko) Chrome/138.0.0.0 Safari/537.36","WebKit","Chrome","138.0.0.0","Windows","10.0","https://app.prolific.com/","en-US,en;q=0.9","60056657125e50465c15533e","6877631c9844ddd5501205fc","688a6a7e57420af39b0990fb","3","1","60056657125e50465c15533e","3","1","2025-07-30T19:07:41.656Z","","","","","","","","","","","AttribQ","","50","","","","","","","","","","","","","","","","","","","","","","","","","","","","",""
"2753","","<div style=""width:500px;"">
  <p>How much control did you have over the ball?</p>
  </div>","11","html-slider-response","41","756230","0.0-5.0-2.6","298","1","2025-07-30 18:55:07","1f75c3e559b7213887762d5229550c2b","95.146.241.52","Mozilla/5.0 (Windows NT 10.0; Win64; x64) AppleWebKit/537.36 (KHTML, like Gecko) Chrome/138.0.0.0 Safari/537.36","WebKit","Chrome","138.0.0.0","Windows","10.0","https://app.prolific.com/","en-US,en;q=0.9","60056657125e50465c15533e","6877631c9844ddd5501205fc","688a6a7e57420af39b0990fb","3","1","60056657125e50465c15533e","3","1","2025-07-30T19:07:44.410Z","","","","","","","","","","","ControlQ","","50","","","","","","","","","","","","","","","","","","","","","","","","","","","","",""
"1799","","<div style=""width:500px;"">
  <p>How would you describe your current emotional state?</p>
  </div>","16","html-slider-response","42","758030","0.0-5.0-3.6","298","1","2025-07-30 18:55:07","1f75c3e559b7213887762d5229550c2b","95.146.241.52","Mozilla/5.0 (Windows NT 10.0; Win64; x64) AppleWebKit/537.36 (KHTML, like Gecko) Chrome/138.0.0.0 Safari/537.36","WebKit","Chrome","138.0.0.0","Windows","10.0","https://app.prolific.com/","en-US,en;q=0.9","60056657125e50465c15533e","6877631c9844ddd5501205fc","688a6a7e57420af39b0990fb","3","1","60056657125e50465c15533e","3","1","2025-07-30T19:07:46.210Z","","","","","","","","","","","StressQ","","50","","","","","","","","","","","","","","","","","","","","","","","","","","","","",""
"1677","","<div style=""width:500px;"">
  <p>What best describes how you currently feel?</p>
  </div>","12","html-slider-response","43","759708","0.0-5.0-4.6","298","1","2025-07-30 18:55:07","1f75c3e559b7213887762d5229550c2b","95.146.241.52","Mozilla/5.0 (Windows NT 10.0; Win64; x64) AppleWebKit/537.36 (KHTML, like Gecko) Chrome/138.0.0.0 Safari/537.36","WebKit","Chrome","138.0.0.0","Windows","10.0","https://app.prolific.com/","en-US,en;q=0.9","60056657125e50465c15533e","6877631c9844ddd5501205fc","688a6a7e57420af39b0990fb","3","1","60056657125e50465c15533e","3","1","2025-07-30T19:07:47.888Z","","","","","","","","","","","MotivationQ","","50","","","","","","","","","","","","","","","","","","","","","","","","","","","","",""
"","","","","ctl-task-cpt","44","811252","0.0-5.0-0.7","298","1","2025-07-30 18:55:07","1f75c3e559b7213887762d5229550c2b","95.146.241.52","Mozilla/5.0 (Windows NT 10.0; Win64; x64) AppleWebKit/537.36 (KHTML, like Gecko) Chrome/138.0.0.0 Safari/537.36","WebKit","Chrome","138.0.0.0","Windows","10.0","https://app.prolific.com/","en-US,en;q=0.9","60056657125e50465c15533e","6877631c9844ddd5501205fc","688a6a7e57420af39b0990fb","3","1","60056657125e50465c15533e","3","1","2025-07-30T19:08:39.432Z","","","","","","","","","","","","","","win-only","2","g1:SE,g2:NW","0.3","8","0","761480.8","827","5827.3","48534","1","4","4","6","2","-4","-4","14","18","0.10606060606060606","1562.9","3000","-2110","[""left"",""up""]","{""num_key_presses"":10,""num_perfect"":3,""num_errors"":0,""num_randdir"":7,""num_randdir_good_moves"":3,""num_whilered"":0,""num_whileblue"":0,""num_blue"":4,""num_good_moves"":6}","[412.07142857142856,407.1808016640799,0.2,412.07142857142856,407.1808016640799,102.2,412.07142857142856,407.1808016640799,204.9,412.07142857142856,407.1808016640799,312.3,412.07142857142856,407.1808016640799,412.9,412.07142857142856,407.1808016640799,519.9,412.07142857142856,407.1808016640799,621,412.07142857142856,407.1808016640799,724.3,412.07142857142856,407.1808016640799,826.9,293.57142857142856,206.18080166407992,929.4,43.07142857142857,-48.81919833592006,1037.3,14.57142857142857,-75.81919833592006,1144.3,26.57142857142857,-36.81919833592006,1244.6,62.57142857142857,35.18080166407994,1348.8,62.57142857142857,35.18080166407994,1455.5,62.57142857142857,35.18080166407994,1566,62.57142857142857,35.18080166407994,1667,62.57142857142857,35.18080166407994,1768.9,62.57142857142857,35.18080166407994,1869.1,62.57142857142857,35.18080166407994,1969.3,62.57142857142857,35.18080166407994,2070.6,62.57142857142857,35.18080166407994,2178.5,62.57142857142857,35.18080166407994,2286.9,62.57142857142857,35.18080166407994,2388.4,62.57142857142857,35.18080166407994,2490.2,62.57142857142857,35.18080166407994,2596.9,62.57142857142857,35.18080166407994,2698.1,62.57142857142857,35.18080166407994,2801.7,62.57142857142857,35.18080166407994,2904.2,62.57142857142857,35.18080166407994,3011.8,62.57142857142857,35.18080166407994,3118.8,62.57142857142857,35.18080166407994,3219.5,62.57142857142857,35.18080166407994,3327.3,62.57142857142857,35.18080166407994,3427.4,62.57142857142857,35.18080166407994,3530.3,62.57142857142857,35.18080166407994,3633.9,62.57142857142857,35.18080166407994,3734.5,62.57142857142857,35.18080166407994,3834.7,62.57142857142857,35.18080166407994,3940,62.57142857142857,35.18080166407994,4043,62.57142857142857,35.18080166407994,4143.4,62.57142857142857,35.18080166407994,4243.4,62.57142857142857,35.18080166407994,4349.8,62.57142857142857,35.18080166407994,4451.2,62.57142857142857,35.18080166407994,4554.1,62.57142857142857,35.18080166407994,4654.6,62.57142857142857,35.18080166407994,4764.8,62.57142857142857,35.18080166407994,4869.1,62.57142857142857,35.18080166407994,4979.3]","[1357.1,1357.1,1000,0,357.1,""oops"",""left"",""right"",""bad_move"",7677,6319.4,2636.3,4646,394.7,""oops"",""left"",""down"",""bad_move"",10228.1,2550.9,1960.4,7677.3,590.5,""smooth"",""left"",""left"",""good_move"",13208.5,2980,2563.3,10228.5,416.7,""oops"",""left"",""left"",""good_move"",16474.6,3265.9,2812.6,13208.7,453.3,""smooth"",""left"",""left"",""good_move"",19165,2689.8,2299.6,16475.2,390.2,""oops"",""left"",""right"",""bad_move"",21716.1,2550.7,2208.6,19165.4,342.1,""smooth"",""left"",""left"",""good_move"",24859.4,3143.2,2829.1,21716.3,314,""oops"",""left"",""up"",""good_move"",30542.6,5682.7,2231.6,27924.7,386.3,""oops"",""left"",""right"",""bad_move"",33513.9,2971,2576.2,30542.9,394.8,""oops"",""left"",""left"",""good_move""]","",""
"10045","","<div style=""width:500px;"">
  <p>What determined the result of this run?</p>
  </div>","14","html-slider-response","45","821298","0.0-5.0-1.7","298","1","2025-07-30 18:55:07","1f75c3e559b7213887762d5229550c2b","95.146.241.52","Mozilla/5.0 (Windows NT 10.0; Win64; x64) AppleWebKit/537.36 (KHTML, like Gecko) Chrome/138.0.0.0 Safari/537.36","WebKit","Chrome","138.0.0.0","Windows","10.0","https://app.prolific.com/","en-US,en;q=0.9","60056657125e50465c15533e","6877631c9844ddd5501205fc","688a6a7e57420af39b0990fb","3","1","60056657125e50465c15533e","3","1","2025-07-30T19:08:49.478Z","","","","","","","","","","","AttribQ","","50","","","","","","","","","","","","","","","","","","","","","","","","","","","","",""
"2732","","<div style=""width:500px;"">
  <p>How much control did you have over the ball?</p>
  </div>","16","html-slider-response","46","824032","0.0-5.0-2.7","298","1","2025-07-30 18:55:07","1f75c3e559b7213887762d5229550c2b","95.146.241.52","Mozilla/5.0 (Windows NT 10.0; Win64; x64) AppleWebKit/537.36 (KHTML, like Gecko) Chrome/138.0.0.0 Safari/537.36","WebKit","Chrome","138.0.0.0","Windows","10.0","https://app.prolific.com/","en-US,en;q=0.9","60056657125e50465c15533e","6877631c9844ddd5501205fc","688a6a7e57420af39b0990fb","3","1","60056657125e50465c15533e","3","1","2025-07-30T19:08:52.212Z","","","","","","","","","","","ControlQ","","50","","","","","","","","","","","","","","","","","","","","","","","","","","","","",""
"2234","","<div style=""width:500px;"">
  <p>How would you describe your current emotional state?</p>
  </div>","16","html-slider-response","47","826266","0.0-5.0-3.7","298","1","2025-07-30 18:55:07","1f75c3e559b7213887762d5229550c2b","95.146.241.52","Mozilla/5.0 (Windows NT 10.0; Win64; x64) AppleWebKit/537.36 (KHTML, like Gecko) Chrome/138.0.0.0 Safari/537.36","WebKit","Chrome","138.0.0.0","Windows","10.0","https://app.prolific.com/","en-US,en;q=0.9","60056657125e50465c15533e","6877631c9844ddd5501205fc","688a6a7e57420af39b0990fb","3","1","60056657125e50465c15533e","3","1","2025-07-30T19:08:54.446Z","","","","","","","","","","","StressQ","","50","","","","","","","","","","","","","","","","","","","","","","","","","","","","",""
"1946","","<div style=""width:500px;"">
  <p>What best describes how you currently feel?</p>
  </div>","18","html-slider-response","48","828213","0.0-5.0-4.7","298","1","2025-07-30 18:55:07","1f75c3e559b7213887762d5229550c2b","95.146.241.52","Mozilla/5.0 (Windows NT 10.0; Win64; x64) AppleWebKit/537.36 (KHTML, like Gecko) Chrome/138.0.0.0 Safari/537.36","WebKit","Chrome","138.0.0.0","Windows","10.0","https://app.prolific.com/","en-US,en;q=0.9","60056657125e50465c15533e","6877631c9844ddd5501205fc","688a6a7e57420af39b0990fb","3","1","60056657125e50465c15533e","3","1","2025-07-30T19:08:56.394Z","","","","","","","","","","","MotivationQ","","50","","","","","","","","","","","","","","","","","","","","","","","","","","","","",""
"","","","","ctl-task-cpt","49","850453","0.0-5.0-0.8","298","1","2025-07-30 18:55:07","1f75c3e559b7213887762d5229550c2b","95.146.241.52","Mozilla/5.0 (Windows NT 10.0; Win64; x64) AppleWebKit/537.36 (KHTML, like Gecko) Chrome/138.0.0.0 Safari/537.36","WebKit","Chrome","138.0.0.0","Windows","10.0","https://app.prolific.com/","en-US,en;q=0.9","60056657125e50465c15533e","6877631c9844ddd5501205fc","688a6a7e57420af39b0990fb","3","1","60056657125e50465c15533e","3","1","2025-07-30T19:09:18.633Z","","","","","","","","","","","","","","win-only","0","g1:NW,g2:SE","0.2","9","0","829984.5","998.1","5999.9","19215.1","1","4","4","6","2","-4","-4","10","14","0.07575757575757576","1508.9","3000","-1970","[""down"",""right""]","{""num_key_presses"":2,""num_perfect"":0,""num_errors"":0,""num_randdir"":2,""num_randdir_good_moves"":1,""num_whilered"":0,""num_whileblue"":0,""num_blue"":1,""num_good_moves"":1}","[410.57142857142856,416.1808016640799,0.2,410.57142857142856,416.1808016640799,105.3,410.57142857142856,416.1808016640799,207.5,410.57142857142856,416.1808016640799,309.3,502.07142857142856,470.1808016640799,422,811.0714285714286,701.1808016640799,525.2,835.0714285714286,750.6808016640799,631.2,835.0714285714286,750.6808016640799,738.9,835.0714285714286,750.6808016640799,846.6,835.0714285714286,750.6808016640799,948.6,835.0714285714286,750.6808016640799,1052.7,835.0714285714286,750.6808016640799,1158,818.5714285714286,750.6808016640799,1262.7,791.5714285714286,752.1808016640799,1370.8,791.5714285714286,752.1808016640799,1471.2,791.5714285714286,752.1808016640799,1573.8,791.5714285714286,752.1808016640799,1675.4,791.5714285714286,752.1808016640799,1779.1,791.5714285714286,752.1808016640799,1883.2,791.5714285714286,752.1808016640799,1987.3,791.5714285714286,752.1808016640799,2090.3,791.5714285714286,752.1808016640799,2191.1,791.5714285714286,752.1808016640799,2297.2,791.5714285714286,752.1808016640799,2402.7,791.5714285714286,752.1808016640799,2505.9,791.5714285714286,752.1808016640799,2612.7,791.5714285714286,752.1808016640799,2720,791.5714285714286,752.1808016640799,2820,791.5714285714286,752.1808016640799,2921.3,791.5714285714286,752.1808016640799,3021.5,791.5714285714286,752.1808016640799,3124,791.5714285714286,752.1808016640799,3226.2,791.5714285714286,752.1808016640799,3327.4,791.5714285714286,752.1808016640799,3427.8,791.5714285714286,752.1808016640799,3536.2,791.5714285714286,752.1808016640799,3640.4,791.5714285714286,752.1808016640799,3751.9,791.5714285714286,752.1808016640799,3854.3,791.5714285714286,752.1808016640799,3961.8,791.5714285714286,752.1808016640799,4063.9,791.5714285714286,752.1808016640799,4168.8,791.5714285714286,752.1808016640799,4273.1,791.5714285714286,752.1808016640799,4373.1,791.5714285714286,752.1808016640799,4484.8,791.5714285714286,752.1808016640799,4589,791.5714285714286,752.1808016640799,4689.9,791.5714285714286,752.1808016640799,4793.9,791.5714285714286,752.1808016640799,4902.7]","[3905.6,3905.6,1000,0,2905.6,""oops"",""right"",""down"",""good_move"",10322.8,6416.8,2708.7,6985.2,628.9,""oops"",""right"",""up"",""bad_move""]","",""
"4854","","<div style=""width:500px;"">
  <p>What determined the result of this run?</p>
  </div>","13","html-slider-response","50","855308","0.0-5.0-1.8","298","1","2025-07-30 18:55:07","1f75c3e559b7213887762d5229550c2b","95.146.241.52","Mozilla/5.0 (Windows NT 10.0; Win64; x64) AppleWebKit/537.36 (KHTML, like Gecko) Chrome/138.0.0.0 Safari/537.36","WebKit","Chrome","138.0.0.0","Windows","10.0","https://app.prolific.com/","en-US,en;q=0.9","60056657125e50465c15533e","6877631c9844ddd5501205fc","688a6a7e57420af39b0990fb","3","1","60056657125e50465c15533e","3","1","2025-07-30T19:09:23.488Z","","","","","","","","","","","AttribQ","","50","","","","","","","","","","","","","","","","","","","","","","","","","","","","",""
"2244","","<div style=""width:500px;"">
  <p>How much control did you have over the ball?</p>
  </div>","9","html-slider-response","51","857553","0.0-5.0-2.8","298","1","2025-07-30 18:55:07","1f75c3e559b7213887762d5229550c2b","95.146.241.52","Mozilla/5.0 (Windows NT 10.0; Win64; x64) AppleWebKit/537.36 (KHTML, like Gecko) Chrome/138.0.0.0 Safari/537.36","WebKit","Chrome","138.0.0.0","Windows","10.0","https://app.prolific.com/","en-US,en;q=0.9","60056657125e50465c15533e","6877631c9844ddd5501205fc","688a6a7e57420af39b0990fb","3","1","60056657125e50465c15533e","3","1","2025-07-30T19:09:25.733Z","","","","","","","","","","","ControlQ","","50","","","","","","","","","","","","","","","","","","","","","","","","","","","","",""
"2069","","<div style=""width:500px;"">
  <p>How would you describe your current emotional state?</p>
  </div>","10","html-slider-response","52","859624","0.0-5.0-3.8","298","1","2025-07-30 18:55:07","1f75c3e559b7213887762d5229550c2b","95.146.241.52","Mozilla/5.0 (Windows NT 10.0; Win64; x64) AppleWebKit/537.36 (KHTML, like Gecko) Chrome/138.0.0.0 Safari/537.36","WebKit","Chrome","138.0.0.0","Windows","10.0","https://app.prolific.com/","en-US,en;q=0.9","60056657125e50465c15533e","6877631c9844ddd5501205fc","688a6a7e57420af39b0990fb","3","1","60056657125e50465c15533e","3","1","2025-07-30T19:09:27.804Z","","","","","","","","","","","StressQ","","50","","","","","","","","","","","","","","","","","","","","","","","","","","","","",""
"4082","","<div style=""width:500px;"">
  <p>What best describes how you currently feel?</p>
  </div>","11","html-slider-response","53","863707","0.0-5.0-4.8","298","1","2025-07-30 18:55:07","1f75c3e559b7213887762d5229550c2b","95.146.241.52","Mozilla/5.0 (Windows NT 10.0; Win64; x64) AppleWebKit/537.36 (KHTML, like Gecko) Chrome/138.0.0.0 Safari/537.36","WebKit","Chrome","138.0.0.0","Windows","10.0","https://app.prolific.com/","en-US,en;q=0.9","60056657125e50465c15533e","6877631c9844ddd5501205fc","688a6a7e57420af39b0990fb","3","1","60056657125e50465c15533e","3","1","2025-07-30T19:09:31.887Z","","","","","","","","","","","MotivationQ","","50","","","","","","","","","","","","","","","","","","","","","","","","","","","","",""
"","","","","ctl-task-cpt","54","926533","0.0-5.0-0.9","298","1","2025-07-30 18:55:07","1f75c3e559b7213887762d5229550c2b","95.146.241.52","Mozilla/5.0 (Windows NT 10.0; Win64; x64) AppleWebKit/537.36 (KHTML, like Gecko) Chrome/138.0.0.0 Safari/537.36","WebKit","Chrome","138.0.0.0","Windows","10.0","https://app.prolific.com/","en-US,en;q=0.9","60056657125e50465c15533e","6877631c9844ddd5501205fc","688a6a7e57420af39b0990fb","3","1","60056657125e50465c15533e","3","1","2025-07-30T19:10:34.713Z","","","","","","","","","","","","","","win-only","1","g1:NE,g2:SW","0.4","10","0","865478.2","2185","7189.2","59798.4","1","4","8","6","2","8","8","18","10","0.13636363636363635","1269.6","3000","50","[""down"",""left""]","{""num_key_presses"":18,""num_perfect"":8,""num_errors"":0,""num_randdir"":10,""num_randdir_good_moves"":4,""num_whilered"":0,""num_whileblue"":0,""num_blue"":1,""num_good_moves"":12}","[412.07142857142856,410.1808016640799,0.8,412.07142857142856,410.1808016640799,106.2,412.07142857142856,410.1808016640799,209.4,412.07142857142856,410.1808016640799,313.7,412.07142857142856,410.1808016640799,415.4,412.07142857142856,410.1808016640799,528.3,149.57142857142856,611.1808016640799,642.1,5.571428571428569,747.6808016640799,742.7,5.571428571428569,747.6808016640799,845,19.07142857142857,746.1808016640799,949,74.57142857142857,747.6808016640799,1053.3,80.57142857142857,747.6808016640799,1153.4,80.57142857142857,747.6808016640799,1257.4,80.57142857142857,747.6808016640799,1359.6,80.57142857142857,747.6808016640799,1463.1,80.57142857142857,747.6808016640799,1570.4,80.57142857142857,747.6808016640799,1672.5,80.57142857142857,747.6808016640799,1776.1,518.5714285714286,717.6808016640799,1877.6,731.5714285714286,732.6808016640799,1979,734.5714285714286,734.1808016640799,2083.5,734.5714285714286,734.1808016640799,2188.3,734.5714285714286,734.1808016640799,2295.9,734.5714285714286,734.1808016640799,2403,734.5714285714286,734.1808016640799,2508.5,734.5714285714286,734.1808016640799,2613.2,734.5714285714286,734.1808016640799,2725.6,734.5714285714286,734.1808016640799,2832.8,734.5714285714286,734.1808016640799,2941.2,734.5714285714286,734.1808016640799,3046.9,734.5714285714286,734.1808016640799,3152.5,734.5714285714286,734.1808016640799,3258.3,734.5714285714286,734.1808016640799,3362.5,734.5714285714286,734.1808016640799,3468.6,734.5714285714286,734.1808016640799,3575,734.5714285714286,734.1808016640799,3675.2,734.5714285714286,734.1808016640799,3784.6,734.5714285714286,734.1808016640799,3892.3,734.5714285714286,734.1808016640799,3994.8,734.5714285714286,734.1808016640799,4101.1,734.5714285714286,734.1808016640799,4209,734.5714285714286,734.1808016640799,4316.4,734.5714285714286,734.1808016640799,4416.7,734.5714285714286,734.1808016640799,4524,734.5714285714286,734.1808016640799,4625.7,734.5714285714286,734.1808016640799,4733.2,734.5714285714286,734.1808016640799,4839.7,734.5714285714286,734.1808016640799,4940.9]","[1368.7,1368.8,1000,0,368.8,""smooth"",""down"",""down"",""good_move"",4392.1,3023,2678.4,1369.1,344.6,""oops"",""down"",""down"",""good_move"",6833.1,2440.7,1771.2,4392.4,669.5,""smooth"",""down"",""down"",""good_move"",10211.3,3378,3012.5,6833.3,365.5,""oops"",""left"",""right"",""bad_move"",12707,2495.4,2135.9,10211.6,359.5,""smooth"",""left"",""left"",""good_move"",15068.4,2361.1,2060.9,12707.3,300.2,""oops"",""left"",""up"",""bad_move"",17723.7,2655,2353.2,15068.7,301.8,""oops"",""left"",""down"",""good_move"",19838.9,2114.9,1781.6,17724,333.3,""oops"",""left"",""left"",""good_move"",22316.7,2477.5,2173.6,19839.2,303.9,""smooth"",""left"",""left"",""good_move"",24974.7,2657.7,2300.9,22317,356.8,""oops"",""left"",""up"",""bad_move"",28223.3,3248.4,2893.1,24975,355.2,""oops"",""left"",""down"",""good_move"",34155.6,5932,1852.6,31914.9,388.1,""oops"",""left"",""right"",""bad_move"",37070,2913.8,2563.1,34156.2,350.7,""oops"",""left"",""up"",""bad_move"",39795.9,2725.7,2198.1,37070.2,527.6,""oops"",""left"",""up"",""bad_move"",43132.5,3336.2,2966.3,39796.4,369.8,""smooth"",""left"",""left"",""good_move"",46714.6,3581.7,2062.3,43132.9,1519.4,""smooth"",""left"",""left"",""good_move"",50478.6,3763.8,2131.9,46714.8,1631.9,""smooth"",""down"",""down"",""good_move"",52204.5,1725.7,1254.1,50478.9,471.5,""smooth"",""down"",""down"",""good_move""]","",""
"23418","","<div style=""width:500px;"">
  <p>What determined the result of this run?</p>
  </div>","31","html-slider-response","55","949953","0.0-5.0-1.9","298","1","2025-07-30 18:55:07","1f75c3e559b7213887762d5229550c2b","95.146.241.52","Mozilla/5.0 (Windows NT 10.0; Win64; x64) AppleWebKit/537.36 (KHTML, like Gecko) Chrome/138.0.0.0 Safari/537.36","WebKit","Chrome","138.0.0.0","Windows","10.0","https://app.prolific.com/","en-US,en;q=0.9","60056657125e50465c15533e","6877631c9844ddd5501205fc","688a6a7e57420af39b0990fb","3","1","60056657125e50465c15533e","3","1","2025-07-30T19:10:58.133Z","","","","","","","","","","","AttribQ","","50","","","","","","","","","","","","","","","","","","","","","","","","","","","","",""
"2620","","<div style=""width:500px;"">
  <p>How much control did you have over the ball?</p>
  </div>","27","html-slider-response","56","952576","0.0-5.0-2.9","298","1","2025-07-30 18:55:07","1f75c3e559b7213887762d5229550c2b","95.146.241.52","Mozilla/5.0 (Windows NT 10.0; Win64; x64) AppleWebKit/537.36 (KHTML, like Gecko) Chrome/138.0.0.0 Safari/537.36","WebKit","Chrome","138.0.0.0","Windows","10.0","https://app.prolific.com/","en-US,en;q=0.9","60056657125e50465c15533e","6877631c9844ddd5501205fc","688a6a7e57420af39b0990fb","3","1","60056657125e50465c15533e","3","1","2025-07-30T19:11:00.756Z","","","","","","","","","","","ControlQ","","50","","","","","","","","","","","","","","","","","","","","","","","","","","","","",""
"2003","","<div style=""width:500px;"">
  <p>How would you describe your current emotional state?</p>
  </div>","26","html-slider-response","57","954581","0.0-5.0-3.9","298","1","2025-07-30 18:55:07","1f75c3e559b7213887762d5229550c2b","95.146.241.52","Mozilla/5.0 (Windows NT 10.0; Win64; x64) AppleWebKit/537.36 (KHTML, like Gecko) Chrome/138.0.0.0 Safari/537.36","WebKit","Chrome","138.0.0.0","Windows","10.0","https://app.prolific.com/","en-US,en;q=0.9","60056657125e50465c15533e","6877631c9844ddd5501205fc","688a6a7e57420af39b0990fb","3","1","60056657125e50465c15533e","3","1","2025-07-30T19:11:02.761Z","","","","","","","","","","","StressQ","","50","","","","","","","","","","","","","","","","","","","","","","","","","","","","",""
"3333","","<div style=""width:500px;"">
  <p>What best describes how you currently feel?</p>
  </div>","21","html-slider-response","58","957916","0.0-5.0-4.9","298","1","2025-07-30 18:55:07","1f75c3e559b7213887762d5229550c2b","95.146.241.52","Mozilla/5.0 (Windows NT 10.0; Win64; x64) AppleWebKit/537.36 (KHTML, like Gecko) Chrome/138.0.0.0 Safari/537.36","WebKit","Chrome","138.0.0.0","Windows","10.0","https://app.prolific.com/","en-US,en;q=0.9","60056657125e50465c15533e","6877631c9844ddd5501205fc","688a6a7e57420af39b0990fb","3","1","60056657125e50465c15533e","3","1","2025-07-30T19:11:06.096Z","","","","","","","","","","","MotivationQ","","50","","","","","","","","","","","","","","","","","","","","","","","","","","","","",""
"","","","","ctl-task-cpt","59","1018180","0.0-5.0-0.10","298","1","2025-07-30 18:55:07","1f75c3e559b7213887762d5229550c2b","95.146.241.52","Mozilla/5.0 (Windows NT 10.0; Win64; x64) AppleWebKit/537.36 (KHTML, like Gecko) Chrome/138.0.0.0 Safari/537.36","WebKit","Chrome","138.0.0.0","Windows","10.0","https://app.prolific.com/","en-US,en;q=0.9","60056657125e50465c15533e","6877631c9844ddd5501205fc","688a6a7e57420af39b0990fb","3","1","60056657125e50465c15533e","3","1","2025-07-30T19:12:06.360Z","","","","","","","","","","","","","","win-only","1","g1:NE,g2:SW","0.5","11","0","959685.8","1238.9","6241.4","57237.4","1","4","4","6","2","-4","-5","13","18","0.09848484848484848","1083.2","3000","-1315","[""down"",""left""]","{""num_key_presses"":16,""num_perfect"":7,""num_errors"":1,""num_randdir"":8,""num_randdir_good_moves"":2,""num_whilered"":0,""num_whileblue"":1,""num_blue"":2,""num_good_moves"":9}","[412.07142857142856,411.6808016640799,0.3,412.07142857142856,411.6808016640799,105.3,412.07142857142856,411.6808016640799,211.2,412.07142857142856,411.6808016640799,319.9,412.07142857142856,411.6808016640799,427.4,412.07142857142856,411.6808016640799,533.1,170.57142857142856,627.6808016640799,640.6,86.57142857142857,722.1808016640799,749.3,77.57142857142857,746.1808016640799,850.3,77.57142857142857,755.1808016640799,956.1,77.57142857142857,755.1808016640799,1057.7,77.57142857142857,755.1808016640799,1164.3,77.57142857142857,755.1808016640799,1264.9,77.57142857142857,755.1808016640799,1367.8,77.57142857142857,755.1808016640799,1472.8,296.57142857142856,656.1808016640799,1580.6,431.57142857142856,602.1808016640799,1688.8,433.07142857142856,602.1808016640799,1797.4,433.07142857142856,602.1808016640799,1905.7,433.07142857142856,602.1808016640799,2006.6,433.07142857142856,602.1808016640799,2115.1,433.07142857142856,602.1808016640799,2221.9,433.07142857142856,602.1808016640799,2324.9,433.07142857142856,602.1808016640799,2427.8,433.07142857142856,602.1808016640799,2532.5,433.07142857142856,602.1808016640799,2641.5,433.07142857142856,602.1808016640799,2744.8,433.07142857142856,602.1808016640799,2850.2,433.07142857142856,602.1808016640799,2955.2,433.07142857142856,602.1808016640799,3058.4,433.07142857142856,602.1808016640799,3169.7,433.07142857142856,602.1808016640799,3269.8,433.07142857142856,602.1808016640799,3373.3,433.07142857142856,602.1808016640799,3480,433.07142857142856,602.1808016640799,3586.9,433.07142857142856,602.1808016640799,3689.8,433.07142857142856,602.1808016640799,3794.7,433.07142857142856,602.1808016640799,3897.3,433.07142857142856,602.1808016640799,4005.1,433.07142857142856,602.1808016640799,4105.1,433.07142857142856,602.1808016640799,4212,433.07142857142856,602.1808016640799,4317,433.07142857142856,602.1808016640799,4422.8,433.07142857142856,602.1808016640799,4534.8,433.07142857142856,602.1808016640799,4638.4,433.07142857142856,602.1808016640799,4747,433.07142857142856,602.1808016640799,4857.2,433.07142857142856,602.1808016640799,4966.7]","[1409.3,1409.3,1000,0,409.3,""smooth"",""down"",""down"",""good_move"",4230.3,2820.6,2299.6,1409.7,521,""smooth"",""down"",""down"",""good_move"",6866.4,2636,2282.1,4230.4,353.9,""oops"",""down"",""right"",""bad_move"",9253,2385.6,2032.9,6867.4,352.7,""smooth"",""down"",""down"",""good_move"",12304.2,3051.1,2737.8,9253.1,313.3,""smooth"",""left"",""left"",""good_move"",15350.9,3046.2,2743.7,12304.8,302.5,""while_blue"",""left"",""right"",""bad_move"",18133.8,2782.3,2439.8,15351.5,342.5,""oops"",""left"",""right"",""bad_move"",21150.3,3016.2,2729.8,18134.1,286.4,""oops"",""left"",""left"",""good_move"",23655.4,2504.8,2188.1,21150.6,316.7,""oops"",""left"",""right"",""bad_move"",26521.6,2866.1,2462.9,23655.5,403.2,""smooth"",""left"",""left"",""good_move"",33056,6534.2,2675.8,30011.7,368.5,""oops"",""left"",""up"",""bad_move"",35507.7,2451.4,2032.4,33056.3,419,""smooth"",""left"",""left"",""good_move"",37882.9,2375,1791,35507.9,584,""smooth"",""left"",""left"",""good_move"",41271.8,3388.4,3009.7,37883.4,378.7,""oops"",""left"",""up"",""bad_move"",44551.4,3278.4,2942.5,41273,335.9,""oops"",""left"",""left"",""good_move"",47663.2,3111.2,2783.9,44552,327.3,""oops"",""left"",""right"",""bad_move""]","",""
"5883","","<div style=""width:500px;"">
  <p>What determined the result of this run?</p>
  </div>","21","html-slider-response","60","1024065","0.0-5.0-1.10","298","1","2025-07-30 18:55:07","1f75c3e559b7213887762d5229550c2b","95.146.241.52","Mozilla/5.0 (Windows NT 10.0; Win64; x64) AppleWebKit/537.36 (KHTML, like Gecko) Chrome/138.0.0.0 Safari/537.36","WebKit","Chrome","138.0.0.0","Windows","10.0","https://app.prolific.com/","en-US,en;q=0.9","60056657125e50465c15533e","6877631c9844ddd5501205fc","688a6a7e57420af39b0990fb","3","1","60056657125e50465c15533e","3","1","2025-07-30T19:12:12.245Z","","","","","","","","","","","AttribQ","","50","","","","","","","","","","","","","","","","","","","","","","","","","","","","",""
"2561","","<div style=""width:500px;"">
  <p>How much control did you have over the ball?</p>
  </div>","17","html-slider-response","61","1026628","0.0-5.0-2.10","298","1","2025-07-30 18:55:07","1f75c3e559b7213887762d5229550c2b","95.146.241.52","Mozilla/5.0 (Windows NT 10.0; Win64; x64) AppleWebKit/537.36 (KHTML, like Gecko) Chrome/138.0.0.0 Safari/537.36","WebKit","Chrome","138.0.0.0","Windows","10.0","https://app.prolific.com/","en-US,en;q=0.9","60056657125e50465c15533e","6877631c9844ddd5501205fc","688a6a7e57420af39b0990fb","3","1","60056657125e50465c15533e","3","1","2025-07-30T19:12:14.808Z","","","","","","","","","","","ControlQ","","50","","","","","","","","","","","","","","","","","","","","","","","","","","","","",""
"2408","","<div style=""width:500px;"">
  <p>How would you describe your current emotional state?</p>
  </div>","18","html-slider-response","62","1029038","0.0-5.0-3.10","298","1","2025-07-30 18:55:07","1f75c3e559b7213887762d5229550c2b","95.146.241.52","Mozilla/5.0 (Windows NT 10.0; Win64; x64) AppleWebKit/537.36 (KHTML, like Gecko) Chrome/138.0.0.0 Safari/537.36","WebKit","Chrome","138.0.0.0","Windows","10.0","https://app.prolific.com/","en-US,en;q=0.9","60056657125e50465c15533e","6877631c9844ddd5501205fc","688a6a7e57420af39b0990fb","3","1","60056657125e50465c15533e","3","1","2025-07-30T19:12:17.219Z","","","","","","","","","","","StressQ","","50","","","","","","","","","","","","","","","","","","","","","","","","","","","","",""
"3031","","<div style=""width:500px;"">
  <p>What best describes how you currently feel?</p>
  </div>","17","html-slider-response","63","1032072","0.0-5.0-4.10","298","1","2025-07-30 18:55:07","1f75c3e559b7213887762d5229550c2b","95.146.241.52","Mozilla/5.0 (Windows NT 10.0; Win64; x64) AppleWebKit/537.36 (KHTML, like Gecko) Chrome/138.0.0.0 Safari/537.36","WebKit","Chrome","138.0.0.0","Windows","10.0","https://app.prolific.com/","en-US,en;q=0.9","60056657125e50465c15533e","6877631c9844ddd5501205fc","688a6a7e57420af39b0990fb","3","1","60056657125e50465c15533e","3","1","2025-07-30T19:12:20.252Z","","","","","","","","","","","MotivationQ","","50","","","","","","","","","","","","","","","","","","","","","","","","","","","","",""
"","","","","ctl-task-cpt","64","1103329","0.0-5.0-0.11","298","1","2025-07-30 18:55:07","1f75c3e559b7213887762d5229550c2b","95.146.241.52","Mozilla/5.0 (Windows NT 10.0; Win64; x64) AppleWebKit/537.36 (KHTML, like Gecko) Chrome/138.0.0.0 Safari/537.36","WebKit","Chrome","138.0.0.0","Windows","10.0","https://app.prolific.com/","en-US,en;q=0.9","60056657125e50465c15533e","6877631c9844ddd5501205fc","688a6a7e57420af39b0990fb","3","1","60056657125e50465c15533e","3","1","2025-07-30T19:13:31.509Z","","","","","","","","","","","","","","win-only","1","g1:NE,g2:SW","0.6","12","0","1033844.1","1133.3","6142.1","68231.1","1","4","8","6","2","8","7","20","13","0.15151515151515152","1387.5","3000","285","[""down"",""left""]","{""num_key_presses"":18,""num_perfect"":11,""num_errors"":1,""num_randdir"":6,""num_randdir_good_moves"":1,""num_whilered"":0,""num_whileblue"":1,""num_blue"":4,""num_good_moves"":12}","[415.07142857142856,411.6808016640799,1,415.07142857142856,411.6808016640799,100.7,415.07142857142856,411.6808016640799,210,415.07142857142856,411.6808016640799,312.3,415.07142857142856,411.6808016640799,413.1,415.07142857142856,411.6808016640799,527.1,415.07142857142856,411.6808016640799,635.6,206.57142857142856,633.6808016640799,746.2,164.57142857142856,702.6808016640799,854.3,149.57142857142856,728.1808016640799,962.2,127.07142857142857,735.6808016640799,1077.1,94.07142857142857,737.1808016640799,1178.5,94.07142857142857,737.1808016640799,1286.5,94.07142857142857,737.1808016640799,1404.4,94.07142857142857,737.1808016640799,1510.3,94.07142857142857,737.1808016640799,1625.6,94.07142857142857,737.1808016640799,1734.9,94.07142857142857,737.1808016640799,1835.1,239.57142857142856,716.1808016640799,1943.1,506.57142857142856,677.1808016640799,2053.6,683.5714285714286,662.1808016640799,2158.5,683.5714285714286,662.1808016640799,2261.9,683.5714285714286,662.1808016640799,2372.7,683.5714285714286,662.1808016640799,2478.8,683.5714285714286,662.1808016640799,2586,683.5714285714286,662.1808016640799,2692.8,683.5714285714286,662.1808016640799,2802.4,683.5714285714286,662.1808016640799,2911.7,683.5714285714286,662.1808016640799,3012.7,683.5714285714286,662.1808016640799,3126.7,683.5714285714286,662.1808016640799,3235.9,683.5714285714286,662.1808016640799,3342.4,683.5714285714286,662.1808016640799,3446.4,683.5714285714286,662.1808016640799,3553.3,683.5714285714286,662.1808016640799,3657,683.5714285714286,662.1808016640799,3763.3,683.5714285714286,662.1808016640799,3867.6,683.5714285714286,662.1808016640799,3975.2,683.5714285714286,662.1808016640799,4085.5,683.5714285714286,662.1808016640799,4197.7,683.5714285714286,662.1808016640799,4305.3,683.5714285714286,662.1808016640799,4407,683.5714285714286,662.1808016640799,4510.1,683.5714285714286,662.1808016640799,4610.1,683.5714285714286,662.1808016640799,4710.6,683.5714285714286,662.1808016640799,4822.1,683.5714285714286,662.1808016640799,4925.3]","[4880,4880,2415.3,2016.7,448,""smooth"",""down"",""down"",""good_move"",11041.7,6161.6,2240.8,8334,467,""oops"",""down"",""right"",""bad_move"",14382.1,3340,2867.7,11042.1,472.3,""smooth"",""down"",""down"",""good_move"",16754,2371.5,1930.6,14382.5,440.9,""oops"",""down"",""right"",""bad_move"",19947.9,3193.5,2869.1,16754.4,324.4,""smooth"",""down"",""down"",""good_move"",23187.6,3239.4,2741.7,19948.2,497.7,""oops"",""left"",""up"",""bad_move"",25565.7,2377.8,2042.3,23187.9,335.5,""smooth"",""left"",""left"",""good_move"",28275.7,2708.5,2379.8,25567.2,328.7,""smooth"",""left"",""left"",""good_move"",30747.2,2471.3,2181.4,28275.9,289.9,""smooth"",""left"",""left"",""good_move"",33565,2817.5,2469.5,30747.5,348,""oops"",""left"",""down"",""good_move"",37327.3,3762,3403.9,33565.3,358.1,""oops"",""left"",""right"",""bad_move"",41122,3794.4,3494.5,37327.6,299.9,""oops"",""left"",""up"",""bad_move"",43825.6,2703.2,2393.3,41122.4,309.9,""while_blue"",""left"",""right"",""bad_move"",46872.4,3046.4,2634.6,43826,411.8,""smooth"",""left"",""left"",""good_move"",53807,6934.3,2791,50609.4,406.7,""smooth"",""left"",""left"",""good_move"",56361.9,2554.7,2179.8,53807.2,374.9,""smooth"",""left"",""left"",""good_move"",58873.7,2511.5,2171.9,56362.3,339.5,""smooth"",""left"",""left"",""good_move"",61905,3031,2727.1,58874,303.9,""smooth"",""down"",""down"",""good_move""]","",""
"13090","","<div style=""width:500px;"">
  <p>What determined the result of this run?</p>
  </div>","23","html-slider-response","65","1116420","0.0-5.0-1.11","298","1","2025-07-30 18:55:07","1f75c3e559b7213887762d5229550c2b","95.146.241.52","Mozilla/5.0 (Windows NT 10.0; Win64; x64) AppleWebKit/537.36 (KHTML, like Gecko) Chrome/138.0.0.0 Safari/537.36","WebKit","Chrome","138.0.0.0","Windows","10.0","https://app.prolific.com/","en-US,en;q=0.9","60056657125e50465c15533e","6877631c9844ddd5501205fc","688a6a7e57420af39b0990fb","3","1","60056657125e50465c15533e","3","1","2025-07-30T19:13:44.600Z","","","","","","","","","","","AttribQ","","50","","","","","","","","","","","","","","","","","","","","","","","","","","","","",""
"2313","","<div style=""width:500px;"">
  <p>How much control did you have over the ball?</p>
  </div>","22","html-slider-response","66","1118735","0.0-5.0-2.11","298","1","2025-07-30 18:55:07","1f75c3e559b7213887762d5229550c2b","95.146.241.52","Mozilla/5.0 (Windows NT 10.0; Win64; x64) AppleWebKit/537.36 (KHTML, like Gecko) Chrome/138.0.0.0 Safari/537.36","WebKit","Chrome","138.0.0.0","Windows","10.0","https://app.prolific.com/","en-US,en;q=0.9","60056657125e50465c15533e","6877631c9844ddd5501205fc","688a6a7e57420af39b0990fb","3","1","60056657125e50465c15533e","3","1","2025-07-30T19:13:46.915Z","","","","","","","","","","","ControlQ","","50","","","","","","","","","","","","","","","","","","","","","","","","","","","","",""
"4016","","<div style=""width:500px;"">
  <p>How would you describe your current emotional state?</p>
  </div>","20","html-slider-response","67","1122752","0.0-5.0-3.11","298","1","2025-07-30 18:55:07","1f75c3e559b7213887762d5229550c2b","95.146.241.52","Mozilla/5.0 (Windows NT 10.0; Win64; x64) AppleWebKit/537.36 (KHTML, like Gecko) Chrome/138.0.0.0 Safari/537.36","WebKit","Chrome","138.0.0.0","Windows","10.0","https://app.prolific.com/","en-US,en;q=0.9","60056657125e50465c15533e","6877631c9844ddd5501205fc","688a6a7e57420af39b0990fb","3","1","60056657125e50465c15533e","3","1","2025-07-30T19:13:50.932Z","","","","","","","","","","","StressQ","","50","","","","","","","","","","","","","","","","","","","","","","","","","","","","",""
"2156","","<div style=""width:500px;"">
  <p>What best describes how you currently feel?</p>
  </div>","17","html-slider-response","68","1124909","0.0-5.0-4.11","298","1","2025-07-30 18:55:07","1f75c3e559b7213887762d5229550c2b","95.146.241.52","Mozilla/5.0 (Windows NT 10.0; Win64; x64) AppleWebKit/537.36 (KHTML, like Gecko) Chrome/138.0.0.0 Safari/537.36","WebKit","Chrome","138.0.0.0","Windows","10.0","https://app.prolific.com/","en-US,en;q=0.9","60056657125e50465c15533e","6877631c9844ddd5501205fc","688a6a7e57420af39b0990fb","3","1","60056657125e50465c15533e","3","1","2025-07-30T19:13:53.089Z","","","","","","","","","","","MotivationQ","","50","","","","","","","","","","","","","","","","","","","","","","","","","","","","",""
"","","","","ctl-task-cpt","69","1163601","0.0-5.0-0.12","298","1","2025-07-30 18:55:07","1f75c3e559b7213887762d5229550c2b","95.146.241.52","Mozilla/5.0 (Windows NT 10.0; Win64; x64) AppleWebKit/537.36 (KHTML, like Gecko) Chrome/138.0.0.0 Safari/537.36","WebKit","Chrome","138.0.0.0","Windows","10.0","https://app.prolific.com/","en-US,en;q=0.9","60056657125e50465c15533e","6877631c9844ddd5501205fc","688a6a7e57420af39b0990fb","3","1","60056657125e50465c15533e","3","1","2025-07-30T19:14:31.781Z","","","","","","","","","","","","","","win-only","0","g1:NW,g2:SE","0.7","13","0","1126681.6","1116.5","6124.6","35650.8","1","4","4","6","2","4","4","24","20","0.18181818181818182","1370","3000","1610","[""down"",""right""]","{""num_key_presses"":8,""num_perfect"":6,""num_errors"":0,""num_randdir"":2,""num_randdir_good_moves"":1,""num_whilered"":0,""num_whileblue"":0,""num_blue"":2,""num_good_moves"":7}","[416.57142857142856,407.1808016640799,0.2,416.57142857142856,407.1808016640799,113.3,416.57142857142856,407.1808016640799,214.5,416.57142857142856,407.1808016640799,321,416.57142857142856,407.1808016640799,425,416.57142857142856,407.1808016640799,530.5,416.57142857142856,407.1808016640799,631.1,749.5714285714286,741.6808016640799,735.2,809.5714285714286,806.1808016640799,839.7,811.0714285714286,810.6808016640799,948.2,811.0714285714286,810.6808016640799,1049.2,811.0714285714286,810.6808016640799,1159.5,811.0714285714286,810.6808016640799,1266.3,811.0714285714286,810.6808016640799,1381.9,811.0714285714286,810.6808016640799,1491.3,811.0714285714286,810.6808016640799,1598.4,811.0714285714286,810.6808016640799,1709.4,811.0714285714286,810.6808016640799,1813.6,1058.5714285714287,633.6808016640799,1915.3,1106.5714285714287,617.1808016640799,2028.7,1106.5714285714287,617.1808016640799,2130.7,1106.5714285714287,617.1808016640799,2241.4,1106.5714285714287,617.1808016640799,2343.3,1106.5714285714287,617.1808016640799,2445.3,1106.5714285714287,617.1808016640799,2548.1,1106.5714285714287,617.1808016640799,2648.6,1106.5714285714287,617.1808016640799,2754.3,1106.5714285714287,617.1808016640799,2857.2,1106.5714285714287,617.1808016640799,2959,1106.5714285714287,617.1808016640799,3071.4,1106.5714285714287,617.1808016640799,3175.4,1106.5714285714287,617.1808016640799,3286.4,1106.5714285714287,617.1808016640799,3386.8,1106.5714285714287,617.1808016640799,3494,1106.5714285714287,617.1808016640799,3602.4,1106.5714285714287,617.1808016640799,3708.2,1106.5714285714287,617.1808016640799,3811.7,1106.5714285714287,617.1808016640799,3917.3,1106.5714285714287,617.1808016640799,4022.3,1106.5714285714287,617.1808016640799,4129.5,1106.5714285714287,617.1808016640799,4236.1,1106.5714285714287,617.1808016640799,4336.5,1106.5714285714287,617.1808016640799,4442.8,1106.5714285714287,617.1808016640799,4553.1,1106.5714285714287,617.1808016640799,4657.5,1106.5714285714287,617.1808016640799,4763.2,1106.5714285714287,617.1808016640799,4875.7,1106.5714285714287,617.1808016640799,4984.5]","[1477.3,1477.3,1000,0,477.3,""smooth"",""down"",""down"",""good_move"",4062.8,2585,2202.4,1477.8,382.6,""smooth"",""down"",""down"",""good_move"",10592.6,6529.5,2016.8,8169,406.8,""oops"",""down"",""left"",""bad_move"",15117.8,4524.8,4171.3,10593,353.5,""smooth"",""down"",""down"",""good_move"",17494.8,2376.6,1896.2,15118.2,480.4,""smooth"",""right"",""right"",""good_move"",20136.3,2640.9,2188.5,17495.4,452.4,""oops"",""right"",""right"",""good_move"",26648.6,6512.1,2789.8,23470.7,388.1,""smooth"",""right"",""right"",""good_move"",29320.3,2671.6,2317.1,26648.7,354.6,""smooth"",""right"",""right"",""good_move""]","",""
"3755","","<div style=""width:500px;"">
  <p>What determined the result of this run?</p>
  </div>","22","html-slider-response","70","1167358","0.0-5.0-1.12","298","1","2025-07-30 18:55:07","1f75c3e559b7213887762d5229550c2b","95.146.241.52","Mozilla/5.0 (Windows NT 10.0; Win64; x64) AppleWebKit/537.36 (KHTML, like Gecko) Chrome/138.0.0.0 Safari/537.36","WebKit","Chrome","138.0.0.0","Windows","10.0","https://app.prolific.com/","en-US,en;q=0.9","60056657125e50465c15533e","6877631c9844ddd5501205fc","688a6a7e57420af39b0990fb","3","1","60056657125e50465c15533e","3","1","2025-07-30T19:14:35.538Z","","","","","","","","","","","AttribQ","","50","","","","","","","","","","","","","","","","","","","","","","","","","","","","",""
"2895","","<div style=""width:500px;"">
  <p>How much control did you have over the ball?</p>
  </div>","21","html-slider-response","71","1170254","0.0-5.0-2.12","298","1","2025-07-30 18:55:07","1f75c3e559b7213887762d5229550c2b","95.146.241.52","Mozilla/5.0 (Windows NT 10.0; Win64; x64) AppleWebKit/537.36 (KHTML, like Gecko) Chrome/138.0.0.0 Safari/537.36","WebKit","Chrome","138.0.0.0","Windows","10.0","https://app.prolific.com/","en-US,en;q=0.9","60056657125e50465c15533e","6877631c9844ddd5501205fc","688a6a7e57420af39b0990fb","3","1","60056657125e50465c15533e","3","1","2025-07-30T19:14:38.434Z","","","","","","","","","","","ControlQ","","50","","","","","","","","","","","","","","","","","","","","","","","","","","","","",""
"2332","","<div style=""width:500px;"">
  <p>How would you describe your current emotional state?</p>
  </div>","17","html-slider-response","72","1172586","0.0-5.0-3.12","298","1","2025-07-30 18:55:07","1f75c3e559b7213887762d5229550c2b","95.146.241.52","Mozilla/5.0 (Windows NT 10.0; Win64; x64) AppleWebKit/537.36 (KHTML, like Gecko) Chrome/138.0.0.0 Safari/537.36","WebKit","Chrome","138.0.0.0","Windows","10.0","https://app.prolific.com/","en-US,en;q=0.9","60056657125e50465c15533e","6877631c9844ddd5501205fc","688a6a7e57420af39b0990fb","3","1","60056657125e50465c15533e","3","1","2025-07-30T19:14:40.767Z","","","","","","","","","","","StressQ","","50","","","","","","","","","","","","","","","","","","","","","","","","","","","","",""
"2069","","<div style=""width:500px;"">
  <p>What best describes how you currently feel?</p>
  </div>","16","html-slider-response","73","1174656","0.0-5.0-4.12","298","1","2025-07-30 18:55:07","1f75c3e559b7213887762d5229550c2b","95.146.241.52","Mozilla/5.0 (Windows NT 10.0; Win64; x64) AppleWebKit/537.36 (KHTML, like Gecko) Chrome/138.0.0.0 Safari/537.36","WebKit","Chrome","138.0.0.0","Windows","10.0","https://app.prolific.com/","en-US,en;q=0.9","60056657125e50465c15533e","6877631c9844ddd5501205fc","688a6a7e57420af39b0990fb","3","1","60056657125e50465c15533e","3","1","2025-07-30T19:14:42.836Z","","","","","","","","","","","MotivationQ","","50","","","","","","","","","","","","","","","","","","","","","","","","","","","","",""
"","","","","ctl-task-cpt","74","1198953","0.0-5.0-0.13","298","1","2025-07-30 18:55:07","1f75c3e559b7213887762d5229550c2b","95.146.241.52","Mozilla/5.0 (Windows NT 10.0; Win64; x64) AppleWebKit/537.36 (KHTML, like Gecko) Chrome/138.0.0.0 Safari/537.36","WebKit","Chrome","138.0.0.0","Windows","10.0","https://app.prolific.com/","en-US,en;q=0.9","60056657125e50465c15533e","6877631c9844ddd5501205fc","688a6a7e57420af39b0990fb","3","1","60056657125e50465c15533e","3","1","2025-07-30T19:15:07.133Z","","","","","","","","","","","","","","win-only","3","g1:SW,g2:NE","0.8","14","0","1176427.7","1185.3","6197.4","21279.3","1","4","8","6","2","8","8","32","24","0.24242424242424243","1223.9","3000","2265","[""up"",""right""]","{""num_key_presses"":6,""num_perfect"":6,""num_errors"":0,""num_randdir"":0,""num_randdir_good_moves"":0,""num_whilered"":0,""num_whileblue"":0,""num_blue"":0,""num_good_moves"":6}","[421.07142857142856,414.6808016640799,0.2,421.07142857142856,414.6808016640799,103.7,421.07142857142856,414.6808016640799,209.8,421.07142857142856,414.6808016640799,316.4,421.07142857142856,414.6808016640799,418.2,421.07142857142856,414.6808016640799,519.9,421.07142857142856,414.6808016640799,627.1,653.5714285714286,152.18080166407992,739.5,716.5714285714286,107.18080166407994,839.7,752.5714285714286,81.68080166407994,942.8,781.0714285714286,60.68080166407994,1042.9,781.0714285714286,60.68080166407994,1146,781.0714285714286,60.68080166407994,1254.5,781.0714285714286,60.68080166407994,1356.5,781.0714285714286,60.68080166407994,1464.2,781.0714285714286,60.68080166407994,1573.3,781.0714285714286,60.68080166407994,1681.8,1055.5714285714287,66.68080166407994,1790.7,1114.0714285714287,74.18080166407994,1891.8,1114.0714285714287,74.18080166407994,1992.6,1114.0714285714287,74.18080166407994,2094.5,1114.0714285714287,74.18080166407994,2203.5,1114.0714285714287,74.18080166407994,2304.8,1114.0714285714287,74.18080166407994,2409.7,1114.0714285714287,74.18080166407994,2523.2,1114.0714285714287,74.18080166407994,2634.5,1114.0714285714287,74.18080166407994,2738.1,1114.0714285714287,74.18080166407994,2848.6,1114.0714285714287,74.18080166407994,2958.2,1114.0714285714287,74.18080166407994,3058.4,1114.0714285714287,74.18080166407994,3170.6,1114.0714285714287,74.18080166407994,3275.2,1114.0714285714287,74.18080166407994,3381,1114.0714285714287,74.18080166407994,3489.5,1114.0714285714287,74.18080166407994,3599.9,1114.0714285714287,74.18080166407994,3715.3,1114.0714285714287,74.18080166407994,3824.4,1114.0714285714287,74.18080166407994,3931.1,1114.0714285714287,74.18080166407994,4037,1114.0714285714287,74.18080166407994,4148.7,1114.0714285714287,74.18080166407994,4257.7,1114.0714285714287,74.18080166407994,4369.5,1114.0714285714287,74.18080166407994,4470.5,1114.0714285714287,74.18080166407994,4581.1,1114.0714285714287,74.18080166407994,4687.3,1114.0714285714287,74.18080166407994,4799.5,1114.0714285714287,74.18080166407994,4909.9]","[1396.8,1396.8,1000,0,396.8,""smooth"",""right"",""right"",""good_move"",3863.7,2465.5,2167.5,1398.2,298,""smooth"",""right"",""right"",""good_move"",6628.6,2764.7,2475.9,3863.9,288.8,""smooth"",""right"",""right"",""good_move"",9741.3,3112.5,2746,6628.8,366.5,""smooth"",""up"",""up"",""good_move"",12399.6,2657.9,2242.1,9741.7,415.8,""smooth"",""up"",""up"",""good_move"",14848.6,2448.8,2123.2,12399.8,325.6,""smooth"",""up"",""up"",""good_move""]","",""
