"rt","response_timestamp","stimulus","response","trial_type","trial_index","time_elapsed","internal_node_id","run_id","condition","recorded_at","source_code_version","ip","user_agent","device","browser","browser_version","platform","platform_version","referer","accept_language","PROLIFIC_PID","STUDY_ID","SESSION_ID","WEEK","BATCH","prolific_id","week","batch","realtime","success","responses","item_order","radio_event_ids","radio_event_times","key_event_times","mouse_event_times","straightlining","zigzagging","honeypot","eventType","view_history","slider_start","which_type","canvas_config","goals_layout","control_level","trial_number","tutorial_trial_number","trial_start_time","phase1_start_time","phase2_start_time","phase3_start_time","goal_1_value","goal_1_distance","goal_2_value","goal_2_distance","goal_selected","outcome","outcome_total","participant_final_score","participant_initial_score","participant_final_score_prop","goal_choice_rt","allocated_time","allocated_time_remaining","goal_direction","counts","mouse_movements","key_presses","question_order","question_id"
"4856","1752682420869","<p style='font-size:40px;line-height:1.25'><strong>Welcome to the experiment!</strong></p><p style='font-size:1.1em;line-height:1.25'>Thank you for participanting in our experiment again! You will be asked to play the Dysfunctional Ball Game again. We will briefly recap the rules before we start.</p><p style='font-size:1.1em;line-height:1.25'>Press <strong>Next</strong> to continue.</p>","0","custom-html-button-response","0","4858","0.0-0.0","121","1","2025-07-16 16:13:34","1f75c3e559b7213887762d5229550c2b","82.53.76.206","Mozilla/5.0 (Windows NT 10.0; Win64; x64) AppleWebKit/537.36 (KHTML, like Gecko) Chrome/138.0.0.0 Safari/537.36","WebKit","Chrome","138.0.0.0","Windows","10.0","https://app.prolific.com/","it-IT,it;q=0.9,en-US;q=0.8,en;q=0.7","672f7b856c1ce6995a666bc6","68764874ac79eee8c1d4cb03","6877cfa2402a3380638ce0af","2","0","672f7b856c1ce6995a666bc6","2","0","2025-07-16T16:13:40.870Z","","","","","","","","","","","","","","","","","","","","","","","","","","","","","","","","","","","","","","","","","",""
"17749","","","","fullscreen","1","23616","0.0-1.0","121","1","2025-07-16 16:13:34","1f75c3e559b7213887762d5229550c2b","82.53.76.206","Mozilla/5.0 (Windows NT 10.0; Win64; x64) AppleWebKit/537.36 (KHTML, like Gecko) Chrome/138.0.0.0 Safari/537.36","WebKit","Chrome","138.0.0.0","Windows","10.0","https://app.prolific.com/","it-IT,it;q=0.9,en-US;q=0.8,en;q=0.7","672f7b856c1ce6995a666bc6","68764874ac79eee8c1d4cb03","6877cfa2402a3380638ce0af","2","0","672f7b856c1ce6995a666bc6","2","0","","true","","","","","","","","","","","","","","","","","","","","","","","","","","","","","","","","","","","","","","","","",""
"5473","1752682445102","<p style='font-size:1.1em;line-height:1.25'>In the following, we will ask you a few questions relating to your feelings in the last 24 hours.<br></p><p style='font-size:1.1em;line-height:1.25'>Press the <strong>Next</strong> button to continue.</p>","0","custom-html-button-response","2","29091","0.0-2.0-0.0","121","1","2025-07-16 16:13:34","1f75c3e559b7213887762d5229550c2b","82.53.76.206","Mozilla/5.0 (Windows NT 10.0; Win64; x64) AppleWebKit/537.36 (KHTML, like Gecko) Chrome/138.0.0.0 Safari/537.36","WebKit","Chrome","138.0.0.0","Windows","10.0","https://app.prolific.com/","it-IT,it;q=0.9,en-US;q=0.8,en;q=0.7","672f7b856c1ce6995a666bc6","68764874ac79eee8c1d4cb03","6877cfa2402a3380638ce0af","2","0","672f7b856c1ce6995a666bc6","2","0","2025-07-16T16:14:05.103Z","","","","","","","","","","","","","","","","","","","","","","","","","","","","","","","","","","","","","","","","","",""
"75834.30000007153","","","","survey-template","3","104930","0.0-2.0-1.0","121","1","2025-07-16 16:13:34","1f75c3e559b7213887762d5229550c2b","82.53.76.206","Mozilla/5.0 (Windows NT 10.0; Win64; x64) AppleWebKit/537.36 (KHTML, like Gecko) Chrome/138.0.0.0 Safari/537.36","WebKit","Chrome","138.0.0.0","Windows","10.0","https://app.prolific.com/","it-IT,it;q=0.9,en-US;q=0.8,en;q=0.7","672f7b856c1ce6995a666bc6","68764874ac79eee8c1d4cb03","6877cfa2402a3380638ce0af","2","0","672f7b856c1ce6995a666bc6","2","0","2025-07-16T16:15:20.942Z","","{""Q01"":""1"",""Q02"":""0"",""Q03"":""0"",""Q04"":""1"",""Q05"":""1"",""Q06"":""1"",""Q07"":""2"",""Q08"":""1"",""Q09"":""1"",""Q10"":""0"",""Q11"":""3"",""Q12"":""1"",""Q13"":""5"",""Q14"":""2"",""Q15"":""2"",""Q16"":""2"",""Q17"":""2"",""Q18"":""1"",""Q19"":""0"",""Q20"":""1"",""Q21"":""1"",""Q22"":""1""}","[0,1,2,3,4,5,6,7,8,9,10,11,12,13,14,15,16,17,18,19,20,21]","[""Q02"",""Q01"",""Q03"",""Q04"",""Q05"",""Q06"",""Q07"",""Q08"",""Q09"",""Q10"",""Q11"",""Q12"",""Q13"",""Q14"",""Q15"",""Q16"",""Q17"",""Q18"",""Q19"",""Q20"",""Q21"",""Q22""]","[4163.400000095367,5391,9017.300000071526,10152.300000071526,11217.400000095367,14151.600000023842,17815.300000071526,18709,20158.700000047684,21799.200000047684,23424.400000095367,26608.5,28388.200000047684,32033.200000047684,36155,37343.90000009537,39783.300000071526,41011.10000002384,43100.300000071526,71138.80000007153,73334.40000009537,74575.70000004768]","[]","[0.30000007152557373,2356.9000000953674,3084.7000000476837,4163.400000095367,5391,6559.600000023842,9017.300000071526,10152.300000071526,11217.400000095367,14151.600000023842,15263.5,17815.300000071526,18709,20158.700000047684,21799.200000047684,23424.400000095367,26608.5,28388.200000047684,32033.200000047684,36155,37343.90000009537,39783.300000071526,41011.10000002384,43100.300000071526,65274.90000009537,71138.80000007153,73334.40000009537,74575.70000004768,75829.30000007153]","0.5","0.38095238095238093","0","drsp","","","","","","","","","","","","","","","","","","","","","","","","","","","","","","",""
"21022.199999928474","","","","survey-template","4","125954","0.0-2.0-2.0","121","1","2025-07-16 16:13:34","1f75c3e559b7213887762d5229550c2b","82.53.76.206","Mozilla/5.0 (Windows NT 10.0; Win64; x64) AppleWebKit/537.36 (KHTML, like Gecko) Chrome/138.0.0.0 Safari/537.36","WebKit","Chrome","138.0.0.0","Windows","10.0","https://app.prolific.com/","it-IT,it;q=0.9,en-US;q=0.8,en;q=0.7","672f7b856c1ce6995a666bc6","68764874ac79eee8c1d4cb03","6877cfa2402a3380638ce0af","2","0","672f7b856c1ce6995a666bc6","2","0","2025-07-16T16:15:41.967Z","","{""Q01"":""2"",""Q02"":""3"",""Q03"":""2""}","[0,1,2]","[""Q01"",""Q01"",""Q03"",""Q02""]","[7471.5,8207.899999976158,14487.099999904633,19968.799999952316]","[]","[7471.5,8207.899999976158,10247.399999976158,12459,14487.099999904633,16777.899999976158,17458.099999904633,19188.799999952316,19968.799999952316,21021]","1","0","0","stress","","","","","","","","","","","","","","","","","","","","","","","","","","","","","","",""
"5272","","","","instructions","5","131229","0.0-3.0-0.0","121","1","2025-07-16 16:13:34","1f75c3e559b7213887762d5229550c2b","82.53.76.206","Mozilla/5.0 (Windows NT 10.0; Win64; x64) AppleWebKit/537.36 (KHTML, like Gecko) Chrome/138.0.0.0 Safari/537.36","WebKit","Chrome","138.0.0.0","Windows","10.0","https://app.prolific.com/","it-IT,it;q=0.9,en-US;q=0.8,en;q=0.7","672f7b856c1ce6995a666bc6","68764874ac79eee8c1d4cb03","6877cfa2402a3380638ce0af","2","0","672f7b856c1ce6995a666bc6","2","0","","","","","","","","","","","","","[{""page_index"":0,""viewing_time"":5272}]","","","","","","","","","","","","","","","","","","","","","","","","","","","","","",""
"3304","","<p>Before you start with this game please answer the following three questions yourself. </p>
  <p>Through this game, we measure several aspects of your cognitive performance, such as reaction times, multi-tasking capabilities </p>
  <p>and the ability to assess the situation you are in.</p>
  <p></p>
  <p><b>How good do you usually are in such tasks?</b></p>","58","html-slider-response","6","134535","0.0-4.0-0.0","121","1","2025-07-16 16:13:34","1f75c3e559b7213887762d5229550c2b","82.53.76.206","Mozilla/5.0 (Windows NT 10.0; Win64; x64) AppleWebKit/537.36 (KHTML, like Gecko) Chrome/138.0.0.0 Safari/537.36","WebKit","Chrome","138.0.0.0","Windows","10.0","https://app.prolific.com/","it-IT,it;q=0.9,en-US;q=0.8,en;q=0.7","672f7b856c1ce6995a666bc6","68764874ac79eee8c1d4cb03","6877cfa2402a3380638ce0af","2","0","672f7b856c1ce6995a666bc6","2","0","2025-07-16T16:15:50.547Z","","","","","","","","","","","PreSkillQ","","50","","","","","","","","","","","","","","","","","","","","","","","","","","","","",""
"2500","","<div style=""width:500px;"">
  <p>How well do you think you will perform in this task compared to other participants?</p>
  </div>","57","html-slider-response","7","137036","0.0-4.0-1.0","121","1","2025-07-16 16:13:34","1f75c3e559b7213887762d5229550c2b","82.53.76.206","Mozilla/5.0 (Windows NT 10.0; Win64; x64) AppleWebKit/537.36 (KHTML, like Gecko) Chrome/138.0.0.0 Safari/537.36","WebKit","Chrome","138.0.0.0","Windows","10.0","https://app.prolific.com/","it-IT,it;q=0.9,en-US;q=0.8,en;q=0.7","672f7b856c1ce6995a666bc6","68764874ac79eee8c1d4cb03","6877cfa2402a3380638ce0af","2","0","672f7b856c1ce6995a666bc6","2","0","2025-07-16T16:15:53.048Z","","","","","","","","","","","PrePerfQ","","50","","","","","","","","","","","","","","","","","","","","","","","","","","","","",""
"4635","","<div style=""width:500px;"">
  <p>What best describes how you currently feel?</p>
  </div>","33","html-slider-response","8","141673","0.0-4.0-2.0","121","1","2025-07-16 16:13:34","1f75c3e559b7213887762d5229550c2b","82.53.76.206","Mozilla/5.0 (Windows NT 10.0; Win64; x64) AppleWebKit/537.36 (KHTML, like Gecko) Chrome/138.0.0.0 Safari/537.36","WebKit","Chrome","138.0.0.0","Windows","10.0","https://app.prolific.com/","it-IT,it;q=0.9,en-US;q=0.8,en;q=0.7","672f7b856c1ce6995a666bc6","68764874ac79eee8c1d4cb03","6877cfa2402a3380638ce0af","2","0","672f7b856c1ce6995a666bc6","2","0","2025-07-16T16:15:57.685Z","","","","","","","","","","","PreMotivationQ","","50","","","","","","","","","","","","","","","","","","","","","","","","","","","","",""
"","","","","ctl-task-cpt","9","167258","0.0-5.0-0.0","121","1","2025-07-16 16:13:34","1f75c3e559b7213887762d5229550c2b","82.53.76.206","Mozilla/5.0 (Windows NT 10.0; Win64; x64) AppleWebKit/537.36 (KHTML, like Gecko) Chrome/138.0.0.0 Safari/537.36","WebKit","Chrome","138.0.0.0","Windows","10.0","https://app.prolific.com/","it-IT,it;q=0.9,en-US;q=0.8,en;q=0.7","672f7b856c1ce6995a666bc6","68764874ac79eee8c1d4cb03","6877cfa2402a3380638ce0af","2","0","672f7b856c1ce6995a666bc6","2","0","2025-07-16T16:16:23.271Z","","","","","","","","","","","","","","win-only","3","g1:SW,g2:NE","1","1","0","143130.5","1286.6","6292.4","22580.1","1","4","4","6","2","4","3","3","0","0.022727272727272728","5005.7","3000","1205","[""up"",""right""]","{""num_key_presses"":6,""num_perfect"":5,""num_errors"":1,""num_randdir"":0,""num_randdir_good_moves"":0,""num_whilered"":0,""num_whileblue"":1,""num_blue"":1,""num_good_moves"":6}","[422.8214133126395,421.57142761775424,0.2,422.8214133126395,421.57142761775424,102,422.8214133126395,421.57142761775424,206.2,422.8214133126395,421.57142761775424,310.5,422.8214133126395,421.57142761775424,412.3,422.8214133126395,421.57142761775424,517.2,422.8214133126395,421.57142761775424,618.9,386.5714133126395,450.32142761775424,721.1,366.5714133126395,467.82142761775424,825,362.8214133126395,467.82142761775424,929.6,362.8214133126395,467.82142761775424,1033,362.8214133126395,467.82142761775424,1138,362.8214133126395,467.82142761775424,1241.5,362.8214133126395,467.82142761775424,1345.6,362.8214133126395,467.82142761775424,1450.6,362.8214133126395,467.82142761775424,1554.2,362.8214133126395,467.82142761775424,1658.8,362.8214133126395,467.82142761775424,1761.2,362.8214133126395,467.82142761775424,1865.8,362.8214133126395,467.82142761775424,1971.3,362.8214133126395,467.82142761775424,2073.8,362.8214133126395,467.82142761775424,2174.1,362.8214133126395,467.82142761775424,2275.7,362.8214133126395,467.82142761775424,2379.9,362.8214133126395,467.82142761775424,2485.3,362.8214133126395,467.82142761775424,2589.1,362.8214133126395,467.82142761775424,2692,362.8214133126395,467.82142761775424,2797.8,362.8214133126395,467.82142761775424,2901.5,362.8214133126395,467.82142761775424,3004.5,362.8214133126395,467.82142761775424,3109.1,362.8214133126395,467.82142761775424,3214.4,362.8214133126395,467.82142761775424,3318.7,362.8214133126395,467.82142761775424,3421.6,362.8214133126395,467.82142761775424,3525.4,362.8214133126395,467.82142761775424,3630.5,362.8214133126395,467.82142761775424,3734.8,362.8214133126395,467.82142761775424,3839.7,362.8214133126395,467.82142761775424,3943,362.8214133126395,467.82142761775424,4046.4,362.8214133126395,467.82142761775424,4151.2,362.8214133126395,467.82142761775424,4254.1,362.8214133126395,467.82142761775424,4354.3,362.8214133126395,467.82142761775424,4456.9,362.8214133126395,467.82142761775424,4561.3,362.8214133126395,467.82142761775424,4664,362.8214133126395,467.82142761775424,4769.5,362.8214133126395,467.82142761775424,4873.8,362.8214133126395,467.82142761775424,4974.7]","[1407.1,1407.1,1006.4,0,400.7,""while_blue"",""down"",""up"",""good_move"",4690,3282.4,2748.9,1407.7,533.4,""smooth"",""right"",""right"",""good_move"",6939.8,2249.5,1900,4690.4,349.4,""smooth"",""right"",""right"",""good_move"",9647.9,2707.8,2341.9,6940.1,365.9,""smooth"",""up"",""up"",""good_move"",13034.5,3386.4,3093.5,9648.2,292.8,""smooth"",""up"",""up"",""good_move"",16198.6,3163.2,2850.1,13035.4,313.1,""smooth"",""right"",""right"",""good_move""]","",""
"7257","","<div style=""width:500px;"">
  <p>What determined the result of this run?</p>
  </div>","59","html-slider-response","10","174518","0.0-5.0-1.0","121","1","2025-07-16 16:13:34","1f75c3e559b7213887762d5229550c2b","82.53.76.206","Mozilla/5.0 (Windows NT 10.0; Win64; x64) AppleWebKit/537.36 (KHTML, like Gecko) Chrome/138.0.0.0 Safari/537.36","WebKit","Chrome","138.0.0.0","Windows","10.0","https://app.prolific.com/","it-IT,it;q=0.9,en-US;q=0.8,en;q=0.7","672f7b856c1ce6995a666bc6","68764874ac79eee8c1d4cb03","6877cfa2402a3380638ce0af","2","0","672f7b856c1ce6995a666bc6","2","0","2025-07-16T16:16:30.530Z","","","","","","","","","","","AttribQ","","50","","","","","","","","","","","","","","","","","","","","","","","","","","","","",""
"3021","","<div style=""width:500px;"">
  <p>How much control did you have over the ball?</p>
  </div>","61","html-slider-response","11","177541","0.0-5.0-2.0","121","1","2025-07-16 16:13:34","1f75c3e559b7213887762d5229550c2b","82.53.76.206","Mozilla/5.0 (Windows NT 10.0; Win64; x64) AppleWebKit/537.36 (KHTML, like Gecko) Chrome/138.0.0.0 Safari/537.36","WebKit","Chrome","138.0.0.0","Windows","10.0","https://app.prolific.com/","it-IT,it;q=0.9,en-US;q=0.8,en;q=0.7","672f7b856c1ce6995a666bc6","68764874ac79eee8c1d4cb03","6877cfa2402a3380638ce0af","2","0","672f7b856c1ce6995a666bc6","2","0","2025-07-16T16:16:33.553Z","","","","","","","","","","","ControlQ","","50","","","","","","","","","","","","","","","","","","","","","","","","","","","","",""
"2916","","<div style=""width:500px;"">
  <p>How would you describe your current emotional state?</p>
  </div>","52","html-slider-response","12","180459","0.0-5.0-3.0","121","1","2025-07-16 16:13:34","1f75c3e559b7213887762d5229550c2b","82.53.76.206","Mozilla/5.0 (Windows NT 10.0; Win64; x64) AppleWebKit/537.36 (KHTML, like Gecko) Chrome/138.0.0.0 Safari/537.36","WebKit","Chrome","138.0.0.0","Windows","10.0","https://app.prolific.com/","it-IT,it;q=0.9,en-US;q=0.8,en;q=0.7","672f7b856c1ce6995a666bc6","68764874ac79eee8c1d4cb03","6877cfa2402a3380638ce0af","2","0","672f7b856c1ce6995a666bc6","2","0","2025-07-16T16:16:36.471Z","","","","","","","","","","","StressQ","","50","","","","","","","","","","","","","","","","","","","","","","","","","","","","",""
"4835","","<div style=""width:500px;"">
  <p>What best describes how you currently feel?</p>
  </div>","38","html-slider-response","13","185295","0.0-5.0-4.0","121","1","2025-07-16 16:13:34","1f75c3e559b7213887762d5229550c2b","82.53.76.206","Mozilla/5.0 (Windows NT 10.0; Win64; x64) AppleWebKit/537.36 (KHTML, like Gecko) Chrome/138.0.0.0 Safari/537.36","WebKit","Chrome","138.0.0.0","Windows","10.0","https://app.prolific.com/","it-IT,it;q=0.9,en-US;q=0.8,en;q=0.7","672f7b856c1ce6995a666bc6","68764874ac79eee8c1d4cb03","6877cfa2402a3380638ce0af","2","0","672f7b856c1ce6995a666bc6","2","0","2025-07-16T16:16:41.307Z","","","","","","","","","","","MotivationQ","","50","","","","","","","","","","","","","","","","","","","","","","","","","","","","",""
"","","","","ctl-task-cpt","14","213128","0.0-5.0-0.1","121","1","2025-07-16 16:13:34","1f75c3e559b7213887762d5229550c2b","82.53.76.206","Mozilla/5.0 (Windows NT 10.0; Win64; x64) AppleWebKit/537.36 (KHTML, like Gecko) Chrome/138.0.0.0 Safari/537.36","WebKit","Chrome","138.0.0.0","Windows","10.0","https://app.prolific.com/","it-IT,it;q=0.9,en-US;q=0.8,en;q=0.7","672f7b856c1ce6995a666bc6","68764874ac79eee8c1d4cb03","6877cfa2402a3380638ce0af","2","0","672f7b856c1ce6995a666bc6","2","0","2025-07-16T16:17:09.140Z","","","","","","","","","","","","","","win-only","3","g1:SW,g2:NE","0.9","2","0","186750.6","1230.7","6236.7","24829.4","1","4","8","6","1","1","1","4","3","0.030303030303030304","1627.6","3000","1895","[""down"",""left""]","{""num_key_presses"":4,""num_perfect"":4,""num_errors"":0,""num_randdir"":0,""num_randdir_good_moves"":0,""num_whilered"":0,""num_whileblue"":0,""num_blue"":2,""num_good_moves"":4}","[425.3214133126395,414.07142761775424,0.1,425.3214133126395,414.07142761775424,101.8,425.3214133126395,414.07142761775424,205.6,425.3214133126395,414.07142761775424,310.3,425.3214133126395,414.07142761775424,414.2,425.3214133126395,414.07142761775424,518.2,425.3214133126395,414.07142761775424,623,425.3214133126395,414.07142761775424,726.8,425.3214133126395,414.07142761775424,830.5,425.3214133126395,414.07142761775424,933.7,329.0714133126395,504.07142761775424,1038.7,181.5714133126395,612.8214276177542,1142,142.8214133126395,655.3214276177542,1245.7,110.3214133126395,692.8214276177542,1346.1,71.5714133126395,761.5714276177542,1449.7,62.82141331263951,767.8214276177542,1552.4,62.82141331263951,767.8214276177542,1657.2,62.82141331263951,767.8214276177542,1761.9,62.82141331263951,767.8214276177542,1866.1,62.82141331263951,767.8214276177542,1968.4,62.82141331263951,767.8214276177542,2074.3,62.82141331263951,767.8214276177542,2177.1,62.82141331263951,767.8214276177542,2282.4,62.82141331263951,767.8214276177542,2387.6,62.82141331263951,767.8214276177542,2492.1,62.82141331263951,767.8214276177542,2596.7,62.82141331263951,767.8214276177542,2698.9,62.82141331263951,767.8214276177542,2801.2,62.82141331263951,767.8214276177542,2901.2,62.82141331263951,767.8214276177542,3003.6,62.82141331263951,767.8214276177542,3105.8,62.82141331263951,767.8214276177542,3206.5,62.82141331263951,767.8214276177542,3307.3,62.82141331263951,767.8214276177542,3413.1,62.82141331263951,767.8214276177542,3518.9,62.82141331263951,767.8214276177542,3622.6,62.82141331263951,767.8214276177542,3726,62.82141331263951,767.8214276177542,3829,62.82141331263951,767.8214276177542,3936,62.82141331263951,767.8214276177542,4042.4,62.82141331263951,767.8214276177542,4150.7,62.82141331263951,767.8214276177542,4250.7,62.82141331263951,767.8214276177542,4352,62.82141331263951,767.8214276177542,4456.9,62.82141331263951,767.8214276177542,4558.6,62.82141331263951,767.8214276177542,4665.7,62.82141331263951,767.8214276177542,4767.7,62.82141331263951,767.8214276177542,4873,62.82141331263951,767.8214276177542,4976.6]","[5773,5773,3418.5,2011.8,342.7,""smooth"",""down"",""down"",""good_move"",12348.3,6574.5,2376.3,9620.4,351.6,""smooth"",""left"",""left"",""good_move"",15402,3053.1,2727.8,12348.9,325.3,""smooth"",""down"",""down"",""good_move"",18491.6,3089.3,2775.5,15402.4,313.8,""smooth"",""left"",""left"",""good_move""]","",""
"142193","","<div style=""width:500px;"">
  <p>What determined the result of this run?</p>
  </div>","77","html-slider-response","15","355323","0.0-5.0-1.1","121","1","2025-07-16 16:13:34","1f75c3e559b7213887762d5229550c2b","82.53.76.206","Mozilla/5.0 (Windows NT 10.0; Win64; x64) AppleWebKit/537.36 (KHTML, like Gecko) Chrome/138.0.0.0 Safari/537.36","WebKit","Chrome","138.0.0.0","Windows","10.0","https://app.prolific.com/","it-IT,it;q=0.9,en-US;q=0.8,en;q=0.7","672f7b856c1ce6995a666bc6","68764874ac79eee8c1d4cb03","6877cfa2402a3380638ce0af","2","0","672f7b856c1ce6995a666bc6","2","0","2025-07-16T16:19:31.335Z","","","","","","","","","","","AttribQ","","50","","","","","","","","","","","","","","","","","","","","","","","","","","","","",""
"15964","","<div style=""width:500px;"">
  <p>How much control did you have over the ball?</p>
  </div>","67","html-slider-response","16","371289","0.0-5.0-2.1","121","1","2025-07-16 16:13:34","1f75c3e559b7213887762d5229550c2b","82.53.76.206","Mozilla/5.0 (Windows NT 10.0; Win64; x64) AppleWebKit/537.36 (KHTML, like Gecko) Chrome/138.0.0.0 Safari/537.36","WebKit","Chrome","138.0.0.0","Windows","10.0","https://app.prolific.com/","it-IT,it;q=0.9,en-US;q=0.8,en;q=0.7","672f7b856c1ce6995a666bc6","68764874ac79eee8c1d4cb03","6877cfa2402a3380638ce0af","2","0","672f7b856c1ce6995a666bc6","2","0","2025-07-16T16:19:47.301Z","","","","","","","","","","","ControlQ","","50","","","","","","","","","","","","","","","","","","","","","","","","","","","","",""
"3837","","<div style=""width:500px;"">
  <p>How would you describe your current emotional state?</p>
  </div>","57","html-slider-response","17","375127","0.0-5.0-3.1","121","1","2025-07-16 16:13:34","1f75c3e559b7213887762d5229550c2b","82.53.76.206","Mozilla/5.0 (Windows NT 10.0; Win64; x64) AppleWebKit/537.36 (KHTML, like Gecko) Chrome/138.0.0.0 Safari/537.36","WebKit","Chrome","138.0.0.0","Windows","10.0","https://app.prolific.com/","it-IT,it;q=0.9,en-US;q=0.8,en;q=0.7","672f7b856c1ce6995a666bc6","68764874ac79eee8c1d4cb03","6877cfa2402a3380638ce0af","2","0","672f7b856c1ce6995a666bc6","2","0","2025-07-16T16:19:51.139Z","","","","","","","","","","","StressQ","","50","","","","","","","","","","","","","","","","","","","","","","","","","","","","",""
"13169","","<div style=""width:500px;"">
  <p>What best describes how you currently feel?</p>
  </div>","55","html-slider-response","18","388297","0.0-5.0-4.1","121","1","2025-07-16 16:13:34","1f75c3e559b7213887762d5229550c2b","82.53.76.206","Mozilla/5.0 (Windows NT 10.0; Win64; x64) AppleWebKit/537.36 (KHTML, like Gecko) Chrome/138.0.0.0 Safari/537.36","WebKit","Chrome","138.0.0.0","Windows","10.0","https://app.prolific.com/","it-IT,it;q=0.9,en-US;q=0.8,en;q=0.7","672f7b856c1ce6995a666bc6","68764874ac79eee8c1d4cb03","6877cfa2402a3380638ce0af","2","0","672f7b856c1ce6995a666bc6","2","0","2025-07-16T16:20:04.309Z","","","","","","","","","","","MotivationQ","","50","","","","","","","","","","","","","","","","","","","","","","","","","","","","",""
"","","","","ctl-task-cpt","19","420626","0.0-5.0-0.2","121","1","2025-07-16 16:13:34","1f75c3e559b7213887762d5229550c2b","82.53.76.206","Mozilla/5.0 (Windows NT 10.0; Win64; x64) AppleWebKit/537.36 (KHTML, like Gecko) Chrome/138.0.0.0 Safari/537.36","WebKit","Chrome","138.0.0.0","Windows","10.0","https://app.prolific.com/","it-IT,it;q=0.9,en-US;q=0.8,en;q=0.7","672f7b856c1ce6995a666bc6","68764874ac79eee8c1d4cb03","6877cfa2402a3380638ce0af","2","0","672f7b856c1ce6995a666bc6","2","0","2025-07-16T16:20:36.638Z","","","","","","","","","","","","","","win-only","2","g1:SE,g2:NW","0.8","3","0","389756.4","4581.5","9589.9","29310.2","1","4","4","6","1","1","1","5","4","0.03787878787878788","1966.5","3000","950","[""down"",""right""]","{""num_key_presses"":6,""num_perfect"":4,""num_errors"":0,""num_randdir"":2,""num_randdir_good_moves"":1,""num_whilered"":0,""num_whileblue"":0,""num_blue"":1,""num_good_moves"":5}","[416.5714133126395,419.07142761775424,0.6,416.5714133126395,419.07142761775424,106.7,416.5714133126395,419.07142761775424,210.4,416.5714133126395,419.07142761775424,315.4,416.5714133126395,419.07142761775424,419.5,416.5714133126395,419.07142761775424,521.1,416.5714133126395,419.07142761775424,626,466.5714133126395,519.0714276177542,730,585.3214133126395,649.0714276177542,834.4,664.0714133126395,554.0714276177542,939.3,191.5714133126395,46.57142761775425,1044,107.8214133126395,182.82142761775424,1147.3,589.0714133126395,574.0714276177542,1252.9,679.0714133126395,682.8214276177542,1354.1,679.0714133126395,682.8214276177542,1455.1,679.0714133126395,682.8214276177542,1563.4,696.5714133126395,716.5714276177542,1663.5,744.0714133126395,741.5714276177542,1766.1,764.0714133126395,754.0714276177542,1869.8,764.0714133126395,754.0714276177542,1973.9,764.0714133126395,754.0714276177542,2079.6,764.0714133126395,754.0714276177542,2180.2,764.0714133126395,754.0714276177542,2286.4,764.0714133126395,754.0714276177542,2386.5,930.3214133126395,705.3214276177542,2489.1,950.3214133126395,706.5714276177542,2594.1,956.5714133126395,709.0714276177542,2695.6,957.8214133126395,717.8214276177542,2800.1,957.8214133126395,719.0714276177542,2905.3,957.8214133126395,719.0714276177542,3008.3,957.8214133126395,719.0714276177542,3112.3,957.8214133126395,719.0714276177542,3216.6,957.8214133126395,719.0714276177542,3322,957.8214133126395,719.0714276177542,3425.3,957.8214133126395,719.0714276177542,3530.4,957.8214133126395,719.0714276177542,3633.1,957.8214133126395,719.0714276177542,3738.1,957.8214133126395,719.0714276177542,3843.4,957.8214133126395,719.0714276177542,3946.7,957.8214133126395,719.0714276177542,4050.1,957.8214133126395,719.0714276177542,4152.9,957.8214133126395,719.0714276177542,4254.5,957.8214133126395,719.0714276177542,4355.5,957.8214133126395,719.0714276177542,4460.4,957.8214133126395,719.0714276177542,4564,957.8214133126395,719.0714276177542,4667.1,957.8214133126395,719.0714276177542,4772.2,957.8214133126395,719.0714276177542,4878.1,957.8214133126395,719.0714276177542,4980.7]","[1344.1,1344.1,1000,0,344.1,""oops"",""right"",""left"",""bad_move"",8198.3,6853.6,2790.7,5122.7,284.9,""smooth"",""right"",""right"",""good_move"",11628.9,3429.9,2979.4,8199.1,450.5,""oops"",""right"",""right"",""good_move"",14014.2,2384.6,1925.3,11629.7,459.2,""smooth"",""down"",""down"",""good_move"",16536.2,2521.7,2192.2,14014.5,329.5,""smooth"",""down"",""down"",""good_move"",19618.6,3082.3,2755.8,16536.4,326.4,""smooth"",""right"",""right"",""good_move""]","",""
"43020","","<div style=""width:500px;"">
  <p>What determined the result of this run?</p>
  </div>","77","html-slider-response","20","463648","0.0-5.0-1.2","121","1","2025-07-16 16:13:34","1f75c3e559b7213887762d5229550c2b","82.53.76.206","Mozilla/5.0 (Windows NT 10.0; Win64; x64) AppleWebKit/537.36 (KHTML, like Gecko) Chrome/138.0.0.0 Safari/537.36","WebKit","Chrome","138.0.0.0","Windows","10.0","https://app.prolific.com/","it-IT,it;q=0.9,en-US;q=0.8,en;q=0.7","672f7b856c1ce6995a666bc6","68764874ac79eee8c1d4cb03","6877cfa2402a3380638ce0af","2","0","672f7b856c1ce6995a666bc6","2","0","2025-07-16T16:21:19.660Z","","","","","","","","","","","AttribQ","","50","","","","","","","","","","","","","","","","","","","","","","","","","","","","",""
"4562","","<div style=""width:500px;"">
  <p>How much control did you have over the ball?</p>
  </div>","65","html-slider-response","21","468214","0.0-5.0-2.2","121","1","2025-07-16 16:13:34","1f75c3e559b7213887762d5229550c2b","82.53.76.206","Mozilla/5.0 (Windows NT 10.0; Win64; x64) AppleWebKit/537.36 (KHTML, like Gecko) Chrome/138.0.0.0 Safari/537.36","WebKit","Chrome","138.0.0.0","Windows","10.0","https://app.prolific.com/","it-IT,it;q=0.9,en-US;q=0.8,en;q=0.7","672f7b856c1ce6995a666bc6","68764874ac79eee8c1d4cb03","6877cfa2402a3380638ce0af","2","0","672f7b856c1ce6995a666bc6","2","0","2025-07-16T16:21:24.226Z","","","","","","","","","","","ControlQ","","50","","","","","","","","","","","","","","","","","","","","","","","","","","","","",""
"32343","","<div style=""width:500px;"">
  <p>How would you describe your current emotional state?</p>
  </div>","16","html-slider-response","22","500558","0.0-5.0-3.2","121","1","2025-07-16 16:13:34","1f75c3e559b7213887762d5229550c2b","82.53.76.206","Mozilla/5.0 (Windows NT 10.0; Win64; x64) AppleWebKit/537.36 (KHTML, like Gecko) Chrome/138.0.0.0 Safari/537.36","WebKit","Chrome","138.0.0.0","Windows","10.0","https://app.prolific.com/","it-IT,it;q=0.9,en-US;q=0.8,en;q=0.7","672f7b856c1ce6995a666bc6","68764874ac79eee8c1d4cb03","6877cfa2402a3380638ce0af","2","0","672f7b856c1ce6995a666bc6","2","0","2025-07-16T16:21:56.570Z","","","","","","","","","","","StressQ","","50","","","","","","","","","","","","","","","","","","","","","","","","","","","","",""
"5625","","<div style=""width:500px;"">
  <p>What best describes how you currently feel?</p>
  </div>","59","html-slider-response","23","506185","0.0-5.0-4.2","121","1","2025-07-16 16:13:34","1f75c3e559b7213887762d5229550c2b","82.53.76.206","Mozilla/5.0 (Windows NT 10.0; Win64; x64) AppleWebKit/537.36 (KHTML, like Gecko) Chrome/138.0.0.0 Safari/537.36","WebKit","Chrome","138.0.0.0","Windows","10.0","https://app.prolific.com/","it-IT,it;q=0.9,en-US;q=0.8,en;q=0.7","672f7b856c1ce6995a666bc6","68764874ac79eee8c1d4cb03","6877cfa2402a3380638ce0af","2","0","672f7b856c1ce6995a666bc6","2","0","2025-07-16T16:22:02.198Z","","","","","","","","","","","MotivationQ","","50","","","","","","","","","","","","","","","","","","","","","","","","","","","","",""
"","","","","ctl-task-cpt","24","548686","0.0-5.0-0.3","121","1","2025-07-16 16:13:34","1f75c3e559b7213887762d5229550c2b","82.53.76.206","Mozilla/5.0 (Windows NT 10.0; Win64; x64) AppleWebKit/537.36 (KHTML, like Gecko) Chrome/138.0.0.0 Safari/537.36","WebKit","Chrome","138.0.0.0","Windows","10.0","https://app.prolific.com/","it-IT,it;q=0.9,en-US;q=0.8,en;q=0.7","672f7b856c1ce6995a666bc6","68764874ac79eee8c1d4cb03","6877cfa2402a3380638ce0af","2","0","672f7b856c1ce6995a666bc6","2","0","2025-07-16T16:22:44.698Z","","","","","","","","","","","","","","win-only","0","g1:NW,g2:SE","0.7","4","0","507640.9","2045.1","7048.3","39492.5","1","4","8","6","1","1","-1","4","5","0.030303030303030304","1434.8","3000","195","[""left"",""up""]","{""num_key_presses"":11,""num_perfect"":6,""num_errors"":2,""num_randdir"":3,""num_randdir_good_moves"":0,""num_whilered"":0,""num_whileblue"":1,""num_blue"":2,""num_good_moves"":7}","[419.0714133126395,412.82142761775424,0.7,419.0714133126395,412.82142761775424,100.8,419.0714133126395,412.82142761775424,202.1,419.0714133126395,412.82142761775424,309.1,419.0714133126395,412.82142761775424,413,419.0714133126395,412.82142761775424,516.9,419.0714133126395,412.82142761775424,617.5,462.8214133126395,476.57142761775424,718.4,596.5714133126395,639.0714276177542,822.2,640.3214133126395,676.5714276177542,923.3,391.5714133126395,390.32142761775424,1027,221.5714133126395,186.57142761775424,1127.9,182.8214133126395,144.07142761775424,1227.9,91.5714133126395,85.32142761775425,1329.1,81.5714133126395,79.07142761775425,1431.7,81.5714133126395,79.07142761775425,1531.8,81.5714133126395,79.07142761775425,1635.8,81.5714133126395,79.07142761775425,1739.9,81.5714133126395,79.07142761775425,1843,81.5714133126395,79.07142761775425,1946.8,81.5714133126395,79.07142761775425,2052.9,81.5714133126395,79.07142761775425,2153.4,81.5714133126395,79.07142761775425,2257,81.5714133126395,79.07142761775425,2361.7,91.5714133126395,91.57142761775425,2468,137.8214133126395,122.82142761775425,2568.4,251.5714133126395,177.82142761775424,2672.3,274.0714133126395,195.32142761775424,2773.4,277.8214133126395,196.57142761775424,2877,284.0714133126395,205.32142761775424,2977.8,311.5714133126395,231.57142761775424,3082.2,314.0714133126395,234.07142761775424,3183.1,322.8214133126395,240.32142761775424,3286.1,322.8214133126395,240.32142761775424,3388.3,322.8214133126395,240.32142761775424,3497.5,322.8214133126395,240.32142761775424,3601.5,322.8214133126395,240.32142761775424,3703,322.8214133126395,240.32142761775424,3803,322.8214133126395,240.32142761775424,3908.8,320.3214133126395,242.82142761775424,4014.3,320.3214133126395,242.82142761775424,4116.3,317.8214133126395,242.82142761775424,4218.4,317.8214133126395,242.82142761775424,4322.7,317.8214133126395,242.82142761775424,4426.4,317.8214133126395,242.82142761775424,4526.7,317.8214133126395,242.82142761775424,4627.7,317.8214133126395,242.82142761775424,4731.6,317.8214133126395,242.82142761775424,4834.3,317.8214133126395,242.82142761775424,4940]","[259.5,259.5,1000,0,-740.5,""error"",""-"",""-"",""no_move"",8047.5,7787.3,2617.2,5099.5,330.8,""oops"",""left"",""right"",""bad_move"",11414.4,3366.5,2834.9,8047.9,531.6,""smooth"",""left"",""left"",""good_move"",14079,2664.3,2259.2,11414.7,405.1,""smooth"",""left"",""left"",""good_move"",17334.1,3255.1,2868.6,14079.2,386.4,""oops"",""up"",""down"",""bad_move"",19920.9,2586.5,2294.5,17334.5,292,""smooth"",""up"",""up"",""good_move"",22438.7,2517.5,2204.5,19921.2,313,""smooth"",""up"",""up"",""good_move"",24962.5,2523.2,2244.6,22439.3,278.6,""oops"",""up"",""right"",""bad_move"",27562.5,2599.6,2352.2,24963,247.4,""while_blue"",""up"",""up"",""good_move"",29562.9,2000,1617.9,27562.9,382.1,""smooth"",""left"",""left"",""good_move"",32348.2,2784.8,2470.2,29563.4,314.6,""smooth"",""left"",""left"",""good_move""]","",""
"4073","","<div style=""width:500px;"">
  <p>What determined the result of this run?</p>
  </div>","60","html-slider-response","25","552760","0.0-5.0-1.3","121","1","2025-07-16 16:13:34","1f75c3e559b7213887762d5229550c2b","82.53.76.206","Mozilla/5.0 (Windows NT 10.0; Win64; x64) AppleWebKit/537.36 (KHTML, like Gecko) Chrome/138.0.0.0 Safari/537.36","WebKit","Chrome","138.0.0.0","Windows","10.0","https://app.prolific.com/","it-IT,it;q=0.9,en-US;q=0.8,en;q=0.7","672f7b856c1ce6995a666bc6","68764874ac79eee8c1d4cb03","6877cfa2402a3380638ce0af","2","0","672f7b856c1ce6995a666bc6","2","0","2025-07-16T16:22:48.772Z","","","","","","","","","","","AttribQ","","50","","","","","","","","","","","","","","","","","","","","","","","","","","","","",""
"2327","","<div style=""width:500px;"">
  <p>How much control did you have over the ball?</p>
  </div>","39","html-slider-response","26","555088","0.0-5.0-2.3","121","1","2025-07-16 16:13:34","1f75c3e559b7213887762d5229550c2b","82.53.76.206","Mozilla/5.0 (Windows NT 10.0; Win64; x64) AppleWebKit/537.36 (KHTML, like Gecko) Chrome/138.0.0.0 Safari/537.36","WebKit","Chrome","138.0.0.0","Windows","10.0","https://app.prolific.com/","it-IT,it;q=0.9,en-US;q=0.8,en;q=0.7","672f7b856c1ce6995a666bc6","68764874ac79eee8c1d4cb03","6877cfa2402a3380638ce0af","2","0","672f7b856c1ce6995a666bc6","2","0","2025-07-16T16:22:51.100Z","","","","","","","","","","","ControlQ","","50","","","","","","","","","","","","","","","","","","","","","","","","","","","","",""
"2827","","<div style=""width:500px;"">
  <p>How would you describe your current emotional state?</p>
  </div>","54","html-slider-response","27","557915","0.0-5.0-3.3","121","1","2025-07-16 16:13:34","1f75c3e559b7213887762d5229550c2b","82.53.76.206","Mozilla/5.0 (Windows NT 10.0; Win64; x64) AppleWebKit/537.36 (KHTML, like Gecko) Chrome/138.0.0.0 Safari/537.36","WebKit","Chrome","138.0.0.0","Windows","10.0","https://app.prolific.com/","it-IT,it;q=0.9,en-US;q=0.8,en;q=0.7","672f7b856c1ce6995a666bc6","68764874ac79eee8c1d4cb03","6877cfa2402a3380638ce0af","2","0","672f7b856c1ce6995a666bc6","2","0","2025-07-16T16:22:53.927Z","","","","","","","","","","","StressQ","","50","","","","","","","","","","","","","","","","","","","","","","","","","","","","",""
"2774","","<div style=""width:500px;"">
  <p>What best describes how you currently feel?</p>
  </div>","55","html-slider-response","28","560690","0.0-5.0-4.3","121","1","2025-07-16 16:13:34","1f75c3e559b7213887762d5229550c2b","82.53.76.206","Mozilla/5.0 (Windows NT 10.0; Win64; x64) AppleWebKit/537.36 (KHTML, like Gecko) Chrome/138.0.0.0 Safari/537.36","WebKit","Chrome","138.0.0.0","Windows","10.0","https://app.prolific.com/","it-IT,it;q=0.9,en-US;q=0.8,en;q=0.7","672f7b856c1ce6995a666bc6","68764874ac79eee8c1d4cb03","6877cfa2402a3380638ce0af","2","0","672f7b856c1ce6995a666bc6","2","0","2025-07-16T16:22:56.702Z","","","","","","","","","","","MotivationQ","","50","","","","","","","","","","","","","","","","","","","","","","","","","","","","",""
"","","","","ctl-task-cpt","29","579958","0.0-5.0-0.4","121","1","2025-07-16 16:13:34","1f75c3e559b7213887762d5229550c2b","82.53.76.206","Mozilla/5.0 (Windows NT 10.0; Win64; x64) AppleWebKit/537.36 (KHTML, like Gecko) Chrome/138.0.0.0 Safari/537.36","WebKit","Chrome","138.0.0.0","Windows","10.0","https://app.prolific.com/","it-IT,it;q=0.9,en-US;q=0.8,en;q=0.7","672f7b856c1ce6995a666bc6","68764874ac79eee8c1d4cb03","6877cfa2402a3380638ce0af","2","0","672f7b856c1ce6995a666bc6","2","0","2025-07-16T16:23:15.970Z","","","","","","","","","","","","","","win-only","1","g1:NE,g2:SW","0.6","5","0","562145.3","923.7","5927","16258.3","1","4","4","6","1","1","1","5","4","0.03787878787878788","1755.4","3000","1780","[""up"",""right""]","{""num_key_presses"":4,""num_perfect"":2,""num_errors"":0,""num_randdir"":2,""num_randdir_good_moves"":2,""num_whilered"":0,""num_whileblue"":0,""num_blue"":0,""num_good_moves"":4}","[417.8214133126395,421.57142761775424,0.2,417.8214133126395,421.57142761775424,101.3,417.8214133126395,421.57142761775424,201.5,417.8214133126395,421.57142761775424,303.5,417.8214133126395,421.57142761775424,403.6,417.8214133126395,421.57142761775424,506.8,417.8214133126395,421.57142761775424,610.2,417.8214133126395,421.57142761775424,712.3,417.8214133126395,421.57142761775424,822.5,417.8214133126395,421.57142761775424,922.7,417.8214133126395,421.57142761775424,1022.8,417.8214133126395,421.57142761775424,1123.9,609.0714133126395,94.07142761775425,1227.3,674.0714133126395,25.321427617754253,1327.6,680.3214133126395,16.571427617754253,1432.2,772.8214133126395,89.07142761775425,1532.6,772.8214133126395,84.07142761775425,1635.9,762.8214133126395,66.57142761775425,1737.2,762.8214133126395,66.57142761775425,1838,762.8214133126395,66.57142761775425,1942.3,762.8214133126395,66.57142761775425,2042.8,762.8214133126395,66.57142761775425,2145.4,762.8214133126395,66.57142761775425,2246.3,762.8214133126395,66.57142761775425,2346.9,762.8214133126395,66.57142761775425,2450,762.8214133126395,66.57142761775425,2550.1,762.8214133126395,66.57142761775425,2652.9,762.8214133126395,66.57142761775425,2753.9,762.8214133126395,66.57142761775425,2854,762.8214133126395,66.57142761775425,2962.4,762.8214133126395,66.57142761775425,3073.9,762.8214133126395,66.57142761775425,3173.9,762.8214133126395,66.57142761775425,3276.8,762.8214133126395,66.57142761775425,3378.5,762.8214133126395,66.57142761775425,3479.1,762.8214133126395,66.57142761775425,3581.7,762.8214133126395,66.57142761775425,3682.5,762.8214133126395,66.57142761775425,3786.2,762.8214133126395,66.57142761775425,3887.2,762.8214133126395,66.57142761775425,3988.3,762.8214133126395,66.57142761775425,4092.6,762.8214133126395,66.57142761775425,4194,762.8214133126395,66.57142761775425,4296.9,762.8214133126395,66.57142761775425,4398.8,762.8214133126395,66.57142761775425,4500.8,762.8214133126395,66.57142761775425,4602.1,762.8214133126395,66.57142761775425,4710.3,762.8214133126395,66.57142761775425,4812.2,762.8214133126395,66.57142761775425,4913]","[1335.7,1335.7,1000,0,335.7,""oops"",""up"",""up"",""good_move"",3909.4,2573.3,2231.2,1336.1,342.1,""smooth"",""right"",""right"",""good_move"",6757.6,2847.8,2565.5,3909.8,282.3,""oops"",""up"",""right"",""good_move"",10232.8,3474.8,3135.3,6758,339.5,""smooth"",""up"",""up"",""good_move""]","",""
"3985","","<div style=""width:500px;"">
  <p>What determined the result of this run?</p>
  </div>","69","html-slider-response","30","583943","0.0-5.0-1.4","121","1","2025-07-16 16:13:34","1f75c3e559b7213887762d5229550c2b","82.53.76.206","Mozilla/5.0 (Windows NT 10.0; Win64; x64) AppleWebKit/537.36 (KHTML, like Gecko) Chrome/138.0.0.0 Safari/537.36","WebKit","Chrome","138.0.0.0","Windows","10.0","https://app.prolific.com/","it-IT,it;q=0.9,en-US;q=0.8,en;q=0.7","672f7b856c1ce6995a666bc6","68764874ac79eee8c1d4cb03","6877cfa2402a3380638ce0af","2","0","672f7b856c1ce6995a666bc6","2","0","2025-07-16T16:23:19.956Z","","","","","","","","","","","AttribQ","","50","","","","","","","","","","","","","","","","","","","","","","","","","","","","",""
"1899","","<div style=""width:500px;"">
  <p>How much control did you have over the ball?</p>
  </div>","80","html-slider-response","31","585843","0.0-5.0-2.4","121","1","2025-07-16 16:13:34","1f75c3e559b7213887762d5229550c2b","82.53.76.206","Mozilla/5.0 (Windows NT 10.0; Win64; x64) AppleWebKit/537.36 (KHTML, like Gecko) Chrome/138.0.0.0 Safari/537.36","WebKit","Chrome","138.0.0.0","Windows","10.0","https://app.prolific.com/","it-IT,it;q=0.9,en-US;q=0.8,en;q=0.7","672f7b856c1ce6995a666bc6","68764874ac79eee8c1d4cb03","6877cfa2402a3380638ce0af","2","0","672f7b856c1ce6995a666bc6","2","0","2025-07-16T16:23:21.855Z","","","","","","","","","","","ControlQ","","50","","","","","","","","","","","","","","","","","","","","","","","","","","","","",""
"2768","","<div style=""width:500px;"">
  <p>How would you describe your current emotional state?</p>
  </div>","25","html-slider-response","32","588612","0.0-5.0-3.4","121","1","2025-07-16 16:13:34","1f75c3e559b7213887762d5229550c2b","82.53.76.206","Mozilla/5.0 (Windows NT 10.0; Win64; x64) AppleWebKit/537.36 (KHTML, like Gecko) Chrome/138.0.0.0 Safari/537.36","WebKit","Chrome","138.0.0.0","Windows","10.0","https://app.prolific.com/","it-IT,it;q=0.9,en-US;q=0.8,en;q=0.7","672f7b856c1ce6995a666bc6","68764874ac79eee8c1d4cb03","6877cfa2402a3380638ce0af","2","0","672f7b856c1ce6995a666bc6","2","0","2025-07-16T16:23:24.624Z","","","","","","","","","","","StressQ","","50","","","","","","","","","","","","","","","","","","","","","","","","","","","","",""
"2268","","<div style=""width:500px;"">
  <p>What best describes how you currently feel?</p>
  </div>","65","html-slider-response","33","590882","0.0-5.0-4.4","121","1","2025-07-16 16:13:34","1f75c3e559b7213887762d5229550c2b","82.53.76.206","Mozilla/5.0 (Windows NT 10.0; Win64; x64) AppleWebKit/537.36 (KHTML, like Gecko) Chrome/138.0.0.0 Safari/537.36","WebKit","Chrome","138.0.0.0","Windows","10.0","https://app.prolific.com/","it-IT,it;q=0.9,en-US;q=0.8,en;q=0.7","672f7b856c1ce6995a666bc6","68764874ac79eee8c1d4cb03","6877cfa2402a3380638ce0af","2","0","672f7b856c1ce6995a666bc6","2","0","2025-07-16T16:23:26.894Z","","","","","","","","","","","MotivationQ","","50","","","","","","","","","","","","","","","","","","","","","","","","","","","","",""
"","","","","ctl-task-cpt","34","618382","0.0-5.0-0.5","121","1","2025-07-16 16:13:34","1f75c3e559b7213887762d5229550c2b","82.53.76.206","Mozilla/5.0 (Windows NT 10.0; Win64; x64) AppleWebKit/537.36 (KHTML, like Gecko) Chrome/138.0.0.0 Safari/537.36","WebKit","Chrome","138.0.0.0","Windows","10.0","https://app.prolific.com/","it-IT,it;q=0.9,en-US;q=0.8,en;q=0.7","672f7b856c1ce6995a666bc6","68764874ac79eee8c1d4cb03","6877cfa2402a3380638ce0af","2","0","672f7b856c1ce6995a666bc6","2","0","2025-07-16T16:23:54.394Z","","","","","","","","","","","","","","win-only","0","g1:NW,g2:SE","0.5","6","0","592336.6","1000.1","6003.4","24482.2","1","4","8","6","1","1","0","5","5","0.03787878787878788","3208.3","3000","1450","[""left"",""up""]","{""num_key_presses"":7,""num_perfect"":4,""num_errors"":1,""num_randdir"":2,""num_randdir_good_moves"":1,""num_whilered"":0,""num_whileblue"":0,""num_blue"":0,""num_good_moves"":5}","[415.3214133126395,417.82142761775424,0.2,415.3214133126395,417.82142761775424,101.6,415.3214133126395,417.82142761775424,203.1,415.3214133126395,417.82142761775424,308.2,415.3214133126395,417.82142761775424,408.4,415.3214133126395,417.82142761775424,518.5,415.3214133126395,417.82142761775424,623.4,415.3214133126395,417.82142761775424,724.7,299.0714133126395,324.07142761775424,829.6,261.5714133126395,291.57142761775424,929.7,186.5714133126395,209.07142761775424,1033.7,102.8214133126395,111.57142761775425,1139.3,60.32141331263951,60.32142761775425,1242.3,57.82141331263951,59.07142761775425,1344.9,57.82141331263951,59.07142761775425,1447.2,57.82141331263951,59.07142761775425,1547.4,57.82141331263951,59.07142761775425,1648.2,57.82141331263951,59.07142761775425,1751,57.82141331263951,59.07142761775425,1853.1,57.82141331263951,59.07142761775425,1953.5,57.82141331263951,59.07142761775425,2054.2,57.82141331263951,59.07142761775425,2154.7,57.82141331263951,59.07142761775425,2256.4,57.82141331263951,59.07142761775425,2358.9,57.82141331263951,59.07142761775425,2462.4,57.82141331263951,59.07142761775425,2567.6,57.82141331263951,59.07142761775425,2667.7,57.82141331263951,59.07142761775425,2768.1,57.82141331263951,59.07142761775425,2873.8,57.82141331263951,59.07142761775425,2977.2,57.82141331263951,59.07142761775425,3083.6,57.82141331263951,59.07142761775425,3188.3,57.82141331263951,59.07142761775425,3290.2,57.82141331263951,59.07142761775425,3400.3,57.82141331263951,59.07142761775425,3503.7,57.82141331263951,59.07142761775425,3604.1,57.82141331263951,59.07142761775425,3706.7,57.82141331263951,59.07142761775425,3807.1,57.82141331263951,59.07142761775425,3913.2,57.82141331263951,59.07142761775425,4018.9,57.82141331263951,59.07142761775425,4119.2,57.82141331263951,59.07142761775425,4224.4,57.82141331263951,59.07142761775425,4325.6,57.82141331263951,59.07142761775425,4434.8,57.82141331263951,59.07142761775425,4534.9,57.82141331263951,59.07142761775425,4639.5,57.82141331263951,59.07142761775425,4745.4,57.82141331263951,59.07142761775425,4848.8,57.82141331263951,59.07142761775425,4953.8]","[349.5,349.5,1000,0,-650.5,""error"",""-"",""-"",""no_move"",4185.5,3835.8,2504.9,1355,325.6,""oops"",""up"",""down"",""bad_move"",7054.1,2868,2514,4186.1,354,""oops"",""left"",""left"",""good_move"",9984.3,2929.9,2633.5,7054.4,296.4,""smooth"",""left"",""left"",""good_move"",12372.5,2388.2,2110.1,9984.4,278.1,""smooth"",""up"",""up"",""good_move"",15467.7,3094.5,2828.7,12373.2,265.8,""smooth"",""up"",""up"",""good_move"",18371.7,2903.7,2621.2,15468,282.5,""smooth"",""up"",""up"",""good_move""]","",""
"28457","","<div style=""width:500px;"">
  <p>What determined the result of this run?</p>
  </div>","62","html-slider-response","35","646841","0.0-5.0-1.5","121","1","2025-07-16 16:13:34","1f75c3e559b7213887762d5229550c2b","82.53.76.206","Mozilla/5.0 (Windows NT 10.0; Win64; x64) AppleWebKit/537.36 (KHTML, like Gecko) Chrome/138.0.0.0 Safari/537.36","WebKit","Chrome","138.0.0.0","Windows","10.0","https://app.prolific.com/","it-IT,it;q=0.9,en-US;q=0.8,en;q=0.7","672f7b856c1ce6995a666bc6","68764874ac79eee8c1d4cb03","6877cfa2402a3380638ce0af","2","0","672f7b856c1ce6995a666bc6","2","0","2025-07-16T16:24:22.853Z","","","","","","","","","","","AttribQ","","50","","","","","","","","","","","","","","","","","","","","","","","","","","","","",""
"4784","","<div style=""width:500px;"">
  <p>How much control did you have over the ball?</p>
  </div>","39","html-slider-response","36","651626","0.0-5.0-2.5","121","1","2025-07-16 16:13:34","1f75c3e559b7213887762d5229550c2b","82.53.76.206","Mozilla/5.0 (Windows NT 10.0; Win64; x64) AppleWebKit/537.36 (KHTML, like Gecko) Chrome/138.0.0.0 Safari/537.36","WebKit","Chrome","138.0.0.0","Windows","10.0","https://app.prolific.com/","it-IT,it;q=0.9,en-US;q=0.8,en;q=0.7","672f7b856c1ce6995a666bc6","68764874ac79eee8c1d4cb03","6877cfa2402a3380638ce0af","2","0","672f7b856c1ce6995a666bc6","2","0","2025-07-16T16:24:27.638Z","","","","","","","","","","","ControlQ","","50","","","","","","","","","","","","","","","","","","","","","","","","","","","","",""
"1495","","<div style=""width:500px;"">
  <p>How would you describe your current emotional state?</p>
  </div>","57","html-slider-response","37","653121","0.0-5.0-3.5","121","1","2025-07-16 16:13:34","1f75c3e559b7213887762d5229550c2b","82.53.76.206","Mozilla/5.0 (Windows NT 10.0; Win64; x64) AppleWebKit/537.36 (KHTML, like Gecko) Chrome/138.0.0.0 Safari/537.36","WebKit","Chrome","138.0.0.0","Windows","10.0","https://app.prolific.com/","it-IT,it;q=0.9,en-US;q=0.8,en;q=0.7","672f7b856c1ce6995a666bc6","68764874ac79eee8c1d4cb03","6877cfa2402a3380638ce0af","2","0","672f7b856c1ce6995a666bc6","2","0","2025-07-16T16:24:29.134Z","","","","","","","","","","","StressQ","","50","","","","","","","","","","","","","","","","","","","","","","","","","","","","",""
"2631","","<div style=""width:500px;"">
  <p>What best describes how you currently feel?</p>
  </div>","63","html-slider-response","38","655754","0.0-5.0-4.5","121","1","2025-07-16 16:13:34","1f75c3e559b7213887762d5229550c2b","82.53.76.206","Mozilla/5.0 (Windows NT 10.0; Win64; x64) AppleWebKit/537.36 (KHTML, like Gecko) Chrome/138.0.0.0 Safari/537.36","WebKit","Chrome","138.0.0.0","Windows","10.0","https://app.prolific.com/","it-IT,it;q=0.9,en-US;q=0.8,en;q=0.7","672f7b856c1ce6995a666bc6","68764874ac79eee8c1d4cb03","6877cfa2402a3380638ce0af","2","0","672f7b856c1ce6995a666bc6","2","0","2025-07-16T16:24:31.766Z","","","","","","","","","","","MotivationQ","","50","","","","","","","","","","","","","","","","","","","","","","","","","","","","",""
"","","","","ctl-task-cpt","39","686234","0.0-5.0-0.6","121","1","2025-07-16 16:13:34","1f75c3e559b7213887762d5229550c2b","82.53.76.206","Mozilla/5.0 (Windows NT 10.0; Win64; x64) AppleWebKit/537.36 (KHTML, like Gecko) Chrome/138.0.0.0 Safari/537.36","WebKit","Chrome","138.0.0.0","Windows","10.0","https://app.prolific.com/","it-IT,it;q=0.9,en-US;q=0.8,en;q=0.7","672f7b856c1ce6995a666bc6","68764874ac79eee8c1d4cb03","6877cfa2402a3380638ce0af","2","0","672f7b856c1ce6995a666bc6","2","0","2025-07-16T16:25:02.246Z","","","","","","","","","","","","","","win-only","2","g1:SE,g2:NW","0.4","7","0","657209.2","2128.5","7133","27468.1","1","4","8","6","1","1","1","6","5","0.045454545454545456","1008.4","3000","945","[""down"",""right""]","{""num_key_presses"":6,""num_perfect"":3,""num_errors"":0,""num_randdir"":3,""num_randdir_good_moves"":2,""num_whilered"":0,""num_whileblue"":0,""num_blue"":1,""num_good_moves"":5}","[424.0714133126395,411.57142761775424,0.3,424.0714133126395,411.57142761775424,105.2,424.0714133126395,411.57142761775424,209.3,424.0714133126395,411.57142761775424,317.2,424.0714133126395,411.57142761775424,420.9,431.5714133126395,419.07142761775424,521.1,526.5714133126395,549.0714276177542,621.1,690.3214133126395,667.8214276177542,722.9,697.8214133126395,675.3214276177542,823,729.0714133126395,704.0714276177542,928.4,737.8214133126395,712.8214276177542,1030.6,740.3214133126395,712.8214276177542,1137.4,740.3214133126395,712.8214276177542,1237.7,740.3214133126395,712.8214276177542,1342.5,740.3214133126395,712.8214276177542,1447.8,740.3214133126395,712.8214276177542,1554.4,740.3214133126395,712.8214276177542,1657.4,740.3214133126395,712.8214276177542,1759.2,740.3214133126395,712.8214276177542,1862.1,740.3214133126395,712.8214276177542,1962.8,740.3214133126395,712.8214276177542,2064.1,740.3214133126395,712.8214276177542,2166.7,740.3214133126395,712.8214276177542,2268.7,740.3214133126395,712.8214276177542,2373.4,740.3214133126395,712.8214276177542,2477.3,740.3214133126395,712.8214276177542,2579.2,740.3214133126395,712.8214276177542,2682.8,740.3214133126395,712.8214276177542,2783.7,740.3214133126395,712.8214276177542,2889,740.3214133126395,712.8214276177542,2989.5,740.3214133126395,712.8214276177542,3094,740.3214133126395,712.8214276177542,3194.4,740.3214133126395,712.8214276177542,3299.5,740.3214133126395,712.8214276177542,3404.2,740.3214133126395,712.8214276177542,3507,740.3214133126395,712.8214276177542,3609,740.3214133126395,712.8214276177542,3713,740.3214133126395,712.8214276177542,3814.7,740.3214133126395,712.8214276177542,3917.1,740.3214133126395,712.8214276177542,4018.4,740.3214133126395,712.8214276177542,4119.7,740.3214133126395,712.8214276177542,4223.8,740.3214133126395,712.8214276177542,4328.1,740.3214133126395,712.8214276177542,4433.1,740.3214133126395,712.8214276177542,4537.3,740.3214133126395,712.8214276177542,4637.8,740.3214133126395,712.8214276177542,4740.3,740.3214133126395,712.8214276177542,4843.1,740.3214133126395,712.8214276177542,4943.9]","[1355.2,1355.2,1000,0,355.2,""oops"",""down"",""up"",""bad_move"",7980.1,6624.4,2354.1,5274.8,351.2,""smooth"",""right"",""right"",""good_move"",10946,2965.6,2561.8,7980.4,403.8,""smooth"",""down"",""down"",""good_move"",14038.2,3091.6,2736,10946.7,355.5,""smooth"",""down"",""down"",""good_move"",17363.3,3325,2993.5,14038.4,331.4,""oops"",""down"",""right"",""good_move"",20249.3,2885.7,2549.4,17363.6,336.3,""oops"",""down"",""down"",""good_move""]","",""
"3441","","<div style=""width:500px;"">
  <p>What determined the result of this run?</p>
  </div>","57","html-slider-response","40","689676","0.0-5.0-1.6","121","1","2025-07-16 16:13:34","1f75c3e559b7213887762d5229550c2b","82.53.76.206","Mozilla/5.0 (Windows NT 10.0; Win64; x64) AppleWebKit/537.36 (KHTML, like Gecko) Chrome/138.0.0.0 Safari/537.36","WebKit","Chrome","138.0.0.0","Windows","10.0","https://app.prolific.com/","it-IT,it;q=0.9,en-US;q=0.8,en;q=0.7","672f7b856c1ce6995a666bc6","68764874ac79eee8c1d4cb03","6877cfa2402a3380638ce0af","2","0","672f7b856c1ce6995a666bc6","2","0","2025-07-16T16:25:05.688Z","","","","","","","","","","","AttribQ","","50","","","","","","","","","","","","","","","","","","","","","","","","","","","","",""
"2995","","<div style=""width:500px;"">
  <p>How much control did you have over the ball?</p>
  </div>","43","html-slider-response","41","692672","0.0-5.0-2.6","121","1","2025-07-16 16:13:34","1f75c3e559b7213887762d5229550c2b","82.53.76.206","Mozilla/5.0 (Windows NT 10.0; Win64; x64) AppleWebKit/537.36 (KHTML, like Gecko) Chrome/138.0.0.0 Safari/537.36","WebKit","Chrome","138.0.0.0","Windows","10.0","https://app.prolific.com/","it-IT,it;q=0.9,en-US;q=0.8,en;q=0.7","672f7b856c1ce6995a666bc6","68764874ac79eee8c1d4cb03","6877cfa2402a3380638ce0af","2","0","672f7b856c1ce6995a666bc6","2","0","2025-07-16T16:25:08.684Z","","","","","","","","","","","ControlQ","","50","","","","","","","","","","","","","","","","","","","","","","","","","","","","",""
"3841","","<div style=""width:500px;"">
  <p>How would you describe your current emotional state?</p>
  </div>","24","html-slider-response","42","696514","0.0-5.0-3.6","121","1","2025-07-16 16:13:34","1f75c3e559b7213887762d5229550c2b","82.53.76.206","Mozilla/5.0 (Windows NT 10.0; Win64; x64) AppleWebKit/537.36 (KHTML, like Gecko) Chrome/138.0.0.0 Safari/537.36","WebKit","Chrome","138.0.0.0","Windows","10.0","https://app.prolific.com/","it-IT,it;q=0.9,en-US;q=0.8,en;q=0.7","672f7b856c1ce6995a666bc6","68764874ac79eee8c1d4cb03","6877cfa2402a3380638ce0af","2","0","672f7b856c1ce6995a666bc6","2","0","2025-07-16T16:25:12.526Z","","","","","","","","","","","StressQ","","50","","","","","","","","","","","","","","","","","","","","","","","","","","","","",""
"2619","","<div style=""width:500px;"">
  <p>What best describes how you currently feel?</p>
  </div>","59","html-slider-response","43","699133","0.0-5.0-4.6","121","1","2025-07-16 16:13:34","1f75c3e559b7213887762d5229550c2b","82.53.76.206","Mozilla/5.0 (Windows NT 10.0; Win64; x64) AppleWebKit/537.36 (KHTML, like Gecko) Chrome/138.0.0.0 Safari/537.36","WebKit","Chrome","138.0.0.0","Windows","10.0","https://app.prolific.com/","it-IT,it;q=0.9,en-US;q=0.8,en;q=0.7","672f7b856c1ce6995a666bc6","68764874ac79eee8c1d4cb03","6877cfa2402a3380638ce0af","2","0","672f7b856c1ce6995a666bc6","2","0","2025-07-16T16:25:15.146Z","","","","","","","","","","","MotivationQ","","50","","","","","","","","","","","","","","","","","","","","","","","","","","","","",""
"","","","","ctl-task-cpt","44","732979","0.0-5.0-0.7","121","1","2025-07-16 16:13:34","1f75c3e559b7213887762d5229550c2b","82.53.76.206","Mozilla/5.0 (Windows NT 10.0; Win64; x64) AppleWebKit/537.36 (KHTML, like Gecko) Chrome/138.0.0.0 Safari/537.36","WebKit","Chrome","138.0.0.0","Windows","10.0","https://app.prolific.com/","it-IT,it;q=0.9,en-US;q=0.8,en;q=0.7","672f7b856c1ce6995a666bc6","68764874ac79eee8c1d4cb03","6877cfa2402a3380638ce0af","2","0","672f7b856c1ce6995a666bc6","2","0","2025-07-16T16:25:48.991Z","","","","","","","","","","","","","","win-only","1","g1:NE,g2:SW","0.3","8","0","700588.9","1251.2","6253","30828.2","1","4","4","6","1","1","1","7","6","0.05303030303030303","1055.7","3000","735","[""up"",""right""]","{""num_key_presses"":8,""num_perfect"":3,""num_errors"":0,""num_randdir"":5,""num_randdir_good_moves"":3,""num_whilered"":0,""num_whileblue"":0,""num_blue"":1,""num_good_moves"":6}","[416.5714133126395,421.57142761775424,0.4,416.5714133126395,421.57142761775424,103,416.5714133126395,421.57142761775424,206.1,416.5714133126395,421.57142761775424,309.3,416.5714133126395,421.57142761775424,412.4,416.5714133126395,421.57142761775424,517.1,531.5714133126395,256.57142761775424,619.3,621.5714133126395,161.57142761775424,722.9,682.8214133126395,121.57142761775425,823.9,721.5714133126395,109.07142761775425,927.9,722.8214133126395,109.07142761775425,1032.2,722.8214133126395,109.07142761775425,1134.6,722.8214133126395,109.07142761775425,1236.4,722.8214133126395,109.07142761775425,1337.4,722.8214133126395,109.07142761775425,1442,722.8214133126395,109.07142761775425,1547.7,722.8214133126395,109.07142761775425,1652.6,722.8214133126395,109.07142761775425,1755.4,722.8214133126395,109.07142761775425,1857.9,722.8214133126395,109.07142761775425,1962.9,722.8214133126395,109.07142761775425,2066.5,722.8214133126395,109.07142761775425,2167.2,722.8214133126395,109.07142761775425,2267.6,722.8214133126395,109.07142761775425,2372.6,722.8214133126395,109.07142761775425,2475.7,722.8214133126395,109.07142761775425,2578,722.8214133126395,109.07142761775425,2681.9,722.8214133126395,109.07142761775425,2782.9,722.8214133126395,109.07142761775425,2883.4,722.8214133126395,109.07142761775425,2986.2,722.8214133126395,109.07142761775425,3086.3,722.8214133126395,109.07142761775425,3188,722.8214133126395,109.07142761775425,3290.9,722.8214133126395,109.07142761775425,3391.4,722.8214133126395,109.07142761775425,3496.1,722.8214133126395,109.07142761775425,3597.5,722.8214133126395,109.07142761775425,3703,722.8214133126395,109.07142761775425,3805.8,722.8214133126395,109.07142761775425,3906,722.8214133126395,109.07142761775425,4010.5,722.8214133126395,109.07142761775425,4112.5,722.8214133126395,109.07142761775425,4216.4,722.8214133126395,109.07142761775425,4318.3,722.8214133126395,109.07142761775425,4420.2,722.8214133126395,109.07142761775425,4527.8,722.8214133126395,109.07142761775425,4631.1,722.8214133126395,109.07142761775425,4733.8,722.8214133126395,109.07142761775425,4836.6,722.8214133126395,109.07142761775425,4936.7]","[1323.7,1323.7,1000,0,323.7,""smooth"",""right"",""right"",""good_move"",3869.3,2544.8,2204.1,1324.5,340.7,""oops"",""up"",""up"",""good_move"",6977.9,3108.4,2803.8,3869.5,304.6,""smooth"",""up"",""up"",""good_move"",13081.2,6103.1,2721.1,10015.7,344.4,""oops"",""right"",""down"",""bad_move"",15773.5,2692,2407.6,13081.5,284.4,""smooth"",""right"",""right"",""good_move"",18104.7,2330.8,1992.8,15773.9,338,""oops"",""up"",""left"",""bad_move"",21609.2,3504.1,3132.2,18105.2,371.9,""oops"",""right"",""right"",""good_move"",24476.4,2866.8,2538.2,21609.6,328.6,""oops"",""up"",""up"",""good_move""]","",""
"5442","","<div style=""width:500px;"">
  <p>What determined the result of this run?</p>
  </div>","58","html-slider-response","45","738424","0.0-5.0-1.7","121","1","2025-07-16 16:13:34","1f75c3e559b7213887762d5229550c2b","82.53.76.206","Mozilla/5.0 (Windows NT 10.0; Win64; x64) AppleWebKit/537.36 (KHTML, like Gecko) Chrome/138.0.0.0 Safari/537.36","WebKit","Chrome","138.0.0.0","Windows","10.0","https://app.prolific.com/","it-IT,it;q=0.9,en-US;q=0.8,en;q=0.7","672f7b856c1ce6995a666bc6","68764874ac79eee8c1d4cb03","6877cfa2402a3380638ce0af","2","0","672f7b856c1ce6995a666bc6","2","0","2025-07-16T16:25:54.436Z","","","","","","","","","","","AttribQ","","50","","","","","","","","","","","","","","","","","","","","","","","","","","","","",""
"2745","","<div style=""width:500px;"">
  <p>How much control did you have over the ball?</p>
  </div>","46","html-slider-response","46","741170","0.0-5.0-2.7","121","1","2025-07-16 16:13:34","1f75c3e559b7213887762d5229550c2b","82.53.76.206","Mozilla/5.0 (Windows NT 10.0; Win64; x64) AppleWebKit/537.36 (KHTML, like Gecko) Chrome/138.0.0.0 Safari/537.36","WebKit","Chrome","138.0.0.0","Windows","10.0","https://app.prolific.com/","it-IT,it;q=0.9,en-US;q=0.8,en;q=0.7","672f7b856c1ce6995a666bc6","68764874ac79eee8c1d4cb03","6877cfa2402a3380638ce0af","2","0","672f7b856c1ce6995a666bc6","2","0","2025-07-16T16:25:57.182Z","","","","","","","","","","","ControlQ","","50","","","","","","","","","","","","","","","","","","","","","","","","","","","","",""
"2515","","<div style=""width:500px;"">
  <p>How would you describe your current emotional state?</p>
  </div>","53","html-slider-response","47","743686","0.0-5.0-3.7","121","1","2025-07-16 16:13:34","1f75c3e559b7213887762d5229550c2b","82.53.76.206","Mozilla/5.0 (Windows NT 10.0; Win64; x64) AppleWebKit/537.36 (KHTML, like Gecko) Chrome/138.0.0.0 Safari/537.36","WebKit","Chrome","138.0.0.0","Windows","10.0","https://app.prolific.com/","it-IT,it;q=0.9,en-US;q=0.8,en;q=0.7","672f7b856c1ce6995a666bc6","68764874ac79eee8c1d4cb03","6877cfa2402a3380638ce0af","2","0","672f7b856c1ce6995a666bc6","2","0","2025-07-16T16:25:59.698Z","","","","","","","","","","","StressQ","","50","","","","","","","","","","","","","","","","","","","","","","","","","","","","",""
"2003","","<div style=""width:500px;"">
  <p>What best describes how you currently feel?</p>
  </div>","57","html-slider-response","48","745690","0.0-5.0-4.7","121","1","2025-07-16 16:13:34","1f75c3e559b7213887762d5229550c2b","82.53.76.206","Mozilla/5.0 (Windows NT 10.0; Win64; x64) AppleWebKit/537.36 (KHTML, like Gecko) Chrome/138.0.0.0 Safari/537.36","WebKit","Chrome","138.0.0.0","Windows","10.0","https://app.prolific.com/","it-IT,it;q=0.9,en-US;q=0.8,en;q=0.7","672f7b856c1ce6995a666bc6","68764874ac79eee8c1d4cb03","6877cfa2402a3380638ce0af","2","0","672f7b856c1ce6995a666bc6","2","0","2025-07-16T16:26:01.702Z","","","","","","","","","","","MotivationQ","","50","","","","","","","","","","","","","","","","","","","","","","","","","","","","",""
"","","","","ctl-task-cpt","49","809266","0.0-5.0-0.8","121","1","2025-07-16 16:13:34","1f75c3e559b7213887762d5229550c2b","82.53.76.206","Mozilla/5.0 (Windows NT 10.0; Win64; x64) AppleWebKit/537.36 (KHTML, like Gecko) Chrome/138.0.0.0 Safari/537.36","WebKit","Chrome","138.0.0.0","Windows","10.0","https://app.prolific.com/","it-IT,it;q=0.9,en-US;q=0.8,en;q=0.7","672f7b856c1ce6995a666bc6","68764874ac79eee8c1d4cb03","6877cfa2402a3380638ce0af","2","0","672f7b856c1ce6995a666bc6","2","0","2025-07-16T16:27:05.278Z","","","","","","","","","","","","","","win-only","2","g1:SE,g2:NW","0.2","9","0","747145.2","1107.1","6113.8","60545.9","1","4","8","6","1","-1","-1","6","7","0.045454545454545456","826","3000","-1245","[""down"",""right""]","{""num_key_presses"":11,""num_perfect"":2,""num_errors"":0,""num_randdir"":9,""num_randdir_good_moves"":2,""num_whilered"":0,""num_whileblue"":0,""num_blue"":6,""num_good_moves"":4}","[406.5714133126395,416.57142761775424,0.4,409.0714133126395,416.57142761775424,100.6,409.0714133126395,416.57142761775424,201.7,409.0714133126395,416.57142761775424,307,409.0714133126395,416.57142761775424,413.5,607.8214133126395,556.5714276177542,516.3,619.0714133126395,571.5714276177542,622.2,682.8214133126395,689.0714276177542,726.2,736.5714133126395,751.5714276177542,826.4,736.5714133126395,751.5714276177542,926.8,736.5714133126395,751.5714276177542,1031.2,736.5714133126395,751.5714276177542,1131.6,736.5714133126395,751.5714276177542,1231.9,736.5714133126395,751.5714276177542,1333.4,736.5714133126395,751.5714276177542,1437.6,736.5714133126395,751.5714276177542,1537.7,736.5714133126395,751.5714276177542,1638.7,736.5714133126395,751.5714276177542,1742.7,736.5714133126395,751.5714276177542,1844.2,736.5714133126395,751.5714276177542,1950.9,736.5714133126395,751.5714276177542,2055.9,736.5714133126395,751.5714276177542,2162.9,736.5714133126395,751.5714276177542,2266.9,736.5714133126395,751.5714276177542,2370,736.5714133126395,751.5714276177542,2476.2,736.5714133126395,751.5714276177542,2576.3,736.5714133126395,751.5714276177542,2676.4,736.5714133126395,751.5714276177542,2783.7,736.5714133126395,751.5714276177542,2890,736.5714133126395,751.5714276177542,2993.3,736.5714133126395,751.5714276177542,3097.7,736.5714133126395,751.5714276177542,3197.9,736.5714133126395,751.5714276177542,3297.9,736.5714133126395,751.5714276177542,3401.1,736.5714133126395,751.5714276177542,3505.8,736.5714133126395,751.5714276177542,3610.4,736.5714133126395,751.5714276177542,3710.9,736.5714133126395,751.5714276177542,3816.3,736.5714133126395,751.5714276177542,3916.7,736.5714133126395,751.5714276177542,4021.1,736.5714133126395,751.5714276177542,4126.1,736.5714133126395,751.5714276177542,4229,736.5714133126395,751.5714276177542,4333,736.5714133126395,751.5714276177542,4437.5,736.5714133126395,751.5714276177542,4543.3,736.5714133126395,751.5714276177542,4648.6,736.5714133126395,751.5714276177542,4753.2,736.5714133126395,751.5714276177542,4860.1,736.5714133126395,751.5714276177542,4968.1]","[1377,1377,1000,0,377,""oops"",""down"",""up"",""bad_move"",4629,3251.3,2842.4,1377.7,408.9,""oops"",""right"",""right"",""good_move"",14221,9591.6,2147,11550.9,523.1,""smooth"",""down"",""down"",""good_move"",17039.6,2818.5,2403.6,14221.2,414.9,""oops"",""down"",""left"",""bad_move"",27861.2,10821.2,3053.6,24344.1,463.5,""smooth"",""down"",""down"",""good_move"",34331.5,6469.7,3000.6,30999.5,331.4,""oops"",""right"",""up"",""bad_move"",40978.5,6646.4,2409.4,38200.7,368.4,""oops"",""right"",""left"",""bad_move"",44108,3129.2,2747.7,40978.8,381.5,""oops"",""down"",""right"",""good_move"",46763,2654.8,2315.5,44108.2,339.3,""oops"",""down"",""up"",""bad_move"",49599.4,2836.1,2492.5,46763.3,343.6,""oops"",""down"",""left"",""bad_move"",52023.4,2424,2120.2,49599.4,303.8,""oops"",""right"",""left"",""bad_move""]","",""
"6451","","<div style=""width:500px;"">
  <p>What determined the result of this run?</p>
  </div>","33","html-slider-response","50","815718","0.0-5.0-1.8","121","1","2025-07-16 16:13:34","1f75c3e559b7213887762d5229550c2b","82.53.76.206","Mozilla/5.0 (Windows NT 10.0; Win64; x64) AppleWebKit/537.36 (KHTML, like Gecko) Chrome/138.0.0.0 Safari/537.36","WebKit","Chrome","138.0.0.0","Windows","10.0","https://app.prolific.com/","it-IT,it;q=0.9,en-US;q=0.8,en;q=0.7","672f7b856c1ce6995a666bc6","68764874ac79eee8c1d4cb03","6877cfa2402a3380638ce0af","2","0","672f7b856c1ce6995a666bc6","2","0","2025-07-16T16:27:11.730Z","","","","","","","","","","","AttribQ","","50","","","","","","","","","","","","","","","","","","","","","","","","","","","","",""
"2459","","<div style=""width:500px;"">
  <p>How much control did you have over the ball?</p>
  </div>","10","html-slider-response","51","818178","0.0-5.0-2.8","121","1","2025-07-16 16:13:34","1f75c3e559b7213887762d5229550c2b","82.53.76.206","Mozilla/5.0 (Windows NT 10.0; Win64; x64) AppleWebKit/537.36 (KHTML, like Gecko) Chrome/138.0.0.0 Safari/537.36","WebKit","Chrome","138.0.0.0","Windows","10.0","https://app.prolific.com/","it-IT,it;q=0.9,en-US;q=0.8,en;q=0.7","672f7b856c1ce6995a666bc6","68764874ac79eee8c1d4cb03","6877cfa2402a3380638ce0af","2","0","672f7b856c1ce6995a666bc6","2","0","2025-07-16T16:27:14.190Z","","","","","","","","","","","ControlQ","","50","","","","","","","","","","","","","","","","","","","","","","","","","","","","",""
"16182","","<div style=""width:500px;"">
  <p>How would you describe your current emotional state?</p>
  </div>","77","html-slider-response","52","834362","0.0-5.0-3.8","121","1","2025-07-16 16:13:34","1f75c3e559b7213887762d5229550c2b","82.53.76.206","Mozilla/5.0 (Windows NT 10.0; Win64; x64) AppleWebKit/537.36 (KHTML, like Gecko) Chrome/138.0.0.0 Safari/537.36","WebKit","Chrome","138.0.0.0","Windows","10.0","https://app.prolific.com/","it-IT,it;q=0.9,en-US;q=0.8,en;q=0.7","672f7b856c1ce6995a666bc6","68764874ac79eee8c1d4cb03","6877cfa2402a3380638ce0af","2","0","672f7b856c1ce6995a666bc6","2","0","2025-07-16T16:27:30.374Z","","","","","","","","","","","StressQ","","50","","","","","","","","","","","","","","","","","","","","","","","","","","","","",""
"18981","","<div style=""width:500px;"">
  <p>What best describes how you currently feel?</p>
  </div>","56","html-slider-response","53","853344","0.0-5.0-4.8","121","1","2025-07-16 16:13:34","1f75c3e559b7213887762d5229550c2b","82.53.76.206","Mozilla/5.0 (Windows NT 10.0; Win64; x64) AppleWebKit/537.36 (KHTML, like Gecko) Chrome/138.0.0.0 Safari/537.36","WebKit","Chrome","138.0.0.0","Windows","10.0","https://app.prolific.com/","it-IT,it;q=0.9,en-US;q=0.8,en;q=0.7","672f7b856c1ce6995a666bc6","68764874ac79eee8c1d4cb03","6877cfa2402a3380638ce0af","2","0","672f7b856c1ce6995a666bc6","2","0","2025-07-16T16:27:49.356Z","","","","","","","","","","","MotivationQ","","50","","","","","","","","","","","","","","","","","","","","","","","","","","","","",""
"","","","","ctl-task-cpt","54","909804","0.0-5.0-0.9","121","1","2025-07-16 16:13:34","1f75c3e559b7213887762d5229550c2b","82.53.76.206","Mozilla/5.0 (Windows NT 10.0; Win64; x64) AppleWebKit/537.36 (KHTML, like Gecko) Chrome/138.0.0.0 Safari/537.36","WebKit","Chrome","138.0.0.0","Windows","10.0","https://app.prolific.com/","it-IT,it;q=0.9,en-US;q=0.8,en;q=0.7","672f7b856c1ce6995a666bc6","68764874ac79eee8c1d4cb03","6877cfa2402a3380638ce0af","2","0","672f7b856c1ce6995a666bc6","2","0","2025-07-16T16:28:45.816Z","","","","","","","","","","","","","","win-only","1","g1:NE,g2:SW","0.4","10","0","854799.3","8176.7","13179.2","53436.2","1","4","4","6","1","1","0","6","6","0.045454545454545456","1027.7","3000","195","[""up"",""right""]","{""num_key_presses"":14,""num_perfect"":6,""num_errors"":1,""num_randdir"":7,""num_randdir_good_moves"":3,""num_whilered"":0,""num_whileblue"":1,""num_blue"":1,""num_good_moves"":9}","[425.3214133126395,415.32142761775424,0.2,424.0714133126395,415.32142761775424,102.6,421.5714133126395,419.07142761775424,203.3,421.5714133126395,419.07142761775424,317.7,406.5714133126395,429.07142761775424,424.4,391.5714133126395,445.32142761775424,525,560.3214133126395,345.32142761775424,630.2,715.3214133126395,199.07142761775424,735,721.5714133126395,186.57142761775424,841.9,742.8214133126395,121.57142761775425,944.4,749.0714133126395,99.07142761775425,1045.9,749.0714133126395,99.07142761775425,1153.3,749.0714133126395,99.07142761775425,1255.5,749.0714133126395,99.07142761775425,1359.4,749.0714133126395,99.07142761775425,1462.7,749.0714133126395,99.07142761775425,1566.4,749.0714133126395,99.07142761775425,1671,749.0714133126395,99.07142761775425,1771.1,749.0714133126395,99.07142761775425,1875.8,749.0714133126395,99.07142761775425,1979.2,749.0714133126395,99.07142761775425,2079.7,749.0714133126395,99.07142761775425,2181,749.0714133126395,99.07142761775425,2281.9,749.0714133126395,99.07142761775425,2383.4,749.0714133126395,99.07142761775425,2486.8,749.0714133126395,99.07142761775425,2591.6,749.0714133126395,99.07142761775425,2693.2,749.0714133126395,99.07142761775425,2797.3,749.0714133126395,99.07142761775425,2902.7,750.3214133126395,99.07142761775425,3003.7,750.3214133126395,99.07142761775425,3104.2,750.3214133126395,99.07142761775425,3208.3,750.3214133126395,99.07142761775425,3312.4,750.3214133126395,99.07142761775425,3415.6,751.5714133126395,99.07142761775425,3519,751.5714133126395,99.07142761775425,3620,751.5714133126395,99.07142761775425,3724.4,751.5714133126395,99.07142761775425,3830.6,740.3214133126395,121.57142761775425,3936,731.5714133126395,131.57142761775424,4037.9,721.5714133126395,137.82142761775424,4144.1,709.0714133126395,146.57142761775424,4254.7,705.3214133126395,151.57142761775424,4358.5,704.0714133126395,151.57142761775424,4462.9,704.0714133126395,151.57142761775424,4569.6,704.0714133126395,151.57142761775424,4670.9,704.0714133126395,151.57142761775424,4775.7,704.0714133126395,151.57142761775424,4879.7,704.0714133126395,151.57142761775424,4983.1]","[1625.9,1625.9,1000,0,625.9,""oops"",""up"",""down"",""bad_move"",4529.8,2903.7,2453.6,1626.1,450.1,""smooth"",""up"",""up"",""good_move"",7765.3,3234.9,2880.6,4530.4,354.3,""oops"",""up"",""right"",""good_move"",10032.5,2267,1945.3,7765.6,321.6,""oops"",""up"",""left"",""bad_move"",12992.2,2959.1,2637.6,10033.1,321.5,""smooth"",""right"",""right"",""good_move"",16171,3178.6,2870.1,12992.4,308.5,""smooth"",""right"",""right"",""good_move"",20062.8,3891.5,3570.9,16171.3,320.6,""while_blue"",""up"",""down"",""bad_move"",22671.1,2607.6,2260,20063.5,347.6,""oops"",""up"",""left"",""bad_move"",25039.6,2368,2022.4,22671.6,345.6,""oops"",""up"",""down"",""bad_move"",27806.1,2766.1,2457.2,25040,308.9,""oops"",""right"",""right"",""good_move"",30532.8,2726.1,2413.6,27806.7,312.5,""smooth"",""up"",""up"",""good_move"",33866.2,3333.2,2957.2,30533,376,""smooth"",""up"",""up"",""good_move"",36961.9,3095.5,2803.6,33866.4,291.9,""smooth"",""up"",""up"",""good_move"",40111.4,3149.1,2852.4,36962.3,296.7,""oops"",""up"",""up"",""good_move""]","",""
"26877","","<div style=""width:500px;"">
  <p>What determined the result of this run?</p>
  </div>","46","html-slider-response","55","936681","0.0-5.0-1.9","121","1","2025-07-16 16:13:34","1f75c3e559b7213887762d5229550c2b","82.53.76.206","Mozilla/5.0 (Windows NT 10.0; Win64; x64) AppleWebKit/537.36 (KHTML, like Gecko) Chrome/138.0.0.0 Safari/537.36","WebKit","Chrome","138.0.0.0","Windows","10.0","https://app.prolific.com/","it-IT,it;q=0.9,en-US;q=0.8,en;q=0.7","672f7b856c1ce6995a666bc6","68764874ac79eee8c1d4cb03","6877cfa2402a3380638ce0af","2","0","672f7b856c1ce6995a666bc6","2","0","2025-07-16T16:29:12.694Z","","","","","","","","","","","AttribQ","","50","","","","","","","","","","","","","","","","","","","","","","","","","","","","",""
"3399","","<div style=""width:500px;"">
  <p>How much control did you have over the ball?</p>
  </div>","31","html-slider-response","56","940083","0.0-5.0-2.9","121","1","2025-07-16 16:13:34","1f75c3e559b7213887762d5229550c2b","82.53.76.206","Mozilla/5.0 (Windows NT 10.0; Win64; x64) AppleWebKit/537.36 (KHTML, like Gecko) Chrome/138.0.0.0 Safari/537.36","WebKit","Chrome","138.0.0.0","Windows","10.0","https://app.prolific.com/","it-IT,it;q=0.9,en-US;q=0.8,en;q=0.7","672f7b856c1ce6995a666bc6","68764874ac79eee8c1d4cb03","6877cfa2402a3380638ce0af","2","0","672f7b856c1ce6995a666bc6","2","0","2025-07-16T16:29:16.095Z","","","","","","","","","","","ControlQ","","50","","","","","","","","","","","","","","","","","","","","","","","","","","","","",""
"12784","","<div style=""width:500px;"">
  <p>How would you describe your current emotional state?</p>
  </div>","65","html-slider-response","57","952869","0.0-5.0-3.9","121","1","2025-07-16 16:13:34","1f75c3e559b7213887762d5229550c2b","82.53.76.206","Mozilla/5.0 (Windows NT 10.0; Win64; x64) AppleWebKit/537.36 (KHTML, like Gecko) Chrome/138.0.0.0 Safari/537.36","WebKit","Chrome","138.0.0.0","Windows","10.0","https://app.prolific.com/","it-IT,it;q=0.9,en-US;q=0.8,en;q=0.7","672f7b856c1ce6995a666bc6","68764874ac79eee8c1d4cb03","6877cfa2402a3380638ce0af","2","0","672f7b856c1ce6995a666bc6","2","0","2025-07-16T16:29:28.881Z","","","","","","","","","","","StressQ","","50","","","","","","","","","","","","","","","","","","","","","","","","","","","","",""
"13650","","<div style=""width:500px;"">
  <p>What best describes how you currently feel?</p>
  </div>","64","html-slider-response","58","966522","0.0-5.0-4.9","121","1","2025-07-16 16:13:34","1f75c3e559b7213887762d5229550c2b","82.53.76.206","Mozilla/5.0 (Windows NT 10.0; Win64; x64) AppleWebKit/537.36 (KHTML, like Gecko) Chrome/138.0.0.0 Safari/537.36","WebKit","Chrome","138.0.0.0","Windows","10.0","https://app.prolific.com/","it-IT,it;q=0.9,en-US;q=0.8,en;q=0.7","672f7b856c1ce6995a666bc6","68764874ac79eee8c1d4cb03","6877cfa2402a3380638ce0af","2","0","672f7b856c1ce6995a666bc6","2","0","2025-07-16T16:29:42.534Z","","","","","","","","","","","MotivationQ","","50","","","","","","","","","","","","","","","","","","","","","","","","","","","","",""
"","","","","ctl-task-cpt","59","1019286","0.0-5.0-0.10","121","1","2025-07-16 16:13:34","1f75c3e559b7213887762d5229550c2b","82.53.76.206","Mozilla/5.0 (Windows NT 10.0; Win64; x64) AppleWebKit/537.36 (KHTML, like Gecko) Chrome/138.0.0.0 Safari/537.36","WebKit","Chrome","138.0.0.0","Windows","10.0","https://app.prolific.com/","it-IT,it;q=0.9,en-US;q=0.8,en;q=0.7","672f7b856c1ce6995a666bc6","68764874ac79eee8c1d4cb03","6877cfa2402a3380638ce0af","2","0","672f7b856c1ce6995a666bc6","2","0","2025-07-16T16:30:35.298Z","","","","","","","","","","","","","","win-only","3","g1:SW,g2:NE","0.5","11","0","967976.7","4310.8","9318.9","49740.5","1","4","8","6","2","8","8","14","6","0.10606060606060606","1476.9","3000","955","[""up"",""right""]","{""num_key_presses"":12,""num_perfect"":6,""num_errors"":0,""num_randdir"":6,""num_randdir_good_moves"":3,""num_whilered"":0,""num_whileblue"":0,""num_blue"":2,""num_good_moves"":9}","[421.5714133126395,406.57142761775424,0.2,421.5714133126395,406.57142761775424,105.1,421.5714133126395,406.57142761775424,205.9,421.5714133126395,406.57142761775424,316.3,420.3214133126395,411.57142761775424,421.1,420.3214133126395,411.57142761775424,531.1,416.5714133126395,416.57142761775424,637.5,545.3214133126395,275.32142761775424,748.1,627.8214133126395,129.07142761775424,854.7,631.5714133126395,121.57142761775425,954.9,692.8214133126395,16.571427617754253,1063,709.0714133126395,24.071427617754253,1168.7,731.5714133126395,44.07142761775425,1279.1,739.0714133126395,57.82142761775425,1385.8,739.0714133126395,59.07142761775425,1492.6,739.0714133126395,59.07142761775425,1594,739.0714133126395,59.07142761775425,1699.7,739.0714133126395,59.07142761775425,1800.5,739.0714133126395,59.07142761775425,1903.8,747.8214133126395,80.32142761775425,2008.2,790.3214133126395,130.32142761775424,2110.9,826.5714133126395,155.32142761775424,2211.9,927.8214133126395,150.32142761775424,2313.9,959.0714133126395,136.57142761775424,2424.8,956.5714133126395,134.07142761775424,2528.3,956.5714133126395,132.82142761775424,2635.8,956.5714133126395,132.82142761775424,2739.5,956.5714133126395,132.82142761775424,2842.1,956.5714133126395,132.82142761775424,2950.8,956.5714133126395,132.82142761775424,3064.9,956.5714133126395,132.82142761775424,3169.6,956.5714133126395,132.82142761775424,3271.6,956.5714133126395,132.82142761775424,3378,956.5714133126395,132.82142761775424,3483.6,956.5714133126395,132.82142761775424,3585.8,956.5714133126395,132.82142761775424,3687.5,956.5714133126395,132.82142761775424,3798.9,956.5714133126395,132.82142761775424,3910.7,956.5714133126395,132.82142761775424,4015.2,956.5714133126395,132.82142761775424,4124.5,956.5714133126395,132.82142761775424,4224.7,956.5714133126395,132.82142761775424,4327.1,956.5714133126395,132.82142761775424,4428.9,956.5714133126395,132.82142761775424,4537.6,956.5714133126395,132.82142761775424,4646.9,956.5714133126395,132.82142761775424,4750.9,956.5714133126395,132.82142761775424,4852.3,956.5714133126395,132.82142761775424,4956.6]","[1364.9,1364.9,1000,0,364.9,""oops"",""up"",""left"",""bad_move"",4637,3271.8,2938.1,1365.2,333.7,""smooth"",""up"",""up"",""good_move"",6742.1,2104.7,1703.5,4637.4,401.2,""oops"",""up"",""up"",""good_move"",9251.3,2508.7,2156,6742.6,352.7,""smooth"",""right"",""right"",""good_move"",11046.2,1794.7,1447.6,9251.5,347.1,""oops"",""right"",""down"",""bad_move"",14350.3,3303.7,2979,11046.6,324.7,""oops"",""right"",""down"",""bad_move"",16634.1,2283.7,1942.3,14350.5,341.4,""oops"",""right"",""right"",""good_move"",20104.4,3469.8,3129.1,16634.6,340.7,""smooth"",""right"",""right"",""good_move"",26909.4,6804.7,2995,23590.8,323.6,""smooth"",""up"",""up"",""good_move"",30799.6,3889.9,3370.8,26909.7,519.1,""smooth"",""up"",""up"",""good_move"",37519,6719.2,2380.5,34715.9,422.6,""oops"",""up"",""up"",""good_move"",40248.2,2729,2280.2,37519.2,448.8,""smooth"",""right"",""right"",""good_move""]","",""
"28591","","<div style=""width:500px;"">
  <p>What determined the result of this run?</p>
  </div>","62","html-slider-response","60","1047878","0.0-5.0-1.10","121","1","2025-07-16 16:13:34","1f75c3e559b7213887762d5229550c2b","82.53.76.206","Mozilla/5.0 (Windows NT 10.0; Win64; x64) AppleWebKit/537.36 (KHTML, like Gecko) Chrome/138.0.0.0 Safari/537.36","WebKit","Chrome","138.0.0.0","Windows","10.0","https://app.prolific.com/","it-IT,it;q=0.9,en-US;q=0.8,en;q=0.7","672f7b856c1ce6995a666bc6","68764874ac79eee8c1d4cb03","6877cfa2402a3380638ce0af","2","0","672f7b856c1ce6995a666bc6","2","0","2025-07-16T16:31:03.890Z","","","","","","","","","","","AttribQ","","50","","","","","","","","","","","","","","","","","","","","","","","","","","","","",""
"9243","","<div style=""width:500px;"">
  <p>How much control did you have over the ball?</p>
  </div>","73","html-slider-response","61","1057122","0.0-5.0-2.10","121","1","2025-07-16 16:13:34","1f75c3e559b7213887762d5229550c2b","82.53.76.206","Mozilla/5.0 (Windows NT 10.0; Win64; x64) AppleWebKit/537.36 (KHTML, like Gecko) Chrome/138.0.0.0 Safari/537.36","WebKit","Chrome","138.0.0.0","Windows","10.0","https://app.prolific.com/","it-IT,it;q=0.9,en-US;q=0.8,en;q=0.7","672f7b856c1ce6995a666bc6","68764874ac79eee8c1d4cb03","6877cfa2402a3380638ce0af","2","0","672f7b856c1ce6995a666bc6","2","0","2025-07-16T16:31:13.135Z","","","","","","","","","","","ControlQ","","50","","","","","","","","","","","","","","","","","","","","","","","","","","","","",""
"4379","","<div style=""width:500px;"">
  <p>How would you describe your current emotional state?</p>
  </div>","26","html-slider-response","62","1061503","0.0-5.0-3.10","121","1","2025-07-16 16:13:34","1f75c3e559b7213887762d5229550c2b","82.53.76.206","Mozilla/5.0 (Windows NT 10.0; Win64; x64) AppleWebKit/537.36 (KHTML, like Gecko) Chrome/138.0.0.0 Safari/537.36","WebKit","Chrome","138.0.0.0","Windows","10.0","https://app.prolific.com/","it-IT,it;q=0.9,en-US;q=0.8,en;q=0.7","672f7b856c1ce6995a666bc6","68764874ac79eee8c1d4cb03","6877cfa2402a3380638ce0af","2","0","672f7b856c1ce6995a666bc6","2","0","2025-07-16T16:31:17.515Z","","","","","","","","","","","StressQ","","50","","","","","","","","","","","","","","","","","","","","","","","","","","","","",""
"2600","","<div style=""width:500px;"">
  <p>What best describes how you currently feel?</p>
  </div>","55","html-slider-response","63","1064104","0.0-5.0-4.10","121","1","2025-07-16 16:13:34","1f75c3e559b7213887762d5229550c2b","82.53.76.206","Mozilla/5.0 (Windows NT 10.0; Win64; x64) AppleWebKit/537.36 (KHTML, like Gecko) Chrome/138.0.0.0 Safari/537.36","WebKit","Chrome","138.0.0.0","Windows","10.0","https://app.prolific.com/","it-IT,it;q=0.9,en-US;q=0.8,en;q=0.7","672f7b856c1ce6995a666bc6","68764874ac79eee8c1d4cb03","6877cfa2402a3380638ce0af","2","0","672f7b856c1ce6995a666bc6","2","0","2025-07-16T16:31:20.117Z","","","","","","","","","","","MotivationQ","","50","","","","","","","","","","","","","","","","","","","","","","","","","","","","",""
"","","","","ctl-task-cpt","64","1103164","0.0-5.0-0.11","121","1","2025-07-16 16:13:34","1f75c3e559b7213887762d5229550c2b","82.53.76.206","Mozilla/5.0 (Windows NT 10.0; Win64; x64) AppleWebKit/537.36 (KHTML, like Gecko) Chrome/138.0.0.0 Safari/537.36","WebKit","Chrome","138.0.0.0","Windows","10.0","https://app.prolific.com/","it-IT,it;q=0.9,en-US;q=0.8,en;q=0.7","672f7b856c1ce6995a666bc6","68764874ac79eee8c1d4cb03","6877cfa2402a3380638ce0af","2","0","672f7b856c1ce6995a666bc6","2","0","2025-07-16T16:31:59.176Z","","","","","","","","","","","","","","win-only","0","g1:NW,g2:SE","0.6","12","0","1065560.4","1598.9","6603.5","36035.5","1","4","4","6","2","4","3","17","14","0.12878787878787878","895.7","3000","1840","[""down"",""right""]","{""num_key_presses"":7,""num_perfect"":4,""num_errors"":1,""num_randdir"":2,""num_randdir_good_moves"":2,""num_whilered"":0,""num_whileblue"":0,""num_blue"":3,""num_good_moves"":6}","[422.8214133126395,412.82142761775424,0.3,422.8214133126395,412.82142761775424,103.4,422.8214133126395,412.82142761775424,221.5,422.8214133126395,412.82142761775424,322.6,422.8214133126395,412.82142761775424,440.1,667.8214133126395,601.5714276177542,545.6,747.8214133126395,672.8214276177542,657,745.3214133126395,672.8214276177542,762.7,741.5714133126395,699.0714276177542,862.7,744.0714133126395,706.5714276177542,971.9,744.0714133126395,706.5714276177542,1074.4,744.0714133126395,706.5714276177542,1176.3,744.0714133126395,706.5714276177542,1288.1,807.8214133126395,706.5714276177542,1407.7,822.8214133126395,712.8214276177542,1513.6,822.8214133126395,712.8214276177542,1620.8,822.8214133126395,712.8214276177542,1724.9,822.8214133126395,712.8214276177542,1835.1,822.8214133126395,712.8214276177542,1941.2,822.8214133126395,712.8214276177542,2042,822.8214133126395,712.8214276177542,2149.1,822.8214133126395,712.8214276177542,2256.7,822.8214133126395,712.8214276177542,2361.9,822.8214133126395,712.8214276177542,2468.9,822.8214133126395,712.8214276177542,2571.8,822.8214133126395,712.8214276177542,2678.7,822.8214133126395,712.8214276177542,2779.5,822.8214133126395,712.8214276177542,2881.3,822.8214133126395,712.8214276177542,2991.9,822.8214133126395,712.8214276177542,3093.8,822.8214133126395,712.8214276177542,3195,822.8214133126395,712.8214276177542,3302.4,822.8214133126395,712.8214276177542,3402.8,822.8214133126395,712.8214276177542,3506.1,822.8214133126395,712.8214276177542,3624.7,822.8214133126395,712.8214276177542,3728.8,822.8214133126395,712.8214276177542,3830.9,822.8214133126395,712.8214276177542,3940.5,822.8214133126395,712.8214276177542,4042.3,822.8214133126395,712.8214276177542,4152.2,822.8214133126395,712.8214276177542,4258.7,822.8214133126395,712.8214276177542,4360.2,822.8214133126395,712.8214276177542,4464,822.8214133126395,712.8214276177542,4575.6,822.8214133126395,712.8214276177542,4678.3,822.8214133126395,712.8214276177542,4780.3,822.8214133126395,712.8214276177542,4888.2,822.8214133126395,712.8214276177542,4995.2]","[302.1,302.1,1000,0,-697.9,""error"",""-"",""-"",""no_move"",8046,7743.6,2693,5005.8,347.2,""oops"",""down"",""down"",""good_move"",14261.8,6215.5,2254.2,11677.3,330.3,""smooth"",""down"",""down"",""good_move"",20970.2,6708.2,2604.6,17954,411.6,""smooth"",""right"",""right"",""good_move"",23233.5,2262.7,1860.4,20970.8,402.3,""oops"",""down"",""right"",""good_move"",26506.9,3273.1,2917.4,23233.8,355.7,""smooth"",""down"",""down"",""good_move"",29283.9,2776.7,2448.1,26507.2,328.6,""smooth"",""right"",""right"",""good_move""]","",""
"6523","","<div style=""width:500px;"">
  <p>What determined the result of this run?</p>
  </div>","67","html-slider-response","65","1109688","0.0-5.0-1.11","121","1","2025-07-16 16:13:34","1f75c3e559b7213887762d5229550c2b","82.53.76.206","Mozilla/5.0 (Windows NT 10.0; Win64; x64) AppleWebKit/537.36 (KHTML, like Gecko) Chrome/138.0.0.0 Safari/537.36","WebKit","Chrome","138.0.0.0","Windows","10.0","https://app.prolific.com/","it-IT,it;q=0.9,en-US;q=0.8,en;q=0.7","672f7b856c1ce6995a666bc6","68764874ac79eee8c1d4cb03","6877cfa2402a3380638ce0af","2","0","672f7b856c1ce6995a666bc6","2","0","2025-07-16T16:32:05.700Z","","","","","","","","","","","AttribQ","","50","","","","","","","","","","","","","","","","","","","","","","","","","","","","",""
"3746","","<div style=""width:500px;"">
  <p>How much control did you have over the ball?</p>
  </div>","71","html-slider-response","66","1113436","0.0-5.0-2.11","121","1","2025-07-16 16:13:34","1f75c3e559b7213887762d5229550c2b","82.53.76.206","Mozilla/5.0 (Windows NT 10.0; Win64; x64) AppleWebKit/537.36 (KHTML, like Gecko) Chrome/138.0.0.0 Safari/537.36","WebKit","Chrome","138.0.0.0","Windows","10.0","https://app.prolific.com/","it-IT,it;q=0.9,en-US;q=0.8,en;q=0.7","672f7b856c1ce6995a666bc6","68764874ac79eee8c1d4cb03","6877cfa2402a3380638ce0af","2","0","672f7b856c1ce6995a666bc6","2","0","2025-07-16T16:32:09.448Z","","","","","","","","","","","ControlQ","","50","","","","","","","","","","","","","","","","","","","","","","","","","","","","",""
"2345","","<div style=""width:500px;"">
  <p>How would you describe your current emotional state?</p>
  </div>","31","html-slider-response","67","1115781","0.0-5.0-3.11","121","1","2025-07-16 16:13:34","1f75c3e559b7213887762d5229550c2b","82.53.76.206","Mozilla/5.0 (Windows NT 10.0; Win64; x64) AppleWebKit/537.36 (KHTML, like Gecko) Chrome/138.0.0.0 Safari/537.36","WebKit","Chrome","138.0.0.0","Windows","10.0","https://app.prolific.com/","it-IT,it;q=0.9,en-US;q=0.8,en;q=0.7","672f7b856c1ce6995a666bc6","68764874ac79eee8c1d4cb03","6877cfa2402a3380638ce0af","2","0","672f7b856c1ce6995a666bc6","2","0","2025-07-16T16:32:11.794Z","","","","","","","","","","","StressQ","","50","","","","","","","","","","","","","","","","","","","","","","","","","","","","",""
"3679","","<div style=""width:500px;"">
  <p>What best describes how you currently feel?</p>
  </div>","67","html-slider-response","68","1119461","0.0-5.0-4.11","121","1","2025-07-16 16:13:34","1f75c3e559b7213887762d5229550c2b","82.53.76.206","Mozilla/5.0 (Windows NT 10.0; Win64; x64) AppleWebKit/537.36 (KHTML, like Gecko) Chrome/138.0.0.0 Safari/537.36","WebKit","Chrome","138.0.0.0","Windows","10.0","https://app.prolific.com/","it-IT,it;q=0.9,en-US;q=0.8,en;q=0.7","672f7b856c1ce6995a666bc6","68764874ac79eee8c1d4cb03","6877cfa2402a3380638ce0af","2","0","672f7b856c1ce6995a666bc6","2","0","2025-07-16T16:32:15.474Z","","","","","","","","","","","MotivationQ","","50","","","","","","","","","","","","","","","","","","","","","","","","","","","","",""
"","","","","ctl-task-cpt","69","1171853","0.0-5.0-0.12","121","1","2025-07-16 16:13:34","1f75c3e559b7213887762d5229550c2b","82.53.76.206","Mozilla/5.0 (Windows NT 10.0; Win64; x64) AppleWebKit/537.36 (KHTML, like Gecko) Chrome/138.0.0.0 Safari/537.36","WebKit","Chrome","138.0.0.0","Windows","10.0","https://app.prolific.com/","it-IT,it;q=0.9,en-US;q=0.8,en;q=0.7","672f7b856c1ce6995a666bc6","68764874ac79eee8c1d4cb03","6877cfa2402a3380638ce0af","2","0","672f7b856c1ce6995a666bc6","2","0","2025-07-16T16:33:07.866Z","","","","","","","","","","","","","","win-only","1","g1:NE,g2:SW","0.7","13","0","1120916.5","1335","6340.9","49375.9","1","4","4","6","2","4","3","20","17","0.15151515151515152","936.3","3000","1095","[""down"",""left""]","{""num_key_presses"":11,""num_perfect"":7,""num_errors"":1,""num_randdir"":3,""num_randdir_good_moves"":1,""num_whilered"":0,""num_whileblue"":0,""num_blue"":3,""num_good_moves"":8}","[417.8214133126395,420.32142761775424,0.2,417.8214133126395,420.32142761775424,100.2,417.8214133126395,420.32142761775424,203.2,417.8214133126395,420.32142761775424,312.2,417.8214133126395,420.32142761775424,412.7,416.5714133126395,420.32142761775424,521.6,249.0714133126395,554.0714276177542,625.5,25.321413312639507,754.0714276177542,732.3,25.321413312639507,751.5714276177542,836.9,70.3214133126395,717.8214276177542,944,70.3214133126395,717.8214276177542,1047.6,70.3214133126395,717.8214276177542,1155.4,70.3214133126395,717.8214276177542,1259.1,70.3214133126395,717.8214276177542,1361.2,70.3214133126395,717.8214276177542,1461.5,70.3214133126395,717.8214276177542,1562.2,70.3214133126395,717.8214276177542,1662.4,70.3214133126395,717.8214276177542,1767.3,70.3214133126395,717.8214276177542,1877.2,70.3214133126395,717.8214276177542,1986.1,70.3214133126395,717.8214276177542,2092.3,70.3214133126395,717.8214276177542,2194.9,70.3214133126395,717.8214276177542,2298.3,70.3214133126395,717.8214276177542,2407,70.3214133126395,717.8214276177542,2512.4,70.3214133126395,717.8214276177542,2617.1,70.3214133126395,717.8214276177542,2720.7,70.3214133126395,717.8214276177542,2820.7,70.3214133126395,717.8214276177542,2920.9,70.3214133126395,717.8214276177542,3021,70.3214133126395,717.8214276177542,3125.5,70.3214133126395,717.8214276177542,3226.5,70.3214133126395,717.8214276177542,3327.3,70.3214133126395,717.8214276177542,3432.7,70.3214133126395,717.8214276177542,3538.2,70.3214133126395,717.8214276177542,3638.5,70.3214133126395,717.8214276177542,3743.3,70.3214133126395,717.8214276177542,3853,70.3214133126395,717.8214276177542,3959.9,70.3214133126395,717.8214276177542,4066.2,70.3214133126395,717.8214276177542,4174.6,70.3214133126395,717.8214276177542,4276.3,70.3214133126395,717.8214276177542,4385.9,70.3214133126395,717.8214276177542,4486.4,70.3214133126395,717.8214276177542,4595.6,70.3214133126395,717.8214276177542,4701.6,70.3214133126395,717.8214276177542,4802.1,70.3214133126395,717.8214276177542,4908]","[376.5,376.5,1000,0,-623.5,""error"",""-"",""-"",""no_move"",4231,3854,2481.8,1378.9,370.3,""smooth"",""down"",""down"",""good_move"",7404.2,3172.9,2824.3,4231.3,348.6,""oops"",""left"",""right"",""bad_move"",10915.6,3511.2,3173.3,7404.4,337.9,""smooth"",""down"",""down"",""good_move"",17787.1,6871.4,2622.2,14783.8,381.1,""oops"",""left"",""down"",""good_move"",24441.5,6654.2,2565.7,21505.1,370.7,""smooth"",""left"",""left"",""good_move"",30504.2,6062.4,2625.5,27542.6,336.1,""oops"",""left"",""right"",""bad_move"",33368.5,2863.9,2363.1,30504.6,500.8,""smooth"",""left"",""left"",""good_move"",36981.3,3612.3,3095,33369,517.4,""smooth"",""left"",""left"",""good_move"",39997.8,3016.2,2591.4,36981.7,424.7,""smooth"",""left"",""left"",""good_move"",42856.2,2858.2,2483.6,39998,374.6,""smooth"",""left"",""left"",""good_move""]","",""
"3682","","<div style=""width:500px;"">
  <p>What determined the result of this run?</p>
  </div>","63","html-slider-response","70","1175536","0.0-5.0-1.12","121","1","2025-07-16 16:13:34","1f75c3e559b7213887762d5229550c2b","82.53.76.206","Mozilla/5.0 (Windows NT 10.0; Win64; x64) AppleWebKit/537.36 (KHTML, like Gecko) Chrome/138.0.0.0 Safari/537.36","WebKit","Chrome","138.0.0.0","Windows","10.0","https://app.prolific.com/","it-IT,it;q=0.9,en-US;q=0.8,en;q=0.7","672f7b856c1ce6995a666bc6","68764874ac79eee8c1d4cb03","6877cfa2402a3380638ce0af","2","0","672f7b856c1ce6995a666bc6","2","0","2025-07-16T16:33:11.548Z","","","","","","","","","","","AttribQ","","50","","","","","","","","","","","","","","","","","","","","","","","","","","","","",""
"3032","","<div style=""width:500px;"">
  <p>How much control did you have over the ball?</p>
  </div>","44","html-slider-response","71","1178570","0.0-5.0-2.12","121","1","2025-07-16 16:13:34","1f75c3e559b7213887762d5229550c2b","82.53.76.206","Mozilla/5.0 (Windows NT 10.0; Win64; x64) AppleWebKit/537.36 (KHTML, like Gecko) Chrome/138.0.0.0 Safari/537.36","WebKit","Chrome","138.0.0.0","Windows","10.0","https://app.prolific.com/","it-IT,it;q=0.9,en-US;q=0.8,en;q=0.7","672f7b856c1ce6995a666bc6","68764874ac79eee8c1d4cb03","6877cfa2402a3380638ce0af","2","0","672f7b856c1ce6995a666bc6","2","0","2025-07-16T16:33:14.582Z","","","","","","","","","","","ControlQ","","50","","","","","","","","","","","","","","","","","","","","","","","","","","","","",""
"3111","","<div style=""width:500px;"">
  <p>How would you describe your current emotional state?</p>
  </div>","31","html-slider-response","72","1181682","0.0-5.0-3.12","121","1","2025-07-16 16:13:34","1f75c3e559b7213887762d5229550c2b","82.53.76.206","Mozilla/5.0 (Windows NT 10.0; Win64; x64) AppleWebKit/537.36 (KHTML, like Gecko) Chrome/138.0.0.0 Safari/537.36","WebKit","Chrome","138.0.0.0","Windows","10.0","https://app.prolific.com/","it-IT,it;q=0.9,en-US;q=0.8,en;q=0.7","672f7b856c1ce6995a666bc6","68764874ac79eee8c1d4cb03","6877cfa2402a3380638ce0af","2","0","672f7b856c1ce6995a666bc6","2","0","2025-07-16T16:33:17.694Z","","","","","","","","","","","StressQ","","50","","","","","","","","","","","","","","","","","","","","","","","","","","","","",""
"3145","","<div style=""width:500px;"">
  <p>What best describes how you currently feel?</p>
  </div>","70","html-slider-response","73","1184829","0.0-5.0-4.12","121","1","2025-07-16 16:13:34","1f75c3e559b7213887762d5229550c2b","82.53.76.206","Mozilla/5.0 (Windows NT 10.0; Win64; x64) AppleWebKit/537.36 (KHTML, like Gecko) Chrome/138.0.0.0 Safari/537.36","WebKit","Chrome","138.0.0.0","Windows","10.0","https://app.prolific.com/","it-IT,it;q=0.9,en-US;q=0.8,en;q=0.7","672f7b856c1ce6995a666bc6","68764874ac79eee8c1d4cb03","6877cfa2402a3380638ce0af","2","0","672f7b856c1ce6995a666bc6","2","0","2025-07-16T16:33:20.841Z","","","","","","","","","","","MotivationQ","","50","","","","","","","","","","","","","","","","","","","","","","","","","","","","",""
