"rt","response_timestamp","stimulus","response","trial_type","trial_index","time_elapsed","internal_node_id","run_id","condition","recorded_at","source_code_version","ip","user_agent","device","browser","browser_version","platform","platform_version","referer","accept_language","PROLIFIC_PID","STUDY_ID","SESSION_ID","WEEK","BATCH","prolific_id","week","batch","realtime","success","responses","item_order","radio_event_ids","radio_event_times","key_event_times","mouse_event_times","straightlining","zigzagging","honeypot","eventType","view_history","slider_start","which_type","canvas_config","goals_layout","control_level","trial_number","tutorial_trial_number","trial_start_time","phase1_start_time","phase2_start_time","phase3_start_time","goal_1_value","goal_1_distance","goal_2_value","goal_2_distance","goal_selected","outcome","outcome_total","participant_final_score","participant_initial_score","participant_final_score_prop","goal_choice_rt","allocated_time","allocated_time_remaining","goal_direction","counts","mouse_movements","key_presses","question_order","question_id"
"5226","1754062926537","<p style='font-size:40px;line-height:1.25'><strong>Welcome to the experiment!</strong></p><p style='font-size:1.1em;line-height:1.25'>Thank you for participanting in our experiment again! You will be asked to play the Dysfunctional Ball Game again. We will briefly recap the rules before we start.</p><p style='font-size:1.1em;line-height:1.25'>Press <strong>Next</strong> to continue.</p>","0","custom-html-button-response","0","5233","0.0-0.0","310","1","2025-08-01 15:41:54","1f75c3e559b7213887762d5229550c2b","41.145.193.212","Mozilla/5.0 (Windows NT 10.0; Win64; x64) AppleWebKit/537.36 (KHTML, like Gecko) Chrome/138.0.0.0 Safari/537.36","WebKit","Chrome","138.0.0.0","Windows","10.0","https://app.prolific.com/","en-US,en;q=0.9","67c7672373207a4fb29efe7f","6877631c9844ddd5501205fc","688ce00c6a7da20c9efffd08","3","1","67c7672373207a4fb29efe7f","3","1","2025-08-01T15:42:06.543Z","","","","","","","","","","","","","","","","","","","","","","","","","","","","","","","","","","","","","","","","","",""
"35463","","","","fullscreen","1","41809","0.0-1.0","310","1","2025-08-01 15:41:54","1f75c3e559b7213887762d5229550c2b","41.145.193.212","Mozilla/5.0 (Windows NT 10.0; Win64; x64) AppleWebKit/537.36 (KHTML, like Gecko) Chrome/138.0.0.0 Safari/537.36","WebKit","Chrome","138.0.0.0","Windows","10.0","https://app.prolific.com/","en-US,en;q=0.9","67c7672373207a4fb29efe7f","6877631c9844ddd5501205fc","688ce00c6a7da20c9efffd08","3","1","67c7672373207a4fb29efe7f","3","1","","true","","","","","","","","","","","","","","","","","","","","","","","","","","","","","","","","","","","","","","","","",""
"1976","1754062965095","<p style='font-size:1.1em;line-height:1.25'>In the following, we will ask you a few questions relating to your feelings in the last 24 hours.<br></p><p style='font-size:1.1em;line-height:1.25'>Press the <strong>Next</strong> button to continue.</p>","0","custom-html-button-response","2","43787","0.0-2.0-0.0","310","1","2025-08-01 15:41:54","1f75c3e559b7213887762d5229550c2b","41.145.193.212","Mozilla/5.0 (Windows NT 10.0; Win64; x64) AppleWebKit/537.36 (KHTML, like Gecko) Chrome/138.0.0.0 Safari/537.36","WebKit","Chrome","138.0.0.0","Windows","10.0","https://app.prolific.com/","en-US,en;q=0.9","67c7672373207a4fb29efe7f","6877631c9844ddd5501205fc","688ce00c6a7da20c9efffd08","3","1","67c7672373207a4fb29efe7f","3","1","2025-08-01T15:42:45.096Z","","","","","","","","","","","","","","","","","","","","","","","","","","","","","","","","","","","","","","","","","",""
"53508.19999998808","","","","survey-template","3","97303","0.0-2.0-1.0","310","1","2025-08-01 15:41:54","1f75c3e559b7213887762d5229550c2b","41.145.193.212","Mozilla/5.0 (Windows NT 10.0; Win64; x64) AppleWebKit/537.36 (KHTML, like Gecko) Chrome/138.0.0.0 Safari/537.36","WebKit","Chrome","138.0.0.0","Windows","10.0","https://app.prolific.com/","en-US,en;q=0.9","67c7672373207a4fb29efe7f","6877631c9844ddd5501205fc","688ce00c6a7da20c9efffd08","3","1","67c7672373207a4fb29efe7f","3","1","2025-08-01T15:43:38.613Z","","{""Q01"":""0"",""Q02"":""0"",""Q03"":""0"",""Q04"":""0"",""Q05"":""0"",""Q06"":""0"",""Q07"":""0"",""Q08"":""0"",""Q09"":""0"",""Q10"":""0"",""Q11"":""0"",""Q12"":""0"",""Q13"":""5"",""Q14"":""0"",""Q15"":""0"",""Q16"":""0"",""Q17"":""0"",""Q18"":""0"",""Q19"":""0"",""Q20"":""0"",""Q21"":""0"",""Q22"":""0""}","[0,1,2,3,4,5,6,7,8,9,10,11,12,13,14,15,16,17,18,19,20,21]","[""Q01"",""Q02"",""Q03"",""Q04"",""Q05"",""Q06"",""Q07"",""Q08"",""Q09"",""Q10"",""Q11"",""Q13"",""Q12"",""Q14"",""Q15"",""Q16"",""Q17"",""Q19"",""Q18"",""Q20"",""Q21"",""Q22""]","[3330.5,4443.5999999940395,5613.5,6947.899999976158,7844.799999982119,8854.09999999404,9838.699999988079,10794.799999982119,15525.299999982119,16503.79999998212,17532.69999998808,23013.29999998212,24806.29999998212,28208.399999976158,34228.5,35503.29999998212,36821.69999998808,39254,40424.19999998808,44316.59999999404,49504.5,51299]","[]","[3.0999999940395355,3330.5,4443.5999999940395,5613.5,6947.899999976158,7844.799999982119,8854.09999999404,9838.699999988079,10794.799999982119,15525.299999982119,16503.79999998212,17532.69999998808,18446.59999999404,20469.399999976158,23013.29999998212,24806.29999998212,28208.399999976158,34228.5,35503.29999998212,36821.69999998808,38120,39254,40424.19999998808,43285.79999998212,44316.59999999404,49504.5,51299,53455.39999997616]","0.9545454545454546","0.09523809523809523","0","drsp","","","","","","","","","","","","","","","","","","","","","","","","","","","","","","",""
"10543.90000000596","","","","survey-template","4","107852","0.0-2.0-2.0","310","1","2025-08-01 15:41:54","1f75c3e559b7213887762d5229550c2b","41.145.193.212","Mozilla/5.0 (Windows NT 10.0; Win64; x64) AppleWebKit/537.36 (KHTML, like Gecko) Chrome/138.0.0.0 Safari/537.36","WebKit","Chrome","138.0.0.0","Windows","10.0","https://app.prolific.com/","en-US,en;q=0.9","67c7672373207a4fb29efe7f","6877631c9844ddd5501205fc","688ce00c6a7da20c9efffd08","3","1","67c7672373207a4fb29efe7f","3","1","2025-08-01T15:43:49.161Z","","{""Q01"":""0"",""Q02"":""1"",""Q03"":""0""}","[0,1,2]","[""Q01"",""Q03"",""Q02""]","[2691,7532.300000011921,9014.800000011921]","[]","[2691,4382,6227.699999988079,7532.300000011921,9014.800000011921,10541.5]","0.6666666666666666","0","0","stress","","","","","","","","","","","","","","","","","","","","","","","","","","","","","","",""
"229913","","","","instructions","5","337768","0.0-3.0-0.0","310","1","2025-08-01 15:41:54","1f75c3e559b7213887762d5229550c2b","41.145.193.212","Mozilla/5.0 (Windows NT 10.0; Win64; x64) AppleWebKit/537.36 (KHTML, like Gecko) Chrome/138.0.0.0 Safari/537.36","WebKit","Chrome","138.0.0.0","Windows","10.0","https://app.prolific.com/","en-US,en;q=0.9","67c7672373207a4fb29efe7f","6877631c9844ddd5501205fc","688ce00c6a7da20c9efffd08","3","1","67c7672373207a4fb29efe7f","3","1","","","","","","","","","","","","","[{""page_index"":0,""viewing_time"":229912}]","","","","","","","","","","","","","","","","","","","","","","","","","","","","","",""
"65909","","<p>Before you start with this game please answer the following three questions yourself. </p>
  <p>Through this game, we measure several aspects of your cognitive performance, such as reaction times, multi-tasking capabilities </p>
  <p>and the ability to assess the situation you are in.</p>
  <p></p>
  <p><b>How good do you usually are in such tasks?</b></p>","100","html-slider-response","6","403682","0.0-4.0-0.0","310","1","2025-08-01 15:41:54","1f75c3e559b7213887762d5229550c2b","41.145.193.212","Mozilla/5.0 (Windows NT 10.0; Win64; x64) AppleWebKit/537.36 (KHTML, like Gecko) Chrome/138.0.0.0 Safari/537.36","WebKit","Chrome","138.0.0.0","Windows","10.0","https://app.prolific.com/","en-US,en;q=0.9","67c7672373207a4fb29efe7f","6877631c9844ddd5501205fc","688ce00c6a7da20c9efffd08","3","1","67c7672373207a4fb29efe7f","3","1","2025-08-01T15:48:44.991Z","","","","","","","","","","","PreSkillQ","","50","","","","","","","","","","","","","","","","","","","","","","","","","","","","",""
"5088","","<div style=""width:500px;"">
  <p>How well do you think you will perform in this task compared to other participants?</p>
  </div>","97","html-slider-response","7","408774","0.0-4.0-1.0","310","1","2025-08-01 15:41:54","1f75c3e559b7213887762d5229550c2b","41.145.193.212","Mozilla/5.0 (Windows NT 10.0; Win64; x64) AppleWebKit/537.36 (KHTML, like Gecko) Chrome/138.0.0.0 Safari/537.36","WebKit","Chrome","138.0.0.0","Windows","10.0","https://app.prolific.com/","en-US,en;q=0.9","67c7672373207a4fb29efe7f","6877631c9844ddd5501205fc","688ce00c6a7da20c9efffd08","3","1","67c7672373207a4fb29efe7f","3","1","2025-08-01T15:48:50.084Z","","","","","","","","","","","PrePerfQ","","50","","","","","","","","","","","","","","","","","","","","","","","","","","","","",""
"4870","","<div style=""width:500px;"">
  <p>What best describes how you currently feel?</p>
  </div>","95","html-slider-response","8","413647","0.0-4.0-2.0","310","1","2025-08-01 15:41:54","1f75c3e559b7213887762d5229550c2b","41.145.193.212","Mozilla/5.0 (Windows NT 10.0; Win64; x64) AppleWebKit/537.36 (KHTML, like Gecko) Chrome/138.0.0.0 Safari/537.36","WebKit","Chrome","138.0.0.0","Windows","10.0","https://app.prolific.com/","en-US,en;q=0.9","67c7672373207a4fb29efe7f","6877631c9844ddd5501205fc","688ce00c6a7da20c9efffd08","3","1","67c7672373207a4fb29efe7f","3","1","2025-08-01T15:48:54.957Z","","","","","","","","","","","PreMotivationQ","","50","","","","","","","","","","","","","","","","","","","","","","","","","","","","",""
"","","","","ctl-task-cpt","9","438217","0.0-5.0-0.0","310","1","2025-08-01 15:41:54","1f75c3e559b7213887762d5229550c2b","41.145.193.212","Mozilla/5.0 (Windows NT 10.0; Win64; x64) AppleWebKit/537.36 (KHTML, like Gecko) Chrome/138.0.0.0 Safari/537.36","WebKit","Chrome","138.0.0.0","Windows","10.0","https://app.prolific.com/","en-US,en;q=0.9","67c7672373207a4fb29efe7f","6877631c9844ddd5501205fc","688ce00c6a7da20c9efffd08","3","1","67c7672373207a4fb29efe7f","3","1","2025-08-01T15:49:19.526Z","","","","","","","","","","","","","","win-only","1","g1:NE,g2:SW","1","1","0","425581.3","2953.9","7957.9","21555.4","1","4","4","6","1","1","1","1","0","0.007575757575757576","2077.4","3000","470","[""up"",""right""]","{""num_key_presses"":4,""num_perfect"":4,""num_errors"":0,""num_randdir"":0,""num_randdir_good_moves"":0,""num_whilered"":0,""num_whileblue"":0,""num_blue"":1,""num_good_moves"":4}","[296.22232142857143,296.12857142857143,0.7,296.22232142857143,296.12857142857143,101.7,296.22232142857143,296.12857142857143,203.5,296.22232142857143,296.12857142857143,310.8,296.22232142857143,296.12857142857143,412.8,296.22232142857143,296.12857142857143,517.1,296.22232142857143,296.12857142857143,618.5,296.22232142857143,296.12857142857143,722.9,296.22232142857143,296.12857142857143,823.5,296.22232142857143,296.12857142857143,927.5,296.22232142857143,296.12857142857143,1029.1,449.22232142857143,154.12857142857143,1132.7,616.2223214285714,1.1285714285714263,1234.3,623.2223214285714,-4.871428571428574,1337.5,623.2223214285714,-4.871428571428574,1439.5,602.2223214285714,9.128571428571426,1543,581.2223214285714,30.128571428571426,1644.1,578.2223214285714,33.128571428571426,1748.1,577.2223214285714,33.128571428571426,1853.7,577.2223214285714,33.128571428571426,1958.4,577.2223214285714,33.128571428571426,2059,577.2223214285714,33.128571428571426,2160.6,577.2223214285714,33.128571428571426,2262.4,577.2223214285714,33.128571428571426,2367.9,577.2223214285714,33.128571428571426,2474.9,577.2223214285714,33.128571428571426,2577.4,577.2223214285714,33.128571428571426,2677.6,577.2223214285714,33.128571428571426,2778.3,577.2223214285714,33.128571428571426,2882.4,577.2223214285714,33.128571428571426,2987.9,577.2223214285714,33.128571428571426,3092.3,577.2223214285714,33.128571428571426,3193.5,577.2223214285714,33.128571428571426,3294.4,577.2223214285714,33.128571428571426,3397.3,577.2223214285714,33.128571428571426,3499.3,577.2223214285714,33.128571428571426,3603.3,577.2223214285714,33.128571428571426,3708.2,577.2223214285714,33.128571428571426,3812.3,577.2223214285714,33.128571428571426,3913.6,577.2223214285714,33.128571428571426,4017.7,577.2223214285714,33.128571428571426,4122.1,577.2223214285714,33.128571428571426,4222.2,577.2223214285714,33.128571428571426,4327.1,577.2223214285714,33.128571428571426,4433.7,577.2223214285714,33.128571428571426,4537.8,577.2223214285714,33.128571428571426,4643.3,577.2223214285714,33.128571428571426,4747.5,577.2223214285714,33.128571428571426,4847.6,577.2223214285714,33.128571428571426,4949]","[2061.9,2061.8,1000,0.2,1061.7,""smooth"",""right"",""right"",""good_move"",5660.4,3597.4,3034.4,2063.1,562.9,""smooth"",""right"",""right"",""good_move"",8461.2,2800,2277.1,5661.2,522.9,""smooth"",""up"",""up"",""good_move"",13493.7,5031,1602.9,11343.9,546.9,""smooth"",""up"",""up"",""good_move""]","",""
"4168","","<div style=""width:500px;"">
  <p>What determined the result of this run?</p>
  </div>","92","html-slider-response","10","442386","0.0-5.0-1.0","310","1","2025-08-01 15:41:54","1f75c3e559b7213887762d5229550c2b","41.145.193.212","Mozilla/5.0 (Windows NT 10.0; Win64; x64) AppleWebKit/537.36 (KHTML, like Gecko) Chrome/138.0.0.0 Safari/537.36","WebKit","Chrome","138.0.0.0","Windows","10.0","https://app.prolific.com/","en-US,en;q=0.9","67c7672373207a4fb29efe7f","6877631c9844ddd5501205fc","688ce00c6a7da20c9efffd08","3","1","67c7672373207a4fb29efe7f","3","1","2025-08-01T15:49:23.695Z","","","","","","","","","","","AttribQ","","50","","","","","","","","","","","","","","","","","","","","","","","","","","","","",""
"3318","","<div style=""width:500px;"">
  <p>How much control did you have over the ball?</p>
  </div>","94","html-slider-response","11","445706","0.0-5.0-2.0","310","1","2025-08-01 15:41:54","1f75c3e559b7213887762d5229550c2b","41.145.193.212","Mozilla/5.0 (Windows NT 10.0; Win64; x64) AppleWebKit/537.36 (KHTML, like Gecko) Chrome/138.0.0.0 Safari/537.36","WebKit","Chrome","138.0.0.0","Windows","10.0","https://app.prolific.com/","en-US,en;q=0.9","67c7672373207a4fb29efe7f","6877631c9844ddd5501205fc","688ce00c6a7da20c9efffd08","3","1","67c7672373207a4fb29efe7f","3","1","2025-08-01T15:49:27.015Z","","","","","","","","","","","ControlQ","","50","","","","","","","","","","","","","","","","","","","","","","","","","","","","",""
"4246","","<div style=""width:500px;"">
  <p>How would you describe your current emotional state?</p>
  </div>","7","html-slider-response","12","449954","0.0-5.0-3.0","310","1","2025-08-01 15:41:54","1f75c3e559b7213887762d5229550c2b","41.145.193.212","Mozilla/5.0 (Windows NT 10.0; Win64; x64) AppleWebKit/537.36 (KHTML, like Gecko) Chrome/138.0.0.0 Safari/537.36","WebKit","Chrome","138.0.0.0","Windows","10.0","https://app.prolific.com/","en-US,en;q=0.9","67c7672373207a4fb29efe7f","6877631c9844ddd5501205fc","688ce00c6a7da20c9efffd08","3","1","67c7672373207a4fb29efe7f","3","1","2025-08-01T15:49:31.263Z","","","","","","","","","","","StressQ","","50","","","","","","","","","","","","","","","","","","","","","","","","","","","","",""
"3289","","<div style=""width:500px;"">
  <p>What best describes how you currently feel?</p>
  </div>","97","html-slider-response","13","453245","0.0-5.0-4.0","310","1","2025-08-01 15:41:54","1f75c3e559b7213887762d5229550c2b","41.145.193.212","Mozilla/5.0 (Windows NT 10.0; Win64; x64) AppleWebKit/537.36 (KHTML, like Gecko) Chrome/138.0.0.0 Safari/537.36","WebKit","Chrome","138.0.0.0","Windows","10.0","https://app.prolific.com/","en-US,en;q=0.9","67c7672373207a4fb29efe7f","6877631c9844ddd5501205fc","688ce00c6a7da20c9efffd08","3","1","67c7672373207a4fb29efe7f","3","1","2025-08-01T15:49:34.554Z","","","","","","","","","","","MotivationQ","","50","","","","","","","","","","","","","","","","","","","","","","","","","","","","",""
"","","","","ctl-task-cpt","14","491522","0.0-5.0-0.1","310","1","2025-08-01 15:41:54","1f75c3e559b7213887762d5229550c2b","41.145.193.212","Mozilla/5.0 (Windows NT 10.0; Win64; x64) AppleWebKit/537.36 (KHTML, like Gecko) Chrome/138.0.0.0 Safari/537.36","WebKit","Chrome","138.0.0.0","Windows","10.0","https://app.prolific.com/","en-US,en;q=0.9","67c7672373207a4fb29efe7f","6877631c9844ddd5501205fc","688ce00c6a7da20c9efffd08","3","1","67c7672373207a4fb29efe7f","3","1","2025-08-01T15:50:12.831Z","","","","","","","","","","","","","","win-only","2","g1:SE,g2:NW","0.9","2","0","465173.4","1686.9","6691.7","35257.6","1","4","8","6","2","-8","-8","0","1","0","1955.9","3000","-2960","[""left"",""up""]","{""num_key_presses"":5,""num_perfect"":4,""num_errors"":0,""num_randdir"":1,""num_randdir_good_moves"":0,""num_whilered"":0,""num_whileblue"":0,""num_blue"":3,""num_good_moves"":4}","[295.22232142857143,294.12857142857143,0.5,295.22232142857143,294.12857142857143,102.5,295.22232142857143,294.12857142857143,205.2,295.22232142857143,294.12857142857143,310.1,295.22232142857143,294.12857142857143,410.2,295.22232142857143,294.12857142857143,517.1,295.22232142857143,294.12857142857143,618.6,295.22232142857143,294.12857142857143,718.9,295.22232142857143,294.12857142857143,820.3,295.22232142857143,294.12857142857143,924.9,295.22232142857143,294.12857142857143,1025,295.22232142857143,294.12857142857143,1125.2,215.22232142857143,192.12857142857143,1228.8,96.22232142857143,73.12857142857143,1329.4,91.22232142857143,72.12857142857143,1438.8,88.22232142857143,70.12857142857143,1540.7,76.22232142857143,62.128571428571426,1645.6,72.22232142857143,60.128571428571426,1751,72.22232142857143,60.128571428571426,1854.5,72.22232142857143,60.128571428571426,1958.7,72.22232142857143,60.128571428571426,2058.9,72.22232142857143,60.128571428571426,2158.9,72.22232142857143,60.128571428571426,2260.1,72.22232142857143,60.128571428571426,2363.5,72.22232142857143,60.128571428571426,2465.8,72.22232142857143,60.128571428571426,2583.4,72.22232142857143,60.128571428571426,2686.2,72.22232142857143,60.128571428571426,2787.8,72.22232142857143,60.128571428571426,2888.6,72.22232142857143,60.128571428571426,2989.3,72.22232142857143,60.128571428571426,3093.8,72.22232142857143,60.128571428571426,3199.7,72.22232142857143,60.128571428571426,3303.9,72.22232142857143,60.128571428571426,3405.1,72.22232142857143,60.128571428571426,3505.5,72.22232142857143,60.128571428571426,3609,72.22232142857143,60.128571428571426,3713.8,72.22232142857143,60.128571428571426,3815.1,72.22232142857143,60.128571428571426,3920,72.22232142857143,60.128571428571426,4025.3,72.22232142857143,60.128571428571426,4129.3,72.22232142857143,60.128571428571426,4229.9,72.22232142857143,60.128571428571426,4330.3,72.22232142857143,60.128571428571426,4434.9,72.22232142857143,60.128571428571426,4535.3,72.22232142857143,60.128571428571426,4639.2,72.22232142857143,60.128571428571426,4743.8,72.22232142857143,60.128571428571426,4844.9,72.22232142857143,60.128571428571426,4949.3]","[5473,5473,2854.2,2005.3,613.5,""smooth"",""up"",""up"",""good_move"",12500.3,7026.4,2086.9,9772.6,640.8,""oops"",""up"",""right"",""bad_move"",16186.9,3684.4,3157.6,12502.5,526.8,""smooth"",""up"",""up"",""good_move"",19064.4,2877,2296.1,16187.4,580.9,""smooth"",""up"",""up"",""good_move"",25784.1,6718.7,3050.3,22033.8,700,""smooth"",""left"",""left"",""good_move""]","",""
"4166","","<div style=""width:500px;"">
  <p>What determined the result of this run?</p>
  </div>","91","html-slider-response","15","495690","0.0-5.0-1.1","310","1","2025-08-01 15:41:54","1f75c3e559b7213887762d5229550c2b","41.145.193.212","Mozilla/5.0 (Windows NT 10.0; Win64; x64) AppleWebKit/537.36 (KHTML, like Gecko) Chrome/138.0.0.0 Safari/537.36","WebKit","Chrome","138.0.0.0","Windows","10.0","https://app.prolific.com/","en-US,en;q=0.9","67c7672373207a4fb29efe7f","6877631c9844ddd5501205fc","688ce00c6a7da20c9efffd08","3","1","67c7672373207a4fb29efe7f","3","1","2025-08-01T15:50:16.999Z","","","","","","","","","","","AttribQ","","50","","","","","","","","","","","","","","","","","","","","","","","","","","","","",""
"3429","","<div style=""width:500px;"">
  <p>How much control did you have over the ball?</p>
  </div>","81","html-slider-response","16","499122","0.0-5.0-2.1","310","1","2025-08-01 15:41:54","1f75c3e559b7213887762d5229550c2b","41.145.193.212","Mozilla/5.0 (Windows NT 10.0; Win64; x64) AppleWebKit/537.36 (KHTML, like Gecko) Chrome/138.0.0.0 Safari/537.36","WebKit","Chrome","138.0.0.0","Windows","10.0","https://app.prolific.com/","en-US,en;q=0.9","67c7672373207a4fb29efe7f","6877631c9844ddd5501205fc","688ce00c6a7da20c9efffd08","3","1","67c7672373207a4fb29efe7f","3","1","2025-08-01T15:50:20.431Z","","","","","","","","","","","ControlQ","","50","","","","","","","","","","","","","","","","","","","","","","","","","","","","",""
"3192","","<div style=""width:500px;"">
  <p>How would you describe your current emotional state?</p>
  </div>","12","html-slider-response","17","502315","0.0-5.0-3.1","310","1","2025-08-01 15:41:54","1f75c3e559b7213887762d5229550c2b","41.145.193.212","Mozilla/5.0 (Windows NT 10.0; Win64; x64) AppleWebKit/537.36 (KHTML, like Gecko) Chrome/138.0.0.0 Safari/537.36","WebKit","Chrome","138.0.0.0","Windows","10.0","https://app.prolific.com/","en-US,en;q=0.9","67c7672373207a4fb29efe7f","6877631c9844ddd5501205fc","688ce00c6a7da20c9efffd08","3","1","67c7672373207a4fb29efe7f","3","1","2025-08-01T15:50:23.624Z","","","","","","","","","","","StressQ","","50","","","","","","","","","","","","","","","","","","","","","","","","","","","","",""
"3267","","<div style=""width:500px;"">
  <p>What best describes how you currently feel?</p>
  </div>","83","html-slider-response","18","505585","0.0-5.0-4.1","310","1","2025-08-01 15:41:54","1f75c3e559b7213887762d5229550c2b","41.145.193.212","Mozilla/5.0 (Windows NT 10.0; Win64; x64) AppleWebKit/537.36 (KHTML, like Gecko) Chrome/138.0.0.0 Safari/537.36","WebKit","Chrome","138.0.0.0","Windows","10.0","https://app.prolific.com/","en-US,en;q=0.9","67c7672373207a4fb29efe7f","6877631c9844ddd5501205fc","688ce00c6a7da20c9efffd08","3","1","67c7672373207a4fb29efe7f","3","1","2025-08-01T15:50:26.894Z","","","","","","","","","","","MotivationQ","","50","","","","","","","","","","","","","","","","","","","","","","","","","","","","",""
"","","","","ctl-task-cpt","19","537724","0.0-5.0-0.2","310","1","2025-08-01 15:41:54","1f75c3e559b7213887762d5229550c2b","41.145.193.212","Mozilla/5.0 (Windows NT 10.0; Win64; x64) AppleWebKit/537.36 (KHTML, like Gecko) Chrome/138.0.0.0 Safari/537.36","WebKit","Chrome","138.0.0.0","Windows","10.0","https://app.prolific.com/","en-US,en;q=0.9","67c7672373207a4fb29efe7f","6877631c9844ddd5501205fc","688ce00c6a7da20c9efffd08","3","1","67c7672373207a4fb29efe7f","3","1","2025-08-01T15:50:59.033Z","","","","","","","","","","","","","","win-only","1","g1:NE,g2:SW","0.8","3","0","517514.8","1572.1","6586.8","29126.1","1","4","4","6","1","-1","-1","0","0","0","2469.9","3000","-2465","[""up"",""right""]","{""num_key_presses"":4,""num_perfect"":3,""num_errors"":0,""num_randdir"":1,""num_randdir_good_moves"":0,""num_whilered"":0,""num_whileblue"":0,""num_blue"":2,""num_good_moves"":3}","[290.22232142857143,295.12857142857143,0.7,290.22232142857143,295.12857142857143,101.3,290.22232142857143,295.12857142857143,201.6,290.22232142857143,295.12857142857143,302.4,290.22232142857143,295.12857142857143,403.2,290.22232142857143,295.12857142857143,503.7,290.22232142857143,295.12857142857143,605,290.22232142857143,295.12857142857143,709.5,290.22232142857143,295.12857142857143,811.9,290.22232142857143,295.12857142857143,915.6,290.22232142857143,295.12857142857143,1016.6,290.22232142857143,295.12857142857143,1121.8,290.22232142857143,295.12857142857143,1223.8,290.22232142857143,295.12857142857143,1324.1,290.22232142857143,295.12857142857143,1424.1,290.22232142857143,295.12857142857143,1524.2,290.22232142857143,295.12857142857143,1626.7,290.22232142857143,295.12857142857143,1729.1,290.22232142857143,295.12857142857143,1832.7,463.22232142857143,115.12857142857143,1937.3,545.2223214285714,56.128571428571426,2043.1,551.2223214285714,53.128571428571426,2146.6,551.2223214285714,53.128571428571426,2248.7,551.2223214285714,53.128571428571426,2375.3,551.2223214285714,53.128571428571426,2491.5,551.2223214285714,53.128571428571426,2597.9,551.2223214285714,53.128571428571426,2704.5,551.2223214285714,53.128571428571426,2805.9,551.2223214285714,53.128571428571426,2909.9,551.2223214285714,53.128571428571426,3034.4,551.2223214285714,53.128571428571426,3142.2,551.2223214285714,53.128571428571426,3245.7,551.2223214285714,53.128571428571426,3345.7,551.2223214285714,53.128571428571426,3445.8,551.2223214285714,53.128571428571426,3549.4,551.2223214285714,53.128571428571426,3656.3,551.2223214285714,53.128571428571426,3757.3,551.2223214285714,53.128571428571426,3859.6,551.2223214285714,53.128571428571426,3971.5,551.2223214285714,53.128571428571426,4074.6,551.2223214285714,53.128571428571426,4188.9,551.2223214285714,53.128571428571426,4293.9,551.2223214285714,53.128571428571426,4407.4,551.2223214285714,53.128571428571426,4507.7,551.2223214285714,53.128571428571426,4609.2,551.2223214285714,53.128571428571426,4713.7,551.2223214285714,53.128571428571426,4815.3,551.2223214285714,53.128571428571426,4915.6]","[1856.8,1856.8,1000,0,856.8,""smooth"",""right"",""right"",""good_move"",8537.8,6678.5,2875.8,5101.6,560.5,""oops"",""up"",""left"",""bad_move"",13055.9,4516.2,3252.1,8539.7,1264.1,""smooth"",""up"",""up"",""good_move"",19614.3,6557,2484.8,16573.4,556.1,""smooth"",""up"",""up"",""good_move""]","",""
"4370","","<div style=""width:500px;"">
  <p>What determined the result of this run?</p>
  </div>","26","html-slider-response","20","542096","0.0-5.0-1.2","310","1","2025-08-01 15:41:54","1f75c3e559b7213887762d5229550c2b","41.145.193.212","Mozilla/5.0 (Windows NT 10.0; Win64; x64) AppleWebKit/537.36 (KHTML, like Gecko) Chrome/138.0.0.0 Safari/537.36","WebKit","Chrome","138.0.0.0","Windows","10.0","https://app.prolific.com/","en-US,en;q=0.9","67c7672373207a4fb29efe7f","6877631c9844ddd5501205fc","688ce00c6a7da20c9efffd08","3","1","67c7672373207a4fb29efe7f","3","1","2025-08-01T15:51:03.405Z","","","","","","","","","","","AttribQ","","50","","","","","","","","","","","","","","","","","","","","","","","","","","","","",""
"3108","","<div style=""width:500px;"">
  <p>How much control did you have over the ball?</p>
  </div>","74","html-slider-response","21","545207","0.0-5.0-2.2","310","1","2025-08-01 15:41:54","1f75c3e559b7213887762d5229550c2b","41.145.193.212","Mozilla/5.0 (Windows NT 10.0; Win64; x64) AppleWebKit/537.36 (KHTML, like Gecko) Chrome/138.0.0.0 Safari/537.36","WebKit","Chrome","138.0.0.0","Windows","10.0","https://app.prolific.com/","en-US,en;q=0.9","67c7672373207a4fb29efe7f","6877631c9844ddd5501205fc","688ce00c6a7da20c9efffd08","3","1","67c7672373207a4fb29efe7f","3","1","2025-08-01T15:51:06.516Z","","","","","","","","","","","ControlQ","","50","","","","","","","","","","","","","","","","","","","","","","","","","","","","",""
"3073","","<div style=""width:500px;"">
  <p>How would you describe your current emotional state?</p>
  </div>","22","html-slider-response","22","548282","0.0-5.0-3.2","310","1","2025-08-01 15:41:54","1f75c3e559b7213887762d5229550c2b","41.145.193.212","Mozilla/5.0 (Windows NT 10.0; Win64; x64) AppleWebKit/537.36 (KHTML, like Gecko) Chrome/138.0.0.0 Safari/537.36","WebKit","Chrome","138.0.0.0","Windows","10.0","https://app.prolific.com/","en-US,en;q=0.9","67c7672373207a4fb29efe7f","6877631c9844ddd5501205fc","688ce00c6a7da20c9efffd08","3","1","67c7672373207a4fb29efe7f","3","1","2025-08-01T15:51:09.591Z","","","","","","","","","","","StressQ","","50","","","","","","","","","","","","","","","","","","","","","","","","","","","","",""
"4577","","<div style=""width:500px;"">
  <p>What best describes how you currently feel?</p>
  </div>","84","html-slider-response","23","552861","0.0-5.0-4.2","310","1","2025-08-01 15:41:54","1f75c3e559b7213887762d5229550c2b","41.145.193.212","Mozilla/5.0 (Windows NT 10.0; Win64; x64) AppleWebKit/537.36 (KHTML, like Gecko) Chrome/138.0.0.0 Safari/537.36","WebKit","Chrome","138.0.0.0","Windows","10.0","https://app.prolific.com/","en-US,en;q=0.9","67c7672373207a4fb29efe7f","6877631c9844ddd5501205fc","688ce00c6a7da20c9efffd08","3","1","67c7672373207a4fb29efe7f","3","1","2025-08-01T15:51:14.170Z","","","","","","","","","","","MotivationQ","","50","","","","","","","","","","","","","","","","","","","","","","","","","","","","",""
"","","","","ctl-task-cpt","24","582246","0.0-5.0-0.3","310","1","2025-08-01 15:41:54","1f75c3e559b7213887762d5229550c2b","41.145.193.212","Mozilla/5.0 (Windows NT 10.0; Win64; x64) AppleWebKit/537.36 (KHTML, like Gecko) Chrome/138.0.0.0 Safari/537.36","WebKit","Chrome","138.0.0.0","Windows","10.0","https://app.prolific.com/","en-US,en;q=0.9","67c7672373207a4fb29efe7f","6877631c9844ddd5501205fc","688ce00c6a7da20c9efffd08","3","1","67c7672373207a4fb29efe7f","3","1","2025-08-01T15:51:43.555Z","","","","","","","","","","","","","","win-only","0","g1:NW,g2:SE","0.7","4","0","564791","1751.3","6755.8","26361.6","1","4","8","6","2","8","8","8","0","0.06060606060606061","1608.5","3000","910","[""down"",""right""]","{""num_key_presses"":6,""num_perfect"":4,""num_errors"":0,""num_randdir"":2,""num_randdir_good_moves"":2,""num_whilered"":0,""num_whileblue"":0,""num_blue"":1,""num_good_moves"":6}","[297.22232142857143,299.12857142857143,1.2,297.22232142857143,299.12857142857143,119.7,297.22232142857143,299.12857142857143,230.8,297.22232142857143,299.12857142857143,330.8,297.22232142857143,299.12857142857143,447.5,297.22232142857143,299.12857142857143,549.4,297.22232142857143,299.12857142857143,652,297.22232142857143,299.12857142857143,760.2,297.22232142857143,299.12857142857143,860.3,314.22232142857143,315.12857142857143,967.3,492.22232142857143,511.12857142857143,1070.4,521.2223214285714,556.1285714285714,1187.8,527.2223214285714,563.1285714285714,1290.2,528.2223214285714,564.1285714285714,1396.4,528.2223214285714,564.1285714285714,1500.3,528.2223214285714,564.1285714285714,1621.7,528.2223214285714,564.1285714285714,1725.6,528.2223214285714,564.1285714285714,1840.1,528.2223214285714,564.1285714285714,1940.2,528.2223214285714,564.1285714285714,2046.8,528.2223214285714,564.1285714285714,2149.9,528.2223214285714,564.1285714285714,2251.9,528.2223214285714,564.1285714285714,2355.1,528.2223214285714,564.1285714285714,2459.6,528.2223214285714,564.1285714285714,2562,528.2223214285714,564.1285714285714,2675.2,528.2223214285714,564.1285714285714,2781.3,528.2223214285714,564.1285714285714,2892.2,528.2223214285714,564.1285714285714,3000,528.2223214285714,564.1285714285714,3106.7,528.2223214285714,564.1285714285714,3209.8,528.2223214285714,564.1285714285714,3315.2,528.2223214285714,564.1285714285714,3424.6,528.2223214285714,564.1285714285714,3526.9,528.2223214285714,564.1285714285714,3641.8,528.2223214285714,564.1285714285714,3758.1,528.2223214285714,564.1285714285714,3866.5,528.2223214285714,564.1285714285714,3975.3,528.2223214285714,564.1285714285714,4076.3,528.2223214285714,564.1285714285714,4195,528.2223214285714,564.1285714285714,4299,528.2223214285714,564.1285714285714,4402.1,528.2223214285714,564.1285714285714,4504.8,528.2223214285714,564.1285714285714,4614.5,528.2223214285714,564.1285714285714,4731.7,528.2223214285714,564.1285714285714,4832.2,528.2223214285714,564.1285714285714,4940.6]","[1568.2,1568.2,1000,0,568.2,""oops"",""down"",""down"",""good_move"",9325.6,7755.2,3286.6,5536.4,502.6,""smooth"",""down"",""down"",""good_move"",11491.8,2165.4,1498,9326.4,667.4,""smooth"",""right"",""right"",""good_move"",13961.9,2468.5,1980.7,11493.4,487.8,""oops"",""right"",""right"",""good_move"",16810,2845.3,2402.9,13964.7,442.4,""smooth"",""right"",""right"",""good_move"",19473.2,2662.2,2141.8,16811.1,520.3,""smooth"",""down"",""down"",""good_move""]","",""
"3912","","<div style=""width:500px;"">
  <p>What determined the result of this run?</p>
  </div>","84","html-slider-response","25","586163","0.0-5.0-1.3","310","1","2025-08-01 15:41:54","1f75c3e559b7213887762d5229550c2b","41.145.193.212","Mozilla/5.0 (Windows NT 10.0; Win64; x64) AppleWebKit/537.36 (KHTML, like Gecko) Chrome/138.0.0.0 Safari/537.36","WebKit","Chrome","138.0.0.0","Windows","10.0","https://app.prolific.com/","en-US,en;q=0.9","67c7672373207a4fb29efe7f","6877631c9844ddd5501205fc","688ce00c6a7da20c9efffd08","3","1","67c7672373207a4fb29efe7f","3","1","2025-08-01T15:51:47.472Z","","","","","","","","","","","AttribQ","","50","","","","","","","","","","","","","","","","","","","","","","","","","","","","",""
"3135","","<div style=""width:500px;"">
  <p>How much control did you have over the ball?</p>
  </div>","91","html-slider-response","26","589300","0.0-5.0-2.3","310","1","2025-08-01 15:41:54","1f75c3e559b7213887762d5229550c2b","41.145.193.212","Mozilla/5.0 (Windows NT 10.0; Win64; x64) AppleWebKit/537.36 (KHTML, like Gecko) Chrome/138.0.0.0 Safari/537.36","WebKit","Chrome","138.0.0.0","Windows","10.0","https://app.prolific.com/","en-US,en;q=0.9","67c7672373207a4fb29efe7f","6877631c9844ddd5501205fc","688ce00c6a7da20c9efffd08","3","1","67c7672373207a4fb29efe7f","3","1","2025-08-01T15:51:50.610Z","","","","","","","","","","","ControlQ","","50","","","","","","","","","","","","","","","","","","","","","","","","","","","","",""
"3470","","<div style=""width:500px;"">
  <p>How would you describe your current emotional state?</p>
  </div>","27","html-slider-response","27","592773","0.0-5.0-3.3","310","1","2025-08-01 15:41:54","1f75c3e559b7213887762d5229550c2b","41.145.193.212","Mozilla/5.0 (Windows NT 10.0; Win64; x64) AppleWebKit/537.36 (KHTML, like Gecko) Chrome/138.0.0.0 Safari/537.36","WebKit","Chrome","138.0.0.0","Windows","10.0","https://app.prolific.com/","en-US,en;q=0.9","67c7672373207a4fb29efe7f","6877631c9844ddd5501205fc","688ce00c6a7da20c9efffd08","3","1","67c7672373207a4fb29efe7f","3","1","2025-08-01T15:51:54.082Z","","","","","","","","","","","StressQ","","50","","","","","","","","","","","","","","","","","","","","","","","","","","","","",""
"2539","","<div style=""width:500px;"">
  <p>What best describes how you currently feel?</p>
  </div>","90","html-slider-response","28","595315","0.0-5.0-4.3","310","1","2025-08-01 15:41:54","1f75c3e559b7213887762d5229550c2b","41.145.193.212","Mozilla/5.0 (Windows NT 10.0; Win64; x64) AppleWebKit/537.36 (KHTML, like Gecko) Chrome/138.0.0.0 Safari/537.36","WebKit","Chrome","138.0.0.0","Windows","10.0","https://app.prolific.com/","en-US,en;q=0.9","67c7672373207a4fb29efe7f","6877631c9844ddd5501205fc","688ce00c6a7da20c9efffd08","3","1","67c7672373207a4fb29efe7f","3","1","2025-08-01T15:51:56.624Z","","","","","","","","","","","MotivationQ","","50","","","","","","","","","","","","","","","","","","","","","","","","","","","","",""
"","","","","ctl-task-cpt","29","627456","0.0-5.0-0.4","310","1","2025-08-01 15:41:54","1f75c3e559b7213887762d5229550c2b","41.145.193.212","Mozilla/5.0 (Windows NT 10.0; Win64; x64) AppleWebKit/537.36 (KHTML, like Gecko) Chrome/138.0.0.0 Safari/537.36","WebKit","Chrome","138.0.0.0","Windows","10.0","https://app.prolific.com/","en-US,en;q=0.9","67c7672373207a4fb29efe7f","6877631c9844ddd5501205fc","688ce00c6a7da20c9efffd08","3","1","67c7672373207a4fb29efe7f","3","1","2025-08-01T15:52:28.765Z","","","","","","","","","","","","","","win-only","1","g1:NE,g2:SW","0.6","5","0","607244","1449.1","6451.1","29116.4","1","4","4","6","1","1","1","9","8","0.06818181818181818","1736.3","3000","755","[""up"",""right""]","{""num_key_presses"":8,""num_perfect"":4,""num_errors"":0,""num_randdir"":4,""num_randdir_good_moves"":2,""num_whilered"":0,""num_whileblue"":0,""num_blue"":0,""num_good_moves"":6}","[298.22232142857143,295.12857142857143,0.8,298.22232142857143,295.12857142857143,121.9,298.22232142857143,295.12857142857143,226.5,298.22232142857143,295.12857142857143,330,298.22232142857143,295.12857142857143,432.4,298.22232142857143,295.12857142857143,543.9,298.22232142857143,295.12857142857143,665.7,298.22232142857143,295.12857142857143,766.5,298.22232142857143,295.12857142857143,867.3,298.22232142857143,295.12857142857143,968.4,419.22232142857143,150.12857142857143,1098.6,499.22232142857143,72.12857142857143,1199.9,508.22232142857143,65.12857142857143,1312.6,514.2223214285714,63.128571428571426,1418.4,515.2223214285714,62.128571428571426,1523.9,515.2223214285714,62.128571428571426,1627.2,515.2223214285714,62.128571428571426,1741.8,515.2223214285714,62.128571428571426,1843.4,515.2223214285714,62.128571428571426,1944.1,515.2223214285714,62.128571428571426,2047,515.2223214285714,62.128571428571426,2170.3,515.2223214285714,62.128571428571426,2276.2,515.2223214285714,62.128571428571426,2380,515.2223214285714,62.128571428571426,2498.3,515.2223214285714,62.128571428571426,2600.5,515.2223214285714,62.128571428571426,2702.6,515.2223214285714,62.128571428571426,2805.6,515.2223214285714,62.128571428571426,2925.3,515.2223214285714,62.128571428571426,3027.4,515.2223214285714,62.128571428571426,3128.3,515.2223214285714,62.128571428571426,3230.7,515.2223214285714,62.128571428571426,3358.8,515.2223214285714,62.128571428571426,3467.5,515.2223214285714,62.128571428571426,3604.1,515.2223214285714,62.128571428571426,3706.6,515.2223214285714,62.128571428571426,3813.7,515.2223214285714,62.128571428571426,3927.4,515.2223214285714,62.128571428571426,4034.5,515.2223214285714,62.128571428571426,4158.4,515.2223214285714,62.128571428571426,4285.2,515.2223214285714,62.128571428571426,4405.4,515.2223214285714,62.128571428571426,4507.6,515.2223214285714,62.128571428571426,4611.5,515.2223214285714,62.128571428571426,4718,515.2223214285714,62.128571428571426,4822.6,515.2223214285714,62.128571428571426,4930]","[1651.2,1651.2,1000,0,651.2,""oops"",""right"",""down"",""bad_move"",4915.7,3262.3,2738.7,1653.5,523.5,""oops"",""right"",""left"",""bad_move"",8246.8,3329.8,2783.9,4917,545.9,""smooth"",""right"",""right"",""good_move"",11496,3245.9,2706.9,8250.1,539.1,""oops"",""right"",""up"",""good_move"",13971.1,2473.6,1974,11497.5,499.6,""oops"",""right"",""up"",""good_move"",17106.2,3132.1,2658.1,13974.1,474,""smooth"",""right"",""right"",""good_move"",20064.3,2956.5,2448.2,17107.8,508.3,""smooth"",""right"",""right"",""good_move"",22502.2,2435.9,1986.7,20066.3,449.2,""smooth"",""up"",""up"",""good_move""]","",""
"3479","","<div style=""width:500px;"">
  <p>What determined the result of this run?</p>
  </div>","94","html-slider-response","30","630938","0.0-5.0-1.4","310","1","2025-08-01 15:41:54","1f75c3e559b7213887762d5229550c2b","41.145.193.212","Mozilla/5.0 (Windows NT 10.0; Win64; x64) AppleWebKit/537.36 (KHTML, like Gecko) Chrome/138.0.0.0 Safari/537.36","WebKit","Chrome","138.0.0.0","Windows","10.0","https://app.prolific.com/","en-US,en;q=0.9","67c7672373207a4fb29efe7f","6877631c9844ddd5501205fc","688ce00c6a7da20c9efffd08","3","1","67c7672373207a4fb29efe7f","3","1","2025-08-01T15:52:32.247Z","","","","","","","","","","","AttribQ","","50","","","","","","","","","","","","","","","","","","","","","","","","","","","","",""
"4196","","<div style=""width:500px;"">
  <p>How much control did you have over the ball?</p>
  </div>","87","html-slider-response","31","635137","0.0-5.0-2.4","310","1","2025-08-01 15:41:54","1f75c3e559b7213887762d5229550c2b","41.145.193.212","Mozilla/5.0 (Windows NT 10.0; Win64; x64) AppleWebKit/537.36 (KHTML, like Gecko) Chrome/138.0.0.0 Safari/537.36","WebKit","Chrome","138.0.0.0","Windows","10.0","https://app.prolific.com/","en-US,en;q=0.9","67c7672373207a4fb29efe7f","6877631c9844ddd5501205fc","688ce00c6a7da20c9efffd08","3","1","67c7672373207a4fb29efe7f","3","1","2025-08-01T15:52:36.446Z","","","","","","","","","","","ControlQ","","50","","","","","","","","","","","","","","","","","","","","","","","","","","","","",""
"5080","","<div style=""width:500px;"">
  <p>How would you describe your current emotional state?</p>
  </div>","10","html-slider-response","32","640219","0.0-5.0-3.4","310","1","2025-08-01 15:41:54","1f75c3e559b7213887762d5229550c2b","41.145.193.212","Mozilla/5.0 (Windows NT 10.0; Win64; x64) AppleWebKit/537.36 (KHTML, like Gecko) Chrome/138.0.0.0 Safari/537.36","WebKit","Chrome","138.0.0.0","Windows","10.0","https://app.prolific.com/","en-US,en;q=0.9","67c7672373207a4fb29efe7f","6877631c9844ddd5501205fc","688ce00c6a7da20c9efffd08","3","1","67c7672373207a4fb29efe7f","3","1","2025-08-01T15:52:41.528Z","","","","","","","","","","","StressQ","","50","","","","","","","","","","","","","","","","","","","","","","","","","","","","",""
"3095","","<div style=""width:500px;"">
  <p>What best describes how you currently feel?</p>
  </div>","90","html-slider-response","33","643319","0.0-5.0-4.4","310","1","2025-08-01 15:41:54","1f75c3e559b7213887762d5229550c2b","41.145.193.212","Mozilla/5.0 (Windows NT 10.0; Win64; x64) AppleWebKit/537.36 (KHTML, like Gecko) Chrome/138.0.0.0 Safari/537.36","WebKit","Chrome","138.0.0.0","Windows","10.0","https://app.prolific.com/","en-US,en;q=0.9","67c7672373207a4fb29efe7f","6877631c9844ddd5501205fc","688ce00c6a7da20c9efffd08","3","1","67c7672373207a4fb29efe7f","3","1","2025-08-01T15:52:44.628Z","","","","","","","","","","","MotivationQ","","50","","","","","","","","","","","","","","","","","","","","","","","","","","","","",""
"","","","","ctl-task-cpt","34","681274","0.0-5.0-0.5","310","1","2025-08-01 15:41:54","1f75c3e559b7213887762d5229550c2b","41.145.193.212","Mozilla/5.0 (Windows NT 10.0; Win64; x64) AppleWebKit/537.36 (KHTML, like Gecko) Chrome/138.0.0.0 Safari/537.36","WebKit","Chrome","138.0.0.0","Windows","10.0","https://app.prolific.com/","en-US,en;q=0.9","67c7672373207a4fb29efe7f","6877631c9844ddd5501205fc","688ce00c6a7da20c9efffd08","3","1","67c7672373207a4fb29efe7f","3","1","2025-08-01T15:53:22.584Z","","","","","","","","","","","","","","win-only","3","g1:SW,g2:NE","0.5","6","0","655250.9","1650.4","6653.6","34935.6","1","4","8","6","2","8","8","17","9","0.12878787878787878","2169.8","3000","485","[""up"",""right""]","{""num_key_presses"":8,""num_perfect"":5,""num_errors"":0,""num_randdir"":3,""num_randdir_good_moves"":2,""num_whilered"":0,""num_whileblue"":0,""num_blue"":1,""num_good_moves"":7}","[295.22232142857143,296.12857142857143,2.2,295.22232142857143,296.12857142857143,100.3,295.22232142857143,296.12857142857143,202.2,295.22232142857143,296.12857142857143,305.3,295.22232142857143,296.12857142857143,411.8,295.22232142857143,296.12857142857143,540.1,295.22232142857143,296.12857142857143,642.5,295.22232142857143,296.12857142857143,766.3,295.22232142857143,296.12857142857143,870.4,295.22232142857143,296.12857142857143,971.2,295.22232142857143,296.12857142857143,1088.8,295.22232142857143,296.12857142857143,1193.1,295.22232142857143,296.12857142857143,1302.9,289.22232142857143,293.12857142857143,1410.4,282.22232142857143,268.12857142857143,1514,387.22232142857143,159.12857142857143,1614.7,483.22232142857143,103.12857142857143,1716.8,518.2223214285714,91.12857142857143,1829.9,528.2223214285714,72.12857142857143,1936,528.2223214285714,68.12857142857143,2046.8,528.2223214285714,68.12857142857143,2154.2,528.2223214285714,68.12857142857143,2264.7,528.2223214285714,68.12857142857143,2385.4,528.2223214285714,68.12857142857143,2489.4,528.2223214285714,68.12857142857143,2591.6,528.2223214285714,68.12857142857143,2701.8,528.2223214285714,68.12857142857143,2803.1,528.2223214285714,68.12857142857143,2906,528.2223214285714,68.12857142857143,3027.4,528.2223214285714,68.12857142857143,3152.3,528.2223214285714,68.12857142857143,3271.8,528.2223214285714,68.12857142857143,3373.3,528.2223214285714,68.12857142857143,3482.3,528.2223214285714,68.12857142857143,3598.5,528.2223214285714,68.12857142857143,3708,528.2223214285714,68.12857142857143,3814.2,528.2223214285714,68.12857142857143,3920.4,528.2223214285714,68.12857142857143,4037.3,528.2223214285714,68.12857142857143,4157.4,528.2223214285714,68.12857142857143,4266.1,528.2223214285714,68.12857142857143,4375.7,528.2223214285714,68.12857142857143,4477.6,528.2223214285714,68.12857142857143,4584,528.2223214285714,68.12857142857143,4687.4,528.2223214285714,68.12857142857143,4788.3,528.2223214285714,68.12857142857143,4892.1,528.2223214285714,68.12857142857143,4996.4]","[1592.2,1592.2,1000,0,592.2,""smooth"",""right"",""right"",""good_move"",5434,3840.4,3134.7,1593.6,705.7,""smooth"",""right"",""right"",""good_move"",8185,2749.8,2175.9,5435.2,573.9,""oops"",""right"",""down"",""bad_move"",12680.7,4494.1,3127.4,8186.6,1366.8,""oops"",""up"",""right"",""good_move"",16101.3,3419.2,2840.9,12682.2,578.2,""smooth"",""up"",""up"",""good_move"",19007.3,2904.2,2412,16103.1,492.2,""smooth"",""up"",""up"",""good_move"",21505.8,2497.4,1989.9,19008.6,507.4,""smooth"",""up"",""up"",""good_move"",28119,6612,2697.5,24821.9,599.6,""oops"",""up"",""up"",""good_move""]","",""
"3237","","<div style=""width:500px;"">
  <p>What determined the result of this run?</p>
  </div>","92","html-slider-response","35","684515","0.0-5.0-1.5","310","1","2025-08-01 15:41:54","1f75c3e559b7213887762d5229550c2b","41.145.193.212","Mozilla/5.0 (Windows NT 10.0; Win64; x64) AppleWebKit/537.36 (KHTML, like Gecko) Chrome/138.0.0.0 Safari/537.36","WebKit","Chrome","138.0.0.0","Windows","10.0","https://app.prolific.com/","en-US,en;q=0.9","67c7672373207a4fb29efe7f","6877631c9844ddd5501205fc","688ce00c6a7da20c9efffd08","3","1","67c7672373207a4fb29efe7f","3","1","2025-08-01T15:53:25.824Z","","","","","","","","","","","AttribQ","","50","","","","","","","","","","","","","","","","","","","","","","","","","","","","",""
"3393","","<div style=""width:500px;"">
  <p>How much control did you have over the ball?</p>
  </div>","82","html-slider-response","36","687914","0.0-5.0-2.5","310","1","2025-08-01 15:41:54","1f75c3e559b7213887762d5229550c2b","41.145.193.212","Mozilla/5.0 (Windows NT 10.0; Win64; x64) AppleWebKit/537.36 (KHTML, like Gecko) Chrome/138.0.0.0 Safari/537.36","WebKit","Chrome","138.0.0.0","Windows","10.0","https://app.prolific.com/","en-US,en;q=0.9","67c7672373207a4fb29efe7f","6877631c9844ddd5501205fc","688ce00c6a7da20c9efffd08","3","1","67c7672373207a4fb29efe7f","3","1","2025-08-01T15:53:29.223Z","","","","","","","","","","","ControlQ","","50","","","","","","","","","","","","","","","","","","","","","","","","","","","","",""
"3450","","<div style=""width:500px;"">
  <p>How would you describe your current emotional state?</p>
  </div>","5","html-slider-response","37","691368","0.0-5.0-3.5","310","1","2025-08-01 15:41:54","1f75c3e559b7213887762d5229550c2b","41.145.193.212","Mozilla/5.0 (Windows NT 10.0; Win64; x64) AppleWebKit/537.36 (KHTML, like Gecko) Chrome/138.0.0.0 Safari/537.36","WebKit","Chrome","138.0.0.0","Windows","10.0","https://app.prolific.com/","en-US,en;q=0.9","67c7672373207a4fb29efe7f","6877631c9844ddd5501205fc","688ce00c6a7da20c9efffd08","3","1","67c7672373207a4fb29efe7f","3","1","2025-08-01T15:53:32.677Z","","","","","","","","","","","StressQ","","50","","","","","","","","","","","","","","","","","","","","","","","","","","","","",""
"3402","","<div style=""width:500px;"">
  <p>What best describes how you currently feel?</p>
  </div>","92","html-slider-response","38","694774","0.0-5.0-4.5","310","1","2025-08-01 15:41:54","1f75c3e559b7213887762d5229550c2b","41.145.193.212","Mozilla/5.0 (Windows NT 10.0; Win64; x64) AppleWebKit/537.36 (KHTML, like Gecko) Chrome/138.0.0.0 Safari/537.36","WebKit","Chrome","138.0.0.0","Windows","10.0","https://app.prolific.com/","en-US,en;q=0.9","67c7672373207a4fb29efe7f","6877631c9844ddd5501205fc","688ce00c6a7da20c9efffd08","3","1","67c7672373207a4fb29efe7f","3","1","2025-08-01T15:53:36.083Z","","","","","","","","","","","MotivationQ","","50","","","","","","","","","","","","","","","","","","","","","","","","","","","","",""
"","","","","ctl-task-cpt","39","760182","0.0-5.0-0.6","310","1","2025-08-01 15:41:54","1f75c3e559b7213887762d5229550c2b","41.145.193.212","Mozilla/5.0 (Windows NT 10.0; Win64; x64) AppleWebKit/537.36 (KHTML, like Gecko) Chrome/138.0.0.0 Safari/537.36","WebKit","Chrome","138.0.0.0","Windows","10.0","https://app.prolific.com/","en-US,en;q=0.9","67c7672373207a4fb29efe7f","6877631c9844ddd5501205fc","688ce00c6a7da20c9efffd08","3","1","67c7672373207a4fb29efe7f","3","1","2025-08-01T15:54:41.492Z","","","","","","","","","","","","","","win-only","2","g1:SE,g2:NW","0.4","7","0","706703.8","1476.1","6479","62386.9","1","4","8","6","2","-8","-8","9","17","0.06818181818181818","1915.7","3000","-1425","[""left"",""up""]","{""num_key_presses"":12,""num_perfect"":5,""num_errors"":0,""num_randdir"":7,""num_randdir_good_moves"":3,""num_whilered"":0,""num_whileblue"":0,""num_blue"":5,""num_good_moves"":8}","[293.22232142857143,291.12857142857143,6.3,293.22232142857143,291.12857142857143,102.8,293.22232142857143,291.12857142857143,214.3,293.22232142857143,291.12857142857143,315,293.22232142857143,291.12857142857143,417.4,293.22232142857143,291.12857142857143,526.8,293.22232142857143,291.12857142857143,629,293.22232142857143,291.12857142857143,735.1,293.22232142857143,291.12857142857143,838.3,293.22232142857143,291.12857142857143,945,293.22232142857143,290.12857142857143,1067.8,160.22232142857143,102.12857142857143,1171.3,126.22232142857143,65.12857142857143,1280.8,120.22232142857143,61.128571428571426,1381.2,98.22232142857143,52.128571428571426,1496.8,75.22232142857143,50.128571428571426,1602.5,72.22232142857143,50.128571428571426,1721.4,72.22232142857143,50.128571428571426,1847.5,72.22232142857143,50.128571428571426,1948.9,72.22232142857143,50.128571428571426,2055.7,72.22232142857143,50.128571428571426,2163.6,72.22232142857143,50.128571428571426,2266.1,72.22232142857143,50.128571428571426,2366.2,72.22232142857143,50.128571428571426,2509.5,72.22232142857143,50.128571428571426,2618.8,72.22232142857143,50.128571428571426,2721.6,72.22232142857143,50.128571428571426,2836.4,72.22232142857143,50.128571428571426,2945.8,72.22232142857143,50.128571428571426,3050.9,72.22232142857143,50.128571428571426,3162.4,72.22232142857143,50.128571428571426,3263.5,72.22232142857143,50.128571428571426,3364.3,72.22232142857143,50.128571428571426,3472.4,72.22232142857143,50.128571428571426,3572.5,72.22232142857143,50.128571428571426,3697.6,72.22232142857143,50.128571428571426,3799.3,72.22232142857143,50.128571428571426,3903.1,72.22232142857143,50.128571428571426,4007.1,72.22232142857143,50.128571428571426,4111.7,72.22232142857143,50.128571428571426,4223.7,72.22232142857143,50.128571428571426,4342.5,72.22232142857143,50.128571428571426,4444.3,72.22232142857143,50.128571428571426,4562.3,72.22232142857143,50.128571428571426,4675.7,72.22232142857143,50.128571428571426,4780.1,72.22232142857143,50.128571428571426,4890.4,72.22232142857143,50.128571428571426,4994.9]","[6074.6,6074.6,3382.5,2025.6,666.5,""smooth"",""up"",""up"",""good_move"",8726.1,2649.8,2092.4,6076.3,557.4,""oops"",""up"",""up"",""good_move"",12019.6,3291,2778.2,8728.6,512.8,""oops"",""up"",""down"",""bad_move"",15064.4,3043.3,2473.4,12021.2,569.8,""oops"",""up"",""down"",""bad_move"",17995.1,2926.4,2376.3,15068.7,550.1,""oops"",""left"",""left"",""good_move"",20992.8,2995.4,2487,17997.4,508.4,""smooth"",""left"",""left"",""good_move"",32151.7,11157.8,3083.6,28435.6,632.5,""oops"",""up"",""up"",""good_move"",38689,6535.9,2455.6,35677.8,555.6,""smooth"",""up"",""up"",""good_move"",41355.9,2665.9,2170.7,38690,495.2,""oops"",""up"",""right"",""bad_move"",44111.9,2754.1,2210.9,41357.8,543.2,""smooth"",""up"",""up"",""good_move"",47141.5,3028,2464.7,44113.8,563.1,""smooth"",""left"",""left"",""good_move"",49976.7,2832.8,2415.4,47143.9,417.4,""oops"",""left"",""right"",""bad_move""]","",""
"22699","","<div style=""width:500px;"">
  <p>What determined the result of this run?</p>
  </div>","89","html-slider-response","40","782884","0.0-5.0-1.6","310","1","2025-08-01 15:41:54","1f75c3e559b7213887762d5229550c2b","41.145.193.212","Mozilla/5.0 (Windows NT 10.0; Win64; x64) AppleWebKit/537.36 (KHTML, like Gecko) Chrome/138.0.0.0 Safari/537.36","WebKit","Chrome","138.0.0.0","Windows","10.0","https://app.prolific.com/","en-US,en;q=0.9","67c7672373207a4fb29efe7f","6877631c9844ddd5501205fc","688ce00c6a7da20c9efffd08","3","1","67c7672373207a4fb29efe7f","3","1","2025-08-01T15:55:04.193Z","","","","","","","","","","","AttribQ","","50","","","","","","","","","","","","","","","","","","","","","","","","","","","","",""
"7030","","<div style=""width:500px;"">
  <p>How much control did you have over the ball?</p>
  </div>","91","html-slider-response","41","789921","0.0-5.0-2.6","310","1","2025-08-01 15:41:54","1f75c3e559b7213887762d5229550c2b","41.145.193.212","Mozilla/5.0 (Windows NT 10.0; Win64; x64) AppleWebKit/537.36 (KHTML, like Gecko) Chrome/138.0.0.0 Safari/537.36","WebKit","Chrome","138.0.0.0","Windows","10.0","https://app.prolific.com/","en-US,en;q=0.9","67c7672373207a4fb29efe7f","6877631c9844ddd5501205fc","688ce00c6a7da20c9efffd08","3","1","67c7672373207a4fb29efe7f","3","1","2025-08-01T15:55:11.231Z","","","","","","","","","","","ControlQ","","50","","","","","","","","","","","","","","","","","","","","","","","","","","","","",""
"6404","","<div style=""width:500px;"">
  <p>How would you describe your current emotional state?</p>
  </div>","10","html-slider-response","42","796329","0.0-5.0-3.6","310","1","2025-08-01 15:41:54","1f75c3e559b7213887762d5229550c2b","41.145.193.212","Mozilla/5.0 (Windows NT 10.0; Win64; x64) AppleWebKit/537.36 (KHTML, like Gecko) Chrome/138.0.0.0 Safari/537.36","WebKit","Chrome","138.0.0.0","Windows","10.0","https://app.prolific.com/","en-US,en;q=0.9","67c7672373207a4fb29efe7f","6877631c9844ddd5501205fc","688ce00c6a7da20c9efffd08","3","1","67c7672373207a4fb29efe7f","3","1","2025-08-01T15:55:17.638Z","","","","","","","","","","","StressQ","","50","","","","","","","","","","","","","","","","","","","","","","","","","","","","",""
"5248","","<div style=""width:500px;"">
  <p>What best describes how you currently feel?</p>
  </div>","83","html-slider-response","43","801581","0.0-5.0-4.6","310","1","2025-08-01 15:41:54","1f75c3e559b7213887762d5229550c2b","41.145.193.212","Mozilla/5.0 (Windows NT 10.0; Win64; x64) AppleWebKit/537.36 (KHTML, like Gecko) Chrome/138.0.0.0 Safari/537.36","WebKit","Chrome","138.0.0.0","Windows","10.0","https://app.prolific.com/","en-US,en;q=0.9","67c7672373207a4fb29efe7f","6877631c9844ddd5501205fc","688ce00c6a7da20c9efffd08","3","1","67c7672373207a4fb29efe7f","3","1","2025-08-01T15:55:22.890Z","","","","","","","","","","","MotivationQ","","50","","","","","","","","","","","","","","","","","","","","","","","","","","","","",""
"","","","","ctl-task-cpt","44","825628","0.0-5.0-0.7","310","1","2025-08-01 15:41:54","1f75c3e559b7213887762d5229550c2b","41.145.193.212","Mozilla/5.0 (Windows NT 10.0; Win64; x64) AppleWebKit/537.36 (KHTML, like Gecko) Chrome/138.0.0.0 Safari/537.36","WebKit","Chrome","138.0.0.0","Windows","10.0","https://app.prolific.com/","en-US,en;q=0.9","67c7672373207a4fb29efe7f","6877631c9844ddd5501205fc","688ce00c6a7da20c9efffd08","3","1","67c7672373207a4fb29efe7f","3","1","2025-08-01T15:55:46.937Z","","","","","","","","","","","","","","win-only","3","g1:SW,g2:NE","0.3","8","0","813524.9","5493","10497.2","21008.7","1","4","4","6","1","1","1","10","9","0.07575757575757576","1688.2","3000","2235","[""down"",""left""]","{""num_key_presses"":4,""num_perfect"":3,""num_errors"":0,""num_randdir"":1,""num_randdir_good_moves"":1,""num_whilered"":0,""num_whileblue"":0,""num_blue"":0,""num_good_moves"":4}","[297.22232142857143,300.12857142857143,1.2,297.22232142857143,300.12857142857143,108.8,297.22232142857143,300.12857142857143,228,297.22232142857143,300.12857142857143,329.9,297.22232142857143,300.12857142857143,446,297.22232142857143,300.12857142857143,551.4,297.22232142857143,300.12857142857143,657.4,297.22232142857143,300.12857142857143,760.6,297.22232142857143,300.12857142857143,866.6,170.22232142857143,420.12857142857143,1019.1,77.22232142857143,495.12857142857143,1121.3,64.22232142857143,501.12857142857143,1222,62.222321428571426,501.12857142857143,1326.9,62.222321428571426,501.12857142857143,1435,62.222321428571426,501.12857142857143,1539.9,62.222321428571426,501.12857142857143,1644.7,62.222321428571426,501.12857142857143,1752.5,62.222321428571426,501.12857142857143,1856.7,62.222321428571426,501.12857142857143,1969.8,62.222321428571426,501.12857142857143,2077.7,62.222321428571426,501.12857142857143,2185.2,62.222321428571426,501.12857142857143,2285.9,62.222321428571426,501.12857142857143,2391.3,62.222321428571426,501.12857142857143,2551.6,62.222321428571426,501.12857142857143,2656.2,62.222321428571426,501.12857142857143,2762.1,62.222321428571426,501.12857142857143,2870.3,62.222321428571426,501.12857142857143,2976.6,62.222321428571426,501.12857142857143,3076.8,62.222321428571426,501.12857142857143,3181,62.222321428571426,501.12857142857143,3291.2,62.222321428571426,501.12857142857143,3393.5,62.222321428571426,501.12857142857143,3519.1,62.222321428571426,501.12857142857143,3623,62.222321428571426,501.12857142857143,3727.2,62.222321428571426,501.12857142857143,3839.2,62.222321428571426,501.12857142857143,3958,62.222321428571426,501.12857142857143,4064.8,62.222321428571426,501.12857142857143,4171.2,62.222321428571426,501.12857142857143,4286.4,62.222321428571426,501.12857142857143,4388.9,62.222321428571426,501.12857142857143,4489,62.222321428571426,501.12857142857143,4598.6,62.222321428571426,501.12857142857143,4707.7,62.222321428571426,501.12857142857143,4810.1,62.222321428571426,501.12857142857143,4915.7]","[1765.7,1765.7,1000,0,765.7,""smooth"",""down"",""down"",""good_move"",4671.4,2904.4,2336.7,1767,567.7,""smooth"",""down"",""down"",""good_move"",7248.2,2575.6,2107.8,4672.7,467.7,""oops"",""left"",""left"",""good_move"",10293.4,3042.2,2601.7,7251.2,440.5,""smooth"",""left"",""left"",""good_move""]","",""
"3356","","<div style=""width:500px;"">
  <p>What determined the result of this run?</p>
  </div>","89","html-slider-response","45","828987","0.0-5.0-1.7","310","1","2025-08-01 15:41:54","1f75c3e559b7213887762d5229550c2b","41.145.193.212","Mozilla/5.0 (Windows NT 10.0; Win64; x64) AppleWebKit/537.36 (KHTML, like Gecko) Chrome/138.0.0.0 Safari/537.36","WebKit","Chrome","138.0.0.0","Windows","10.0","https://app.prolific.com/","en-US,en;q=0.9","67c7672373207a4fb29efe7f","6877631c9844ddd5501205fc","688ce00c6a7da20c9efffd08","3","1","67c7672373207a4fb29efe7f","3","1","2025-08-01T15:55:50.296Z","","","","","","","","","","","AttribQ","","50","","","","","","","","","","","","","","","","","","","","","","","","","","","","",""
"5993","","<div style=""width:500px;"">
  <p>How much control did you have over the ball?</p>
  </div>","88","html-slider-response","46","834984","0.0-5.0-2.7","310","1","2025-08-01 15:41:54","1f75c3e559b7213887762d5229550c2b","41.145.193.212","Mozilla/5.0 (Windows NT 10.0; Win64; x64) AppleWebKit/537.36 (KHTML, like Gecko) Chrome/138.0.0.0 Safari/537.36","WebKit","Chrome","138.0.0.0","Windows","10.0","https://app.prolific.com/","en-US,en;q=0.9","67c7672373207a4fb29efe7f","6877631c9844ddd5501205fc","688ce00c6a7da20c9efffd08","3","1","67c7672373207a4fb29efe7f","3","1","2025-08-01T15:55:56.293Z","","","","","","","","","","","ControlQ","","50","","","","","","","","","","","","","","","","","","","","","","","","","","","","",""
"4892","","<div style=""width:500px;"">
  <p>How would you describe your current emotional state?</p>
  </div>","15","html-slider-response","47","839881","0.0-5.0-3.7","310","1","2025-08-01 15:41:54","1f75c3e559b7213887762d5229550c2b","41.145.193.212","Mozilla/5.0 (Windows NT 10.0; Win64; x64) AppleWebKit/537.36 (KHTML, like Gecko) Chrome/138.0.0.0 Safari/537.36","WebKit","Chrome","138.0.0.0","Windows","10.0","https://app.prolific.com/","en-US,en;q=0.9","67c7672373207a4fb29efe7f","6877631c9844ddd5501205fc","688ce00c6a7da20c9efffd08","3","1","67c7672373207a4fb29efe7f","3","1","2025-08-01T15:56:01.190Z","","","","","","","","","","","StressQ","","50","","","","","","","","","","","","","","","","","","","","","","","","","","","","",""
"5081","","<div style=""width:500px;"">
  <p>What best describes how you currently feel?</p>
  </div>","91","html-slider-response","48","844967","0.0-5.0-4.7","310","1","2025-08-01 15:41:54","1f75c3e559b7213887762d5229550c2b","41.145.193.212","Mozilla/5.0 (Windows NT 10.0; Win64; x64) AppleWebKit/537.36 (KHTML, like Gecko) Chrome/138.0.0.0 Safari/537.36","WebKit","Chrome","138.0.0.0","Windows","10.0","https://app.prolific.com/","en-US,en;q=0.9","67c7672373207a4fb29efe7f","6877631c9844ddd5501205fc","688ce00c6a7da20c9efffd08","3","1","67c7672373207a4fb29efe7f","3","1","2025-08-01T15:56:06.276Z","","","","","","","","","","","MotivationQ","","50","","","","","","","","","","","","","","","","","","","","","","","","","","","","",""
"","","","","ctl-task-cpt","49","909824","0.0-5.0-0.8","310","1","2025-08-01 15:41:54","1f75c3e559b7213887762d5229550c2b","41.145.193.212","Mozilla/5.0 (Windows NT 10.0; Win64; x64) AppleWebKit/537.36 (KHTML, like Gecko) Chrome/138.0.0.0 Safari/537.36","WebKit","Chrome","138.0.0.0","Windows","10.0","https://app.prolific.com/","en-US,en;q=0.9","67c7672373207a4fb29efe7f","6877631c9844ddd5501205fc","688ce00c6a7da20c9efffd08","3","1","67c7672373207a4fb29efe7f","3","1","2025-08-01T15:57:11.133Z","","","","","","","","","","","","","","win-only","1","g1:NE,g2:SW","0.2","9","0","856898.5","5016.8","10045","61824.3","1","4","8","6","2","8","8","18","10","0.13636363636363635","1981.2","3000","250","[""down"",""left""]","{""num_key_presses"":12,""num_perfect"":3,""num_errors"":0,""num_randdir"":9,""num_randdir_good_moves"":6,""num_whilered"":0,""num_whileblue"":0,""num_blue"":4,""num_good_moves"":9}","[292.22232142857143,296.12857142857143,7.5,292.22232142857143,296.12857142857143,116.6,292.22232142857143,296.12857142857143,226.4,292.22232142857143,296.12857142857143,339.8,292.22232142857143,296.12857142857143,458.7,292.22232142857143,296.12857142857143,573.2,292.22232142857143,296.12857142857143,682.4,292.22232142857143,296.12857142857143,799,292.22232142857143,296.12857142857143,905.3,292.22232142857143,296.12857142857143,1019.2,292.22232142857143,296.12857142857143,1128,259.22232142857143,316.12857142857143,1230.8,67.22232142857143,468.12857142857143,1338.4,33.222321428571426,498.12857142857143,1460.7,24.222321428571426,512.1285714285714,1580.1,24.222321428571426,519.1285714285714,1689.4,25.222321428571426,519.1285714285714,1801.8,25.222321428571426,519.1285714285714,1916.5,25.222321428571426,519.1285714285714,2029.2,25.222321428571426,519.1285714285714,2130.8,25.222321428571426,519.1285714285714,2244.1,25.222321428571426,519.1285714285714,2344.5,25.222321428571426,519.1285714285714,2459.9,25.222321428571426,519.1285714285714,2569.6,26.222321428571426,519.1285714285714,2669.6,33.222321428571426,515.1285714285714,2769.9,56.222321428571426,499.12857142857143,2890.3,67.22232142857143,488.12857142857143,3004.4,71.22232142857143,484.12857142857143,3123.7,71.22232142857143,484.12857142857143,3225,71.22232142857143,484.12857142857143,3336.8,71.22232142857143,484.12857142857143,3444.7,71.22232142857143,484.12857142857143,3560.4,71.22232142857143,484.12857142857143,3677.1,71.22232142857143,484.12857142857143,3785,71.22232142857143,484.12857142857143,3894.8,71.22232142857143,484.12857142857143,3999,71.22232142857143,484.12857142857143,4113.9,71.22232142857143,484.12857142857143,4218.5,71.22232142857143,484.12857142857143,4324,71.22232142857143,484.12857142857143,4428.4,71.22232142857143,484.12857142857143,4532.2,71.22232142857143,484.12857142857143,4636.3,71.22232142857143,484.12857142857143,4740.2,71.22232142857143,484.12857142857143,4850.6,71.22232142857143,484.12857142857143,4959.3]","[1882.1,1882.1,1000,0,882.1,""oops"",""down"",""down"",""good_move"",7889.7,6006.8,2092.5,5251.6,545.7,""oops"",""down"",""left"",""good_move"",15305.3,7414.6,2991.4,11764.8,549.2,""oops"",""down"",""right"",""bad_move"",18024.4,2716.4,2213.4,15308,503,""oops"",""down"",""left"",""good_move"",21502.6,3476.9,2915.6,18025.7,561.3,""oops"",""down"",""up"",""bad_move"",28687.6,7181.2,2366.4,25543.7,777.6,""smooth"",""down"",""down"",""good_move"",36161.4,7472.7,2752.1,32895.1,514.3,""oops"",""down"",""down"",""good_move"",39245.6,3083.1,2541.5,36162.5,541.6,""smooth"",""down"",""down"",""good_move"",42523.2,3275.3,2143.3,39247.9,1132.1,""oops"",""left"",""up"",""bad_move"",45360.7,2835.5,2329.4,42525.2,506.1,""oops"",""left"",""left"",""good_move"",48496,3133.5,2256.2,45362.5,877.3,""smooth"",""left"",""left"",""good_move"",51441.5,2938.8,2367.3,48502.7,571.5,""oops"",""down"",""down"",""good_move""]","",""
"3313","","<div style=""width:500px;"">
  <p>What determined the result of this run?</p>
  </div>","92","html-slider-response","50","913141","0.0-5.0-1.8","310","1","2025-08-01 15:41:54","1f75c3e559b7213887762d5229550c2b","41.145.193.212","Mozilla/5.0 (Windows NT 10.0; Win64; x64) AppleWebKit/537.36 (KHTML, like Gecko) Chrome/138.0.0.0 Safari/537.36","WebKit","Chrome","138.0.0.0","Windows","10.0","https://app.prolific.com/","en-US,en;q=0.9","67c7672373207a4fb29efe7f","6877631c9844ddd5501205fc","688ce00c6a7da20c9efffd08","3","1","67c7672373207a4fb29efe7f","3","1","2025-08-01T15:57:14.450Z","","","","","","","","","","","AttribQ","","50","","","","","","","","","","","","","","","","","","","","","","","","","","","","",""
"5627","","<div style=""width:500px;"">
  <p>How much control did you have over the ball?</p>
  </div>","89","html-slider-response","51","918772","0.0-5.0-2.8","310","1","2025-08-01 15:41:54","1f75c3e559b7213887762d5229550c2b","41.145.193.212","Mozilla/5.0 (Windows NT 10.0; Win64; x64) AppleWebKit/537.36 (KHTML, like Gecko) Chrome/138.0.0.0 Safari/537.36","WebKit","Chrome","138.0.0.0","Windows","10.0","https://app.prolific.com/","en-US,en;q=0.9","67c7672373207a4fb29efe7f","6877631c9844ddd5501205fc","688ce00c6a7da20c9efffd08","3","1","67c7672373207a4fb29efe7f","3","1","2025-08-01T15:57:20.081Z","","","","","","","","","","","ControlQ","","50","","","","","","","","","","","","","","","","","","","","","","","","","","","","",""
"6892","","<div style=""width:500px;"">
  <p>How would you describe your current emotional state?</p>
  </div>","23","html-slider-response","52","925671","0.0-5.0-3.8","310","1","2025-08-01 15:41:54","1f75c3e559b7213887762d5229550c2b","41.145.193.212","Mozilla/5.0 (Windows NT 10.0; Win64; x64) AppleWebKit/537.36 (KHTML, like Gecko) Chrome/138.0.0.0 Safari/537.36","WebKit","Chrome","138.0.0.0","Windows","10.0","https://app.prolific.com/","en-US,en;q=0.9","67c7672373207a4fb29efe7f","6877631c9844ddd5501205fc","688ce00c6a7da20c9efffd08","3","1","67c7672373207a4fb29efe7f","3","1","2025-08-01T15:57:26.980Z","","","","","","","","","","","StressQ","","50","","","","","","","","","","","","","","","","","","","","","","","","","","","","",""
"5474","","<div style=""width:500px;"">
  <p>What best describes how you currently feel?</p>
  </div>","83","html-slider-response","53","931149","0.0-5.0-4.8","310","1","2025-08-01 15:41:54","1f75c3e559b7213887762d5229550c2b","41.145.193.212","Mozilla/5.0 (Windows NT 10.0; Win64; x64) AppleWebKit/537.36 (KHTML, like Gecko) Chrome/138.0.0.0 Safari/537.36","WebKit","Chrome","138.0.0.0","Windows","10.0","https://app.prolific.com/","en-US,en;q=0.9","67c7672373207a4fb29efe7f","6877631c9844ddd5501205fc","688ce00c6a7da20c9efffd08","3","1","67c7672373207a4fb29efe7f","3","1","2025-08-01T15:57:32.458Z","","","","","","","","","","","MotivationQ","","50","","","","","","","","","","","","","","","","","","","","","","","","","","","","",""
"","","","","ctl-task-cpt","54","965049","0.0-5.0-0.9","310","1","2025-08-01 15:41:54","1f75c3e559b7213887762d5229550c2b","41.145.193.212","Mozilla/5.0 (Windows NT 10.0; Win64; x64) AppleWebKit/537.36 (KHTML, like Gecko) Chrome/138.0.0.0 Safari/537.36","WebKit","Chrome","138.0.0.0","Windows","10.0","https://app.prolific.com/","en-US,en;q=0.9","67c7672373207a4fb29efe7f","6877631c9844ddd5501205fc","688ce00c6a7da20c9efffd08","3","1","67c7672373207a4fb29efe7f","3","1","2025-08-01T15:58:06.358Z","","","","","","","","","","","","","","win-only","0","g1:NW,g2:SE","0.4","10","0","943084.8","4335.2","9354.8","30851.1","1","4","4","6","1","1","1","19","18","0.14393939393939395","1830.6","3000","1965","[""left"",""up""]","{""num_key_presses"":6,""num_perfect"":3,""num_errors"":0,""num_randdir"":3,""num_randdir_good_moves"":2,""num_whilered"":0,""num_whileblue"":0,""num_blue"":0,""num_good_moves"":5}","[293.22232142857143,299.12857142857143,1,293.22232142857143,299.12857142857143,118.4,293.22232142857143,299.12857142857143,241.4,293.22232142857143,299.12857142857143,347.2,293.22232142857143,299.12857142857143,464.5,293.22232142857143,299.12857142857143,581.9,293.22232142857143,299.12857142857143,694.7,293.22232142857143,299.12857142857143,814.1,293.22232142857143,299.12857142857143,931.5,293.22232142857143,299.12857142857143,1046.8,137.22232142857143,140.12857142857143,1165,65.22232142857143,76.12857142857143,1276.8,63.222321428571426,75.12857142857143,1382.9,63.222321428571426,75.12857142857143,1501.9,61.222321428571426,71.12857142857143,1623.6,61.222321428571426,71.12857142857143,1732.3,61.222321428571426,71.12857142857143,1836.6,61.222321428571426,71.12857142857143,1946.1,61.222321428571426,71.12857142857143,2062.9,61.222321428571426,71.12857142857143,2181.9,61.222321428571426,71.12857142857143,2296.5,61.222321428571426,71.12857142857143,2408.2,61.222321428571426,71.12857142857143,2514.8,61.222321428571426,71.12857142857143,2615.8,61.222321428571426,71.12857142857143,2718.5,61.222321428571426,71.12857142857143,2826.4,61.222321428571426,71.12857142857143,2930,61.222321428571426,71.12857142857143,3031.4,61.222321428571426,71.12857142857143,3143.3,61.222321428571426,71.12857142857143,3257.9,61.222321428571426,71.12857142857143,3381.4,61.222321428571426,71.12857142857143,3482.5,61.222321428571426,71.12857142857143,3600.9,61.222321428571426,71.12857142857143,3722.7,61.222321428571426,71.12857142857143,3842.9,61.222321428571426,71.12857142857143,3963,61.222321428571426,71.12857142857143,4081.2,61.222321428571426,71.12857142857143,4198.6,61.222321428571426,71.12857142857143,4326.5,61.222321428571426,71.12857142857143,4447.8,61.222321428571426,71.12857142857143,4570.1,61.222321428571426,71.12857142857143,4690.1,61.222321428571426,71.12857142857143,4806.7,61.222321428571426,71.12857142857143,4925.9]","[2060.4,2060.4,1000,0,1060.4,""oops"",""up"",""up"",""good_move"",8119.9,6058.5,2324.9,2061.4,3733.6,""smooth"",""up"",""up"",""good_move"",10842.3,2721.7,2176.3,8120.7,545.3,""smooth"",""left"",""left"",""good_move"",14381.2,3537.2,2980.6,10844,556.6,""oops"",""left"",""right"",""bad_move"",17419.7,3036.9,2551.6,14382.8,485.3,""oops"",""left"",""left"",""good_move"",21217.9,3796.9,2738.7,17421.1,1058.1,""smooth"",""left"",""left"",""good_move""]","",""
"3972","","<div style=""width:500px;"">
  <p>What determined the result of this run?</p>
  </div>","94","html-slider-response","55","969024","0.0-5.0-1.9","310","1","2025-08-01 15:41:54","1f75c3e559b7213887762d5229550c2b","41.145.193.212","Mozilla/5.0 (Windows NT 10.0; Win64; x64) AppleWebKit/537.36 (KHTML, like Gecko) Chrome/138.0.0.0 Safari/537.36","WebKit","Chrome","138.0.0.0","Windows","10.0","https://app.prolific.com/","en-US,en;q=0.9","67c7672373207a4fb29efe7f","6877631c9844ddd5501205fc","688ce00c6a7da20c9efffd08","3","1","67c7672373207a4fb29efe7f","3","1","2025-08-01T15:58:10.333Z","","","","","","","","","","","AttribQ","","50","","","","","","","","","","","","","","","","","","","","","","","","","","","","",""
"8012","","<div style=""width:500px;"">
  <p>How much control did you have over the ball?</p>
  </div>","53","html-slider-response","56","977040","0.0-5.0-2.9","310","1","2025-08-01 15:41:54","1f75c3e559b7213887762d5229550c2b","41.145.193.212","Mozilla/5.0 (Windows NT 10.0; Win64; x64) AppleWebKit/537.36 (KHTML, like Gecko) Chrome/138.0.0.0 Safari/537.36","WebKit","Chrome","138.0.0.0","Windows","10.0","https://app.prolific.com/","en-US,en;q=0.9","67c7672373207a4fb29efe7f","6877631c9844ddd5501205fc","688ce00c6a7da20c9efffd08","3","1","67c7672373207a4fb29efe7f","3","1","2025-08-01T15:58:18.349Z","","","","","","","","","","","ControlQ","","50","","","","","","","","","","","","","","","","","","","","","","","","","","","","",""
"5857","","<div style=""width:500px;"">
  <p>How would you describe your current emotional state?</p>
  </div>","17","html-slider-response","57","982900","0.0-5.0-3.9","310","1","2025-08-01 15:41:54","1f75c3e559b7213887762d5229550c2b","41.145.193.212","Mozilla/5.0 (Windows NT 10.0; Win64; x64) AppleWebKit/537.36 (KHTML, like Gecko) Chrome/138.0.0.0 Safari/537.36","WebKit","Chrome","138.0.0.0","Windows","10.0","https://app.prolific.com/","en-US,en;q=0.9","67c7672373207a4fb29efe7f","6877631c9844ddd5501205fc","688ce00c6a7da20c9efffd08","3","1","67c7672373207a4fb29efe7f","3","1","2025-08-01T15:58:24.210Z","","","","","","","","","","","StressQ","","50","","","","","","","","","","","","","","","","","","","","","","","","","","","","",""
"3664","","<div style=""width:500px;"">
  <p>What best describes how you currently feel?</p>
  </div>","92","html-slider-response","58","986571","0.0-5.0-4.9","310","1","2025-08-01 15:41:54","1f75c3e559b7213887762d5229550c2b","41.145.193.212","Mozilla/5.0 (Windows NT 10.0; Win64; x64) AppleWebKit/537.36 (KHTML, like Gecko) Chrome/138.0.0.0 Safari/537.36","WebKit","Chrome","138.0.0.0","Windows","10.0","https://app.prolific.com/","en-US,en;q=0.9","67c7672373207a4fb29efe7f","6877631c9844ddd5501205fc","688ce00c6a7da20c9efffd08","3","1","67c7672373207a4fb29efe7f","3","1","2025-08-01T15:58:27.881Z","","","","","","","","","","","MotivationQ","","50","","","","","","","","","","","","","","","","","","","","","","","","","","","","",""
"","","","","ctl-task-cpt","59","1032470","0.0-5.0-0.10","310","1","2025-08-01 15:41:54","1f75c3e559b7213887762d5229550c2b","41.145.193.212","Mozilla/5.0 (Windows NT 10.0; Win64; x64) AppleWebKit/537.36 (KHTML, like Gecko) Chrome/138.0.0.0 Safari/537.36","WebKit","Chrome","138.0.0.0","Windows","10.0","https://app.prolific.com/","en-US,en;q=0.9","67c7672373207a4fb29efe7f","6877631c9844ddd5501205fc","688ce00c6a7da20c9efffd08","3","1","67c7672373207a4fb29efe7f","3","1","2025-08-01T15:59:13.779Z","","","","","","","","","","","","","","win-only","2","g1:SE,g2:NW","0.5","11","0","998502.7","2821.6","7850.4","42871.8","1","4","8","6","2","8","8","27","19","0.20454545454545456","1542.9","3000","1330","[""left"",""up""]","{""num_key_presses"":10,""num_perfect"":5,""num_errors"":0,""num_randdir"":5,""num_randdir_good_moves"":3,""num_whilered"":0,""num_whileblue"":0,""num_blue"":0,""num_good_moves"":8}","[293.22232142857143,295.12857142857143,1,293.22232142857143,295.12857142857143,113,293.22232142857143,295.12857142857143,229.1,293.22232142857143,295.12857142857143,343.4,293.22232142857143,295.12857142857143,455.5,293.22232142857143,295.12857142857143,566,293.22232142857143,295.12857142857143,672.2,283.22232142857143,289.12857142857143,785.4,96.22232142857143,126.12857142857143,925.8,83.22232142857143,117.12857142857143,1053.5,72.22232142857143,87.12857142857143,1194.1,71.22232142857143,46.128571428571426,1315.2,71.22232142857143,46.128571428571426,1428.1,71.22232142857143,46.128571428571426,1552.3,71.22232142857143,46.128571428571426,1680.9,71.22232142857143,46.128571428571426,1798,71.22232142857143,46.128571428571426,1913.1,71.22232142857143,46.128571428571426,2028.3,71.22232142857143,46.128571428571426,2137.1,71.22232142857143,46.128571428571426,2251.4,71.22232142857143,46.128571428571426,2355.9,71.22232142857143,46.128571428571426,2458.7,71.22232142857143,46.128571428571426,2562,71.22232142857143,46.128571428571426,2665.9,71.22232142857143,46.128571428571426,2766.1,71.22232142857143,46.128571428571426,2877.9,71.22232142857143,46.128571428571426,2979.7,71.22232142857143,46.128571428571426,3082,71.22232142857143,46.128571428571426,3196.5,71.22232142857143,46.128571428571426,3299.6,71.22232142857143,46.128571428571426,3432.9,71.22232142857143,46.128571428571426,3535.4,71.22232142857143,46.128571428571426,3669.2,71.22232142857143,46.128571428571426,3802.1,71.22232142857143,46.128571428571426,3915.7,71.22232142857143,46.128571428571426,4043,71.22232142857143,46.128571428571426,4147.5,71.22232142857143,46.128571428571426,4263.7,71.22232142857143,46.128571428571426,4366.8,71.22232142857143,46.128571428571426,4467.2,71.22232142857143,46.128571428571426,4602,71.22232142857143,46.128571428571426,4712.1,71.22232142857143,46.128571428571426,4818,71.22232142857143,46.128571428571426,4930]","[1967.5,1967.5,1000,0,967.5,""smooth"",""left"",""left"",""good_move"",6600.9,4632.3,2359.9,1968.6,2272.4,""smooth"",""left"",""left"",""good_move"",9873.8,3271.5,2599.9,6602.3,671.6,""oops"",""up"",""left"",""good_move"",13439.7,3564.9,2980.4,9874.9,584.4,""smooth"",""up"",""up"",""good_move"",17461.3,4020,3313.6,13441.3,706.4,""oops"",""up"",""down"",""bad_move"",20324.9,2862,2307.9,17462.9,554.1,""oops"",""up"",""up"",""good_move"",24325.6,3999.1,2422.7,20326.6,1576.4,""oops"",""up"",""right"",""bad_move"",28464.2,4136.5,3509.7,24327.7,626.9,""oops"",""up"",""up"",""good_move"",31448.4,2982.1,1789.2,28466.3,1192.9,""smooth"",""up"",""up"",""good_move"",34592.6,3142.7,2418.7,31450,723.9,""smooth"",""left"",""left"",""good_move""]","",""
"3863","","<div style=""width:500px;"">
  <p>What determined the result of this run?</p>
  </div>","89","html-slider-response","60","1036336","0.0-5.0-1.10","310","1","2025-08-01 15:41:54","1f75c3e559b7213887762d5229550c2b","41.145.193.212","Mozilla/5.0 (Windows NT 10.0; Win64; x64) AppleWebKit/537.36 (KHTML, like Gecko) Chrome/138.0.0.0 Safari/537.36","WebKit","Chrome","138.0.0.0","Windows","10.0","https://app.prolific.com/","en-US,en;q=0.9","67c7672373207a4fb29efe7f","6877631c9844ddd5501205fc","688ce00c6a7da20c9efffd08","3","1","67c7672373207a4fb29efe7f","3","1","2025-08-01T15:59:17.645Z","","","","","","","","","","","AttribQ","","50","","","","","","","","","","","","","","","","","","","","","","","","","","","","",""
"3228","","<div style=""width:500px;"">
  <p>How much control did you have over the ball?</p>
  </div>","78","html-slider-response","61","1039568","0.0-5.0-2.10","310","1","2025-08-01 15:41:54","1f75c3e559b7213887762d5229550c2b","41.145.193.212","Mozilla/5.0 (Windows NT 10.0; Win64; x64) AppleWebKit/537.36 (KHTML, like Gecko) Chrome/138.0.0.0 Safari/537.36","WebKit","Chrome","138.0.0.0","Windows","10.0","https://app.prolific.com/","en-US,en;q=0.9","67c7672373207a4fb29efe7f","6877631c9844ddd5501205fc","688ce00c6a7da20c9efffd08","3","1","67c7672373207a4fb29efe7f","3","1","2025-08-01T15:59:20.877Z","","","","","","","","","","","ControlQ","","50","","","","","","","","","","","","","","","","","","","","","","","","","","","","",""
"5834","","<div style=""width:500px;"">
  <p>How would you describe your current emotional state?</p>
  </div>","11","html-slider-response","62","1045406","0.0-5.0-3.10","310","1","2025-08-01 15:41:54","1f75c3e559b7213887762d5229550c2b","41.145.193.212","Mozilla/5.0 (Windows NT 10.0; Win64; x64) AppleWebKit/537.36 (KHTML, like Gecko) Chrome/138.0.0.0 Safari/537.36","WebKit","Chrome","138.0.0.0","Windows","10.0","https://app.prolific.com/","en-US,en;q=0.9","67c7672373207a4fb29efe7f","6877631c9844ddd5501205fc","688ce00c6a7da20c9efffd08","3","1","67c7672373207a4fb29efe7f","3","1","2025-08-01T15:59:26.715Z","","","","","","","","","","","StressQ","","50","","","","","","","","","","","","","","","","","","","","","","","","","","","","",""
"4472","","<div style=""width:500px;"">
  <p>What best describes how you currently feel?</p>
  </div>","87","html-slider-response","63","1049883","0.0-5.0-4.10","310","1","2025-08-01 15:41:54","1f75c3e559b7213887762d5229550c2b","41.145.193.212","Mozilla/5.0 (Windows NT 10.0; Win64; x64) AppleWebKit/537.36 (KHTML, like Gecko) Chrome/138.0.0.0 Safari/537.36","WebKit","Chrome","138.0.0.0","Windows","10.0","https://app.prolific.com/","en-US,en;q=0.9","67c7672373207a4fb29efe7f","6877631c9844ddd5501205fc","688ce00c6a7da20c9efffd08","3","1","67c7672373207a4fb29efe7f","3","1","2025-08-01T15:59:31.193Z","","","","","","","","","","","MotivationQ","","50","","","","","","","","","","","","","","","","","","","","","","","","","","","","",""
"","","","","ctl-task-cpt","64","1087861","0.0-5.0-0.11","310","1","2025-08-01 15:41:54","1f75c3e559b7213887762d5229550c2b","41.145.193.212","Mozilla/5.0 (Windows NT 10.0; Win64; x64) AppleWebKit/537.36 (KHTML, like Gecko) Chrome/138.0.0.0 Safari/537.36","WebKit","Chrome","138.0.0.0","Windows","10.0","https://app.prolific.com/","en-US,en;q=0.9","67c7672373207a4fb29efe7f","6877631c9844ddd5501205fc","688ce00c6a7da20c9efffd08","3","1","67c7672373207a4fb29efe7f","3","1","2025-08-01T16:00:09.170Z","","","","","","","","","","","","","","win-only","3","g1:SW,g2:NE","0.6","12","0","1061815.6","2399.1","7452.5","34936.5","1","4","4","6","1","1","1","28","27","0.21212121212121213","1922.4","3000","2420","[""down"",""left""]","{""num_key_presses"":4,""num_perfect"":3,""num_errors"":0,""num_randdir"":1,""num_randdir_good_moves"":1,""num_whilered"":0,""num_whileblue"":0,""num_blue"":4,""num_good_moves"":4}","[297.22232142857143,296.12857142857143,2,297.22232142857143,296.12857142857143,139,297.22232142857143,296.12857142857143,249.7,297.22232142857143,296.12857142857143,356.6,297.22232142857143,296.12857142857143,464.1,297.22232142857143,296.12857142857143,567.2,297.22232142857143,296.12857142857143,678.8,297.22232142857143,296.12857142857143,839.1,297.22232142857143,296.12857142857143,948.6,297.22232142857143,296.12857142857143,1050.6,291.22232142857143,298.12857142857143,1199,97.22232142857143,449.12857142857143,1309.9,45.222321428571426,498.12857142857143,1417.5,42.222321428571426,501.12857142857143,1518.7,33.222321428571426,514.1285714285714,1630.1,33.222321428571426,515.1285714285714,1731.9,33.222321428571426,515.1285714285714,1833.9,33.222321428571426,515.1285714285714,1950.3,33.222321428571426,515.1285714285714,2052,33.222321428571426,515.1285714285714,2158.7,33.222321428571426,515.1285714285714,2268.3,33.222321428571426,515.1285714285714,2371.8,33.222321428571426,515.1285714285714,2537.5,33.222321428571426,515.1285714285714,2645.3,33.222321428571426,515.1285714285714,2753.6,33.222321428571426,515.1285714285714,2854.8,33.222321428571426,515.1285714285714,3033.2,33.222321428571426,515.1285714285714,3145.3,33.222321428571426,515.1285714285714,3255.9,33.222321428571426,515.1285714285714,3443,33.222321428571426,515.1285714285714,3545.5,33.222321428571426,515.1285714285714,3728.4,33.222321428571426,515.1285714285714,3832.8,33.222321428571426,515.1285714285714,3941.4,33.222321428571426,515.1285714285714,4101.2,33.222321428571426,515.1285714285714,4209,33.222321428571426,515.1285714285714,4312.3,33.222321428571426,515.1285714285714,4416.3,33.222321428571426,515.1285714285714,4634.4,33.222321428571426,515.1285714285714,4742.3,33.222321428571426,515.1285714285714,4845.8]","[5285.2,5285.3,2394.2,2022.9,868.2,""oops"",""down"",""down"",""good_move"",8260.4,2972.2,2523.2,5288.2,449,""smooth"",""down"",""down"",""good_move"",22806,14544.6,3126.9,18998.3,680.8,""smooth"",""left"",""left"",""good_move"",27018.4,4211.3,2051.3,22807.2,2160,""smooth"",""left"",""left"",""good_move""]","",""
"4386","","<div style=""width:500px;"">
  <p>What determined the result of this run?</p>
  </div>","84","html-slider-response","65","1092250","0.0-5.0-1.11","310","1","2025-08-01 15:41:54","1f75c3e559b7213887762d5229550c2b","41.145.193.212","Mozilla/5.0 (Windows NT 10.0; Win64; x64) AppleWebKit/537.36 (KHTML, like Gecko) Chrome/138.0.0.0 Safari/537.36","WebKit","Chrome","138.0.0.0","Windows","10.0","https://app.prolific.com/","en-US,en;q=0.9","67c7672373207a4fb29efe7f","6877631c9844ddd5501205fc","688ce00c6a7da20c9efffd08","3","1","67c7672373207a4fb29efe7f","3","1","2025-08-01T16:00:13.559Z","","","","","","","","","","","AttribQ","","50","","","","","","","","","","","","","","","","","","","","","","","","","","","","",""
"3520","","<div style=""width:500px;"">
  <p>How much control did you have over the ball?</p>
  </div>","90","html-slider-response","66","1095776","0.0-5.0-2.11","310","1","2025-08-01 15:41:54","1f75c3e559b7213887762d5229550c2b","41.145.193.212","Mozilla/5.0 (Windows NT 10.0; Win64; x64) AppleWebKit/537.36 (KHTML, like Gecko) Chrome/138.0.0.0 Safari/537.36","WebKit","Chrome","138.0.0.0","Windows","10.0","https://app.prolific.com/","en-US,en;q=0.9","67c7672373207a4fb29efe7f","6877631c9844ddd5501205fc","688ce00c6a7da20c9efffd08","3","1","67c7672373207a4fb29efe7f","3","1","2025-08-01T16:00:17.085Z","","","","","","","","","","","ControlQ","","50","","","","","","","","","","","","","","","","","","","","","","","","","","","","",""
"3044","","<div style=""width:500px;"">
  <p>How would you describe your current emotional state?</p>
  </div>","20","html-slider-response","67","1098826","0.0-5.0-3.11","310","1","2025-08-01 15:41:54","1f75c3e559b7213887762d5229550c2b","41.145.193.212","Mozilla/5.0 (Windows NT 10.0; Win64; x64) AppleWebKit/537.36 (KHTML, like Gecko) Chrome/138.0.0.0 Safari/537.36","WebKit","Chrome","138.0.0.0","Windows","10.0","https://app.prolific.com/","en-US,en;q=0.9","67c7672373207a4fb29efe7f","6877631c9844ddd5501205fc","688ce00c6a7da20c9efffd08","3","1","67c7672373207a4fb29efe7f","3","1","2025-08-01T16:00:20.135Z","","","","","","","","","","","StressQ","","50","","","","","","","","","","","","","","","","","","","","","","","","","","","","",""
"3223","","<div style=""width:500px;"">
  <p>What best describes how you currently feel?</p>
  </div>","82","html-slider-response","68","1102052","0.0-5.0-4.11","310","1","2025-08-01 15:41:54","1f75c3e559b7213887762d5229550c2b","41.145.193.212","Mozilla/5.0 (Windows NT 10.0; Win64; x64) AppleWebKit/537.36 (KHTML, like Gecko) Chrome/138.0.0.0 Safari/537.36","WebKit","Chrome","138.0.0.0","Windows","10.0","https://app.prolific.com/","en-US,en;q=0.9","67c7672373207a4fb29efe7f","6877631c9844ddd5501205fc","688ce00c6a7da20c9efffd08","3","1","67c7672373207a4fb29efe7f","3","1","2025-08-01T16:00:23.362Z","","","","","","","","","","","MotivationQ","","50","","","","","","","","","","","","","","","","","","","","","","","","","","","","",""
"","","","","ctl-task-cpt","69","1138992","0.0-5.0-0.12","310","1","2025-08-01 15:41:54","1f75c3e559b7213887762d5229550c2b","41.145.193.212","Mozilla/5.0 (Windows NT 10.0; Win64; x64) AppleWebKit/537.36 (KHTML, like Gecko) Chrome/138.0.0.0 Safari/537.36","WebKit","Chrome","138.0.0.0","Windows","10.0","https://app.prolific.com/","en-US,en;q=0.9","67c7672373207a4fb29efe7f","6877631c9844ddd5501205fc","688ce00c6a7da20c9efffd08","3","1","67c7672373207a4fb29efe7f","3","1","2025-08-01T16:01:00.301Z","","","","","","","","","","","","","","win-only","0","g1:NW,g2:SE","0.7","13","0","1113985.3","1785.3","6796.6","33876.4","1","4","8","6","2","8","8","36","28","0.2727272727272727","1880.5","3000","2375","[""down"",""right""]","{""num_key_presses"":6,""num_perfect"":4,""num_errors"":0,""num_randdir"":2,""num_randdir_good_moves"":2,""num_whilered"":0,""num_whileblue"":0,""num_blue"":2,""num_good_moves"":6}","[296.22232142857143,287.12857142857143,0.9,296.22232142857143,287.12857142857143,131.2,296.22232142857143,287.12857142857143,264.2,296.22232142857143,287.12857142857143,370.4,296.22232142857143,287.12857142857143,497.6,296.22232142857143,287.12857142857143,610.5,296.22232142857143,287.12857142857143,730.1,296.22232142857143,287.12857142857143,841.1,296.22232142857143,287.12857142857143,942.7,296.22232142857143,287.12857142857143,1067.5,392.22232142857143,366.12857142857143,1183.7,530.2223214285714,491.12857142857143,1303.6,553.2223214285714,515.1285714285714,1412,559.2223214285714,527.1285714285714,1517.3,556.2223214285714,530.1285714285714,1622.4,556.2223214285714,530.1285714285714,1748.3,556.2223214285714,530.1285714285714,1874.9,556.2223214285714,530.1285714285714,1989.6,556.2223214285714,530.1285714285714,2092.6,556.2223214285714,530.1285714285714,2212,556.2223214285714,530.1285714285714,2332.1,556.2223214285714,530.1285714285714,2443.7,556.2223214285714,530.1285714285714,2557.8,556.2223214285714,530.1285714285714,2674.4,556.2223214285714,530.1285714285714,2778.1,556.2223214285714,530.1285714285714,2882.9,556.2223214285714,530.1285714285714,2994.1,556.2223214285714,530.1285714285714,3094.8,556.2223214285714,530.1285714285714,3201.6,556.2223214285714,530.1285714285714,3308.6,556.2223214285714,530.1285714285714,3494.6,556.2223214285714,530.1285714285714,3595.5,556.2223214285714,530.1285714285714,3701.5,556.2223214285714,530.1285714285714,3910.1,556.2223214285714,530.1285714285714,4019.1,556.2223214285714,530.1285714285714,4120.6,556.2223214285714,530.1285714285714,4225.2,556.2223214285714,530.1285714285714,4342.4,556.2223214285714,530.1285714285714,4577.6,556.2223214285714,530.1285714285714,4685.4,556.2223214285714,530.1285714285714,4787.5,556.2223214285714,530.1285714285714,4978.1]","[1855.5,1855.5,1000,0,855.5,""smooth"",""down"",""down"",""good_move"",5178.5,3320.2,2789.5,1858.3,530.7,""smooth"",""down"",""down"",""good_move"",8190.8,3010.5,2582.3,5180.3,428.2,""smooth"",""down"",""down"",""good_move"",19067.8,10875.5,2581.8,15921,565,""oops"",""right"",""right"",""good_move"",22234.8,3166,2501.1,19068.9,664.9,""smooth"",""right"",""right"",""good_move"",26149.1,3912.9,3379.9,22236.2,533,""oops"",""right"",""right"",""good_move""]","",""
"4269","","<div style=""width:500px;"">
  <p>What determined the result of this run?</p>
  </div>","79","html-slider-response","70","1143265","0.0-5.0-1.12","310","1","2025-08-01 15:41:54","1f75c3e559b7213887762d5229550c2b","41.145.193.212","Mozilla/5.0 (Windows NT 10.0; Win64; x64) AppleWebKit/537.36 (KHTML, like Gecko) Chrome/138.0.0.0 Safari/537.36","WebKit","Chrome","138.0.0.0","Windows","10.0","https://app.prolific.com/","en-US,en;q=0.9","67c7672373207a4fb29efe7f","6877631c9844ddd5501205fc","688ce00c6a7da20c9efffd08","3","1","67c7672373207a4fb29efe7f","3","1","2025-08-01T16:01:04.574Z","","","","","","","","","","","AttribQ","","50","","","","","","","","","","","","","","","","","","","","","","","","","","","","",""
"2685","","<div style=""width:500px;"">
  <p>How much control did you have over the ball?</p>
  </div>","67","html-slider-response","71","1145955","0.0-5.0-2.12","310","1","2025-08-01 15:41:54","1f75c3e559b7213887762d5229550c2b","41.145.193.212","Mozilla/5.0 (Windows NT 10.0; Win64; x64) AppleWebKit/537.36 (KHTML, like Gecko) Chrome/138.0.0.0 Safari/537.36","WebKit","Chrome","138.0.0.0","Windows","10.0","https://app.prolific.com/","en-US,en;q=0.9","67c7672373207a4fb29efe7f","6877631c9844ddd5501205fc","688ce00c6a7da20c9efffd08","3","1","67c7672373207a4fb29efe7f","3","1","2025-08-01T16:01:07.264Z","","","","","","","","","","","ControlQ","","50","","","","","","","","","","","","","","","","","","","","","","","","","","","","",""
"2838","","<div style=""width:500px;"">
  <p>How would you describe your current emotional state?</p>
  </div>","14","html-slider-response","72","1148798","0.0-5.0-3.12","310","1","2025-08-01 15:41:54","1f75c3e559b7213887762d5229550c2b","41.145.193.212","Mozilla/5.0 (Windows NT 10.0; Win64; x64) AppleWebKit/537.36 (KHTML, like Gecko) Chrome/138.0.0.0 Safari/537.36","WebKit","Chrome","138.0.0.0","Windows","10.0","https://app.prolific.com/","en-US,en;q=0.9","67c7672373207a4fb29efe7f","6877631c9844ddd5501205fc","688ce00c6a7da20c9efffd08","3","1","67c7672373207a4fb29efe7f","3","1","2025-08-01T16:01:10.107Z","","","","","","","","","","","StressQ","","50","","","","","","","","","","","","","","","","","","","","","","","","","","","","",""
"4377","","<div style=""width:500px;"">
  <p>What best describes how you currently feel?</p>
  </div>","77","html-slider-response","73","1153181","0.0-5.0-4.12","310","1","2025-08-01 15:41:54","1f75c3e559b7213887762d5229550c2b","41.145.193.212","Mozilla/5.0 (Windows NT 10.0; Win64; x64) AppleWebKit/537.36 (KHTML, like Gecko) Chrome/138.0.0.0 Safari/537.36","WebKit","Chrome","138.0.0.0","Windows","10.0","https://app.prolific.com/","en-US,en;q=0.9","67c7672373207a4fb29efe7f","6877631c9844ddd5501205fc","688ce00c6a7da20c9efffd08","3","1","67c7672373207a4fb29efe7f","3","1","2025-08-01T16:01:14.490Z","","","","","","","","","","","MotivationQ","","50","","","","","","","","","","","","","","","","","","","","","","","","","","","","",""
"","","","","ctl-task-cpt","74","1198945","0.0-5.0-0.13","310","1","2025-08-01 15:41:54","1f75c3e559b7213887762d5229550c2b","41.145.193.212","Mozilla/5.0 (Windows NT 10.0; Win64; x64) AppleWebKit/537.36 (KHTML, like Gecko) Chrome/138.0.0.0 Safari/537.36","WebKit","Chrome","138.0.0.0","Windows","10.0","https://app.prolific.com/","en-US,en;q=0.9","67c7672373207a4fb29efe7f","6877631c9844ddd5501205fc","688ce00c6a7da20c9efffd08","3","1","67c7672373207a4fb29efe7f","3","1","2025-08-01T16:02:00.254Z","","","","","","","","","","","","","","win-only","1","g1:NE,g2:SW","0.8","14","0","1165111.7","1784.2","6798.8","42720.7","1","4","4","6","1","1","1","37","36","0.2803030303030303","2408.7","3000","1620","[""up"",""right""]","{""num_key_presses"":8,""num_perfect"":7,""num_errors"":0,""num_randdir"":1,""num_randdir_good_moves"":0,""num_whilered"":0,""num_whileblue"":0,""num_blue"":2,""num_good_moves"":6}","[293.22232142857143,292.12857142857143,2.3,293.22232142857143,292.12857142857143,108.1,293.22232142857143,292.12857142857143,223,293.22232142857143,292.12857142857143,331.8,293.22232142857143,292.12857142857143,434.5,293.22232142857143,292.12857142857143,545.5,293.22232142857143,292.12857142857143,655.4,293.22232142857143,292.12857142857143,888.6,293.22232142857143,292.12857142857143,1008.8,293.22232142857143,292.12857142857143,1127.5,293.22232142857143,292.12857142857143,1303.7,293.22232142857143,292.12857142857143,1408.6,304.22232142857143,277.12857142857143,1526.1,418.22232142857143,145.12857142857143,1631.6,435.22232142857143,125.12857142857143,1741.7,481.22232142857143,71.12857142857143,1853.7,497.22232142857143,57.128571428571426,1964.4,497.22232142857143,57.128571428571426,2074.7,497.22232142857143,57.128571428571426,2304.1,497.22232142857143,57.128571428571426,2406.3,497.22232142857143,57.128571428571426,2519.7,497.22232142857143,57.128571428571426,2630.7,497.22232142857143,57.128571428571426,2739,497.22232142857143,57.128571428571426,2853.8,497.22232142857143,57.128571428571426,2956.1,497.22232142857143,57.128571428571426,3216.6,497.22232142857143,57.128571428571426,3318.6,493.22232142857143,62.128571428571426,3434.8,469.22232142857143,98.12857142857143,3554.8,455.22232142857143,125.12857142857143,3656.4,453.22232142857143,130.12857142857143,3758.2,452.22232142857143,131.12857142857143,3863.4,452.22232142857143,131.12857142857143,3982.1,452.22232142857143,131.12857142857143,4088.9,452.22232142857143,131.12857142857143,4214,452.22232142857143,131.12857142857143,4316.3,452.22232142857143,131.12857142857143,4427.3,452.22232142857143,131.12857142857143,4546.6,452.22232142857143,131.12857142857143,4655.5,452.22232142857143,131.12857142857143,4757.9,452.22232142857143,131.12857142857143,4869,452.22232142857143,131.12857142857143,4969.9]","[5990.5,5990.5,2961.8,2019.8,1008.9,""smooth"",""down"",""down"",""bad_move"",9795.6,3803.7,3068.2,5991.9,735.5,""smooth"",""right"",""right"",""good_move"",15151.2,5355,1897.3,12735.5,518.4,""smooth"",""right"",""right"",""good_move"",18459.8,3307.9,2672.3,15152,635.5,""smooth"",""up"",""up"",""good_move"",22611.8,4150.3,2400.8,18461.5,1749.5,""oops"",""up"",""left"",""bad_move"",28372.6,5759.2,2098.3,22613.5,3660.8,""smooth"",""up"",""up"",""good_move"",31968.5,3595.2,2703,28373.3,892.2,""smooth"",""up"",""up"",""good_move"",35487.9,3518.2,2713.3,31969.8,804.8,""smooth"",""right"",""right"",""good_move""]","",""
"3727","","<div style=""width:500px;"">
  <p>What determined the result of this run?</p>
  </div>","95","html-slider-response","75","1202676","0.0-5.0-1.13","310","1","2025-08-01 15:41:54","1f75c3e559b7213887762d5229550c2b","41.145.193.212","Mozilla/5.0 (Windows NT 10.0; Win64; x64) AppleWebKit/537.36 (KHTML, like Gecko) Chrome/138.0.0.0 Safari/537.36","WebKit","Chrome","138.0.0.0","Windows","10.0","https://app.prolific.com/","en-US,en;q=0.9","67c7672373207a4fb29efe7f","6877631c9844ddd5501205fc","688ce00c6a7da20c9efffd08","3","1","67c7672373207a4fb29efe7f","3","1","2025-08-01T16:02:03.985Z","","","","","","","","","","","AttribQ","","50","","","","","","","","","","","","","","","","","","","","","","","","","","","","",""
"3221","","<div style=""width:500px;"">
  <p>How much control did you have over the ball?</p>
  </div>","72","html-slider-response","76","1205901","0.0-5.0-2.13","310","1","2025-08-01 15:41:54","1f75c3e559b7213887762d5229550c2b","41.145.193.212","Mozilla/5.0 (Windows NT 10.0; Win64; x64) AppleWebKit/537.36 (KHTML, like Gecko) Chrome/138.0.0.0 Safari/537.36","WebKit","Chrome","138.0.0.0","Windows","10.0","https://app.prolific.com/","en-US,en;q=0.9","67c7672373207a4fb29efe7f","6877631c9844ddd5501205fc","688ce00c6a7da20c9efffd08","3","1","67c7672373207a4fb29efe7f","3","1","2025-08-01T16:02:07.210Z","","","","","","","","","","","ControlQ","","50","","","","","","","","","","","","","","","","","","","","","","","","","","","","",""
"3261","","<div style=""width:500px;"">
  <p>How would you describe your current emotional state?</p>
  </div>","19","html-slider-response","77","1209166","0.0-5.0-3.13","310","1","2025-08-01 15:41:54","1f75c3e559b7213887762d5229550c2b","41.145.193.212","Mozilla/5.0 (Windows NT 10.0; Win64; x64) AppleWebKit/537.36 (KHTML, like Gecko) Chrome/138.0.0.0 Safari/537.36","WebKit","Chrome","138.0.0.0","Windows","10.0","https://app.prolific.com/","en-US,en;q=0.9","67c7672373207a4fb29efe7f","6877631c9844ddd5501205fc","688ce00c6a7da20c9efffd08","3","1","67c7672373207a4fb29efe7f","3","1","2025-08-01T16:02:10.475Z","","","","","","","","","","","StressQ","","50","","","","","","","","","","","","","","","","","","","","","","","","","","","","",""
"3062","","<div style=""width:500px;"">
  <p>What best describes how you currently feel?</p>
  </div>","92","html-slider-response","78","1212231","0.0-5.0-4.13","310","1","2025-08-01 15:41:54","1f75c3e559b7213887762d5229550c2b","41.145.193.212","Mozilla/5.0 (Windows NT 10.0; Win64; x64) AppleWebKit/537.36 (KHTML, like Gecko) Chrome/138.0.0.0 Safari/537.36","WebKit","Chrome","138.0.0.0","Windows","10.0","https://app.prolific.com/","en-US,en;q=0.9","67c7672373207a4fb29efe7f","6877631c9844ddd5501205fc","688ce00c6a7da20c9efffd08","3","1","67c7672373207a4fb29efe7f","3","1","2025-08-01T16:02:13.540Z","","","","","","","","","","","MotivationQ","","50","","","","","","","","","","","","","","","","","","","","","","","","","","","","",""
