"rt","response_timestamp","stimulus","response","trial_type","trial_index","time_elapsed","internal_node_id","run_id","condition","recorded_at","source_code_version","ip","user_agent","device","browser","browser_version","platform","platform_version","referer","accept_language","PROLIFIC_PID","STUDY_ID","SESSION_ID","WEEK","BATCH","prolific_id","week","batch","realtime","success","responses","item_order","radio_event_ids","radio_event_times","key_event_times","mouse_event_times","straightlining","zigzagging","honeypot","eventType","view_history","slider_start","which_type","canvas_config","goals_layout","control_level","trial_number","tutorial_trial_number","trial_start_time","phase1_start_time","phase2_start_time","phase3_start_time","goal_1_value","goal_1_distance","goal_2_value","goal_2_distance","goal_selected","outcome","outcome_total","participant_final_score","participant_initial_score","participant_final_score_prop","goal_choice_rt","allocated_time","allocated_time_remaining","goal_direction","counts","mouse_movements","key_presses","question_order","question_id"
"140853","1753299515468","<p style='font-size:40px;line-height:1.25'><strong>Welcome to the experiment!</strong></p><p style='font-size:1.1em;line-height:1.25'>Thank you for participanting in our experiment again! You will be asked to play the Dysfunctional Ball Game again. We will briefly recap the rules before we start.</p><p style='font-size:1.1em;line-height:1.25'>Press <strong>Next</strong> to continue.</p>","0","custom-html-button-response","0","140858","0.0-0.0","233","1","2025-07-23 19:35:46","1f75c3e559b7213887762d5229550c2b","51.19.161.91","Mozilla/5.0 (Windows NT 10.0; Win64; x64) AppleWebKit/537.36 (KHTML, like Gecko) Chrome/138.0.0.0 Safari/537.36","WebKit","Chrome","138.0.0.0","Windows","10.0","https://app.prolific.com/","en-GB,en-US;q=0.9,en;q=0.8","59dd90f6e75b450001a68dac","683db9eb0562dbf637994deb","6881396ce6af8750464c6826","2","1","59dd90f6e75b450001a68dac","2","1","2025-07-23T19:38:35.469Z","","","","","","","","","","","","","","","","","","","","","","","","","","","","","","","","","","","","","","","","","",""
"27075","","","","fullscreen","1","168939","0.0-1.0","233","1","2025-07-23 19:35:46","1f75c3e559b7213887762d5229550c2b","51.19.161.91","Mozilla/5.0 (Windows NT 10.0; Win64; x64) AppleWebKit/537.36 (KHTML, like Gecko) Chrome/138.0.0.0 Safari/537.36","WebKit","Chrome","138.0.0.0","Windows","10.0","https://app.prolific.com/","en-GB,en-US;q=0.9,en;q=0.8","59dd90f6e75b450001a68dac","683db9eb0562dbf637994deb","6881396ce6af8750464c6826","2","1","59dd90f6e75b450001a68dac","2","1","","true","","","","","","","","","","","","","","","","","","","","","","","","","","","","","","","","","","","","","","","","",""
"3242","1753299546793","<p style='font-size:1.1em;line-height:1.25'>In the following, we will ask you a few questions relating to your feelings in the last 24 hours.<br></p><p style='font-size:1.1em;line-height:1.25'>Press the <strong>Next</strong> button to continue.</p>","0","custom-html-button-response","2","172183","0.0-2.0-0.0","233","1","2025-07-23 19:35:46","1f75c3e559b7213887762d5229550c2b","51.19.161.91","Mozilla/5.0 (Windows NT 10.0; Win64; x64) AppleWebKit/537.36 (KHTML, like Gecko) Chrome/138.0.0.0 Safari/537.36","WebKit","Chrome","138.0.0.0","Windows","10.0","https://app.prolific.com/","en-GB,en-US;q=0.9,en;q=0.8","59dd90f6e75b450001a68dac","683db9eb0562dbf637994deb","6881396ce6af8750464c6826","2","1","59dd90f6e75b450001a68dac","2","1","2025-07-23T19:39:06.794Z","","","","","","","","","","","","","","","","","","","","","","","","","","","","","","","","","","","","","","","","","",""
"57122.89999997616","","","","survey-template","3","229310","0.0-2.0-1.0","233","1","2025-07-23 19:35:46","1f75c3e559b7213887762d5229550c2b","51.19.161.91","Mozilla/5.0 (Windows NT 10.0; Win64; x64) AppleWebKit/537.36 (KHTML, like Gecko) Chrome/138.0.0.0 Safari/537.36","WebKit","Chrome","138.0.0.0","Windows","10.0","https://app.prolific.com/","en-GB,en-US;q=0.9,en;q=0.8","59dd90f6e75b450001a68dac","683db9eb0562dbf637994deb","6881396ce6af8750464c6826","2","1","59dd90f6e75b450001a68dac","2","1","2025-07-23T19:40:03.921Z","","{""Q01"":""3"",""Q02"":""4"",""Q03"":""4"",""Q04"":""4"",""Q05"":""3"",""Q06"":""3"",""Q07"":""4"",""Q08"":""2"",""Q09"":""3"",""Q10"":""3"",""Q11"":""3"",""Q12"":""3"",""Q13"":""5"",""Q14"":""4"",""Q15"":""2"",""Q16"":""0"",""Q17"":""4"",""Q18"":""3"",""Q19"":""2"",""Q20"":""3"",""Q21"":""3"",""Q22"":""3""}","[0,1,2,3,4,5,6,7,8,9,10,11,12,13,14,15,16,17,18,19,20,21]","[""Q01"",""Q02"",""Q03"",""Q04"",""Q05"",""Q06"",""Q07"",""Q08"",""Q09"",""Q10"",""Q11"",""Q12"",""Q13"",""Q14"",""Q15"",""Q16"",""Q17"",""Q18"",""Q19"",""Q20"",""Q20"",""Q21"",""Q22""]","[3361.399999976158,7484.099999964237,8728,9756.800000011921,12496.199999988079,14902,16007.699999988079,17716,19401.599999964237,21357.099999964237,22779,24623.69999998808,27800.5,31936,33604.09999996424,37049.89999997616,39250,40241.69999998808,45809.30000001192,48563.69999998808,50383.69999998808,52122,55616]","[]","[0.09999996423721313,3361.399999976158,7484.099999964237,8728,9756.800000011921,12496.199999988079,14902,16007.699999988079,17716,19401.599999964237,21357.099999964237,22779,24623.69999998808,27800.5,30093.099999964237,30688,31936,33604.09999996424,37049.89999997616,39250,40241.69999998808,42474.59999996424,45809.30000001192,48563.69999998808,50383.69999998808,52122,55616,57117.69999998808]","0.5","0.38095238095238093","0","drsp","","","","","","","","","","","","","","","","","","","","","","","","","","","","","","",""
"8838.699999988079","","","","survey-template","4","238150","0.0-2.0-2.0","233","1","2025-07-23 19:35:46","1f75c3e559b7213887762d5229550c2b","51.19.161.91","Mozilla/5.0 (Windows NT 10.0; Win64; x64) AppleWebKit/537.36 (KHTML, like Gecko) Chrome/138.0.0.0 Safari/537.36","WebKit","Chrome","138.0.0.0","Windows","10.0","https://app.prolific.com/","en-GB,en-US;q=0.9,en;q=0.8","59dd90f6e75b450001a68dac","683db9eb0562dbf637994deb","6881396ce6af8750464c6826","2","1","59dd90f6e75b450001a68dac","2","1","2025-07-23T19:40:12.762Z","","{""Q01"":""4"",""Q02"":""4"",""Q03"":""4""}","[0,1,2]","[""Q01"",""Q02"",""Q02"",""Q03""]","[3794.199999988079,5554.099999964237,7139.899999976158,8267.399999976158]","[]","[3794.199999988079,5554.099999964237,7139.899999976158,8267.399999976158,8837.899999976158]","0.6666666666666666","0","0","stress","","","","","","","","","","","","","","","","","","","","","","","","","","","","","","",""
"37575","","","","instructions","5","275728","0.0-3.0-0.0","233","1","2025-07-23 19:35:46","1f75c3e559b7213887762d5229550c2b","51.19.161.91","Mozilla/5.0 (Windows NT 10.0; Win64; x64) AppleWebKit/537.36 (KHTML, like Gecko) Chrome/138.0.0.0 Safari/537.36","WebKit","Chrome","138.0.0.0","Windows","10.0","https://app.prolific.com/","en-GB,en-US;q=0.9,en;q=0.8","59dd90f6e75b450001a68dac","683db9eb0562dbf637994deb","6881396ce6af8750464c6826","2","1","59dd90f6e75b450001a68dac","2","1","","","","","","","","","","","","","[{""page_index"":0,""viewing_time"":37575}]","","","","","","","","","","","","","","","","","","","","","","","","","","","","","",""
"8048","","<p>Before you start with this game please answer the following three questions yourself. </p>
  <p>Through this game, we measure several aspects of your cognitive performance, such as reaction times, multi-tasking capabilities </p>
  <p>and the ability to assess the situation you are in.</p>
  <p></p>
  <p><b>How good do you usually are in such tasks?</b></p>","58","html-slider-response","6","283777","0.0-4.0-0.0","233","1","2025-07-23 19:35:46","1f75c3e559b7213887762d5229550c2b","51.19.161.91","Mozilla/5.0 (Windows NT 10.0; Win64; x64) AppleWebKit/537.36 (KHTML, like Gecko) Chrome/138.0.0.0 Safari/537.36","WebKit","Chrome","138.0.0.0","Windows","10.0","https://app.prolific.com/","en-GB,en-US;q=0.9,en;q=0.8","59dd90f6e75b450001a68dac","683db9eb0562dbf637994deb","6881396ce6af8750464c6826","2","1","59dd90f6e75b450001a68dac","2","1","2025-07-23T19:40:58.388Z","","","","","","","","","","","PreSkillQ","","50","","","","","","","","","","","","","","","","","","","","","","","","","","","","",""
"3332","","<div style=""width:500px;"">
  <p>How well do you think you will perform in this task compared to other participants?</p>
  </div>","56","html-slider-response","7","287110","0.0-4.0-1.0","233","1","2025-07-23 19:35:46","1f75c3e559b7213887762d5229550c2b","51.19.161.91","Mozilla/5.0 (Windows NT 10.0; Win64; x64) AppleWebKit/537.36 (KHTML, like Gecko) Chrome/138.0.0.0 Safari/537.36","WebKit","Chrome","138.0.0.0","Windows","10.0","https://app.prolific.com/","en-GB,en-US;q=0.9,en;q=0.8","59dd90f6e75b450001a68dac","683db9eb0562dbf637994deb","6881396ce6af8750464c6826","2","1","59dd90f6e75b450001a68dac","2","1","2025-07-23T19:41:01.722Z","","","","","","","","","","","PrePerfQ","","50","","","","","","","","","","","","","","","","","","","","","","","","","","","","",""
"5335","","<div style=""width:500px;"">
  <p>What best describes how you currently feel?</p>
  </div>","54","html-slider-response","8","292446","0.0-4.0-2.0","233","1","2025-07-23 19:35:46","1f75c3e559b7213887762d5229550c2b","51.19.161.91","Mozilla/5.0 (Windows NT 10.0; Win64; x64) AppleWebKit/537.36 (KHTML, like Gecko) Chrome/138.0.0.0 Safari/537.36","WebKit","Chrome","138.0.0.0","Windows","10.0","https://app.prolific.com/","en-GB,en-US;q=0.9,en;q=0.8","59dd90f6e75b450001a68dac","683db9eb0562dbf637994deb","6881396ce6af8750464c6826","2","1","59dd90f6e75b450001a68dac","2","1","2025-07-23T19:41:07.057Z","","","","","","","","","","","PreMotivationQ","","50","","","","","","","","","","","","","","","","","","","","","","","","","","","","",""
"","","","","ctl-task-cpt","9","317444","0.0-5.0-0.0","233","1","2025-07-23 19:35:46","1f75c3e559b7213887762d5229550c2b","51.19.161.91","Mozilla/5.0 (Windows NT 10.0; Win64; x64) AppleWebKit/537.36 (KHTML, like Gecko) Chrome/138.0.0.0 Safari/537.36","WebKit","Chrome","138.0.0.0","Windows","10.0","https://app.prolific.com/","en-GB,en-US;q=0.9,en;q=0.8","59dd90f6e75b450001a68dac","683db9eb0562dbf637994deb","6881396ce6af8750464c6826","2","1","59dd90f6e75b450001a68dac","2","1","2025-07-23T19:41:32.055Z","","","","","","","","","","","","","","win-only","0","g1:NW,g2:SE","1","1","0","323905.8","3726.8","8727.5","21988.8","1","4","4","6","1","1","1","1","0","0.007575757575757576","1117.6","3000","1385","[""left"",""up""]","{""num_key_presses"":4,""num_perfect"":4,""num_errors"":0,""num_randdir"":0,""num_randdir_good_moves"":0,""num_whilered"":0,""num_whileblue"":0,""num_blue"":1,""num_good_moves"":4}","[413.57142857142856,419.47767857142856,0.9,413.57142857142856,419.47767857142856,100.1,413.57142857142856,419.47767857142856,200.2,413.57142857142856,419.47767857142856,303.8,413.57142857142856,419.47767857142856,404.2,413.57142857142856,419.47767857142856,509.7,413.57142857142856,419.47767857142856,616.9,412.57142857142856,415.47767857142856,719.9,169.57142857142856,202.47767857142856,823.8,122.57142857142857,106.47767857142857,925.3,80.57142857142857,74.47767857142857,1033.8,67.57142857142857,63.47767857142857,1133.9,67.57142857142857,63.47767857142857,1234.8,67.57142857142857,63.47767857142857,1339.8,67.57142857142857,63.47767857142857,1450.2,67.57142857142857,63.47767857142857,1550.2,67.57142857142857,63.47767857142857,1654.1,67.57142857142857,63.47767857142857,1754.4,67.57142857142857,63.47767857142857,1858.9,67.57142857142857,63.47767857142857,1959.3,67.57142857142857,63.47767857142857,2059.7,67.57142857142857,63.47767857142857,2166.9,67.57142857142857,63.47767857142857,2269.8,67.57142857142857,63.47767857142857,2374,67.57142857142857,63.47767857142857,2483,67.57142857142857,63.47767857142857,2583,67.57142857142857,63.47767857142857,2683.3,67.57142857142857,63.47767857142857,2783.7,67.57142857142857,63.47767857142857,2889.1,67.57142857142857,63.47767857142857,2994,67.57142857142857,63.47767857142857,3094.1,67.57142857142857,63.47767857142857,3194.1,67.57142857142857,63.47767857142857,3300.1,67.57142857142857,63.47767857142857,3403.7,67.57142857142857,63.47767857142857,3504.7,67.57142857142857,63.47767857142857,3609,67.57142857142857,63.47767857142857,3709.4,67.57142857142857,63.47767857142857,3809.7,67.57142857142857,63.47767857142857,3916.7,67.57142857142857,63.47767857142857,4017.7,67.57142857142857,63.47767857142857,4120.1,67.57142857142857,63.47767857142857,4224.4,67.57142857142857,63.47767857142857,4324.6,67.57142857142857,63.47767857142857,4433.2,67.57142857142857,63.47767857142857,4533.6,67.57142857142857,63.47767857142857,4639.1,67.57142857142857,63.47767857142857,4739.3,67.57142857142857,63.47767857142857,4844.1,67.57142857142857,63.47767857142857,4944.1]","[1452,1452,1000,0,452,""smooth"",""up"",""up"",""good_move"",4515.4,3063.2,2657.3,1452.3,405.8,""smooth"",""up"",""up"",""good_move"",7500.1,2984.5,2573,4515.7,411.4,""smooth"",""left"",""left"",""good_move"",13156.4,5655.9,1709.6,10888.3,558.5,""smooth"",""left"",""left"",""good_move""]","",""
"5628","","<div style=""width:500px;"">
  <p>What determined the result of this run?</p>
  </div>","62","html-slider-response","10","323073","0.0-5.0-1.0","233","1","2025-07-23 19:35:46","1f75c3e559b7213887762d5229550c2b","51.19.161.91","Mozilla/5.0 (Windows NT 10.0; Win64; x64) AppleWebKit/537.36 (KHTML, like Gecko) Chrome/138.0.0.0 Safari/537.36","WebKit","Chrome","138.0.0.0","Windows","10.0","https://app.prolific.com/","en-GB,en-US;q=0.9,en;q=0.8","59dd90f6e75b450001a68dac","683db9eb0562dbf637994deb","6881396ce6af8750464c6826","2","1","59dd90f6e75b450001a68dac","2","1","2025-07-23T19:41:37.684Z","","","","","","","","","","","AttribQ","","50","","","","","","","","","","","","","","","","","","","","","","","","","","","","",""
"3887","","<div style=""width:500px;"">
  <p>How much control did you have over the ball?</p>
  </div>","100","html-slider-response","11","326961","0.0-5.0-2.0","233","1","2025-07-23 19:35:46","1f75c3e559b7213887762d5229550c2b","51.19.161.91","Mozilla/5.0 (Windows NT 10.0; Win64; x64) AppleWebKit/537.36 (KHTML, like Gecko) Chrome/138.0.0.0 Safari/537.36","WebKit","Chrome","138.0.0.0","Windows","10.0","https://app.prolific.com/","en-GB,en-US;q=0.9,en;q=0.8","59dd90f6e75b450001a68dac","683db9eb0562dbf637994deb","6881396ce6af8750464c6826","2","1","59dd90f6e75b450001a68dac","2","1","2025-07-23T19:41:41.572Z","","","","","","","","","","","ControlQ","","50","","","","","","","","","","","","","","","","","","","","","","","","","","","","",""
"3415","","<div style=""width:500px;"">
  <p>How would you describe your current emotional state?</p>
  </div>","23","html-slider-response","12","330378","0.0-5.0-3.0","233","1","2025-07-23 19:35:46","1f75c3e559b7213887762d5229550c2b","51.19.161.91","Mozilla/5.0 (Windows NT 10.0; Win64; x64) AppleWebKit/537.36 (KHTML, like Gecko) Chrome/138.0.0.0 Safari/537.36","WebKit","Chrome","138.0.0.0","Windows","10.0","https://app.prolific.com/","en-GB,en-US;q=0.9,en;q=0.8","59dd90f6e75b450001a68dac","683db9eb0562dbf637994deb","6881396ce6af8750464c6826","2","1","59dd90f6e75b450001a68dac","2","1","2025-07-23T19:41:44.989Z","","","","","","","","","","","StressQ","","50","","","","","","","","","","","","","","","","","","","","","","","","","","","","",""
"3747","","<div style=""width:500px;"">
  <p>What best describes how you currently feel?</p>
  </div>","63","html-slider-response","13","334125","0.0-5.0-4.0","233","1","2025-07-23 19:35:46","1f75c3e559b7213887762d5229550c2b","51.19.161.91","Mozilla/5.0 (Windows NT 10.0; Win64; x64) AppleWebKit/537.36 (KHTML, like Gecko) Chrome/138.0.0.0 Safari/537.36","WebKit","Chrome","138.0.0.0","Windows","10.0","https://app.prolific.com/","en-GB,en-US;q=0.9,en;q=0.8","59dd90f6e75b450001a68dac","683db9eb0562dbf637994deb","6881396ce6af8750464c6826","2","1","59dd90f6e75b450001a68dac","2","1","2025-07-23T19:41:48.736Z","","","","","","","","","","","MotivationQ","","50","","","","","","","","","","","","","","","","","","","","","","","","","","","","",""
"","","","","ctl-task-cpt","14","368262","0.0-5.0-0.1","233","1","2025-07-23 19:35:46","1f75c3e559b7213887762d5229550c2b","51.19.161.91","Mozilla/5.0 (Windows NT 10.0; Win64; x64) AppleWebKit/537.36 (KHTML, like Gecko) Chrome/138.0.0.0 Safari/537.36","WebKit","Chrome","138.0.0.0","Windows","10.0","https://app.prolific.com/","en-GB,en-US;q=0.9,en;q=0.8","59dd90f6e75b450001a68dac","683db9eb0562dbf637994deb","6881396ce6af8750464c6826","2","1","59dd90f6e75b450001a68dac","2","1","2025-07-23T19:42:22.873Z","","","","","","","","","","","","","","win-only","0","g1:NW,g2:SE","0.9","2","0","365581.4","915.4","5916.3","31126.4","1","4","8","6","2","8","8","9","1","0.06818181818181818","1292.5","3000","690","[""down"",""right""]","{""num_key_presses"":6,""num_perfect"":5,""num_errors"":0,""num_randdir"":1,""num_randdir_good_moves"":1,""num_whilered"":0,""num_whileblue"":0,""num_blue"":3,""num_good_moves"":6}","[423.57142857142856,409.47767857142856,0.3,423.57142857142856,409.47767857142856,101.3,423.57142857142856,409.47767857142856,205.7,423.57142857142856,409.47767857142856,309.9,423.57142857142856,409.47767857142856,410,423.57142857142856,409.47767857142856,511.4,483.57142857142856,428.47767857142856,615.6,552.5714285714286,471.47767857142856,715.8,661.5714285714286,621.4776785714286,821.2,718.5714285714286,719.4776785714286,925.9,719.5714285714286,731.4776785714286,1026.4,724.5714285714286,736.4776785714286,1130,733.5714285714286,745.4776785714286,1230.7,735.5714285714286,746.4776785714286,1331.5,736.5714285714286,746.4776785714286,1435.3,724.5714285714286,744.4776785714286,1536.3,724.5714285714286,744.4776785714286,1641.5,724.5714285714286,744.4776785714286,1746.5,724.5714285714286,744.4776785714286,1850.3,724.5714285714286,744.4776785714286,1950.5,724.5714285714286,744.4776785714286,2055.2,724.5714285714286,744.4776785714286,2155.8,724.5714285714286,744.4776785714286,2255.8,724.5714285714286,744.4776785714286,2360.5,724.5714285714286,744.4776785714286,2465.8,724.5714285714286,744.4776785714286,2570.3,724.5714285714286,744.4776785714286,2675,724.5714285714286,744.4776785714286,2775.4,724.5714285714286,744.4776785714286,2875.8,724.5714285714286,744.4776785714286,2980.7,724.5714285714286,744.4776785714286,3081.7,724.5714285714286,744.4776785714286,3185.4,724.5714285714286,744.4776785714286,3291.7,724.5714285714286,744.4776785714286,3395.2,724.5714285714286,744.4776785714286,3495.2,724.5714285714286,744.4776785714286,3595.5,724.5714285714286,744.4776785714286,3700.9,724.5714285714286,744.4776785714286,3800.9,724.5714285714286,744.4776785714286,3900.9,724.5714285714286,744.4776785714286,4005.8,724.5714285714286,744.4776785714286,4112.4,724.5714285714286,744.4776785714286,4215.7,724.5714285714286,744.4776785714286,4321.5,724.5714285714286,744.4776785714286,4425.7,724.5714285714286,744.4776785714286,4530.2,724.5714285714286,744.4776785714286,4634.8,724.5714285714286,744.4776785714286,4735,724.5714285714286,744.4776785714286,4835,724.5714285714286,744.4776785714286,4940]","[1419.6,1419.6,1000,0,419.6,""oops"",""down"",""right"",""good_move"",4140.1,2720.2,2319.5,1419.9,400.7,""smooth"",""down"",""down"",""good_move"",10118.1,5977.7,2489.7,7230.4,398,""smooth"",""down"",""down"",""good_move"",13001.5,2883.2,2460.4,10118.3,422.8,""smooth"",""down"",""down"",""good_move"",18844.1,5842.5,2561,15851.5,431.6,""smooth"",""right"",""right"",""good_move"",25108.2,6263.9,2201.7,22424,482.5,""smooth"",""right"",""right"",""good_move""]","",""
"4325","","<div style=""width:500px;"">
  <p>What determined the result of this run?</p>
  </div>","7","html-slider-response","15","372587","0.0-5.0-1.1","233","1","2025-07-23 19:35:46","1f75c3e559b7213887762d5229550c2b","51.19.161.91","Mozilla/5.0 (Windows NT 10.0; Win64; x64) AppleWebKit/537.36 (KHTML, like Gecko) Chrome/138.0.0.0 Safari/537.36","WebKit","Chrome","138.0.0.0","Windows","10.0","https://app.prolific.com/","en-GB,en-US;q=0.9,en;q=0.8","59dd90f6e75b450001a68dac","683db9eb0562dbf637994deb","6881396ce6af8750464c6826","2","1","59dd90f6e75b450001a68dac","2","1","2025-07-23T19:42:27.198Z","","","","","","","","","","","AttribQ","","50","","","","","","","","","","","","","","","","","","","","","","","","","","","","",""
"4545","","<div style=""width:500px;"">
  <p>How much control did you have over the ball?</p>
  </div>","78","html-slider-response","16","377133","0.0-5.0-2.1","233","1","2025-07-23 19:35:46","1f75c3e559b7213887762d5229550c2b","51.19.161.91","Mozilla/5.0 (Windows NT 10.0; Win64; x64) AppleWebKit/537.36 (KHTML, like Gecko) Chrome/138.0.0.0 Safari/537.36","WebKit","Chrome","138.0.0.0","Windows","10.0","https://app.prolific.com/","en-GB,en-US;q=0.9,en;q=0.8","59dd90f6e75b450001a68dac","683db9eb0562dbf637994deb","6881396ce6af8750464c6826","2","1","59dd90f6e75b450001a68dac","2","1","2025-07-23T19:42:31.744Z","","","","","","","","","","","ControlQ","","50","","","","","","","","","","","","","","","","","","","","","","","","","","","","",""
"4667","","<div style=""width:500px;"">
  <p>How would you describe your current emotional state?</p>
  </div>","22","html-slider-response","17","381801","0.0-5.0-3.1","233","1","2025-07-23 19:35:46","1f75c3e559b7213887762d5229550c2b","51.19.161.91","Mozilla/5.0 (Windows NT 10.0; Win64; x64) AppleWebKit/537.36 (KHTML, like Gecko) Chrome/138.0.0.0 Safari/537.36","WebKit","Chrome","138.0.0.0","Windows","10.0","https://app.prolific.com/","en-GB,en-US;q=0.9,en;q=0.8","59dd90f6e75b450001a68dac","683db9eb0562dbf637994deb","6881396ce6af8750464c6826","2","1","59dd90f6e75b450001a68dac","2","1","2025-07-23T19:42:36.412Z","","","","","","","","","","","StressQ","","50","","","","","","","","","","","","","","","","","","","","","","","","","","","","",""
"3029","","<div style=""width:500px;"">
  <p>What best describes how you currently feel?</p>
  </div>","76","html-slider-response","18","384831","0.0-5.0-4.1","233","1","2025-07-23 19:35:46","1f75c3e559b7213887762d5229550c2b","51.19.161.91","Mozilla/5.0 (Windows NT 10.0; Win64; x64) AppleWebKit/537.36 (KHTML, like Gecko) Chrome/138.0.0.0 Safari/537.36","WebKit","Chrome","138.0.0.0","Windows","10.0","https://app.prolific.com/","en-GB,en-US;q=0.9,en;q=0.8","59dd90f6e75b450001a68dac","683db9eb0562dbf637994deb","6881396ce6af8750464c6826","2","1","59dd90f6e75b450001a68dac","2","1","2025-07-23T19:42:39.442Z","","","","","","","","","","","MotivationQ","","50","","","","","","","","","","","","","","","","","","","","","","","","","","","","",""
"","","","","ctl-task-cpt","19","405080","0.0-5.0-0.2","233","1","2025-07-23 19:35:46","1f75c3e559b7213887762d5229550c2b","51.19.161.91","Mozilla/5.0 (Windows NT 10.0; Win64; x64) AppleWebKit/537.36 (KHTML, like Gecko) Chrome/138.0.0.0 Safari/537.36","WebKit","Chrome","138.0.0.0","Windows","10.0","https://app.prolific.com/","en-GB,en-US;q=0.9,en;q=0.8","59dd90f6e75b450001a68dac","683db9eb0562dbf637994deb","6881396ce6af8750464c6826","2","1","59dd90f6e75b450001a68dac","2","1","2025-07-23T19:42:59.691Z","","","","","","","","","","","","","","win-only","1","g1:NE,g2:SW","0.8","3","0","416287.6","2101.3","7107.1","17231.2","1","4","8","6","1","1","1","10","9","0.07575757575757576","1493.3","3000","1370","[""up"",""right""]","{""num_key_presses"":4,""num_perfect"":3,""num_errors"":0,""num_randdir"":1,""num_randdir_good_moves"":1,""num_whilered"":0,""num_whileblue"":0,""num_blue"":0,""num_good_moves"":4}","[416.57142857142856,421.47767857142856,0.3,416.57142857142856,421.47767857142856,104.8,416.57142857142856,421.47767857142856,205,416.57142857142856,421.47767857142856,305.9,416.57142857142856,421.47767857142856,409.2,416.57142857142856,421.47767857142856,509.2,416.57142857142856,421.47767857142856,614.2,406.57142857142856,436.47767857142856,714.4,407.57142857142856,436.47767857142856,818.9,553.5714285714286,311.47767857142856,919.2,686.5714285714286,207.47767857142856,1019.7,727.5714285714286,167.47767857142856,1119.7,758.5714285714286,132.47767857142856,1224.3,767.5714285714286,110.47767857142857,1329.9,767.5714285714286,100.47767857142857,1430.2,767.5714285714286,99.47767857142857,1530.5,767.5714285714286,99.47767857142857,1635.2,767.5714285714286,99.47767857142857,1739.8,767.5714285714286,99.47767857142857,1845.4,767.5714285714286,99.47767857142857,1949.4,767.5714285714286,99.47767857142857,2049.8,767.5714285714286,99.47767857142857,2154.8,767.5714285714286,99.47767857142857,2255.3,767.5714285714286,99.47767857142857,2355.7,767.5714285714286,99.47767857142857,2459,767.5714285714286,99.47767857142857,2559.7,767.5714285714286,99.47767857142857,2660,767.5714285714286,99.47767857142857,2764.1,767.5714285714286,99.47767857142857,2864.2,767.5714285714286,99.47767857142857,2964.3,767.5714285714286,99.47767857142857,3064.4,767.5714285714286,99.47767857142857,3165.3,767.5714285714286,99.47767857142857,3269.5,767.5714285714286,99.47767857142857,3369.9,767.5714285714286,99.47767857142857,3474.8,767.5714285714286,99.47767857142857,3575.2,767.5714285714286,99.47767857142857,3679.3,767.5714285714286,99.47767857142857,3784.5,767.5714285714286,99.47767857142857,3884.6,767.5714285714286,99.47767857142857,3985,767.5714285714286,99.47767857142857,4090.1,767.5714285714286,99.47767857142857,4194.6,767.5714285714286,99.47767857142857,4295.2,767.5714285714286,99.47767857142857,4400.2,767.5714285714286,99.47767857142857,4503.9,767.5714285714286,99.47767857142857,4604.6,767.5714285714286,99.47767857142857,4704.7,767.5714285714286,99.47767857142857,4810,767.5714285714286,99.47767857142857,4914.6]","[1402.8,1402.8,1000,0,402.8,""smooth"",""up"",""up"",""good_move"",4394.4,2991.2,2592.9,1403.2,398.3,""smooth"",""up"",""up"",""good_move"",6787.2,2392.5,1971.8,4394.7,420.7,""oops"",""right"",""right"",""good_move"",10037.8,3250.4,2818.1,6787.4,432.3,""smooth"",""right"",""right"",""good_move""]","",""
"2451","","<div style=""width:500px;"">
  <p>What determined the result of this run?</p>
  </div>","70","html-slider-response","20","407532","0.0-5.0-1.2","233","1","2025-07-23 19:35:46","1f75c3e559b7213887762d5229550c2b","51.19.161.91","Mozilla/5.0 (Windows NT 10.0; Win64; x64) AppleWebKit/537.36 (KHTML, like Gecko) Chrome/138.0.0.0 Safari/537.36","WebKit","Chrome","138.0.0.0","Windows","10.0","https://app.prolific.com/","en-GB,en-US;q=0.9,en;q=0.8","59dd90f6e75b450001a68dac","683db9eb0562dbf637994deb","6881396ce6af8750464c6826","2","1","59dd90f6e75b450001a68dac","2","1","2025-07-23T19:43:02.143Z","","","","","","","","","","","AttribQ","","50","","","","","","","","","","","","","","","","","","","","","","","","","","","","",""
"2555","","<div style=""width:500px;"">
  <p>How much control did you have over the ball?</p>
  </div>","100","html-slider-response","21","410088","0.0-5.0-2.2","233","1","2025-07-23 19:35:46","1f75c3e559b7213887762d5229550c2b","51.19.161.91","Mozilla/5.0 (Windows NT 10.0; Win64; x64) AppleWebKit/537.36 (KHTML, like Gecko) Chrome/138.0.0.0 Safari/537.36","WebKit","Chrome","138.0.0.0","Windows","10.0","https://app.prolific.com/","en-GB,en-US;q=0.9,en;q=0.8","59dd90f6e75b450001a68dac","683db9eb0562dbf637994deb","6881396ce6af8750464c6826","2","1","59dd90f6e75b450001a68dac","2","1","2025-07-23T19:43:04.699Z","","","","","","","","","","","ControlQ","","50","","","","","","","","","","","","","","","","","","","","","","","","","","","","",""
"2598","","<div style=""width:500px;"">
  <p>How would you describe your current emotional state?</p>
  </div>","20","html-slider-response","22","412686","0.0-5.0-3.2","233","1","2025-07-23 19:35:46","1f75c3e559b7213887762d5229550c2b","51.19.161.91","Mozilla/5.0 (Windows NT 10.0; Win64; x64) AppleWebKit/537.36 (KHTML, like Gecko) Chrome/138.0.0.0 Safari/537.36","WebKit","Chrome","138.0.0.0","Windows","10.0","https://app.prolific.com/","en-GB,en-US;q=0.9,en;q=0.8","59dd90f6e75b450001a68dac","683db9eb0562dbf637994deb","6881396ce6af8750464c6826","2","1","59dd90f6e75b450001a68dac","2","1","2025-07-23T19:43:07.297Z","","","","","","","","","","","StressQ","","50","","","","","","","","","","","","","","","","","","","","","","","","","","","","",""
"3027","","<div style=""width:500px;"">
  <p>What best describes how you currently feel?</p>
  </div>","78","html-slider-response","23","415714","0.0-5.0-4.2","233","1","2025-07-23 19:35:46","1f75c3e559b7213887762d5229550c2b","51.19.161.91","Mozilla/5.0 (Windows NT 10.0; Win64; x64) AppleWebKit/537.36 (KHTML, like Gecko) Chrome/138.0.0.0 Safari/537.36","WebKit","Chrome","138.0.0.0","Windows","10.0","https://app.prolific.com/","en-GB,en-US;q=0.9,en;q=0.8","59dd90f6e75b450001a68dac","683db9eb0562dbf637994deb","6881396ce6af8750464c6826","2","1","59dd90f6e75b450001a68dac","2","1","2025-07-23T19:43:10.325Z","","","","","","","","","","","MotivationQ","","50","","","","","","","","","","","","","","","","","","","","","","","","","","","","",""
"","","","","ctl-task-cpt","24","439578","0.0-5.0-0.3","233","1","2025-07-23 19:35:46","1f75c3e559b7213887762d5229550c2b","51.19.161.91","Mozilla/5.0 (Windows NT 10.0; Win64; x64) AppleWebKit/537.36 (KHTML, like Gecko) Chrome/138.0.0.0 Safari/537.36","WebKit","Chrome","138.0.0.0","Windows","10.0","https://app.prolific.com/","en-GB,en-US;q=0.9,en;q=0.8","59dd90f6e75b450001a68dac","683db9eb0562dbf637994deb","6881396ce6af8750464c6826","2","1","59dd90f6e75b450001a68dac","2","1","2025-07-23T19:43:34.189Z","","","","","","","","","","","","","","win-only","3","g1:SW,g2:NE","0.7","4","0","447169.7","2298.2","7301.7","20846.4","1","4","4","6","1","1","1","11","10","0.08333333333333333","1486.3","3000","1355","[""down"",""left""]","{""num_key_presses"":4,""num_perfect"":3,""num_errors"":0,""num_randdir"":1,""num_randdir_good_moves"":1,""num_whilered"":0,""num_whileblue"":0,""num_blue"":1,""num_good_moves"":4}","[422.57142857142856,417.47767857142856,0.2,422.57142857142856,417.47767857142856,113,422.57142857142856,417.47767857142856,217.4,422.57142857142856,417.47767857142856,322.5,422.57142857142856,417.47767857142856,423.9,422.57142857142856,417.47767857142856,527.2,422.57142857142856,417.47767857142856,627.5,422.57142857142856,417.47767857142856,734.1,422.57142857142856,417.47767857142856,837,422.57142857142856,417.47767857142856,937.2,222.57142857142856,635.4776785714286,1038.1,110.57142857142857,762.4776785714286,1138.8,96.57142857142857,776.4776785714286,1243.6,77.57142857142857,782.4776785714286,1344,81.57142857142857,774.4776785714286,1447.6,83.57142857142857,770.4776785714286,1547.8,83.57142857142857,770.4776785714286,1647.9,83.57142857142857,770.4776785714286,1748.8,80.57142857142857,770.4776785714286,1848.8,-252.42857142857144,632.4776785714286,1953.2,-334.42857142857144,594.4776785714286,2057.6,-334.42857142857144,594.4776785714286,2159,-334.42857142857144,594.4776785714286,2263.4,-334.42857142857144,594.4776785714286,2367.3,-334.42857142857144,594.4776785714286,2468,-334.42857142857144,594.4776785714286,2573.3,-334.42857142857144,594.4776785714286,2677.4,-334.42857142857144,594.4776785714286,2777.4,-334.42857142857144,594.4776785714286,2877.4,-334.42857142857144,594.4776785714286,2977.7,-334.42857142857144,594.4776785714286,3077.8,-334.42857142857144,594.4776785714286,3182.9,-334.42857142857144,594.4776785714286,3283,-334.42857142857144,594.4776785714286,3387.7,-334.42857142857144,594.4776785714286,3488,-334.42857142857144,594.4776785714286,3592.5,-334.42857142857144,594.4776785714286,3692.6,-334.42857142857144,594.4776785714286,3792.9,-334.42857142857144,594.4776785714286,3892.9,-334.42857142857144,594.4776785714286,3994,-334.42857142857144,594.4776785714286,4094.3,-334.42857142857144,594.4776785714286,4197.5,-334.42857142857144,594.4776785714286,4302.6,-334.42857142857144,594.4776785714286,4402.9,-334.42857142857144,594.4776785714286,4507.2,-334.42857142857144,594.4776785714286,4607.5,-334.42857142857144,594.4776785714286,4712.9,-334.42857142857144,594.4776785714286,4813.3,-334.42857142857144,594.4776785714286,4918]","[1494,1494,1000,0,494,""smooth"",""left"",""left"",""good_move"",3989.9,2495.5,2120.2,1494.4,375.3,""smooth"",""left"",""left"",""good_move"",10022.7,6032.6,2611.4,6994.9,416.5,""oops"",""down"",""down"",""good_move"",13454,3431,3042.8,10023,388.2,""smooth"",""down"",""down"",""good_move""]","",""
"2669","","<div style=""width:500px;"">
  <p>What determined the result of this run?</p>
  </div>","81","html-slider-response","25","442248","0.0-5.0-1.3","233","1","2025-07-23 19:35:46","1f75c3e559b7213887762d5229550c2b","51.19.161.91","Mozilla/5.0 (Windows NT 10.0; Win64; x64) AppleWebKit/537.36 (KHTML, like Gecko) Chrome/138.0.0.0 Safari/537.36","WebKit","Chrome","138.0.0.0","Windows","10.0","https://app.prolific.com/","en-GB,en-US;q=0.9,en;q=0.8","59dd90f6e75b450001a68dac","683db9eb0562dbf637994deb","6881396ce6af8750464c6826","2","1","59dd90f6e75b450001a68dac","2","1","2025-07-23T19:43:36.859Z","","","","","","","","","","","AttribQ","","50","","","","","","","","","","","","","","","","","","","","","","","","","","","","",""
"2125","","<div style=""width:500px;"">
  <p>How much control did you have over the ball?</p>
  </div>","100","html-slider-response","26","444374","0.0-5.0-2.3","233","1","2025-07-23 19:35:46","1f75c3e559b7213887762d5229550c2b","51.19.161.91","Mozilla/5.0 (Windows NT 10.0; Win64; x64) AppleWebKit/537.36 (KHTML, like Gecko) Chrome/138.0.0.0 Safari/537.36","WebKit","Chrome","138.0.0.0","Windows","10.0","https://app.prolific.com/","en-GB,en-US;q=0.9,en;q=0.8","59dd90f6e75b450001a68dac","683db9eb0562dbf637994deb","6881396ce6af8750464c6826","2","1","59dd90f6e75b450001a68dac","2","1","2025-07-23T19:43:38.985Z","","","","","","","","","","","ControlQ","","50","","","","","","","","","","","","","","","","","","","","","","","","","","","","",""
"3131","","<div style=""width:500px;"">
  <p>How would you describe your current emotional state?</p>
  </div>","14","html-slider-response","27","447507","0.0-5.0-3.3","233","1","2025-07-23 19:35:46","1f75c3e559b7213887762d5229550c2b","51.19.161.91","Mozilla/5.0 (Windows NT 10.0; Win64; x64) AppleWebKit/537.36 (KHTML, like Gecko) Chrome/138.0.0.0 Safari/537.36","WebKit","Chrome","138.0.0.0","Windows","10.0","https://app.prolific.com/","en-GB,en-US;q=0.9,en;q=0.8","59dd90f6e75b450001a68dac","683db9eb0562dbf637994deb","6881396ce6af8750464c6826","2","1","59dd90f6e75b450001a68dac","2","1","2025-07-23T19:43:42.118Z","","","","","","","","","","","StressQ","","50","","","","","","","","","","","","","","","","","","","","","","","","","","","","",""
"1691","","<div style=""width:500px;"">
  <p>What best describes how you currently feel?</p>
  </div>","85","html-slider-response","28","449199","0.0-5.0-4.3","233","1","2025-07-23 19:35:46","1f75c3e559b7213887762d5229550c2b","51.19.161.91","Mozilla/5.0 (Windows NT 10.0; Win64; x64) AppleWebKit/537.36 (KHTML, like Gecko) Chrome/138.0.0.0 Safari/537.36","WebKit","Chrome","138.0.0.0","Windows","10.0","https://app.prolific.com/","en-GB,en-US;q=0.9,en;q=0.8","59dd90f6e75b450001a68dac","683db9eb0562dbf637994deb","6881396ce6af8750464c6826","2","1","59dd90f6e75b450001a68dac","2","1","2025-07-23T19:43:43.810Z","","","","","","","","","","","MotivationQ","","50","","","","","","","","","","","","","","","","","","","","","","","","","","","","",""
"","","","","ctl-task-cpt","29","480979","0.0-5.0-0.4","233","1","2025-07-23 19:35:46","1f75c3e559b7213887762d5229550c2b","51.19.161.91","Mozilla/5.0 (Windows NT 10.0; Win64; x64) AppleWebKit/537.36 (KHTML, like Gecko) Chrome/138.0.0.0 Safari/537.36","WebKit","Chrome","138.0.0.0","Windows","10.0","https://app.prolific.com/","en-GB,en-US;q=0.9,en;q=0.8","59dd90f6e75b450001a68dac","683db9eb0562dbf637994deb","6881396ce6af8750464c6826","2","1","59dd90f6e75b450001a68dac","2","1","2025-07-23T19:44:15.590Z","","","","","","","","","","","","","","win-only","2","g1:SE,g2:NW","0.6","5","0","480653.6","1633.7","6637","28760.8","1","4","8","6","1","1","1","12","11","0.09090909090909091","1610.4","3000","1315","[""down"",""right""]","{""num_key_presses"":4,""num_perfect"":1,""num_errors"":0,""num_randdir"":3,""num_randdir_good_moves"":3,""num_whilered"":0,""num_whileblue"":0,""num_blue"":3,""num_good_moves"":4}","[421.57142857142856,417.47767857142856,0.2,421.57142857142856,417.47767857142856,111.5,421.57142857142856,417.47767857142856,211.9,421.57142857142856,417.47767857142856,316.9,421.57142857142856,417.47767857142856,417.3,421.57142857142856,417.47767857142856,517.6,421.57142857142856,417.47767857142856,621.9,421.57142857142856,417.47767857142856,722.6,421.57142857142856,417.47767857142856,826.5,550.5714285714286,518.4776785714286,927.1,759.5714285714286,720.4776785714286,1032.6,761.5714285714286,743.4776785714286,1137.3,763.5714285714286,752.4776785714286,1242,763.5714285714286,758.4776785714286,1342.4,763.5714285714286,758.4776785714286,1447.1,763.5714285714286,758.4776785714286,1552.8,763.5714285714286,758.4776785714286,1657.3,763.5714285714286,758.4776785714286,1761.7,763.5714285714286,758.4776785714286,1862.4,735.5714285714286,756.4776785714286,1966.7,623.5714285714286,732.4776785714286,2072.5,596.5714285714286,728.4776785714286,2177,596.5714285714286,728.4776785714286,2281.8,596.5714285714286,728.4776785714286,2382.1,596.5714285714286,728.4776785714286,2483.2,596.5714285714286,728.4776785714286,2587.4,596.5714285714286,728.4776785714286,2692.2,596.5714285714286,728.4776785714286,2793.4,596.5714285714286,728.4776785714286,2898.3,596.5714285714286,728.4776785714286,3002.4,596.5714285714286,728.4776785714286,3102.6,596.5714285714286,728.4776785714286,3207.4,596.5714285714286,728.4776785714286,3312.1,596.5714285714286,728.4776785714286,3412.7,596.5714285714286,728.4776785714286,3518,596.5714285714286,728.4776785714286,3622.5,596.5714285714286,728.4776785714286,3726.9,596.5714285714286,728.4776785714286,3827.2,596.5714285714286,728.4776785714286,3931.9,596.5714285714286,728.4776785714286,4032.2,596.5714285714286,728.4776785714286,4136.7,596.5714285714286,728.4776785714286,4237.3,596.5714285714286,728.4776785714286,4341.9,596.5714285714286,728.4776785714286,4447.5,596.5714285714286,728.4776785714286,4547.8,596.5714285714286,728.4776785714286,4651.6,596.5714285714286,728.4776785714286,4752,596.5714285714286,728.4776785714286,4857.1,596.5714285714286,728.4776785714286,4957.8]","[1466.4,1466.4,1000,0,466.4,""smooth"",""down"",""down"",""good_move"",8170.7,6704,3246,4533.7,391,""oops"",""down"",""down"",""good_move"",19123.4,10952.5,2794.6,15883.7,445.1,""oops"",""right"",""right"",""good_move"",22034.8,2911.1,2503.8,19123.7,407.3,""oops"",""right"",""right"",""good_move""]","",""
"3638","","<div style=""width:500px;"">
  <p>What determined the result of this run?</p>
  </div>","88","html-slider-response","30","484617","0.0-5.0-1.4","233","1","2025-07-23 19:35:46","1f75c3e559b7213887762d5229550c2b","51.19.161.91","Mozilla/5.0 (Windows NT 10.0; Win64; x64) AppleWebKit/537.36 (KHTML, like Gecko) Chrome/138.0.0.0 Safari/537.36","WebKit","Chrome","138.0.0.0","Windows","10.0","https://app.prolific.com/","en-GB,en-US;q=0.9,en;q=0.8","59dd90f6e75b450001a68dac","683db9eb0562dbf637994deb","6881396ce6af8750464c6826","2","1","59dd90f6e75b450001a68dac","2","1","2025-07-23T19:44:19.229Z","","","","","","","","","","","AttribQ","","50","","","","","","","","","","","","","","","","","","","","","","","","","","","","",""
"2111","","<div style=""width:500px;"">
  <p>How much control did you have over the ball?</p>
  </div>","100","html-slider-response","31","486729","0.0-5.0-2.4","233","1","2025-07-23 19:35:46","1f75c3e559b7213887762d5229550c2b","51.19.161.91","Mozilla/5.0 (Windows NT 10.0; Win64; x64) AppleWebKit/537.36 (KHTML, like Gecko) Chrome/138.0.0.0 Safari/537.36","WebKit","Chrome","138.0.0.0","Windows","10.0","https://app.prolific.com/","en-GB,en-US;q=0.9,en;q=0.8","59dd90f6e75b450001a68dac","683db9eb0562dbf637994deb","6881396ce6af8750464c6826","2","1","59dd90f6e75b450001a68dac","2","1","2025-07-23T19:44:21.340Z","","","","","","","","","","","ControlQ","","50","","","","","","","","","","","","","","","","","","","","","","","","","","","","",""
"2251","","<div style=""width:500px;"">
  <p>How would you describe your current emotional state?</p>
  </div>","16","html-slider-response","32","488981","0.0-5.0-3.4","233","1","2025-07-23 19:35:46","1f75c3e559b7213887762d5229550c2b","51.19.161.91","Mozilla/5.0 (Windows NT 10.0; Win64; x64) AppleWebKit/537.36 (KHTML, like Gecko) Chrome/138.0.0.0 Safari/537.36","WebKit","Chrome","138.0.0.0","Windows","10.0","https://app.prolific.com/","en-GB,en-US;q=0.9,en;q=0.8","59dd90f6e75b450001a68dac","683db9eb0562dbf637994deb","6881396ce6af8750464c6826","2","1","59dd90f6e75b450001a68dac","2","1","2025-07-23T19:44:23.592Z","","","","","","","","","","","StressQ","","50","","","","","","","","","","","","","","","","","","","","","","","","","","","","",""
"1797","","<div style=""width:500px;"">
  <p>What best describes how you currently feel?</p>
  </div>","89","html-slider-response","33","490779","0.0-5.0-4.4","233","1","2025-07-23 19:35:46","1f75c3e559b7213887762d5229550c2b","51.19.161.91","Mozilla/5.0 (Windows NT 10.0; Win64; x64) AppleWebKit/537.36 (KHTML, like Gecko) Chrome/138.0.0.0 Safari/537.36","WebKit","Chrome","138.0.0.0","Windows","10.0","https://app.prolific.com/","en-GB,en-US;q=0.9,en;q=0.8","59dd90f6e75b450001a68dac","683db9eb0562dbf637994deb","6881396ce6af8750464c6826","2","1","59dd90f6e75b450001a68dac","2","1","2025-07-23T19:44:25.390Z","","","","","","","","","","","MotivationQ","","50","","","","","","","","","","","","","","","","","","","","","","","","","","","","",""
"","","","","ctl-task-cpt","34","526179","0.0-5.0-0.5","233","1","2025-07-23 19:35:46","1f75c3e559b7213887762d5229550c2b","51.19.161.91","Mozilla/5.0 (Windows NT 10.0; Win64; x64) AppleWebKit/537.36 (KHTML, like Gecko) Chrome/138.0.0.0 Safari/537.36","WebKit","Chrome","138.0.0.0","Windows","10.0","https://app.prolific.com/","en-GB,en-US;q=0.9,en;q=0.8","59dd90f6e75b450001a68dac","683db9eb0562dbf637994deb","6881396ce6af8750464c6826","2","1","59dd90f6e75b450001a68dac","2","1","2025-07-23T19:45:00.790Z","","","","","","","","","","","","","","win-only","3","g1:SW,g2:NE","0.5","6","0","522233.6","2474.9","7476.1","32381.4","1","4","4","6","1","1","1","13","12","0.09848484848484848","1663.8","3000","510","[""down"",""left""]","{""num_key_presses"":6,""num_perfect"":3,""num_errors"":0,""num_randdir"":3,""num_randdir_good_moves"":2,""num_whilered"":0,""num_whileblue"":0,""num_blue"":2,""num_good_moves"":5}","[413.57142857142856,425.47767857142856,0.2,413.57142857142856,425.47767857142856,101.3,413.57142857142856,425.47767857142856,206.3,413.57142857142856,425.47767857142856,311.4,413.57142857142856,425.47767857142856,416.1,413.57142857142856,425.47767857142856,516.1,413.57142857142856,425.47767857142856,616.3,413.57142857142856,425.47767857142856,716.8,413.57142857142856,425.47767857142856,821.1,246.57142857142856,571.4776785714286,922.6,142.57142857142856,675.4776785714286,1027.1,122.57142857142857,695.4776785714286,1130.7,91.57142857142857,733.4776785714286,1231.2,72.57142857142857,753.4776785714286,1336.1,72.57142857142857,753.4776785714286,1441,72.57142857142857,753.4776785714286,1541.1,72.57142857142857,753.4776785714286,1641.8,72.57142857142857,753.4776785714286,1746,72.57142857142857,753.4776785714286,1851.1,72.57142857142857,753.4776785714286,1951.5,-81.42857142857143,657.4776785714286,2057.3,-247.42857142857144,551.4776785714286,2160.5,-292.42857142857144,536.4776785714286,2261.2,-292.42857142857144,536.4776785714286,2361.7,-292.42857142857144,536.4776785714286,2466.2,-292.42857142857144,536.4776785714286,2571,-292.42857142857144,536.4776785714286,2676.1,-292.42857142857144,536.4776785714286,2781.1,-292.42857142857144,536.4776785714286,2886.1,-292.42857142857144,536.4776785714286,2986.4,-292.42857142857144,536.4776785714286,3090.3,-292.42857142857144,536.4776785714286,3191,-292.42857142857144,536.4776785714286,3296.5,-292.42857142857144,536.4776785714286,3401.5,-292.42857142857144,536.4776785714286,3506.6,-292.42857142857144,536.4776785714286,3610.8,-292.42857142857144,536.4776785714286,3711.2,-292.42857142857144,536.4776785714286,3812,-292.42857142857144,536.4776785714286,3915.9,-292.42857142857144,536.4776785714286,4020.9,-292.42857142857144,536.4776785714286,4123.7,-292.42857142857144,536.4776785714286,4225.7,-292.42857142857144,536.4776785714286,4325.7,-292.42857142857144,536.4776785714286,4426.9,-292.42857142857144,536.4776785714286,4530.5,-292.42857142857144,536.4776785714286,4630.8,-292.42857142857144,536.4776785714286,4731.3,-292.42857142857144,536.4776785714286,4836,-292.42857142857144,536.4776785714286,4936.7]","[5823.3,5823.3,3352.3,2005.7,465.3,""smooth"",""down"",""down"",""good_move"",8831.5,3007.8,2615.2,5823.7,392.6,""oops"",""down"",""up"",""bad_move"",12199.3,3367.5,2966.4,8831.8,401.1,""oops"",""down"",""left"",""good_move"",15311,3111.5,2691.6,12199.5,419.9,""oops"",""down"",""left"",""good_move"",22295.3,6984,2112.5,19789.2,393.6,""smooth"",""down"",""down"",""good_move"",24815.1,2519.6,2072,22295.6,447.5,""smooth"",""down"",""down"",""good_move""]","",""
"3196","","<div style=""width:500px;"">
  <p>What determined the result of this run?</p>
  </div>","62","html-slider-response","35","529376","0.0-5.0-1.5","233","1","2025-07-23 19:35:46","1f75c3e559b7213887762d5229550c2b","51.19.161.91","Mozilla/5.0 (Windows NT 10.0; Win64; x64) AppleWebKit/537.36 (KHTML, like Gecko) Chrome/138.0.0.0 Safari/537.36","WebKit","Chrome","138.0.0.0","Windows","10.0","https://app.prolific.com/","en-GB,en-US;q=0.9,en;q=0.8","59dd90f6e75b450001a68dac","683db9eb0562dbf637994deb","6881396ce6af8750464c6826","2","1","59dd90f6e75b450001a68dac","2","1","2025-07-23T19:45:03.987Z","","","","","","","","","","","AttribQ","","50","","","","","","","","","","","","","","","","","","","","","","","","","","","","",""
"3603","","<div style=""width:500px;"">
  <p>How much control did you have over the ball?</p>
  </div>","14","html-slider-response","36","532980","0.0-5.0-2.5","233","1","2025-07-23 19:35:46","1f75c3e559b7213887762d5229550c2b","51.19.161.91","Mozilla/5.0 (Windows NT 10.0; Win64; x64) AppleWebKit/537.36 (KHTML, like Gecko) Chrome/138.0.0.0 Safari/537.36","WebKit","Chrome","138.0.0.0","Windows","10.0","https://app.prolific.com/","en-GB,en-US;q=0.9,en;q=0.8","59dd90f6e75b450001a68dac","683db9eb0562dbf637994deb","6881396ce6af8750464c6826","2","1","59dd90f6e75b450001a68dac","2","1","2025-07-23T19:45:07.591Z","","","","","","","","","","","ControlQ","","50","","","","","","","","","","","","","","","","","","","","","","","","","","","","",""
"4353","","<div style=""width:500px;"">
  <p>How would you describe your current emotional state?</p>
  </div>","31","html-slider-response","37","537334","0.0-5.0-3.5","233","1","2025-07-23 19:35:46","1f75c3e559b7213887762d5229550c2b","51.19.161.91","Mozilla/5.0 (Windows NT 10.0; Win64; x64) AppleWebKit/537.36 (KHTML, like Gecko) Chrome/138.0.0.0 Safari/537.36","WebKit","Chrome","138.0.0.0","Windows","10.0","https://app.prolific.com/","en-GB,en-US;q=0.9,en;q=0.8","59dd90f6e75b450001a68dac","683db9eb0562dbf637994deb","6881396ce6af8750464c6826","2","1","59dd90f6e75b450001a68dac","2","1","2025-07-23T19:45:11.945Z","","","","","","","","","","","StressQ","","50","","","","","","","","","","","","","","","","","","","","","","","","","","","","",""
"3009","","<div style=""width:500px;"">
  <p>What best describes how you currently feel?</p>
  </div>","71","html-slider-response","38","540344","0.0-5.0-4.5","233","1","2025-07-23 19:35:46","1f75c3e559b7213887762d5229550c2b","51.19.161.91","Mozilla/5.0 (Windows NT 10.0; Win64; x64) AppleWebKit/537.36 (KHTML, like Gecko) Chrome/138.0.0.0 Safari/537.36","WebKit","Chrome","138.0.0.0","Windows","10.0","https://app.prolific.com/","en-GB,en-US;q=0.9,en;q=0.8","59dd90f6e75b450001a68dac","683db9eb0562dbf637994deb","6881396ce6af8750464c6826","2","1","59dd90f6e75b450001a68dac","2","1","2025-07-23T19:45:14.955Z","","","","","","","","","","","MotivationQ","","50","","","","","","","","","","","","","","","","","","","","","","","","","","","","",""
"","","","","ctl-task-cpt","39","572083","0.0-5.0-0.6","233","1","2025-07-23 19:35:46","1f75c3e559b7213887762d5229550c2b","51.19.161.91","Mozilla/5.0 (Windows NT 10.0; Win64; x64) AppleWebKit/537.36 (KHTML, like Gecko) Chrome/138.0.0.0 Safari/537.36","WebKit","Chrome","138.0.0.0","Windows","10.0","https://app.prolific.com/","en-GB,en-US;q=0.9,en;q=0.8","59dd90f6e75b450001a68dac","683db9eb0562dbf637994deb","6881396ce6af8750464c6826","2","1","59dd90f6e75b450001a68dac","2","1","2025-07-23T19:45:46.694Z","","","","","","","","","","","","","","win-only","3","g1:SW,g2:NE","0.4","7","0","571797.4","1936.6","6937.4","28730.7","1","4","4","6","1","-1","-1","12","13","0.09090909090909091","1632.4","3000","-2995","[""down"",""left""]","{""num_key_presses"":7,""num_perfect"":2,""num_errors"":0,""num_randdir"":5,""num_randdir_good_moves"":1,""num_whilered"":0,""num_whileblue"":0,""num_blue"":0,""num_good_moves"":3}","[420.57142857142856,419.47767857142856,0.3,420.57142857142856,419.47767857142856,104.3,420.57142857142856,419.47767857142856,209,421.57142857142856,419.47767857142856,315.6,421.57142857142856,419.47767857142856,419,421.57142857142856,419.47767857142856,519.1,421.57142857142856,419.47767857142856,619.7,300.57142857142856,538.4776785714286,723.7,198.57142857142856,649.4776785714286,824.3,135.57142857142856,688.4776785714286,930,112.57142857142857,705.4776785714286,1034.8,92.57142857142857,728.4776785714286,1135.2,80.57142857142857,748.4776785714286,1238.7,77.57142857142857,752.4776785714286,1339,77.57142857142857,752.4776785714286,1439.5,77.57142857142857,752.4776785714286,1540.2,77.57142857142857,752.4776785714286,1643.7,77.57142857142857,752.4776785714286,1743.8,77.57142857142857,752.4776785714286,1844.4,18.57142857142857,712.4776785714286,1945.2,-347.42857142857144,478.47767857142856,2049.5,-449.42857142857144,445.47767857142856,2150.1,-449.42857142857144,445.47767857142856,2250.5,-449.42857142857144,445.47767857142856,2355.2,-449.42857142857144,445.47767857142856,2455.5,-449.42857142857144,445.47767857142856,2558.6,-449.42857142857144,445.47767857142856,2658.7,-449.42857142857144,445.47767857142856,2759.3,-449.42857142857144,445.47767857142856,2859.8,-449.42857142857144,445.47767857142856,2964.1,-449.42857142857144,445.47767857142856,3069,-449.42857142857144,445.47767857142856,3173.7,-449.42857142857144,445.47767857142856,3274.2,-449.42857142857144,445.47767857142856,3378.8,-449.42857142857144,445.47767857142856,3485.3,-449.42857142857144,445.47767857142856,3588.9,-449.42857142857144,445.47767857142856,3689.8,-449.42857142857144,445.47767857142856,3789.8,-449.42857142857144,445.47767857142856,3893.8,-449.42857142857144,445.47767857142856,3993.8,-449.42857142857144,445.47767857142856,4095.3,-449.42857142857144,445.47767857142856,4199.5,-449.42857142857144,445.47767857142856,4299.6,-449.42857142857144,445.47767857142856,4400.5,-449.42857142857144,445.47767857142856,4503.8,-449.42857142857144,445.47767857142856,4604.7,-449.42857142857144,445.47767857142856,4708.8,-449.42857142857144,445.47767857142856,4809.4,-449.42857142857144,445.47767857142856,4913.6]","[1437.9,1437.9,1000,0,437.9,""oops"",""left"",""left"",""good_move"",4942.6,3504.5,3117.4,1438.2,387.1,""smooth"",""left"",""left"",""good_move"",7577.2,2634.4,2229.5,4942.8,404.9,""oops"",""down"",""right"",""bad_move"",9933.9,2356.3,1958.4,7577.7,397.8,""oops"",""left"",""up"",""bad_move"",13113.5,3179.4,2796.4,9934.1,383,""smooth"",""down"",""down"",""good_move"",15413.7,2299.8,1937.8,13113.9,362,""oops"",""down"",""right"",""bad_move"",18366.2,2952.3,2561.1,15413.9,391.2,""oops"",""down"",""up"",""bad_move""]","",""
"2290","","<div style=""width:500px;"">
  <p>What determined the result of this run?</p>
  </div>","0","html-slider-response","40","574375","0.0-5.0-1.6","233","1","2025-07-23 19:35:46","1f75c3e559b7213887762d5229550c2b","51.19.161.91","Mozilla/5.0 (Windows NT 10.0; Win64; x64) AppleWebKit/537.36 (KHTML, like Gecko) Chrome/138.0.0.0 Safari/537.36","WebKit","Chrome","138.0.0.0","Windows","10.0","https://app.prolific.com/","en-GB,en-US;q=0.9,en;q=0.8","59dd90f6e75b450001a68dac","683db9eb0562dbf637994deb","6881396ce6af8750464c6826","2","1","59dd90f6e75b450001a68dac","2","1","2025-07-23T19:45:48.986Z","","","","","","","","","","","AttribQ","","50","","","","","","","","","","","","","","","","","","","","","","","","","","","","",""
"2501","","<div style=""width:500px;"">
  <p>How much control did you have over the ball?</p>
  </div>","0","html-slider-response","41","576877","0.0-5.0-2.6","233","1","2025-07-23 19:35:46","1f75c3e559b7213887762d5229550c2b","51.19.161.91","Mozilla/5.0 (Windows NT 10.0; Win64; x64) AppleWebKit/537.36 (KHTML, like Gecko) Chrome/138.0.0.0 Safari/537.36","WebKit","Chrome","138.0.0.0","Windows","10.0","https://app.prolific.com/","en-GB,en-US;q=0.9,en;q=0.8","59dd90f6e75b450001a68dac","683db9eb0562dbf637994deb","6881396ce6af8750464c6826","2","1","59dd90f6e75b450001a68dac","2","1","2025-07-23T19:45:51.488Z","","","","","","","","","","","ControlQ","","50","","","","","","","","","","","","","","","","","","","","","","","","","","","","",""
"3117","","<div style=""width:500px;"">
  <p>How would you describe your current emotional state?</p>
  </div>","39","html-slider-response","42","579995","0.0-5.0-3.6","233","1","2025-07-23 19:35:46","1f75c3e559b7213887762d5229550c2b","51.19.161.91","Mozilla/5.0 (Windows NT 10.0; Win64; x64) AppleWebKit/537.36 (KHTML, like Gecko) Chrome/138.0.0.0 Safari/537.36","WebKit","Chrome","138.0.0.0","Windows","10.0","https://app.prolific.com/","en-GB,en-US;q=0.9,en;q=0.8","59dd90f6e75b450001a68dac","683db9eb0562dbf637994deb","6881396ce6af8750464c6826","2","1","59dd90f6e75b450001a68dac","2","1","2025-07-23T19:45:54.606Z","","","","","","","","","","","StressQ","","50","","","","","","","","","","","","","","","","","","","","","","","","","","","","",""
"2269","","<div style=""width:500px;"">
  <p>What best describes how you currently feel?</p>
  </div>","59","html-slider-response","43","582264","0.0-5.0-4.6","233","1","2025-07-23 19:35:46","1f75c3e559b7213887762d5229550c2b","51.19.161.91","Mozilla/5.0 (Windows NT 10.0; Win64; x64) AppleWebKit/537.36 (KHTML, like Gecko) Chrome/138.0.0.0 Safari/537.36","WebKit","Chrome","138.0.0.0","Windows","10.0","https://app.prolific.com/","en-GB,en-US;q=0.9,en;q=0.8","59dd90f6e75b450001a68dac","683db9eb0562dbf637994deb","6881396ce6af8750464c6826","2","1","59dd90f6e75b450001a68dac","2","1","2025-07-23T19:45:56.875Z","","","","","","","","","","","MotivationQ","","50","","","","","","","","","","","","","","","","","","","","","","","","","","","","",""
"","","","","ctl-task-cpt","44","627801","0.0-5.0-0.7","233","1","2025-07-23 19:35:46","1f75c3e559b7213887762d5229550c2b","51.19.161.91","Mozilla/5.0 (Windows NT 10.0; Win64; x64) AppleWebKit/537.36 (KHTML, like Gecko) Chrome/138.0.0.0 Safari/537.36","WebKit","Chrome","138.0.0.0","Windows","10.0","https://app.prolific.com/","en-GB,en-US;q=0.9,en;q=0.8","59dd90f6e75b450001a68dac","683db9eb0562dbf637994deb","6881396ce6af8750464c6826","2","1","59dd90f6e75b450001a68dac","2","1","2025-07-23T19:46:42.412Z","","","","","","","","","","","","","","win-only","2","g1:SE,g2:NW","0.3","8","0","613716.6","1179.6","6184.4","42510.6","1","4","8","6","2","-8","-8","4","12","0.030303030303030304","1098","3000","-2705","[""left"",""up""]","{""num_key_presses"":7,""num_perfect"":3,""num_errors"":0,""num_randdir"":4,""num_randdir_good_moves"":1,""num_whilered"":0,""num_whileblue"":0,""num_blue"":5,""num_good_moves"":4}","[414.57142857142856,421.47767857142856,0.2,414.57142857142856,421.47767857142856,102.2,406.57142857142856,422.47767857142856,206.4,406.57142857142856,422.47767857142856,307.1,406.57142857142856,422.47767857142856,413.3,406.57142857142856,422.47767857142856,515.7,378.57142857142856,403.47767857142856,616.4,108.57142857142857,194.47767857142856,722.1,74.57142857142857,157.47767857142856,822.2,68.57142857142857,127.47767857142857,926.4,62.57142857142857,103.47767857142857,1030.7,68.57142857142857,94.47767857142857,1131.1,68.57142857142857,94.47767857142857,1232.1,-162.42857142857144,111.47767857142857,1338.7,-281.42857142857144,111.47767857142857,1440.7,-281.42857142857144,111.47767857142857,1545.9,-281.42857142857144,111.47767857142857,1646.1,-281.42857142857144,111.47767857142857,1746.5,-281.42857142857144,111.47767857142857,1846.8,-281.42857142857144,111.47767857142857,1947.3,-281.42857142857144,111.47767857142857,2054.9,-281.42857142857144,111.47767857142857,2155,-281.42857142857144,111.47767857142857,2256.5,-281.42857142857144,111.47767857142857,2361.8,-281.42857142857144,111.47767857142857,2471.7,-281.42857142857144,111.47767857142857,2571.7,-281.42857142857144,111.47767857142857,2676.1,-281.42857142857144,111.47767857142857,2776.2,-281.42857142857144,111.47767857142857,2881.3,-281.42857142857144,111.47767857142857,2981.3,-281.42857142857144,111.47767857142857,3088,-281.42857142857144,111.47767857142857,3189.3,-281.42857142857144,111.47767857142857,3291.4,-281.42857142857144,111.47767857142857,3395.6,-281.42857142857144,111.47767857142857,3496.3,-281.42857142857144,111.47767857142857,3606.1,-281.42857142857144,111.47767857142857,3710.5,-281.42857142857144,111.47767857142857,3811.5,-281.42857142857144,111.47767857142857,3922.5,-281.42857142857144,111.47767857142857,4026.8,-281.42857142857144,111.47767857142857,4130.9,-281.42857142857144,111.47767857142857,4232.3,-281.42857142857144,111.47767857142857,4338,-281.42857142857144,111.47767857142857,4438,-281.42857142857144,111.47767857142857,4538.6,-281.42857142857144,111.47767857142857,4643.1,-281.42857142857144,111.47767857142857,4747.7,-281.42857142857144,111.47767857142857,4855.3,-281.42857142857144,111.47767857142857,4955.6]","[1400.1,1400.1,1000,0,400.1,""smooth"",""left"",""left"",""good_move"",3951.8,2551.3,2178.5,1400.5,372.8,""oops"",""left"",""down"",""bad_move"",13040.1,9088,1733.6,10927.2,379.3,""oops"",""left"",""down"",""bad_move"",18720.2,5679.8,2044.8,16241.8,433.6,""smooth"",""left"",""left"",""good_move"",21514.7,2794.2,2383.8,18720.6,410.4,""smooth"",""left"",""left"",""good_move"",23776.2,2261.3,1880.5,21514.9,380.8,""oops"",""up"",""up"",""good_move"",30919.6,7143.2,2900.8,27601,417.8,""oops"",""up"",""right"",""bad_move""]","",""
"4126","","<div style=""width:500px;"">
  <p>What determined the result of this run?</p>
  </div>","59","html-slider-response","45","631928","0.0-5.0-1.7","233","1","2025-07-23 19:35:46","1f75c3e559b7213887762d5229550c2b","51.19.161.91","Mozilla/5.0 (Windows NT 10.0; Win64; x64) AppleWebKit/537.36 (KHTML, like Gecko) Chrome/138.0.0.0 Safari/537.36","WebKit","Chrome","138.0.0.0","Windows","10.0","https://app.prolific.com/","en-GB,en-US;q=0.9,en;q=0.8","59dd90f6e75b450001a68dac","683db9eb0562dbf637994deb","6881396ce6af8750464c6826","2","1","59dd90f6e75b450001a68dac","2","1","2025-07-23T19:46:46.539Z","","","","","","","","","","","AttribQ","","50","","","","","","","","","","","","","","","","","","","","","","","","","","","","",""
"2907","","<div style=""width:500px;"">
  <p>How much control did you have over the ball?</p>
  </div>","8","html-slider-response","46","634836","0.0-5.0-2.7","233","1","2025-07-23 19:35:46","1f75c3e559b7213887762d5229550c2b","51.19.161.91","Mozilla/5.0 (Windows NT 10.0; Win64; x64) AppleWebKit/537.36 (KHTML, like Gecko) Chrome/138.0.0.0 Safari/537.36","WebKit","Chrome","138.0.0.0","Windows","10.0","https://app.prolific.com/","en-GB,en-US;q=0.9,en;q=0.8","59dd90f6e75b450001a68dac","683db9eb0562dbf637994deb","6881396ce6af8750464c6826","2","1","59dd90f6e75b450001a68dac","2","1","2025-07-23T19:46:49.447Z","","","","","","","","","","","ControlQ","","50","","","","","","","","","","","","","","","","","","","","","","","","","","","","",""
"2122","","<div style=""width:500px;"">
  <p>How would you describe your current emotional state?</p>
  </div>","66","html-slider-response","47","636959","0.0-5.0-3.7","233","1","2025-07-23 19:35:46","1f75c3e559b7213887762d5229550c2b","51.19.161.91","Mozilla/5.0 (Windows NT 10.0; Win64; x64) AppleWebKit/537.36 (KHTML, like Gecko) Chrome/138.0.0.0 Safari/537.36","WebKit","Chrome","138.0.0.0","Windows","10.0","https://app.prolific.com/","en-GB,en-US;q=0.9,en;q=0.8","59dd90f6e75b450001a68dac","683db9eb0562dbf637994deb","6881396ce6af8750464c6826","2","1","59dd90f6e75b450001a68dac","2","1","2025-07-23T19:46:51.570Z","","","","","","","","","","","StressQ","","50","","","","","","","","","","","","","","","","","","","","","","","","","","","","",""
"2178","","<div style=""width:500px;"">
  <p>What best describes how you currently feel?</p>
  </div>","32","html-slider-response","48","639137","0.0-5.0-4.7","233","1","2025-07-23 19:35:46","1f75c3e559b7213887762d5229550c2b","51.19.161.91","Mozilla/5.0 (Windows NT 10.0; Win64; x64) AppleWebKit/537.36 (KHTML, like Gecko) Chrome/138.0.0.0 Safari/537.36","WebKit","Chrome","138.0.0.0","Windows","10.0","https://app.prolific.com/","en-GB,en-US;q=0.9,en;q=0.8","59dd90f6e75b450001a68dac","683db9eb0562dbf637994deb","6881396ce6af8750464c6826","2","1","59dd90f6e75b450001a68dac","2","1","2025-07-23T19:46:53.748Z","","","","","","","","","","","MotivationQ","","50","","","","","","","","","","","","","","","","","","","","","","","","","","","","",""
"","","","","ctl-task-cpt","49","681769","0.0-5.0-0.8","233","1","2025-07-23 19:35:46","1f75c3e559b7213887762d5229550c2b","51.19.161.91","Mozilla/5.0 (Windows NT 10.0; Win64; x64) AppleWebKit/537.36 (KHTML, like Gecko) Chrome/138.0.0.0 Safari/537.36","WebKit","Chrome","138.0.0.0","Windows","10.0","https://app.prolific.com/","en-GB,en-US;q=0.9,en;q=0.8","59dd90f6e75b450001a68dac","683db9eb0562dbf637994deb","6881396ce6af8750464c6826","2","1","59dd90f6e75b450001a68dac","2","1","2025-07-23T19:47:36.380Z","","","","","","","","","","","","","","win-only","2","g1:SE,g2:NW","0.2","9","0","670588.7","681.4","5685.4","39621.9","1","4","4","6","1","-1","-1","3","4","0.022727272727272728","1271","3000","-2695","[""down"",""right""]","{""num_key_presses"":7,""num_perfect"":1,""num_errors"":0,""num_randdir"":6,""num_randdir_good_moves"":3,""num_whilered"":0,""num_whileblue"":0,""num_blue"":3,""num_good_moves"":4}","[414.57142857142856,416.47767857142856,0.1,414.57142857142856,416.47767857142856,100.8,415.57142857142856,416.47767857142856,204.5,415.57142857142856,416.47767857142856,304.6,415.57142857142856,416.47767857142856,410.2,415.57142857142856,416.47767857142856,515.9,415.57142857142856,416.47767857142856,619.6,415.57142857142856,416.47767857142856,724.1,415.57142857142856,416.47767857142856,825,578.5714285714286,560.4776785714286,925.7,714.5714285714286,699.4776785714286,1030.2,730.5714285714286,708.4776785714286,1132,752.5714285714286,741.4776785714286,1233.1,755.5714285714286,746.4776785714286,1334.7,755.5714285714286,746.4776785714286,1434.9,755.5714285714286,745.4776785714286,1535,754.5714285714286,745.4776785714286,1639.8,754.5714285714286,745.4776785714286,1745,754.5714285714286,745.4776785714286,1845.8,754.5714285714286,745.4776785714286,1949.1,754.5714285714286,745.4776785714286,2049.1,754.5714285714286,745.4776785714286,2149.1,752.5714285714286,745.4776785714286,2255.4,806.5714285714286,659.4776785714286,2361.3,1017.5714285714286,538.4776785714286,2464.2,1030.5714285714287,532.4776785714286,2566.6,1030.5714285714287,532.4776785714286,2669.5,1030.5714285714287,532.4776785714286,2769.9,1030.5714285714287,532.4776785714286,2870.2,1030.5714285714287,532.4776785714286,2973.8,1030.5714285714287,532.4776785714286,3074.7,1030.5714285714287,532.4776785714286,3174.8,1030.5714285714287,532.4776785714286,3279.9,1030.5714285714287,532.4776785714286,3380.1,1030.5714285714287,532.4776785714286,3480.4,1030.5714285714287,532.4776785714286,3584.2,1030.5714285714287,532.4776785714286,3686.5,1030.5714285714287,532.4776785714286,3789.5,1030.5714285714287,532.4776785714286,3889.9,1030.5714285714287,532.4776785714286,3994.9,1030.5714285714287,532.4776785714286,4097.1,1030.5714285714287,532.4776785714286,4199.3,1030.5714285714287,532.4776785714286,4304.3,1030.5714285714287,532.4776785714286,4404.8,1030.5714285714287,532.4776785714286,4509.2,1030.5714285714287,532.4776785714286,4609.5,1030.5714285714287,532.4776785714286,4710.2,1030.5714285714287,532.4776785714286,4814.9,1030.5714285714287,532.4776785714286,4920]","[4994.8,4994.8,2589.9,2006.2,398.7,""oops"",""down"",""left"",""bad_move"",8218.1,3222.8,2751.9,4995.3,470.9,""smooth"",""down"",""down"",""good_move"",10826.6,2608.3,2170.6,8218.3,437.7,""oops"",""down"",""right"",""good_move"",13859.5,3032.5,2590.6,10827,441.9,""oops"",""down"",""down"",""good_move"",17299.1,3439.4,3028.9,13859.7,410.5,""oops"",""right"",""up"",""bad_move"",23778.2,6478.8,2602,20761.2,415,""oops"",""right"",""left"",""bad_move"",26634.9,2856.4,2385,23778.5,471.4,""oops"",""right"",""right"",""good_move""]","",""
"2070","","<div style=""width:500px;"">
  <p>What determined the result of this run?</p>
  </div>","0","html-slider-response","50","683839","0.0-5.0-1.8","233","1","2025-07-23 19:35:46","1f75c3e559b7213887762d5229550c2b","51.19.161.91","Mozilla/5.0 (Windows NT 10.0; Win64; x64) AppleWebKit/537.36 (KHTML, like Gecko) Chrome/138.0.0.0 Safari/537.36","WebKit","Chrome","138.0.0.0","Windows","10.0","https://app.prolific.com/","en-GB,en-US;q=0.9,en;q=0.8","59dd90f6e75b450001a68dac","683db9eb0562dbf637994deb","6881396ce6af8750464c6826","2","1","59dd90f6e75b450001a68dac","2","1","2025-07-23T19:47:38.450Z","","","","","","","","","","","AttribQ","","50","","","","","","","","","","","","","","","","","","","","","","","","","","","","",""
"1609","","<div style=""width:500px;"">
  <p>How much control did you have over the ball?</p>
  </div>","6","html-slider-response","51","685449","0.0-5.0-2.8","233","1","2025-07-23 19:35:46","1f75c3e559b7213887762d5229550c2b","51.19.161.91","Mozilla/5.0 (Windows NT 10.0; Win64; x64) AppleWebKit/537.36 (KHTML, like Gecko) Chrome/138.0.0.0 Safari/537.36","WebKit","Chrome","138.0.0.0","Windows","10.0","https://app.prolific.com/","en-GB,en-US;q=0.9,en;q=0.8","59dd90f6e75b450001a68dac","683db9eb0562dbf637994deb","6881396ce6af8750464c6826","2","1","59dd90f6e75b450001a68dac","2","1","2025-07-23T19:47:40.060Z","","","","","","","","","","","ControlQ","","50","","","","","","","","","","","","","","","","","","","","","","","","","","","","",""
"2363","","<div style=""width:500px;"">
  <p>How would you describe your current emotional state?</p>
  </div>","75","html-slider-response","52","687814","0.0-5.0-3.8","233","1","2025-07-23 19:35:46","1f75c3e559b7213887762d5229550c2b","51.19.161.91","Mozilla/5.0 (Windows NT 10.0; Win64; x64) AppleWebKit/537.36 (KHTML, like Gecko) Chrome/138.0.0.0 Safari/537.36","WebKit","Chrome","138.0.0.0","Windows","10.0","https://app.prolific.com/","en-GB,en-US;q=0.9,en;q=0.8","59dd90f6e75b450001a68dac","683db9eb0562dbf637994deb","6881396ce6af8750464c6826","2","1","59dd90f6e75b450001a68dac","2","1","2025-07-23T19:47:42.425Z","","","","","","","","","","","StressQ","","50","","","","","","","","","","","","","","","","","","","","","","","","","","","","",""
"3103","","<div style=""width:500px;"">
  <p>What best describes how you currently feel?</p>
  </div>","44","html-slider-response","53","690918","0.0-5.0-4.8","233","1","2025-07-23 19:35:46","1f75c3e559b7213887762d5229550c2b","51.19.161.91","Mozilla/5.0 (Windows NT 10.0; Win64; x64) AppleWebKit/537.36 (KHTML, like Gecko) Chrome/138.0.0.0 Safari/537.36","WebKit","Chrome","138.0.0.0","Windows","10.0","https://app.prolific.com/","en-GB,en-US;q=0.9,en;q=0.8","59dd90f6e75b450001a68dac","683db9eb0562dbf637994deb","6881396ce6af8750464c6826","2","1","59dd90f6e75b450001a68dac","2","1","2025-07-23T19:47:45.529Z","","","","","","","","","","","MotivationQ","","50","","","","","","","","","","","","","","","","","","","","","","","","","","","","",""
"","","","","ctl-task-cpt","54","733408","0.0-5.0-0.9","233","1","2025-07-23 19:35:46","1f75c3e559b7213887762d5229550c2b","51.19.161.91","Mozilla/5.0 (Windows NT 10.0; Win64; x64) AppleWebKit/537.36 (KHTML, like Gecko) Chrome/138.0.0.0 Safari/537.36","WebKit","Chrome","138.0.0.0","Windows","10.0","https://app.prolific.com/","en-GB,en-US;q=0.9,en;q=0.8","59dd90f6e75b450001a68dac","683db9eb0562dbf637994deb","6881396ce6af8750464c6826","2","1","59dd90f6e75b450001a68dac","2","1","2025-07-23T19:48:28.019Z","","","","","","","","","","","","","","win-only","3","g1:SW,g2:NE","0.4","10","0","722368.7","789.3","5791.2","39470.9","1","4","8","6","2","-8","-8","0","3","0","1536","3000","-2680","[""up"",""right""]","{""num_key_presses"":7,""num_perfect"":4,""num_errors"":0,""num_randdir"":3,""num_randdir_good_moves"":0,""num_whilered"":0,""num_whileblue"":0,""num_blue"":3,""num_good_moves"":4}","[419.57142857142856,421.47767857142856,0.2,419.57142857142856,421.47767857142856,103.5,419.57142857142856,421.47767857142856,206.3,419.57142857142856,421.47767857142856,308.5,419.57142857142856,421.47767857142856,412.2,419.57142857142856,421.47767857142856,512.6,419.57142857142856,421.47767857142856,616.7,509.57142857142856,326.47767857142856,716.9,555.5714285714286,278.47767857142856,822.9,571.5714285714286,259.47767857142856,927.8,674.5714285714286,186.47767857142856,1029.6,739.5714285714286,137.47767857142856,1131.6,747.5714285714286,130.47767857142856,1232.3,747.5714285714286,130.47767857142856,1337.8,747.5714285714286,130.47767857142856,1444.2,747.5714285714286,130.47767857142856,1547.3,747.5714285714286,130.47767857142856,1647.5,743.5714285714286,128.47767857142856,1752,733.5714285714286,139.47767857142856,1858.4,492.57142857142856,143.47767857142856,1962.7,10.57142857142857,206.47767857142856,2067.8,0.5714285714285694,209.47767857142856,2168.1,-6.428571428571431,211.47767857142856,2272.6,-15.42857142857143,212.47767857142856,2374.5,-15.42857142857143,212.47767857142856,2478.4,-15.42857142857143,212.47767857142856,2583.2,-15.42857142857143,212.47767857142856,2686.6,-15.42857142857143,212.47767857142856,2786.7,-15.42857142857143,212.47767857142856,2894,-15.42857142857143,212.47767857142856,2994,-15.42857142857143,212.47767857142856,3096.8,-15.42857142857143,212.47767857142856,3196.9,-15.42857142857143,212.47767857142856,3297.5,-15.42857142857143,212.47767857142856,3397.6,-15.42857142857143,212.47767857142856,3503.1,-15.42857142857143,212.47767857142856,3611.3,-15.42857142857143,212.47767857142856,3718.3,-15.42857142857143,212.47767857142856,3826.9,-15.42857142857143,212.47767857142856,3927.7,-15.42857142857143,212.47767857142856,4028.5,-15.42857142857143,212.47767857142856,4131.3,-15.42857142857143,212.47767857142856,4231.8,-15.42857142857143,212.47767857142856,4337.8,-15.42857142857143,212.47767857142856,4441.2,-15.42857142857143,212.47767857142856,4544.3,-15.42857142857143,212.47767857142856,4644.3,-15.42857142857143,212.47767857142856,4747.6,-15.42857142857143,212.47767857142856,4852.2,-15.42857142857143,212.47767857142856,4960.2]","[1461,1461,1000,0,461,""smooth"",""up"",""up"",""good_move"",7325.1,5863.6,2347.1,4545.1,432.9,""smooth"",""up"",""up"",""good_move"",10892.5,3567.2,3175.3,7325.3,391.9,""smooth"",""up"",""up"",""good_move"",16828.4,5935.5,2759.7,13649.9,418.8,""smooth"",""right"",""right"",""good_move"",23789.7,6961.1,2668,20708.8,412.9,""oops"",""right"",""left"",""bad_move"",27457,3667.1,3277.1,23789.9,390,""oops"",""right"",""down"",""bad_move"",30685.2,3227.8,2814.2,27457.4,413.6,""oops"",""right"",""left"",""bad_move""]","",""
"2099","","<div style=""width:500px;"">
  <p>What determined the result of this run?</p>
  </div>","55","html-slider-response","55","735508","0.0-5.0-1.9","233","1","2025-07-23 19:35:46","1f75c3e559b7213887762d5229550c2b","51.19.161.91","Mozilla/5.0 (Windows NT 10.0; Win64; x64) AppleWebKit/537.36 (KHTML, like Gecko) Chrome/138.0.0.0 Safari/537.36","WebKit","Chrome","138.0.0.0","Windows","10.0","https://app.prolific.com/","en-GB,en-US;q=0.9,en;q=0.8","59dd90f6e75b450001a68dac","683db9eb0562dbf637994deb","6881396ce6af8750464c6826","2","1","59dd90f6e75b450001a68dac","2","1","2025-07-23T19:48:30.119Z","","","","","","","","","","","AttribQ","","50","","","","","","","","","","","","","","","","","","","","","","","","","","","","",""
"2786","","<div style=""width:500px;"">
  <p>How much control did you have over the ball?</p>
  </div>","19","html-slider-response","56","738295","0.0-5.0-2.9","233","1","2025-07-23 19:35:46","1f75c3e559b7213887762d5229550c2b","51.19.161.91","Mozilla/5.0 (Windows NT 10.0; Win64; x64) AppleWebKit/537.36 (KHTML, like Gecko) Chrome/138.0.0.0 Safari/537.36","WebKit","Chrome","138.0.0.0","Windows","10.0","https://app.prolific.com/","en-GB,en-US;q=0.9,en;q=0.8","59dd90f6e75b450001a68dac","683db9eb0562dbf637994deb","6881396ce6af8750464c6826","2","1","59dd90f6e75b450001a68dac","2","1","2025-07-23T19:48:32.906Z","","","","","","","","","","","ControlQ","","50","","","","","","","","","","","","","","","","","","","","","","","","","","","","",""
"3084","","<div style=""width:500px;"">
  <p>How would you describe your current emotional state?</p>
  </div>","86","html-slider-response","57","741380","0.0-5.0-3.9","233","1","2025-07-23 19:35:46","1f75c3e559b7213887762d5229550c2b","51.19.161.91","Mozilla/5.0 (Windows NT 10.0; Win64; x64) AppleWebKit/537.36 (KHTML, like Gecko) Chrome/138.0.0.0 Safari/537.36","WebKit","Chrome","138.0.0.0","Windows","10.0","https://app.prolific.com/","en-GB,en-US;q=0.9,en;q=0.8","59dd90f6e75b450001a68dac","683db9eb0562dbf637994deb","6881396ce6af8750464c6826","2","1","59dd90f6e75b450001a68dac","2","1","2025-07-23T19:48:35.991Z","","","","","","","","","","","StressQ","","50","","","","","","","","","","","","","","","","","","","","","","","","","","","","",""
"2037","","<div style=""width:500px;"">
  <p>What best describes how you currently feel?</p>
  </div>","33","html-slider-response","58","743418","0.0-5.0-4.9","233","1","2025-07-23 19:35:46","1f75c3e559b7213887762d5229550c2b","51.19.161.91","Mozilla/5.0 (Windows NT 10.0; Win64; x64) AppleWebKit/537.36 (KHTML, like Gecko) Chrome/138.0.0.0 Safari/537.36","WebKit","Chrome","138.0.0.0","Windows","10.0","https://app.prolific.com/","en-GB,en-US;q=0.9,en;q=0.8","59dd90f6e75b450001a68dac","683db9eb0562dbf637994deb","6881396ce6af8750464c6826","2","1","59dd90f6e75b450001a68dac","2","1","2025-07-23T19:48:38.029Z","","","","","","","","","","","MotivationQ","","50","","","","","","","","","","","","","","","","","","","","","","","","","","","","",""
"","","","","ctl-task-cpt","59","765854","0.0-5.0-0.10","233","1","2025-07-23 19:35:46","1f75c3e559b7213887762d5229550c2b","51.19.161.91","Mozilla/5.0 (Windows NT 10.0; Win64; x64) AppleWebKit/537.36 (KHTML, like Gecko) Chrome/138.0.0.0 Safari/537.36","WebKit","Chrome","138.0.0.0","Windows","10.0","https://app.prolific.com/","en-GB,en-US;q=0.9,en;q=0.8","59dd90f6e75b450001a68dac","683db9eb0562dbf637994deb","6881396ce6af8750464c6826","2","1","59dd90f6e75b450001a68dac","2","1","2025-07-23T19:49:00.465Z","","","","","","","","","","","","","","win-only","3","g1:SW,g2:NE","0.5","11","0","774868.1","866.7","5872.3","19425.8","1","4","4","6","1","1","1","1","0","0.007575757575757576","1665.9","3000","1490","[""down"",""left""]","{""num_key_presses"":4,""num_perfect"":3,""num_errors"":0,""num_randdir"":1,""num_randdir_good_moves"":1,""num_whilered"":0,""num_whileblue"":0,""num_blue"":1,""num_good_moves"":4}","[419.57142857142856,410.47767857142856,0.2,419.57142857142856,411.47767857142856,100.4,419.57142857142856,411.47767857142856,204.4,419.57142857142856,411.47767857142856,308.8,419.57142857142856,411.47767857142856,416.8,419.57142857142856,411.47767857142856,519,385.57142857142856,444.47767857142856,624.5,148.57142857142856,657.4776785714286,724.5,126.57142857142857,698.4776785714286,826.1,126.57142857142857,698.4776785714286,933.4,106.57142857142857,737.4776785714286,1034.5,96.57142857142857,756.4776785714286,1139.1,96.57142857142857,756.4776785714286,1244.7,96.57142857142857,756.4776785714286,1352.4,96.57142857142857,756.4776785714286,1454.6,96.57142857142857,756.4776785714286,1559.2,96.57142857142857,756.4776785714286,1659.3,96.57142857142857,756.4776785714286,1766.5,72.57142857142857,732.4776785714286,1867.4,-76.42857142857143,620.4776785714286,1968.1,-349.42857142857144,500.47767857142856,2069.9,-421.42857142857144,486.47767857142856,2174,-421.42857142857144,486.47767857142856,2275,-421.42857142857144,486.47767857142856,2383.1,-421.42857142857144,486.47767857142856,2483.7,-421.42857142857144,486.47767857142856,2583.9,-421.42857142857144,486.47767857142856,2688.7,-421.42857142857144,486.47767857142856,2789.1,-421.42857142857144,486.47767857142856,2893.6,-421.42857142857144,486.47767857142856,3000.3,-421.42857142857144,486.47767857142856,3104.9,-421.42857142857144,486.47767857142856,3205,-421.42857142857144,486.47767857142856,3308.8,-421.42857142857144,486.47767857142856,3409.5,-421.42857142857144,486.47767857142856,3517.3,-421.42857142857144,486.47767857142856,3618,-421.42857142857144,486.47767857142856,3719.1,-421.42857142857144,486.47767857142856,3823.6,-421.42857142857144,486.47767857142856,3925.2,-421.42857142857144,486.47767857142856,4025.2,-421.42857142857144,486.47767857142856,4133.6,-421.42857142857144,486.47767857142856,4234,-421.42857142857144,486.47767857142856,4338.7,-421.42857142857144,486.47767857142856,4450,-421.42857142857144,486.47767857142856,4551.4,-421.42857142857144,486.47767857142856,4654.1,-421.42857142857144,486.47767857142856,4754.2,-421.42857142857144,486.47767857142856,4854.3,-421.42857142857144,486.47767857142856,4954.9]","[1511.4,1511.5,1000,0,511.5,""smooth"",""down"",""down"",""good_move"",4200.4,2688.5,2304.1,1511.9,384.4,""oops"",""down"",""left"",""good_move"",10952.1,6751.3,2821.3,7695.5,435.3,""smooth"",""down"",""down"",""good_move"",13448.1,2495.6,2103.9,10952.5,391.7,""smooth"",""left"",""left"",""good_move""]","",""
"3101","","<div style=""width:500px;"">
  <p>What determined the result of this run?</p>
  </div>","73","html-slider-response","60","768955","0.0-5.0-1.10","233","1","2025-07-23 19:35:46","1f75c3e559b7213887762d5229550c2b","51.19.161.91","Mozilla/5.0 (Windows NT 10.0; Win64; x64) AppleWebKit/537.36 (KHTML, like Gecko) Chrome/138.0.0.0 Safari/537.36","WebKit","Chrome","138.0.0.0","Windows","10.0","https://app.prolific.com/","en-GB,en-US;q=0.9,en;q=0.8","59dd90f6e75b450001a68dac","683db9eb0562dbf637994deb","6881396ce6af8750464c6826","2","1","59dd90f6e75b450001a68dac","2","1","2025-07-23T19:49:03.566Z","","","","","","","","","","","AttribQ","","50","","","","","","","","","","","","","","","","","","","","","","","","","","","","",""
"3247","","<div style=""width:500px;"">
  <p>How much control did you have over the ball?</p>
  </div>","68","html-slider-response","61","772204","0.0-5.0-2.10","233","1","2025-07-23 19:35:46","1f75c3e559b7213887762d5229550c2b","51.19.161.91","Mozilla/5.0 (Windows NT 10.0; Win64; x64) AppleWebKit/537.36 (KHTML, like Gecko) Chrome/138.0.0.0 Safari/537.36","WebKit","Chrome","138.0.0.0","Windows","10.0","https://app.prolific.com/","en-GB,en-US;q=0.9,en;q=0.8","59dd90f6e75b450001a68dac","683db9eb0562dbf637994deb","6881396ce6af8750464c6826","2","1","59dd90f6e75b450001a68dac","2","1","2025-07-23T19:49:06.815Z","","","","","","","","","","","ControlQ","","50","","","","","","","","","","","","","","","","","","","","","","","","","","","","",""
"3499","","<div style=""width:500px;"">
  <p>How would you describe your current emotional state?</p>
  </div>","54","html-slider-response","62","775703","0.0-5.0-3.10","233","1","2025-07-23 19:35:46","1f75c3e559b7213887762d5229550c2b","51.19.161.91","Mozilla/5.0 (Windows NT 10.0; Win64; x64) AppleWebKit/537.36 (KHTML, like Gecko) Chrome/138.0.0.0 Safari/537.36","WebKit","Chrome","138.0.0.0","Windows","10.0","https://app.prolific.com/","en-GB,en-US;q=0.9,en;q=0.8","59dd90f6e75b450001a68dac","683db9eb0562dbf637994deb","6881396ce6af8750464c6826","2","1","59dd90f6e75b450001a68dac","2","1","2025-07-23T19:49:10.314Z","","","","","","","","","","","StressQ","","50","","","","","","","","","","","","","","","","","","","","","","","","","","","","",""
"2230","","<div style=""width:500px;"">
  <p>What best describes how you currently feel?</p>
  </div>","32","html-slider-response","63","777934","0.0-5.0-4.10","233","1","2025-07-23 19:35:46","1f75c3e559b7213887762d5229550c2b","51.19.161.91","Mozilla/5.0 (Windows NT 10.0; Win64; x64) AppleWebKit/537.36 (KHTML, like Gecko) Chrome/138.0.0.0 Safari/537.36","WebKit","Chrome","138.0.0.0","Windows","10.0","https://app.prolific.com/","en-GB,en-US;q=0.9,en;q=0.8","59dd90f6e75b450001a68dac","683db9eb0562dbf637994deb","6881396ce6af8750464c6826","2","1","59dd90f6e75b450001a68dac","2","1","2025-07-23T19:49:12.545Z","","","","","","","","","","","MotivationQ","","50","","","","","","","","","","","","","","","","","","","","","","","","","","","","",""
"","","","","ctl-task-cpt","64","811556","0.0-5.0-0.11","233","1","2025-07-23 19:35:46","1f75c3e559b7213887762d5229550c2b","51.19.161.91","Mozilla/5.0 (Windows NT 10.0; Win64; x64) AppleWebKit/537.36 (KHTML, like Gecko) Chrome/138.0.0.0 Safari/537.36","WebKit","Chrome","138.0.0.0","Windows","10.0","https://app.prolific.com/","en-GB,en-US;q=0.9,en;q=0.8","59dd90f6e75b450001a68dac","683db9eb0562dbf637994deb","6881396ce6af8750464c6826","2","1","59dd90f6e75b450001a68dac","2","1","2025-07-23T19:49:46.167Z","","","","","","","","","","","","","","win-only","0","g1:NW,g2:SE","0.6","12","0","809383.1","681","5686","30596.7","1","4","8","6","2","8","8","9","1","0.06818181818181818","1127.3","3000","160","[""down"",""right""]","{""num_key_presses"":8,""num_perfect"":4,""num_errors"":0,""num_randdir"":4,""num_randdir_good_moves"":3,""num_whilered"":0,""num_whileblue"":0,""num_blue"":1,""num_good_moves"":7}","[412.57142857142856,415.47767857142856,0.3,412.57142857142856,415.47767857142856,106,412.57142857142856,415.47767857142856,209.8,412.57142857142856,415.47767857142856,318.1,412.57142857142856,415.47767857142856,419.2,412.57142857142856,415.47767857142856,520,412.57142857142856,415.47767857142856,624.3,457.57142857142856,443.47767857142856,724.6,665.5714285714286,633.4776785714286,827.2,704.5714285714286,709.4776785714286,930.5,731.5714285714286,725.4776785714286,1034.2,743.5714285714286,748.4776785714286,1140.3,744.5714285714286,750.4776785714286,1244.6,744.5714285714286,748.4776785714286,1344.9,549.5714285714286,686.4776785714286,1454.6,-256.42857142857144,510.47767857142856,1554.9,-476.42857142857144,438.47767857142856,1659.1,-543.4285714285714,423.47767857142856,1760.6,-543.4285714285714,425.47767857142856,1871.8,-543.4285714285714,425.47767857142856,1971.8,-543.4285714285714,425.47767857142856,2074.3,-543.4285714285714,425.47767857142856,2175.2,-543.4285714285714,425.47767857142856,2280,-543.4285714285714,425.47767857142856,2388.7,-543.4285714285714,425.47767857142856,2489.6,-543.4285714285714,425.47767857142856,2590.7,-543.4285714285714,425.47767857142856,2694.5,-543.4285714285714,425.47767857142856,2804.1,-543.4285714285714,425.47767857142856,2904.3,-543.4285714285714,425.47767857142856,3009.4,-543.4285714285714,425.47767857142856,3110.5,-543.4285714285714,425.47767857142856,3221.1,-543.4285714285714,425.47767857142856,3324.2,-543.4285714285714,425.47767857142856,3425,-543.4285714285714,425.47767857142856,3529.8,-543.4285714285714,425.47767857142856,3638.6,-543.4285714285714,425.47767857142856,3739.6,-543.4285714285714,425.47767857142856,3840.8,-543.4285714285714,425.47767857142856,3944.6,-543.4285714285714,425.47767857142856,4044.6,-543.4285714285714,425.47767857142856,4154.5,-543.4285714285714,425.47767857142856,4254.9,-543.4285714285714,425.47767857142856,4359.3,-543.4285714285714,425.47767857142856,4469.9,-543.4285714285714,425.47767857142856,4571.6,-543.4285714285714,425.47767857142856,4675.2,-543.4285714285714,425.47767857142856,4775.2,-543.4285714285714,425.47767857142856,4879.8,-543.4285714285714,425.47767857142856,4979.8]","[1471.4,1471.4,1000,0,471.4,""smooth"",""down"",""down"",""good_move"",4297.2,2825.5,2380.8,1471.7,444.7,""oops"",""down"",""down"",""good_move"",7383.4,3085.9,2684.5,4297.5,401.4,""smooth"",""down"",""down"",""good_move"",10231.4,2847.7,2429,7383.7,418.7,""oops"",""right"",""right"",""good_move"",13135,2903.3,2525.2,10231.7,378.1,""oops"",""right"",""left"",""bad_move"",16248,3112.7,2749.6,13135.3,363.1,""oops"",""right"",""right"",""good_move"",19264.8,3016.4,2624.7,16248.4,391.7,""smooth"",""right"",""right"",""good_move"",24815.5,5550.3,2209.3,22199.1,407.1,""smooth"",""right"",""right"",""good_move""]","",""
"2080","","<div style=""width:500px;"">
  <p>What determined the result of this run?</p>
  </div>","0","html-slider-response","65","813636","0.0-5.0-1.11","233","1","2025-07-23 19:35:46","1f75c3e559b7213887762d5229550c2b","51.19.161.91","Mozilla/5.0 (Windows NT 10.0; Win64; x64) AppleWebKit/537.36 (KHTML, like Gecko) Chrome/138.0.0.0 Safari/537.36","WebKit","Chrome","138.0.0.0","Windows","10.0","https://app.prolific.com/","en-GB,en-US;q=0.9,en;q=0.8","59dd90f6e75b450001a68dac","683db9eb0562dbf637994deb","6881396ce6af8750464c6826","2","1","59dd90f6e75b450001a68dac","2","1","2025-07-23T19:49:48.247Z","","","","","","","","","","","AttribQ","","50","","","","","","","","","","","","","","","","","","","","","","","","","","","","",""
"3663","","<div style=""width:500px;"">
  <p>How much control did you have over the ball?</p>
  </div>","71","html-slider-response","66","817300","0.0-5.0-2.11","233","1","2025-07-23 19:35:46","1f75c3e559b7213887762d5229550c2b","51.19.161.91","Mozilla/5.0 (Windows NT 10.0; Win64; x64) AppleWebKit/537.36 (KHTML, like Gecko) Chrome/138.0.0.0 Safari/537.36","WebKit","Chrome","138.0.0.0","Windows","10.0","https://app.prolific.com/","en-GB,en-US;q=0.9,en;q=0.8","59dd90f6e75b450001a68dac","683db9eb0562dbf637994deb","6881396ce6af8750464c6826","2","1","59dd90f6e75b450001a68dac","2","1","2025-07-23T19:49:51.912Z","","","","","","","","","","","ControlQ","","50","","","","","","","","","","","","","","","","","","","","","","","","","","","","",""
"2591","","<div style=""width:500px;"">
  <p>How would you describe your current emotional state?</p>
  </div>","58","html-slider-response","67","819892","0.0-5.0-3.11","233","1","2025-07-23 19:35:46","1f75c3e559b7213887762d5229550c2b","51.19.161.91","Mozilla/5.0 (Windows NT 10.0; Win64; x64) AppleWebKit/537.36 (KHTML, like Gecko) Chrome/138.0.0.0 Safari/537.36","WebKit","Chrome","138.0.0.0","Windows","10.0","https://app.prolific.com/","en-GB,en-US;q=0.9,en;q=0.8","59dd90f6e75b450001a68dac","683db9eb0562dbf637994deb","6881396ce6af8750464c6826","2","1","59dd90f6e75b450001a68dac","2","1","2025-07-23T19:49:54.503Z","","","","","","","","","","","StressQ","","50","","","","","","","","","","","","","","","","","","","","","","","","","","","","",""
"1758","","<div style=""width:500px;"">
  <p>What best describes how you currently feel?</p>
  </div>","42","html-slider-response","68","821651","0.0-5.0-4.11","233","1","2025-07-23 19:35:46","1f75c3e559b7213887762d5229550c2b","51.19.161.91","Mozilla/5.0 (Windows NT 10.0; Win64; x64) AppleWebKit/537.36 (KHTML, like Gecko) Chrome/138.0.0.0 Safari/537.36","WebKit","Chrome","138.0.0.0","Windows","10.0","https://app.prolific.com/","en-GB,en-US;q=0.9,en;q=0.8","59dd90f6e75b450001a68dac","683db9eb0562dbf637994deb","6881396ce6af8750464c6826","2","1","59dd90f6e75b450001a68dac","2","1","2025-07-23T19:49:56.262Z","","","","","","","","","","","MotivationQ","","50","","","","","","","","","","","","","","","","","","","","","","","","","","","","",""
"","","","","ctl-task-cpt","69","841025","0.0-5.0-0.12","233","1","2025-07-23 19:35:46","1f75c3e559b7213887762d5229550c2b","51.19.161.91","Mozilla/5.0 (Windows NT 10.0; Win64; x64) AppleWebKit/537.36 (KHTML, like Gecko) Chrome/138.0.0.0 Safari/537.36","WebKit","Chrome","138.0.0.0","Windows","10.0","https://app.prolific.com/","en-GB,en-US;q=0.9,en;q=0.8","59dd90f6e75b450001a68dac","683db9eb0562dbf637994deb","6881396ce6af8750464c6826","2","1","59dd90f6e75b450001a68dac","2","1","2025-07-23T19:50:15.636Z","","","","","","","","","","","","","","win-only","2","g1:SE,g2:NW","0.7","13","0","853098.9","1345.2","6354.1","16355.8","1","4","4","6","1","1","1","10","9","0.07575757575757576","1468.1","3000","1450","[""down"",""right""]","{""num_key_presses"":4,""num_perfect"":3,""num_errors"":0,""num_randdir"":1,""num_randdir_good_moves"":1,""num_whilered"":0,""num_whileblue"":0,""num_blue"":0,""num_good_moves"":4}","[410.57142857142856,416.47767857142856,0.2,411.57142857142856,416.47767857142856,104.4,411.57142857142856,416.47767857142856,205.6,411.57142857142856,416.47767857142856,306.4,411.57142857142856,416.47767857142856,410.9,411.57142857142856,416.47767857142856,511.8,369.57142857142856,381.47767857142856,616.1,292.57142857142856,303.47767857142856,720.8,282.57142857142856,293.47767857142856,821.3,273.57142857142856,284.47767857142856,925.4,375.57142857142856,370.47767857142856,1026.4,747.5714285714286,728.4776785714286,1130.6,751.5714285714286,739.4776785714286,1231.1,750.5714285714286,734.4776785714286,1335.3,750.5714285714286,731.4776785714286,1437,750.5714285714286,731.4776785714286,1537.2,750.5714285714286,731.4776785714286,1641,440.57142857142856,621.4776785714286,1745.2,-244.42857142857144,396.47767857142856,1848.1,-346.42857142857144,371.47767857142856,1949.9,-420.42857142857144,353.47767857142856,2051,-469.42857142857144,333.47767857142856,2159.1,-469.42857142857144,333.47767857142856,2260.3,-469.42857142857144,333.47767857142856,2361.8,-469.42857142857144,333.47767857142856,2465.9,-469.42857142857144,333.47767857142856,2565.9,-469.42857142857144,333.47767857142856,2665.9,-469.42857142857144,333.47767857142856,2775.1,-469.42857142857144,333.47767857142856,2880.4,-469.42857142857144,333.47767857142856,2980.8,-469.42857142857144,333.47767857142856,3082,-469.42857142857144,333.47767857142856,3187.6,-469.42857142857144,333.47767857142856,3291.2,-469.42857142857144,333.47767857142856,3395.2,-469.42857142857144,333.47767857142856,3500.7,-469.42857142857144,333.47767857142856,3608.1,-469.42857142857144,333.47767857142856,3709.2,-469.42857142857144,333.47767857142856,3809.4,-469.42857142857144,333.47767857142856,3909.6,-469.42857142857144,333.47767857142856,4010.2,-469.42857142857144,333.47767857142856,4110.4,-469.42857142857144,333.47767857142856,4210.4,-469.42857142857144,333.47767857142856,4315.6,-469.42857142857144,333.47767857142856,4415.8,-469.42857142857144,333.47767857142856,4525.2,-469.42857142857144,333.47767857142856,4625.9,-469.42857142857144,333.47767857142856,4731.5,-469.42857142857144,333.47767857142856,4836.6,-469.42857142857144,333.47767857142856,4941.9]","[1447.4,1447.4,1000,0,447.4,""oops"",""down"",""down"",""good_move"",4455.7,3007.9,2578.2,1447.8,429.7,""smooth"",""down"",""down"",""good_move"",7223.6,2767.6,2372.7,4456.1,394.8,""smooth"",""right"",""right"",""good_move"",9903.2,2679.2,2279.8,7224,399.4,""smooth"",""right"",""right"",""good_move""]","",""
"1731","","<div style=""width:500px;"">
  <p>What determined the result of this run?</p>
  </div>","80","html-slider-response","70","842757","0.0-5.0-1.12","233","1","2025-07-23 19:35:46","1f75c3e559b7213887762d5229550c2b","51.19.161.91","Mozilla/5.0 (Windows NT 10.0; Win64; x64) AppleWebKit/537.36 (KHTML, like Gecko) Chrome/138.0.0.0 Safari/537.36","WebKit","Chrome","138.0.0.0","Windows","10.0","https://app.prolific.com/","en-GB,en-US;q=0.9,en;q=0.8","59dd90f6e75b450001a68dac","683db9eb0562dbf637994deb","6881396ce6af8750464c6826","2","1","59dd90f6e75b450001a68dac","2","1","2025-07-23T19:50:17.368Z","","","","","","","","","","","AttribQ","","50","","","","","","","","","","","","","","","","","","","","","","","","","","","","",""
"2223","","<div style=""width:500px;"">
  <p>How much control did you have over the ball?</p>
  </div>","100","html-slider-response","71","844980","0.0-5.0-2.12","233","1","2025-07-23 19:35:46","1f75c3e559b7213887762d5229550c2b","51.19.161.91","Mozilla/5.0 (Windows NT 10.0; Win64; x64) AppleWebKit/537.36 (KHTML, like Gecko) Chrome/138.0.0.0 Safari/537.36","WebKit","Chrome","138.0.0.0","Windows","10.0","https://app.prolific.com/","en-GB,en-US;q=0.9,en;q=0.8","59dd90f6e75b450001a68dac","683db9eb0562dbf637994deb","6881396ce6af8750464c6826","2","1","59dd90f6e75b450001a68dac","2","1","2025-07-23T19:50:19.592Z","","","","","","","","","","","ControlQ","","50","","","","","","","","","","","","","","","","","","","","","","","","","","","","",""
"3167","","<div style=""width:500px;"">
  <p>How would you describe your current emotional state?</p>
  </div>","45","html-slider-response","72","848148","0.0-5.0-3.12","233","1","2025-07-23 19:35:46","1f75c3e559b7213887762d5229550c2b","51.19.161.91","Mozilla/5.0 (Windows NT 10.0; Win64; x64) AppleWebKit/537.36 (KHTML, like Gecko) Chrome/138.0.0.0 Safari/537.36","WebKit","Chrome","138.0.0.0","Windows","10.0","https://app.prolific.com/","en-GB,en-US;q=0.9,en;q=0.8","59dd90f6e75b450001a68dac","683db9eb0562dbf637994deb","6881396ce6af8750464c6826","2","1","59dd90f6e75b450001a68dac","2","1","2025-07-23T19:50:22.759Z","","","","","","","","","","","StressQ","","50","","","","","","","","","","","","","","","","","","","","","","","","","","","","",""
"2523","","<div style=""width:500px;"">
  <p>What best describes how you currently feel?</p>
  </div>","56","html-slider-response","73","850672","0.0-5.0-4.12","233","1","2025-07-23 19:35:46","1f75c3e559b7213887762d5229550c2b","51.19.161.91","Mozilla/5.0 (Windows NT 10.0; Win64; x64) AppleWebKit/537.36 (KHTML, like Gecko) Chrome/138.0.0.0 Safari/537.36","WebKit","Chrome","138.0.0.0","Windows","10.0","https://app.prolific.com/","en-GB,en-US;q=0.9,en;q=0.8","59dd90f6e75b450001a68dac","683db9eb0562dbf637994deb","6881396ce6af8750464c6826","2","1","59dd90f6e75b450001a68dac","2","1","2025-07-23T19:50:25.283Z","","","","","","","","","","","MotivationQ","","50","","","","","","","","","","","","","","","","","","","","","","","","","","","","",""
"","","","","ctl-task-cpt","74","880673","0.0-5.0-0.13","233","1","2025-07-23 19:35:46","1f75c3e559b7213887762d5229550c2b","51.19.161.91","Mozilla/5.0 (Windows NT 10.0; Win64; x64) AppleWebKit/537.36 (KHTML, like Gecko) Chrome/138.0.0.0 Safari/537.36","WebKit","Chrome","138.0.0.0","Windows","10.0","https://app.prolific.com/","en-GB,en-US;q=0.9,en;q=0.8","59dd90f6e75b450001a68dac","683db9eb0562dbf637994deb","6881396ce6af8750464c6826","2","1","59dd90f6e75b450001a68dac","2","1","2025-07-23T19:50:55.284Z","","","","","","","","","","","","","","win-only","3","g1:SW,g2:NE","0.8","14","0","882120.5","1671.2","6678.1","26980.7","1","4","8","6","2","8","8","18","10","0.13636363636363635","1082.1","3000","165","[""up"",""right""]","{""num_key_presses"":8,""num_perfect"":6,""num_errors"":0,""num_randdir"":2,""num_randdir_good_moves"":1,""num_whilered"":0,""num_whileblue"":0,""num_blue"":0,""num_good_moves"":7}","[417.57142857142856,413.47767857142856,0.2,417.57142857142856,413.47767857142856,109.7,417.57142857142856,413.47767857142856,215.8,417.57142857142856,413.47767857142856,316.1,417.57142857142856,413.47767857142856,420.7,417.57142857142856,413.47767857142856,524.9,509.57142857142856,273.47767857142856,627.5,607.5714285714286,168.47767857142856,731,654.5714285714286,148.47767857142856,835.1,728.5714285714286,103.47767857142857,942.4,752.5714285714286,81.47767857142857,1044.7,752.5714285714286,81.47767857142857,1144.7,732.5714285714286,93.47767857142857,1244.9,158.57142857142856,165.47767857142856,1345,-280.42857142857144,197.47767857142856,1446.3,-303.42857142857144,203.47767857142856,1549.7,-304.42857142857144,203.47767857142856,1650,-304.42857142857144,203.47767857142856,1757.6,-304.42857142857144,203.47767857142856,1859.7,-304.42857142857144,203.47767857142856,1962,-304.42857142857144,203.47767857142856,2064.7,-304.42857142857144,203.47767857142856,2164.8,-304.42857142857144,203.47767857142856,2265.2,-304.42857142857144,203.47767857142856,2369,-304.42857142857144,203.47767857142856,2470.3,-304.42857142857144,203.47767857142856,2574.8,-304.42857142857144,203.47767857142856,2678.4,-304.42857142857144,203.47767857142856,2780.8,-304.42857142857144,203.47767857142856,2884.6,-304.42857142857144,203.47767857142856,2991.8,-304.42857142857144,203.47767857142856,3094.7,-304.42857142857144,203.47767857142856,3199.5,-304.42857142857144,203.47767857142856,3300.1,-304.42857142857144,203.47767857142856,3404.8,-304.42857142857144,203.47767857142856,3506.4,-304.42857142857144,203.47767857142856,3606.9,-304.42857142857144,203.47767857142856,3709.8,-304.42857142857144,203.47767857142856,3814.7,-304.42857142857144,203.47767857142856,3920.6,-304.42857142857144,203.47767857142856,4027,-304.42857142857144,203.47767857142856,4129.8,-304.42857142857144,203.47767857142856,4234.5,-304.42857142857144,203.47767857142856,4334.6,-304.42857142857144,203.47767857142856,4434.7,-304.42857142857144,203.47767857142856,4539.8,-304.42857142857144,203.47767857142856,4644.8,-304.42857142857144,203.47767857142856,4749.4,-304.42857142857144,203.47767857142856,4855.4,-304.42857142857144,203.47767857142856,4960.5]","[1389.8,1389.8,1000,0,389.8,""oops"",""up"",""left"",""bad_move"",4382.8,2992.3,2593.5,1390.5,398.8,""smooth"",""up"",""up"",""good_move"",6878,2494.8,2125.1,4383.2,369.7,""smooth"",""up"",""up"",""good_move"",9597.9,2719.7,2360.5,6878.2,359.2,""oops"",""up"",""up"",""good_move"",12624.8,3026.7,2707.5,9598.1,319.2,""smooth"",""right"",""right"",""good_move"",15406,2780.9,2433.3,12625.1,347.6,""smooth"",""right"",""right"",""good_move"",17741.7,2335.5,1978.7,15406.2,356.8,""smooth"",""right"",""right"",""good_move"",20213.3,2471.3,2113.5,17742,357.8,""smooth"",""right"",""right"",""good_move""]","",""
"4231","","<div style=""width:500px;"">
  <p>What determined the result of this run?</p>
  </div>","4","html-slider-response","75","884905","0.0-5.0-1.13","233","1","2025-07-23 19:35:46","1f75c3e559b7213887762d5229550c2b","51.19.161.91","Mozilla/5.0 (Windows NT 10.0; Win64; x64) AppleWebKit/537.36 (KHTML, like Gecko) Chrome/138.0.0.0 Safari/537.36","WebKit","Chrome","138.0.0.0","Windows","10.0","https://app.prolific.com/","en-GB,en-US;q=0.9,en;q=0.8","59dd90f6e75b450001a68dac","683db9eb0562dbf637994deb","6881396ce6af8750464c6826","2","1","59dd90f6e75b450001a68dac","2","1","2025-07-23T19:50:59.516Z","","","","","","","","","","","AttribQ","","50","","","","","","","","","","","","","","","","","","","","","","","","","","","","",""
"2549","","<div style=""width:500px;"">
  <p>How much control did you have over the ball?</p>
  </div>","100","html-slider-response","76","887455","0.0-5.0-2.13","233","1","2025-07-23 19:35:46","1f75c3e559b7213887762d5229550c2b","51.19.161.91","Mozilla/5.0 (Windows NT 10.0; Win64; x64) AppleWebKit/537.36 (KHTML, like Gecko) Chrome/138.0.0.0 Safari/537.36","WebKit","Chrome","138.0.0.0","Windows","10.0","https://app.prolific.com/","en-GB,en-US;q=0.9,en;q=0.8","59dd90f6e75b450001a68dac","683db9eb0562dbf637994deb","6881396ce6af8750464c6826","2","1","59dd90f6e75b450001a68dac","2","1","2025-07-23T19:51:02.066Z","","","","","","","","","","","ControlQ","","50","","","","","","","","","","","","","","","","","","","","","","","","","","","","",""
"2731","","<div style=""width:500px;"">
  <p>How would you describe your current emotional state?</p>
