"rt","response_timestamp","stimulus","response","trial_type","trial_index","time_elapsed","internal_node_id","run_id","condition","recorded_at","source_code_version","ip","user_agent","device","browser","browser_version","platform","platform_version","referer","accept_language","PROLIFIC_PID","STUDY_ID","SESSION_ID","WEEK","BATCH","prolific_id","week","batch","realtime","success","responses","item_order","radio_event_ids","radio_event_times","key_event_times","mouse_event_times","straightlining","zigzagging","honeypot","eventType","view_history","slider_start","which_type","canvas_config","goals_layout","control_level","trial_number","tutorial_trial_number","trial_start_time","phase1_start_time","phase2_start_time","phase3_start_time","goal_1_value","goal_1_distance","goal_2_value","goal_2_distance","goal_selected","outcome","outcome_total","participant_final_score","participant_initial_score","participant_final_score_prop","goal_choice_rt","allocated_time","allocated_time_remaining","goal_direction","counts","mouse_movements","key_presses","question_order","question_id"
"3942","1752654671188","<p style='font-size:40px;line-height:1.25'><strong>Welcome to the experiment!</strong></p><p style='font-size:1.1em;line-height:1.25'>Thank you for participanting in our experiment again! You will be asked to play the Dysfunctional Ball Game again. We will briefly recap the rules before we start.</p><p style='font-size:1.1em;line-height:1.25'>Press <strong>Next</strong> to continue.</p>","0","custom-html-button-response","0","3951","0.0-0.0","67","1","2025-07-16 08:30:56","1f75c3e559b7213887762d5229550c2b","41.113.3.113","Mozilla/5.0 (Windows NT 10.0; Win64; x64) AppleWebKit/537.36 (KHTML, like Gecko) Chrome/138.0.0.0 Safari/537.36","WebKit","Chrome","138.0.0.0","Windows","10.0","https://app.prolific.com/","en-ZA,en-GB;q=0.9,en-US;q=0.8,en;q=0.7,zu;q=0.6","5f3287b83428cb05746e2214","68764874ac79eee8c1d4cb03","687762b2ebbec5797d458b95","2","0","5f3287b83428cb05746e2214","2","0","2025-07-16T08:31:11.192Z","","","","","","","","","","","","","","","","","","","","","","","","","","","","","","","","","","","","","","","","","",""
"6649","","","","fullscreen","1","11609","0.0-1.0","67","1","2025-07-16 08:30:56","1f75c3e559b7213887762d5229550c2b","41.113.3.113","Mozilla/5.0 (Windows NT 10.0; Win64; x64) AppleWebKit/537.36 (KHTML, like Gecko) Chrome/138.0.0.0 Safari/537.36","WebKit","Chrome","138.0.0.0","Windows","10.0","https://app.prolific.com/","en-ZA,en-GB;q=0.9,en-US;q=0.8,en;q=0.7,zu;q=0.6","5f3287b83428cb05746e2214","68764874ac79eee8c1d4cb03","687762b2ebbec5797d458b95","2","0","5f3287b83428cb05746e2214","2","0","","true","","","","","","","","","","","","","","","","","","","","","","","","","","","","","","","","","","","","","","","","",""
"5232","1752654684088","<p style='font-size:1.1em;line-height:1.25'>In the following, we will ask you a few questions relating to your feelings in the last 24 hours.<br></p><p style='font-size:1.1em;line-height:1.25'>Press the <strong>Next</strong> button to continue.</p>","0","custom-html-button-response","2","16850","0.0-2.0-0.0","67","1","2025-07-16 08:30:56","1f75c3e559b7213887762d5229550c2b","41.113.3.113","Mozilla/5.0 (Windows NT 10.0; Win64; x64) AppleWebKit/537.36 (KHTML, like Gecko) Chrome/138.0.0.0 Safari/537.36","WebKit","Chrome","138.0.0.0","Windows","10.0","https://app.prolific.com/","en-ZA,en-GB;q=0.9,en-US;q=0.8,en;q=0.7,zu;q=0.6","5f3287b83428cb05746e2214","68764874ac79eee8c1d4cb03","687762b2ebbec5797d458b95","2","0","5f3287b83428cb05746e2214","2","0","2025-07-16T08:31:24.090Z","","","","","","","","","","","","","","","","","","","","","","","","","","","","","","","","","","","","","","","","","",""
"68087.89999999106","","","","survey-template","3","84958","0.0-2.0-1.0","67","1","2025-07-16 08:30:56","1f75c3e559b7213887762d5229550c2b","41.113.3.113","Mozilla/5.0 (Windows NT 10.0; Win64; x64) AppleWebKit/537.36 (KHTML, like Gecko) Chrome/138.0.0.0 Safari/537.36","WebKit","Chrome","138.0.0.0","Windows","10.0","https://app.prolific.com/","en-ZA,en-GB;q=0.9,en-US;q=0.8,en;q=0.7,zu;q=0.6","5f3287b83428cb05746e2214","68764874ac79eee8c1d4cb03","687762b2ebbec5797d458b95","2","0","5f3287b83428cb05746e2214","2","0","2025-07-16T08:32:32.198Z","","{""Q01"":""2"",""Q02"":""0"",""Q03"":""0"",""Q04"":""0"",""Q05"":""0"",""Q06"":""5"",""Q07"":""0"",""Q08"":""1"",""Q09"":""0"",""Q10"":""0"",""Q11"":""0"",""Q12"":""0"",""Q13"":""5"",""Q14"":""0"",""Q15"":""0"",""Q16"":""0"",""Q17"":""1"",""Q18"":""0"",""Q19"":""0"",""Q20"":""0"",""Q21"":""0"",""Q22"":""0""}","[0,1,2,3,4,5,6,7,8,9,10,11,12,13,14,15,16,17,18,19,20,21]","[""Q01"",""Q02"",""Q03"",""Q04"",""Q05"",""Q05"",""Q06"",""Q07"",""Q08"",""Q09"",""Q10"",""Q11"",""Q12"",""Q13"",""Q14"",""Q15"",""Q16"",""Q17"",""Q18"",""Q19"",""Q20"",""Q21"",""Q22""]","[5298.0999999940395,7165.0999999940395,9107.09999999404,10520.89999999106,12618,14189.59999999404,18446.59999999404,20620.20000000298,25890.70000000298,28592.70000000298,29804.70000000298,31171.39999999106,32545,34940.29999999702,42199.70000000298,44826.20000000298,47191.79999999702,50441.5,51895,53527.39999999106,60164.39999999106,61542.09999999404,63115.79999999702]","[]","[0.7999999970197678,5298.0999999940395,7165.0999999940395,9107.09999999404,10520.89999999106,12618,14189.59999999404,18446.59999999404,20620.20000000298,25890.70000000298,28592.70000000298,29804.70000000298,31171.39999999106,32545,34940.29999999702,42199.70000000298,44826.20000000298,47191.79999999702,50441.5,51895,53527.39999999106,60164.39999999106,61542.09999999404,63115.79999999702,68067.70000000298]","0.7727272727272727","0.38095238095238093","0","drsp","","","","","","","","","","","","","","","","","","","","","","","","","","","","","","",""
"14840","","","","survey-template","4","99808","0.0-2.0-2.0","67","1","2025-07-16 08:30:56","1f75c3e559b7213887762d5229550c2b","41.113.3.113","Mozilla/5.0 (Windows NT 10.0; Win64; x64) AppleWebKit/537.36 (KHTML, like Gecko) Chrome/138.0.0.0 Safari/537.36","WebKit","Chrome","138.0.0.0","Windows","10.0","https://app.prolific.com/","en-ZA,en-GB;q=0.9,en-US;q=0.8,en;q=0.7,zu;q=0.6","5f3287b83428cb05746e2214","68764874ac79eee8c1d4cb03","687762b2ebbec5797d458b95","2","0","5f3287b83428cb05746e2214","2","0","2025-07-16T08:32:47.049Z","","{""Q01"":""1"",""Q02"":""3"",""Q03"":""0""}","[0,1,2]","[""Q01"",""Q02"",""Q03""]","[4221.5,10144.79999999702,13280.29999999702]","[]","[4221.5,10144.79999999702,13280.29999999702,14837.5]","0.3333333333333333","0.5","0","stress","","","","","","","","","","","","","","","","","","","","","","","","","","","","","","",""
"17375","","","","instructions","5","117190","0.0-3.0-0.0","67","1","2025-07-16 08:30:56","1f75c3e559b7213887762d5229550c2b","41.113.3.113","Mozilla/5.0 (Windows NT 10.0; Win64; x64) AppleWebKit/537.36 (KHTML, like Gecko) Chrome/138.0.0.0 Safari/537.36","WebKit","Chrome","138.0.0.0","Windows","10.0","https://app.prolific.com/","en-ZA,en-GB;q=0.9,en-US;q=0.8,en;q=0.7,zu;q=0.6","5f3287b83428cb05746e2214","68764874ac79eee8c1d4cb03","687762b2ebbec5797d458b95","2","0","5f3287b83428cb05746e2214","2","0","","","","","","","","","","","","","[{""page_index"":0,""viewing_time"":17373}]","","","","","","","","","","","","","","","","","","","","","","","","","","","","","",""
"11631","","<p>Before you start with this game please answer the following three questions yourself. </p>
  <p>Through this game, we measure several aspects of your cognitive performance, such as reaction times, multi-tasking capabilities </p>
  <p>and the ability to assess the situation you are in.</p>
  <p></p>
  <p><b>How good do you usually are in such tasks?</b></p>","97","html-slider-response","6","128828","0.0-4.0-0.0","67","1","2025-07-16 08:30:56","1f75c3e559b7213887762d5229550c2b","41.113.3.113","Mozilla/5.0 (Windows NT 10.0; Win64; x64) AppleWebKit/537.36 (KHTML, like Gecko) Chrome/138.0.0.0 Safari/537.36","WebKit","Chrome","138.0.0.0","Windows","10.0","https://app.prolific.com/","en-ZA,en-GB;q=0.9,en-US;q=0.8,en;q=0.7,zu;q=0.6","5f3287b83428cb05746e2214","68764874ac79eee8c1d4cb03","687762b2ebbec5797d458b95","2","0","5f3287b83428cb05746e2214","2","0","2025-07-16T08:33:16.069Z","","","","","","","","","","","PreSkillQ","","50","","","","","","","","","","","","","","","","","","","","","","","","","","","","",""
"4579","","<div style=""width:500px;"">
  <p>How well do you think you will perform in this task compared to other participants?</p>
  </div>","77","html-slider-response","7","133424","0.0-4.0-1.0","67","1","2025-07-16 08:30:56","1f75c3e559b7213887762d5229550c2b","41.113.3.113","Mozilla/5.0 (Windows NT 10.0; Win64; x64) AppleWebKit/537.36 (KHTML, like Gecko) Chrome/138.0.0.0 Safari/537.36","WebKit","Chrome","138.0.0.0","Windows","10.0","https://app.prolific.com/","en-ZA,en-GB;q=0.9,en-US;q=0.8,en;q=0.7,zu;q=0.6","5f3287b83428cb05746e2214","68764874ac79eee8c1d4cb03","687762b2ebbec5797d458b95","2","0","5f3287b83428cb05746e2214","2","0","2025-07-16T08:33:20.664Z","","","","","","","","","","","PrePerfQ","","50","","","","","","","","","","","","","","","","","","","","","","","","","","","","",""
"4551","","<div style=""width:500px;"">
  <p>What best describes how you currently feel?</p>
  </div>","100","html-slider-response","8","137983","0.0-4.0-2.0","67","1","2025-07-16 08:30:56","1f75c3e559b7213887762d5229550c2b","41.113.3.113","Mozilla/5.0 (Windows NT 10.0; Win64; x64) AppleWebKit/537.36 (KHTML, like Gecko) Chrome/138.0.0.0 Safari/537.36","WebKit","Chrome","138.0.0.0","Windows","10.0","https://app.prolific.com/","en-ZA,en-GB;q=0.9,en-US;q=0.8,en;q=0.7,zu;q=0.6","5f3287b83428cb05746e2214","68764874ac79eee8c1d4cb03","687762b2ebbec5797d458b95","2","0","5f3287b83428cb05746e2214","2","0","2025-07-16T08:33:25.224Z","","","","","","","","","","","PreMotivationQ","","50","","","","","","","","","","","","","","","","","","","","","","","","","","","","",""
"","","","","ctl-task-cpt","9","171786","0.0-5.0-0.0","67","1","2025-07-16 08:30:56","1f75c3e559b7213887762d5229550c2b","41.113.3.113","Mozilla/5.0 (Windows NT 10.0; Win64; x64) AppleWebKit/537.36 (KHTML, like Gecko) Chrome/138.0.0.0 Safari/537.36","WebKit","Chrome","138.0.0.0","Windows","10.0","https://app.prolific.com/","en-ZA,en-GB;q=0.9,en-US;q=0.8,en;q=0.7,zu;q=0.6","5f3287b83428cb05746e2214","68764874ac79eee8c1d4cb03","687762b2ebbec5797d458b95","2","0","5f3287b83428cb05746e2214","2","0","2025-07-16T08:33:59.031Z","","","","","","","","","","","","","","win-only","0","g1:NW,g2:SE","1","1","0","156177.8","2167.9","7176.2","30781.8","1","4","8","6","2","8","8","8","0","0.06060606060606061","1448.6","3000","890","[""down"",""right""]","{""num_key_presses"":6,""num_perfect"":6,""num_errors"":0,""num_randdir"":0,""num_randdir_good_moves"":0,""num_whilered"":0,""num_whileblue"":0,""num_blue"":2,""num_good_moves"":6}","[270.7142857142857,274.6205357142857,6.5,270.7142857142857,274.6205357142857,106.7,270.7142857142857,274.6205357142857,208.2,270.7142857142857,274.6205357142857,311.7,270.7142857142857,274.6205357142857,413.6,270.7142857142857,274.6205357142857,513.8,270.7142857142857,274.6205357142857,617.4,384.7142857142857,394.6205357142857,718.3,458.7142857142857,497.6205357142857,821.5,464.7142857142857,502.6205357142857,923.3,479.7142857142857,508.6205357142857,1027.8,492.7142857142857,510.6205357142857,1135.7,492.7142857142857,510.6205357142857,1240.8,492.7142857142857,510.6205357142857,1342.6,492.7142857142857,510.6205357142857,1458.3,492.7142857142857,510.6205357142857,1562.3,492.7142857142857,510.6205357142857,1662.5,492.7142857142857,510.6205357142857,1768,492.7142857142857,510.6205357142857,1873.2,492.7142857142857,510.6205357142857,1976.1,492.7142857142857,510.6205357142857,2089.2,492.7142857142857,510.6205357142857,2191.1,492.7142857142857,510.6205357142857,2295.3,492.7142857142857,510.6205357142857,2400,492.7142857142857,510.6205357142857,2504.3,492.7142857142857,510.6205357142857,2612.5,492.7142857142857,510.6205357142857,2714.4,492.7142857142857,510.6205357142857,2815.5,492.7142857142857,510.6205357142857,2915.5,492.7142857142857,510.6205357142857,3030,492.7142857142857,510.6205357142857,3133.1,492.7142857142857,510.6205357142857,3233.8,492.7142857142857,510.6205357142857,3341,492.7142857142857,510.6205357142857,3446.4,492.7142857142857,510.6205357142857,3550.3,492.7142857142857,510.6205357142857,3656.2,492.7142857142857,510.6205357142857,3761.4,492.7142857142857,510.6205357142857,3864.7,492.7142857142857,510.6205357142857,3966.6,492.7142857142857,510.6205357142857,4072.9,492.7142857142857,510.6205357142857,4177.7,492.7142857142857,510.6205357142857,4289.1,492.7142857142857,510.6205357142857,4395.4,492.7142857142857,510.6205357142857,4500.5,492.7142857142857,510.6205357142857,4604.5,492.7142857142857,510.6205357142857,4711.6,492.7142857142857,510.6205357142857,4816.8,492.7142857142857,510.6205357142857,4918.8]","[1454.4,1454.4,1000,0,454.4,""smooth"",""down"",""down"",""good_move"",7513,6056.9,3000.5,4005.4,507.2,""smooth"",""down"",""down"",""good_move"",10504.7,2985.6,2529.9,7519.3,455.7,""smooth"",""right"",""right"",""good_move"",13341.1,2833.4,2379.3,10507.8,454.1,""smooth"",""right"",""right"",""good_move"",16408,3064.5,2625,13343.7,439.3,""smooth"",""down"",""down"",""good_move"",23492.4,7082.7,3094.7,20009.4,388.3,""smooth"",""right"",""right"",""good_move""]","",""
"4508","","<div style=""width:500px;"">
  <p>What determined the result of this run?</p>
  </div>","99","html-slider-response","10","176306","0.0-5.0-1.0","67","1","2025-07-16 08:30:56","1f75c3e559b7213887762d5229550c2b","41.113.3.113","Mozilla/5.0 (Windows NT 10.0; Win64; x64) AppleWebKit/537.36 (KHTML, like Gecko) Chrome/138.0.0.0 Safari/537.36","WebKit","Chrome","138.0.0.0","Windows","10.0","https://app.prolific.com/","en-ZA,en-GB;q=0.9,en-US;q=0.8,en;q=0.7,zu;q=0.6","5f3287b83428cb05746e2214","68764874ac79eee8c1d4cb03","687762b2ebbec5797d458b95","2","0","5f3287b83428cb05746e2214","2","0","2025-07-16T08:34:03.546Z","","","","","","","","","","","AttribQ","","50","","","","","","","","","","","","","","","","","","","","","","","","","","","","",""
"5052","","<div style=""width:500px;"">
  <p>How much control did you have over the ball?</p>
  </div>","99","html-slider-response","11","181364","0.0-5.0-2.0","67","1","2025-07-16 08:30:56","1f75c3e559b7213887762d5229550c2b","41.113.3.113","Mozilla/5.0 (Windows NT 10.0; Win64; x64) AppleWebKit/537.36 (KHTML, like Gecko) Chrome/138.0.0.0 Safari/537.36","WebKit","Chrome","138.0.0.0","Windows","10.0","https://app.prolific.com/","en-ZA,en-GB;q=0.9,en-US;q=0.8,en;q=0.7,zu;q=0.6","5f3287b83428cb05746e2214","68764874ac79eee8c1d4cb03","687762b2ebbec5797d458b95","2","0","5f3287b83428cb05746e2214","2","0","2025-07-16T08:34:08.604Z","","","","","","","","","","","ControlQ","","50","","","","","","","","","","","","","","","","","","","","","","","","","","","","",""
"5266","","<div style=""width:500px;"">
  <p>How would you describe your current emotional state?</p>
  </div>","0","html-slider-response","12","186634","0.0-5.0-3.0","67","1","2025-07-16 08:30:56","1f75c3e559b7213887762d5229550c2b","41.113.3.113","Mozilla/5.0 (Windows NT 10.0; Win64; x64) AppleWebKit/537.36 (KHTML, like Gecko) Chrome/138.0.0.0 Safari/537.36","WebKit","Chrome","138.0.0.0","Windows","10.0","https://app.prolific.com/","en-ZA,en-GB;q=0.9,en-US;q=0.8,en;q=0.7,zu;q=0.6","5f3287b83428cb05746e2214","68764874ac79eee8c1d4cb03","687762b2ebbec5797d458b95","2","0","5f3287b83428cb05746e2214","2","0","2025-07-16T08:34:13.875Z","","","","","","","","","","","StressQ","","50","","","","","","","","","","","","","","","","","","","","","","","","","","","","",""
"4178","","<div style=""width:500px;"">
  <p>What best describes how you currently feel?</p>
  </div>","100","html-slider-response","13","190817","0.0-5.0-4.0","67","1","2025-07-16 08:30:56","1f75c3e559b7213887762d5229550c2b","41.113.3.113","Mozilla/5.0 (Windows NT 10.0; Win64; x64) AppleWebKit/537.36 (KHTML, like Gecko) Chrome/138.0.0.0 Safari/537.36","WebKit","Chrome","138.0.0.0","Windows","10.0","https://app.prolific.com/","en-ZA,en-GB;q=0.9,en-US;q=0.8,en;q=0.7,zu;q=0.6","5f3287b83428cb05746e2214","68764874ac79eee8c1d4cb03","687762b2ebbec5797d458b95","2","0","5f3287b83428cb05746e2214","2","0","2025-07-16T08:34:18.058Z","","","","","","","","","","","MotivationQ","","50","","","","","","","","","","","","","","","","","","","","","","","","","","","","",""
"","","","","ctl-task-cpt","14","223646","0.0-5.0-0.1","67","1","2025-07-16 08:30:56","1f75c3e559b7213887762d5229550c2b","41.113.3.113","Mozilla/5.0 (Windows NT 10.0; Win64; x64) AppleWebKit/537.36 (KHTML, like Gecko) Chrome/138.0.0.0 Safari/537.36","WebKit","Chrome","138.0.0.0","Windows","10.0","https://app.prolific.com/","en-ZA,en-GB;q=0.9,en-US;q=0.8,en;q=0.7,zu;q=0.6","5f3287b83428cb05746e2214","68764874ac79eee8c1d4cb03","687762b2ebbec5797d458b95","2","0","5f3287b83428cb05746e2214","2","0","2025-07-16T08:34:50.887Z","","","","","","","","","","","","","","win-only","3","g1:SW,g2:NE","0.9","2","0","209000.8","1702.7","6713.1","29802.2","1","4","4","6","2","4","3","11","8","0.08333333333333333","1776.7","3000","830","[""up"",""right""]","{""num_key_presses"":8,""num_perfect"":7,""num_errors"":1,""num_randdir"":0,""num_randdir_good_moves"":0,""num_whilered"":0,""num_whileblue"":1,""num_blue"":1,""num_good_moves"":7}","[276.7142857142857,279.6205357142857,2.7,276.7142857142857,279.6205357142857,101.1,276.7142857142857,279.6205357142857,208.7,276.7142857142857,279.6205357142857,309.1,276.7142857142857,279.6205357142857,413.5,276.7142857142857,279.6205357142857,518.1,276.7142857142857,279.6205357142857,621.5,276.7142857142857,279.6205357142857,725.6,276.7142857142857,279.6205357142857,829.4,276.7142857142857,279.6205357142857,930.3,359.7142857142857,122.62053571428572,1030.3,495.7142857142857,26.620535714285715,1134.9,525.7142857142857,16.620535714285715,1239.6,527.7142857142857,31.620535714285715,1342.9,520.7142857142857,46.620535714285715,1450.7,520.7142857142857,46.620535714285715,1556.8,520.7142857142857,46.620535714285715,1659.1,520.7142857142857,46.620535714285715,1813.8,520.7142857142857,46.620535714285715,1920.3,520.7142857142857,46.620535714285715,2020.8,520.7142857142857,46.620535714285715,2121.4,520.7142857142857,46.620535714285715,2223.9,520.7142857142857,46.620535714285715,2325.4,520.7142857142857,46.620535714285715,2437.9,520.7142857142857,46.620535714285715,2539.5,520.7142857142857,46.620535714285715,2644.2,520.7142857142857,46.620535714285715,2744.9,520.7142857142857,46.620535714285715,2853.8,520.7142857142857,46.620535714285715,2955.2,520.7142857142857,46.620535714285715,3073.5,520.7142857142857,46.620535714285715,3174.4,520.7142857142857,46.620535714285715,3275.9,520.7142857142857,46.620535714285715,3379.1,520.7142857142857,46.620535714285715,3485.4,520.7142857142857,46.620535714285715,3586.5,520.7142857142857,46.620535714285715,3688.9,520.7142857142857,46.620535714285715,3791.3,520.7142857142857,46.620535714285715,3894.5,520.7142857142857,46.620535714285715,4008.5,520.7142857142857,46.620535714285715,4110.5,520.7142857142857,46.620535714285715,4221,520.7142857142857,46.620535714285715,4328.9,520.7142857142857,46.620535714285715,4429.3,520.7142857142857,46.620535714285715,4529.6,520.7142857142857,46.620535714285715,4629.8,520.7142857142857,46.620535714285715,4740.3,520.7142857142857,46.620535714285715,4849.1,520.7142857142857,46.620535714285715,4959.8]","[1446.8,1446.8,1000,0,446.8,""smooth"",""right"",""right"",""good_move"",4448.2,2999.3,2583.9,1449,415.4,""smooth"",""right"",""right"",""good_move"",7907.6,3458.4,3017.3,4449.3,441.1,""smooth"",""right"",""right"",""good_move"",10954.6,3029.9,2630.7,7924.7,399.2,""smooth"",""up"",""up"",""good_move"",13987.4,3029.2,2564.4,10958.3,464.8,""while_blue"",""up"",""down"",""bad_move"",16986.8,2994.4,2549,13992.4,445.4,""smooth"",""up"",""up"",""good_move"",20048.9,3057.8,2549.1,16991.1,508.7,""smooth"",""up"",""up"",""good_move"",22950.3,2899.2,2415.2,20051.2,483.9,""smooth"",""up"",""up"",""good_move""]","",""
"4193","","<div style=""width:500px;"">
  <p>What determined the result of this run?</p>
  </div>","100","html-slider-response","15","227844","0.0-5.0-1.1","67","1","2025-07-16 08:30:56","1f75c3e559b7213887762d5229550c2b","41.113.3.113","Mozilla/5.0 (Windows NT 10.0; Win64; x64) AppleWebKit/537.36 (KHTML, like Gecko) Chrome/138.0.0.0 Safari/537.36","WebKit","Chrome","138.0.0.0","Windows","10.0","https://app.prolific.com/","en-ZA,en-GB;q=0.9,en-US;q=0.8,en;q=0.7,zu;q=0.6","5f3287b83428cb05746e2214","68764874ac79eee8c1d4cb03","687762b2ebbec5797d458b95","2","0","5f3287b83428cb05746e2214","2","0","2025-07-16T08:34:55.084Z","","","","","","","","","","","AttribQ","","50","","","","","","","","","","","","","","","","","","","","","","","","","","","","",""
"3164","","<div style=""width:500px;"">
  <p>How much control did you have over the ball?</p>
  </div>","100","html-slider-response","16","231013","0.0-5.0-2.1","67","1","2025-07-16 08:30:56","1f75c3e559b7213887762d5229550c2b","41.113.3.113","Mozilla/5.0 (Windows NT 10.0; Win64; x64) AppleWebKit/537.36 (KHTML, like Gecko) Chrome/138.0.0.0 Safari/537.36","WebKit","Chrome","138.0.0.0","Windows","10.0","https://app.prolific.com/","en-ZA,en-GB;q=0.9,en-US;q=0.8,en;q=0.7,zu;q=0.6","5f3287b83428cb05746e2214","68764874ac79eee8c1d4cb03","687762b2ebbec5797d458b95","2","0","5f3287b83428cb05746e2214","2","0","2025-07-16T08:34:58.254Z","","","","","","","","","","","ControlQ","","50","","","","","","","","","","","","","","","","","","","","","","","","","","","","",""
"4428","","<div style=""width:500px;"">
  <p>How would you describe your current emotional state?</p>
  </div>","0","html-slider-response","17","235448","0.0-5.0-3.1","67","1","2025-07-16 08:30:56","1f75c3e559b7213887762d5229550c2b","41.113.3.113","Mozilla/5.0 (Windows NT 10.0; Win64; x64) AppleWebKit/537.36 (KHTML, like Gecko) Chrome/138.0.0.0 Safari/537.36","WebKit","Chrome","138.0.0.0","Windows","10.0","https://app.prolific.com/","en-ZA,en-GB;q=0.9,en-US;q=0.8,en;q=0.7,zu;q=0.6","5f3287b83428cb05746e2214","68764874ac79eee8c1d4cb03","687762b2ebbec5797d458b95","2","0","5f3287b83428cb05746e2214","2","0","2025-07-16T08:35:02.688Z","","","","","","","","","","","StressQ","","50","","","","","","","","","","","","","","","","","","","","","","","","","","","","",""
"4719","","<div style=""width:500px;"">
  <p>What best describes how you currently feel?</p>
  </div>","100","html-slider-response","18","240174","0.0-5.0-4.1","67","1","2025-07-16 08:30:56","1f75c3e559b7213887762d5229550c2b","41.113.3.113","Mozilla/5.0 (Windows NT 10.0; Win64; x64) AppleWebKit/537.36 (KHTML, like Gecko) Chrome/138.0.0.0 Safari/537.36","WebKit","Chrome","138.0.0.0","Windows","10.0","https://app.prolific.com/","en-ZA,en-GB;q=0.9,en-US;q=0.8,en;q=0.7,zu;q=0.6","5f3287b83428cb05746e2214","68764874ac79eee8c1d4cb03","687762b2ebbec5797d458b95","2","0","5f3287b83428cb05746e2214","2","0","2025-07-16T08:35:07.420Z","","","","","","","","","","","MotivationQ","","50","","","","","","","","","","","","","","","","","","","","","","","","","","","","",""
"","","","","ctl-task-cpt","19","268707","0.0-5.0-0.2","67","1","2025-07-16 08:30:56","1f75c3e559b7213887762d5229550c2b","41.113.3.113","Mozilla/5.0 (Windows NT 10.0; Win64; x64) AppleWebKit/537.36 (KHTML, like Gecko) Chrome/138.0.0.0 Safari/537.36","WebKit","Chrome","138.0.0.0","Windows","10.0","https://app.prolific.com/","en-ZA,en-GB;q=0.9,en-US;q=0.8,en;q=0.7,zu;q=0.6","5f3287b83428cb05746e2214","68764874ac79eee8c1d4cb03","687762b2ebbec5797d458b95","2","0","5f3287b83428cb05746e2214","2","0","2025-07-16T08:35:35.947Z","","","","","","","","","","","","","","win-only","3","g1:SW,g2:NE","0.8","3","0","258367.5","1982.4","7003.2","25496.6","1","4","8","6","2","8","8","19","11","0.14393939393939395","1566.7","3000","1185","[""up"",""right""]","{""num_key_presses"":6,""num_perfect"":6,""num_errors"":0,""num_randdir"":0,""num_randdir_good_moves"":0,""num_whilered"":0,""num_whileblue"":0,""num_blue"":1,""num_good_moves"":6}","[271.7142857142857,276.6205357142857,0.8,271.7142857142857,276.6205357142857,103.9,271.7142857142857,276.6205357142857,205.3,271.7142857142857,276.6205357142857,308,271.7142857142857,276.6205357142857,413.7,271.7142857142857,276.6205357142857,517.2,271.7142857142857,276.6205357142857,624,271.7142857142857,276.6205357142857,725.6,379.7142857142857,118.62053571428572,829.9,438.7142857142857,62.620535714285715,934.6,462.7142857142857,39.620535714285715,1051.7,473.7142857142857,42.620535714285715,1158.6,483.7142857142857,54.620535714285715,1272.2,485.7142857142857,55.620535714285715,1382.5,485.7142857142857,55.620535714285715,1484.7,485.7142857142857,55.620535714285715,1596,485.7142857142857,55.620535714285715,1706,485.7142857142857,55.620535714285715,1816.8,485.7142857142857,55.620535714285715,1919.3,485.7142857142857,55.620535714285715,2024.3,485.7142857142857,55.620535714285715,2126.3,485.7142857142857,55.620535714285715,2229.6,485.7142857142857,55.620535714285715,2336.8,485.7142857142857,55.620535714285715,2445.9,485.7142857142857,55.620535714285715,2550.5,485.7142857142857,55.620535714285715,2663.3,485.7142857142857,55.620535714285715,2779,485.7142857142857,55.620535714285715,2879.8,485.7142857142857,55.620535714285715,2991.6,485.7142857142857,55.620535714285715,3092.1,485.7142857142857,55.620535714285715,3193.3,485.7142857142857,55.620535714285715,3296.6,485.7142857142857,55.620535714285715,3398.7,485.7142857142857,55.620535714285715,3510.4,485.7142857142857,55.620535714285715,3611.3,485.7142857142857,55.620535714285715,3725.3,485.7142857142857,55.620535714285715,3832.6,485.7142857142857,55.620535714285715,3937.7,485.7142857142857,55.620535714285715,4044.6,485.7142857142857,55.620535714285715,4148.5,485.7142857142857,55.620535714285715,4248.8,485.7142857142857,55.620535714285715,4360.5,485.7142857142857,55.620535714285715,4465.5,485.7142857142857,55.620535714285715,4569.9,485.7142857142857,55.620535714285715,4680,485.7142857142857,55.620535714285715,4786.3,485.7142857142857,55.620535714285715,4893.5,485.7142857142857,55.620535714285715,4995.6]","[4749.1,4749.1,2217.3,2007.8,524,""smooth"",""right"",""right"",""good_move"",7248.7,2495.9,2053.1,4752.8,442.8,""smooth"",""right"",""right"",""good_move"",9821.7,2571.3,2127.7,7250.5,443.6,""smooth"",""right"",""right"",""good_move"",12591.3,2767.8,2323.9,9823.7,443.7,""smooth"",""up"",""up"",""good_move"",15193.6,2600,2017.5,12593.7,582.4,""smooth"",""up"",""up"",""good_move"",18340.2,3144.2,2628.8,15196.1,515.4,""smooth"",""up"",""up"",""good_move""]","",""
"3922","","<div style=""width:500px;"">
  <p>What determined the result of this run?</p>
  </div>","100","html-slider-response","20","272632","0.0-5.0-1.2","67","1","2025-07-16 08:30:56","1f75c3e559b7213887762d5229550c2b","41.113.3.113","Mozilla/5.0 (Windows NT 10.0; Win64; x64) AppleWebKit/537.36 (KHTML, like Gecko) Chrome/138.0.0.0 Safari/537.36","WebKit","Chrome","138.0.0.0","Windows","10.0","https://app.prolific.com/","en-ZA,en-GB;q=0.9,en-US;q=0.8,en;q=0.7,zu;q=0.6","5f3287b83428cb05746e2214","68764874ac79eee8c1d4cb03","687762b2ebbec5797d458b95","2","0","5f3287b83428cb05746e2214","2","0","2025-07-16T08:35:39.872Z","","","","","","","","","","","AttribQ","","50","","","","","","","","","","","","","","","","","","","","","","","","","","","","",""
"3295","","<div style=""width:500px;"">
  <p>How much control did you have over the ball?</p>
  </div>","100","html-slider-response","21","275930","0.0-5.0-2.2","67","1","2025-07-16 08:30:56","1f75c3e559b7213887762d5229550c2b","41.113.3.113","Mozilla/5.0 (Windows NT 10.0; Win64; x64) AppleWebKit/537.36 (KHTML, like Gecko) Chrome/138.0.0.0 Safari/537.36","WebKit","Chrome","138.0.0.0","Windows","10.0","https://app.prolific.com/","en-ZA,en-GB;q=0.9,en-US;q=0.8,en;q=0.7,zu;q=0.6","5f3287b83428cb05746e2214","68764874ac79eee8c1d4cb03","687762b2ebbec5797d458b95","2","0","5f3287b83428cb05746e2214","2","0","2025-07-16T08:35:43.171Z","","","","","","","","","","","ControlQ","","50","","","","","","","","","","","","","","","","","","","","","","","","","","","","",""
"3401","","<div style=""width:500px;"">
  <p>How would you describe your current emotional state?</p>
  </div>","0","html-slider-response","22","279335","0.0-5.0-3.2","67","1","2025-07-16 08:30:56","1f75c3e559b7213887762d5229550c2b","41.113.3.113","Mozilla/5.0 (Windows NT 10.0; Win64; x64) AppleWebKit/537.36 (KHTML, like Gecko) Chrome/138.0.0.0 Safari/537.36","WebKit","Chrome","138.0.0.0","Windows","10.0","https://app.prolific.com/","en-ZA,en-GB;q=0.9,en-US;q=0.8,en;q=0.7,zu;q=0.6","5f3287b83428cb05746e2214","68764874ac79eee8c1d4cb03","687762b2ebbec5797d458b95","2","0","5f3287b83428cb05746e2214","2","0","2025-07-16T08:35:46.575Z","","","","","","","","","","","StressQ","","50","","","","","","","","","","","","","","","","","","","","","","","","","","","","",""
"3958","","<div style=""width:500px;"">
  <p>What best describes how you currently feel?</p>
  </div>","99","html-slider-response","23","283296","0.0-5.0-4.2","67","1","2025-07-16 08:30:56","1f75c3e559b7213887762d5229550c2b","41.113.3.113","Mozilla/5.0 (Windows NT 10.0; Win64; x64) AppleWebKit/537.36 (KHTML, like Gecko) Chrome/138.0.0.0 Safari/537.36","WebKit","Chrome","138.0.0.0","Windows","10.0","https://app.prolific.com/","en-ZA,en-GB;q=0.9,en-US;q=0.8,en;q=0.7,zu;q=0.6","5f3287b83428cb05746e2214","68764874ac79eee8c1d4cb03","687762b2ebbec5797d458b95","2","0","5f3287b83428cb05746e2214","2","0","2025-07-16T08:35:50.536Z","","","","","","","","","","","MotivationQ","","50","","","","","","","","","","","","","","","","","","","","","","","","","","","","",""
"","","","","ctl-task-cpt","24","318244","0.0-5.0-0.3","67","1","2025-07-16 08:30:56","1f75c3e559b7213887762d5229550c2b","41.113.3.113","Mozilla/5.0 (Windows NT 10.0; Win64; x64) AppleWebKit/537.36 (KHTML, like Gecko) Chrome/138.0.0.0 Safari/537.36","WebKit","Chrome","138.0.0.0","Windows","10.0","https://app.prolific.com/","en-ZA,en-GB;q=0.9,en-US;q=0.8,en;q=0.7,zu;q=0.6","5f3287b83428cb05746e2214","68764874ac79eee8c1d4cb03","687762b2ebbec5797d458b95","2","0","5f3287b83428cb05746e2214","2","0","2025-07-16T08:36:25.484Z","","","","","","","","","","","","","","win-only","3","g1:SW,g2:NE","0.7","4","0","301483.7","2037.8","7046.1","31907.7","1","4","4","6","2","4","4","23","19","0.17424242424242425","2300","3000","1850","[""up"",""right""]","{""num_key_presses"":6,""num_perfect"":6,""num_errors"":0,""num_randdir"":0,""num_randdir_good_moves"":0,""num_whilered"":0,""num_whileblue"":0,""num_blue"":2,""num_good_moves"":6}","[276.7142857142857,279.6205357142857,0,276.7142857142857,279.6205357142857,133.3,276.7142857142857,279.6205357142857,262.1,276.7142857142857,279.6205357142857,367.6,276.7142857142857,279.6205357142857,468.4,276.7142857142857,279.6205357142857,576.3,276.7142857142857,279.6205357142857,679.7,276.7142857142857,279.6205357142857,795.3,276.7142857142857,278.6205357142857,897.7,476.7142857142857,124.62053571428572,1005.9,487.7142857142857,117.62053571428572,1110,487.7142857142857,117.62053571428572,1210.5,487.7142857142857,116.62053571428572,1315.5,487.7142857142857,116.62053571428572,1430.9,489.7142857142857,105.62053571428572,1541.9,492.7142857142857,91.62053571428572,1649.7,493.7142857142857,89.62053571428572,1751.7,493.7142857142857,82.62053571428572,1865.1,494.7142857142857,80.62053571428572,1965.6,494.7142857142857,80.62053571428572,2067.3,494.7142857142857,80.62053571428572,2177.3,494.7142857142857,80.62053571428572,2279.5,494.7142857142857,80.62053571428572,2385.2,494.7142857142857,80.62053571428572,2490.7,494.7142857142857,80.62053571428572,2597.7,494.7142857142857,80.62053571428572,2712.8,494.7142857142857,80.62053571428572,2826.3,494.7142857142857,80.62053571428572,2927.8,494.7142857142857,80.62053571428572,3034.1,494.7142857142857,80.62053571428572,3143.1,494.7142857142857,80.62053571428572,3253.3,494.7142857142857,80.62053571428572,3358.6,494.7142857142857,80.62053571428572,3464.6,494.7142857142857,80.62053571428572,3567.3,494.7142857142857,80.62053571428572,3675.1,494.7142857142857,80.62053571428572,3779.3,494.7142857142857,80.62053571428572,3880.4,494.7142857142857,80.62053571428572,3989.7,494.7142857142857,80.62053571428572,4093,494.7142857142857,80.62053571428572,4198.7,494.7142857142857,80.62053571428572,4305,494.7142857142857,80.62053571428572,4411.4,494.7142857142857,80.62053571428572,4513,494.7142857142857,80.62053571428572,4615.2,494.7142857142857,80.62053571428572,4716.3,494.7142857142857,80.62053571428572,4826.6,494.7142857142857,80.62053571428572,4929.8]","[1617.2,1617.2,1000,0,617.2,""smooth"",""right"",""right"",""good_move"",4717,3097.9,2650,1619.1,447.9,""smooth"",""right"",""right"",""good_move"",7984.8,3265.6,2849.3,4719.3,416.3,""smooth"",""right"",""right"",""good_move"",13280.5,5291.3,1604.1,11193.8,482.6,""smooth"",""up"",""up"",""good_move"",21430.2,8142.1,3206.8,17760.5,462.9,""smooth"",""up"",""up"",""good_move"",24574.5,3140.6,1883.1,21433.9,1257.5,""smooth"",""up"",""up"",""good_move""]","",""
"6369","","<div style=""width:500px;"">
  <p>What determined the result of this run?</p>
  </div>","100","html-slider-response","25","324621","0.0-5.0-1.3","67","1","2025-07-16 08:30:56","1f75c3e559b7213887762d5229550c2b","41.113.3.113","Mozilla/5.0 (Windows NT 10.0; Win64; x64) AppleWebKit/537.36 (KHTML, like Gecko) Chrome/138.0.0.0 Safari/537.36","WebKit","Chrome","138.0.0.0","Windows","10.0","https://app.prolific.com/","en-ZA,en-GB;q=0.9,en-US;q=0.8,en;q=0.7,zu;q=0.6","5f3287b83428cb05746e2214","68764874ac79eee8c1d4cb03","687762b2ebbec5797d458b95","2","0","5f3287b83428cb05746e2214","2","0","2025-07-16T08:36:31.861Z","","","","","","","","","","","AttribQ","","50","","","","","","","","","","","","","","","","","","","","","","","","","","","","",""
"4508","","<div style=""width:500px;"">
  <p>How much control did you have over the ball?</p>
  </div>","100","html-slider-response","26","329134","0.0-5.0-2.3","67","1","2025-07-16 08:30:56","1f75c3e559b7213887762d5229550c2b","41.113.3.113","Mozilla/5.0 (Windows NT 10.0; Win64; x64) AppleWebKit/537.36 (KHTML, like Gecko) Chrome/138.0.0.0 Safari/537.36","WebKit","Chrome","138.0.0.0","Windows","10.0","https://app.prolific.com/","en-ZA,en-GB;q=0.9,en-US;q=0.8,en;q=0.7,zu;q=0.6","5f3287b83428cb05746e2214","68764874ac79eee8c1d4cb03","687762b2ebbec5797d458b95","2","0","5f3287b83428cb05746e2214","2","0","2025-07-16T08:36:36.374Z","","","","","","","","","","","ControlQ","","50","","","","","","","","","","","","","","","","","","","","","","","","","","","","",""
"7724","","<div style=""width:500px;"">
  <p>How would you describe your current emotional state?</p>
  </div>","0","html-slider-response","27","336866","0.0-5.0-3.3","67","1","2025-07-16 08:30:56","1f75c3e559b7213887762d5229550c2b","41.113.3.113","Mozilla/5.0 (Windows NT 10.0; Win64; x64) AppleWebKit/537.36 (KHTML, like Gecko) Chrome/138.0.0.0 Safari/537.36","WebKit","Chrome","138.0.0.0","Windows","10.0","https://app.prolific.com/","en-ZA,en-GB;q=0.9,en-US;q=0.8,en;q=0.7,zu;q=0.6","5f3287b83428cb05746e2214","68764874ac79eee8c1d4cb03","687762b2ebbec5797d458b95","2","0","5f3287b83428cb05746e2214","2","0","2025-07-16T08:36:44.107Z","","","","","","","","","","","StressQ","","50","","","","","","","","","","","","","","","","","","","","","","","","","","","","",""
"6420","","<div style=""width:500px;"">
  <p>What best describes how you currently feel?</p>
  </div>","100","html-slider-response","28","343295","0.0-5.0-4.3","67","1","2025-07-16 08:30:56","1f75c3e559b7213887762d5229550c2b","41.113.3.113","Mozilla/5.0 (Windows NT 10.0; Win64; x64) AppleWebKit/537.36 (KHTML, like Gecko) Chrome/138.0.0.0 Safari/537.36","WebKit","Chrome","138.0.0.0","Windows","10.0","https://app.prolific.com/","en-ZA,en-GB;q=0.9,en-US;q=0.8,en;q=0.7,zu;q=0.6","5f3287b83428cb05746e2214","68764874ac79eee8c1d4cb03","687762b2ebbec5797d458b95","2","0","5f3287b83428cb05746e2214","2","0","2025-07-16T08:36:50.535Z","","","","","","","","","","","MotivationQ","","50","","","","","","","","","","","","","","","","","","","","","","","","","","","","",""
"","","","","ctl-task-cpt","29","418978","0.0-5.0-0.4","67","1","2025-07-16 08:30:56","1f75c3e559b7213887762d5229550c2b","41.113.3.113","Mozilla/5.0 (Windows NT 10.0; Win64; x64) AppleWebKit/537.36 (KHTML, like Gecko) Chrome/138.0.0.0 Safari/537.36","WebKit","Chrome","138.0.0.0","Windows","10.0","https://app.prolific.com/","en-ZA,en-GB;q=0.9,en-US;q=0.8,en;q=0.7,zu;q=0.6","5f3287b83428cb05746e2214","68764874ac79eee8c1d4cb03","687762b2ebbec5797d458b95","2","0","5f3287b83428cb05746e2214","2","0","2025-07-16T08:38:06.218Z","","","","","","","","","","","","","","win-only","1","g1:NE,g2:SW","0.6","5","0","361485.2","2514.8","7545","72619.3","1","4","4","6","2","4","4","27","23","0.20454545454545456","1473.8","3000","1875","[""down"",""left""]","{""num_key_presses"":14,""num_perfect"":8,""num_errors"":0,""num_randdir"":6,""num_randdir_good_moves"":2,""num_whilered"":0,""num_whileblue"":0,""num_blue"":0,""num_good_moves"":10}","[274.7142857142857,274.6205357142857,2.3,274.7142857142857,274.6205357142857,109.7,274.7142857142857,274.6205357142857,241.5,274.7142857142857,274.6205357142857,353.4,274.7142857142857,274.6205357142857,471.7,274.7142857142857,274.6205357142857,595.7,272.7142857142857,274.6205357142857,717.8,140.71428571428572,416.6205357142857,838.1,73.71428571428572,490.6205357142857,951.8,56.714285714285715,506.6205357142857,1059.1,51.714285714285715,514.6205357142857,1185.9,51.714285714285715,514.6205357142857,1301.6,51.714285714285715,514.6205357142857,1413.1,51.714285714285715,514.6205357142857,1535.4,51.714285714285715,514.6205357142857,1658.5,51.714285714285715,514.6205357142857,1789.8,51.714285714285715,514.6205357142857,1910.4,51.714285714285715,514.6205357142857,2038.3,51.714285714285715,514.6205357142857,2171.1,51.714285714285715,514.6205357142857,2280.1,51.714285714285715,514.6205357142857,2387.1,51.714285714285715,514.6205357142857,2514.2,51.714285714285715,514.6205357142857,2620,51.714285714285715,514.6205357142857,2722.3,51.714285714285715,514.6205357142857,2835,51.714285714285715,514.6205357142857,2935.8,51.714285714285715,514.6205357142857,3041.1,51.714285714285715,514.6205357142857,3149.7,51.714285714285715,514.6205357142857,3256.2,51.714285714285715,514.6205357142857,3364.6,51.714285714285715,514.6205357142857,3470.6,51.714285714285715,514.6205357142857,3597.6,51.714285714285715,514.6205357142857,3701.7,51.714285714285715,514.6205357142857,3808.4,51.714285714285715,514.6205357142857,3933.6,51.714285714285715,514.6205357142857,4039.3,51.714285714285715,514.6205357142857,4159.5,51.714285714285715,514.6205357142857,4262.2,51.714285714285715,514.6205357142857,4367,51.714285714285715,514.6205357142857,4469.6,51.714285714285715,514.6205357142857,4573,51.714285714285715,514.6205357142857,4681,51.714285714285715,514.6205357142857,4786.1,51.714285714285715,514.6205357142857,4888.4,51.714285714285715,514.6205357142857,4997.7]","[1602.3,1602.3,1000,0,602.3,""smooth"",""down"",""down"",""good_move"",4473.4,2869.2,2366,1604.2,503.2,""smooth"",""down"",""down"",""good_move"",7239.4,2764.3,2279.4,4475.1,485,""smooth"",""down"",""down"",""good_move"",9978.6,2737,2228.8,7241.6,508.2,""oops"",""left"",""right"",""bad_move"",13030.5,3049.8,2372.2,9980.7,677.6,""oops"",""left"",""right"",""bad_move"",16766.5,3732.1,3219.1,13034.4,513,""smooth"",""left"",""left"",""good_move"",22877.8,6108.7,3162,16769.2,2946.7,""smooth"",""left"",""left"",""good_move"",28890.3,6011.1,2768,22879.3,3243.1,""smooth"",""left"",""left"",""good_move"",34918.3,6026.7,2551.5,28891.6,3475.2,""oops"",""left"",""left"",""good_move"",41032,6111.9,2588.2,34920.1,3523.7,""oops"",""left"",""up"",""bad_move"",47554.9,6519.4,1751.1,41035.5,4768.3,""smooth"",""left"",""left"",""good_move"",54019.1,6461,2489.7,47558.1,3971.3,""oops"",""down"",""up"",""bad_move"",60657.6,6636.8,2351.1,54020.9,4285.7,""smooth"",""down"",""down"",""good_move"",64265,3605.7,3006.4,60659.3,599.3,""oops"",""down"",""down"",""good_move""]","",""
"5072","","<div style=""width:500px;"">
  <p>What determined the result of this run?</p>
  </div>","67","html-slider-response","30","424058","0.0-5.0-1.4","67","1","2025-07-16 08:30:56","1f75c3e559b7213887762d5229550c2b","41.113.3.113","Mozilla/5.0 (Windows NT 10.0; Win64; x64) AppleWebKit/537.36 (KHTML, like Gecko) Chrome/138.0.0.0 Safari/537.36","WebKit","Chrome","138.0.0.0","Windows","10.0","https://app.prolific.com/","en-ZA,en-GB;q=0.9,en-US;q=0.8,en;q=0.7,zu;q=0.6","5f3287b83428cb05746e2214","68764874ac79eee8c1d4cb03","687762b2ebbec5797d458b95","2","0","5f3287b83428cb05746e2214","2","0","2025-07-16T08:38:11.299Z","","","","","","","","","","","AttribQ","","50","","","","","","","","","","","","","","","","","","","","","","","","","","","","",""
"4877","","<div style=""width:500px;"">
  <p>How much control did you have over the ball?</p>
  </div>","78","html-slider-response","31","428947","0.0-5.0-2.4","67","1","2025-07-16 08:30:56","1f75c3e559b7213887762d5229550c2b","41.113.3.113","Mozilla/5.0 (Windows NT 10.0; Win64; x64) AppleWebKit/537.36 (KHTML, like Gecko) Chrome/138.0.0.0 Safari/537.36","WebKit","Chrome","138.0.0.0","Windows","10.0","https://app.prolific.com/","en-ZA,en-GB;q=0.9,en-US;q=0.8,en;q=0.7,zu;q=0.6","5f3287b83428cb05746e2214","68764874ac79eee8c1d4cb03","687762b2ebbec5797d458b95","2","0","5f3287b83428cb05746e2214","2","0","2025-07-16T08:38:16.187Z","","","","","","","","","","","ControlQ","","50","","","","","","","","","","","","","","","","","","","","","","","","","","","","",""
"5164","","<div style=""width:500px;"">
  <p>How would you describe your current emotional state?</p>
  </div>","0","html-slider-response","32","434123","0.0-5.0-3.4","67","1","2025-07-16 08:30:56","1f75c3e559b7213887762d5229550c2b","41.113.3.113","Mozilla/5.0 (Windows NT 10.0; Win64; x64) AppleWebKit/537.36 (KHTML, like Gecko) Chrome/138.0.0.0 Safari/537.36","WebKit","Chrome","138.0.0.0","Windows","10.0","https://app.prolific.com/","en-ZA,en-GB;q=0.9,en-US;q=0.8,en;q=0.7,zu;q=0.6","5f3287b83428cb05746e2214","68764874ac79eee8c1d4cb03","687762b2ebbec5797d458b95","2","0","5f3287b83428cb05746e2214","2","0","2025-07-16T08:38:21.363Z","","","","","","","","","","","StressQ","","50","","","","","","","","","","","","","","","","","","","","","","","","","","","","",""
"4330","","<div style=""width:500px;"">
  <p>What best describes how you currently feel?</p>
  </div>","99","html-slider-response","33","438463","0.0-5.0-4.4","67","1","2025-07-16 08:30:56","1f75c3e559b7213887762d5229550c2b","41.113.3.113","Mozilla/5.0 (Windows NT 10.0; Win64; x64) AppleWebKit/537.36 (KHTML, like Gecko) Chrome/138.0.0.0 Safari/537.36","WebKit","Chrome","138.0.0.0","Windows","10.0","https://app.prolific.com/","en-ZA,en-GB;q=0.9,en-US;q=0.8,en;q=0.7,zu;q=0.6","5f3287b83428cb05746e2214","68764874ac79eee8c1d4cb03","687762b2ebbec5797d458b95","2","0","5f3287b83428cb05746e2214","2","0","2025-07-16T08:38:25.703Z","","","","","","","","","","","MotivationQ","","50","","","","","","","","","","","","","","","","","","","","","","","","","","","","",""
"","","","","ctl-task-cpt","34","510868","0.0-5.0-0.5","67","1","2025-07-16 08:30:56","1f75c3e559b7213887762d5229550c2b","41.113.3.113","Mozilla/5.0 (Windows NT 10.0; Win64; x64) AppleWebKit/537.36 (KHTML, like Gecko) Chrome/138.0.0.0 Safari/537.36","WebKit","Chrome","138.0.0.0","Windows","10.0","https://app.prolific.com/","en-ZA,en-GB;q=0.9,en-US;q=0.8,en;q=0.7,zu;q=0.6","5f3287b83428cb05746e2214","68764874ac79eee8c1d4cb03","687762b2ebbec5797d458b95","2","0","5f3287b83428cb05746e2214","2","0","2025-07-16T08:39:38.108Z","","","","","","","","","","","","","","win-only","2","g1:SE,g2:NW","0.5","6","0","456654.3","1771.7","6815.9","69331.6","1","4","8","6","2","8","8","35","27","0.26515151515151514","2086.1","3000","2465","[""left"",""up""]","{""num_key_presses"":8,""num_perfect"":5,""num_errors"":0,""num_randdir"":3,""num_randdir_good_moves"":2,""num_whilered"":0,""num_whileblue"":0,""num_blue"":0,""num_good_moves"":7}","[274.7142857142857,278.6205357142857,4,274.7142857142857,278.6205357142857,109.2,274.7142857142857,278.6205357142857,215.2,274.7142857142857,278.6205357142857,343.5,274.7142857142857,278.6205357142857,465.1,274.7142857142857,278.6205357142857,581.1,274.7142857142857,278.6205357142857,695.8,274.7142857142857,278.6205357142857,802.2,190.71428571428572,209.62053571428572,932.7,179.71428571428572,202.62053571428572,1038.9,179.71428571428572,202.62053571428572,1146.3,169.71428571428572,194.62053571428572,1277.8,96.71428571428572,123.62053571428572,1418.2,77.71428571428572,95.62053571428572,1547.5,66.71428571428572,62.620535714285715,1687.6,61.714285714285715,40.620535714285715,1811.4,61.714285714285715,40.620535714285715,1963.9,61.714285714285715,40.620535714285715,2071,61.714285714285715,40.620535714285715,2204.6,61.714285714285715,40.620535714285715,2312.2,61.714285714285715,40.620535714285715,2428.3,61.714285714285715,40.620535714285715,2580.3,61.714285714285715,40.620535714285715,2698.4,61.714285714285715,40.620535714285715,2804.7,61.714285714285715,40.620535714285715,2935.1,61.714285714285715,40.620535714285715,3081.4,61.714285714285715,40.620535714285715,3232.7,61.714285714285715,40.620535714285715,3339.2,61.714285714285715,40.620535714285715,3596.4,61.714285714285715,40.620535714285715,3742.5,61.714285714285715,40.620535714285715,3843.6,61.714285714285715,40.620535714285715,3944.4,61.714285714285715,40.620535714285715,4080.8,61.714285714285715,40.620535714285715,4227,61.714285714285715,40.620535714285715,4331.6,61.714285714285715,40.620535714285715,4478,61.714285714285715,40.620535714285715,4617.3,61.714285714285715,40.620535714285715,4760.9,61.714285714285715,40.620535714285715,4897]","[1574.5,1574.5,1000,0,574.5,""smooth"",""left"",""left"",""good_move"",10449.7,8873.8,2078.3,1575.9,6795.5,""oops"",""left"",""down"",""bad_move"",13973.1,3522.1,2910,10451.1,612,""oops"",""left"",""up"",""good_move"",22903.5,8928.6,3126.6,13975,5801.9,""oops"",""left"",""up"",""good_move"",32221.5,9316.8,2675.8,22904.8,6641,""smooth"",""left"",""left"",""good_move"",42306.1,10083.4,3049.9,32222.8,7033.4,""smooth"",""left"",""left"",""good_move"",51741.4,9434,2676.6,42307.5,6757.4,""smooth"",""up"",""up"",""good_move"",61711.4,9968.9,2722.5,51742.6,7246.3,""smooth"",""up"",""up"",""good_move""]","",""
"4446","","<div style=""width:500px;"">
  <p>What determined the result of this run?</p>
  </div>","85","html-slider-response","35","515324","0.0-5.0-1.5","67","1","2025-07-16 08:30:56","1f75c3e559b7213887762d5229550c2b","41.113.3.113","Mozilla/5.0 (Windows NT 10.0; Win64; x64) AppleWebKit/537.36 (KHTML, like Gecko) Chrome/138.0.0.0 Safari/537.36","WebKit","Chrome","138.0.0.0","Windows","10.0","https://app.prolific.com/","en-ZA,en-GB;q=0.9,en-US;q=0.8,en;q=0.7,zu;q=0.6","5f3287b83428cb05746e2214","68764874ac79eee8c1d4cb03","687762b2ebbec5797d458b95","2","0","5f3287b83428cb05746e2214","2","0","2025-07-16T08:39:42.564Z","","","","","","","","","","","AttribQ","","50","","","","","","","","","","","","","","","","","","","","","","","","","","","","",""
"6169","","<div style=""width:500px;"">
  <p>How much control did you have over the ball?</p>
  </div>","80","html-slider-response","36","521507","0.0-5.0-2.5","67","1","2025-07-16 08:30:56","1f75c3e559b7213887762d5229550c2b","41.113.3.113","Mozilla/5.0 (Windows NT 10.0; Win64; x64) AppleWebKit/537.36 (KHTML, like Gecko) Chrome/138.0.0.0 Safari/537.36","WebKit","Chrome","138.0.0.0","Windows","10.0","https://app.prolific.com/","en-ZA,en-GB;q=0.9,en-US;q=0.8,en;q=0.7,zu;q=0.6","5f3287b83428cb05746e2214","68764874ac79eee8c1d4cb03","687762b2ebbec5797d458b95","2","0","5f3287b83428cb05746e2214","2","0","2025-07-16T08:39:48.747Z","","","","","","","","","","","ControlQ","","50","","","","","","","","","","","","","","","","","","","","","","","","","","","","",""
"5595","","<div style=""width:500px;"">
  <p>How would you describe your current emotional state?</p>
  </div>","0","html-slider-response","37","527115","0.0-5.0-3.5","67","1","2025-07-16 08:30:56","1f75c3e559b7213887762d5229550c2b","41.113.3.113","Mozilla/5.0 (Windows NT 10.0; Win64; x64) AppleWebKit/537.36 (KHTML, like Gecko) Chrome/138.0.0.0 Safari/537.36","WebKit","Chrome","138.0.0.0","Windows","10.0","https://app.prolific.com/","en-ZA,en-GB;q=0.9,en-US;q=0.8,en;q=0.7,zu;q=0.6","5f3287b83428cb05746e2214","68764874ac79eee8c1d4cb03","687762b2ebbec5797d458b95","2","0","5f3287b83428cb05746e2214","2","0","2025-07-16T08:39:54.356Z","","","","","","","","","","","StressQ","","50","","","","","","","","","","","","","","","","","","","","","","","","","","","","",""
"2972","","<div style=""width:500px;"">
  <p>What best describes how you currently feel?</p>
  </div>","100","html-slider-response","38","530100","0.0-5.0-4.5","67","1","2025-07-16 08:30:56","1f75c3e559b7213887762d5229550c2b","41.113.3.113","Mozilla/5.0 (Windows NT 10.0; Win64; x64) AppleWebKit/537.36 (KHTML, like Gecko) Chrome/138.0.0.0 Safari/537.36","WebKit","Chrome","138.0.0.0","Windows","10.0","https://app.prolific.com/","en-ZA,en-GB;q=0.9,en-US;q=0.8,en;q=0.7,zu;q=0.6","5f3287b83428cb05746e2214","68764874ac79eee8c1d4cb03","687762b2ebbec5797d458b95","2","0","5f3287b83428cb05746e2214","2","0","2025-07-16T08:39:57.340Z","","","","","","","","","","","MotivationQ","","50","","","","","","","","","","","","","","","","","","","","","","","","","","","","",""
"","","","","ctl-task-cpt","39","668492","0.0-5.0-0.6","67","1","2025-07-16 08:30:56","1f75c3e559b7213887762d5229550c2b","41.113.3.113","Mozilla/5.0 (Windows NT 10.0; Win64; x64) AppleWebKit/537.36 (KHTML, like Gecko) Chrome/138.0.0.0 Safari/537.36","WebKit","Chrome","138.0.0.0","Windows","10.0","https://app.prolific.com/","en-ZA,en-GB;q=0.9,en-US;q=0.8,en;q=0.7,zu;q=0.6","5f3287b83428cb05746e2214","68764874ac79eee8c1d4cb03","687762b2ebbec5797d458b95","2","0","5f3287b83428cb05746e2214","2","0","2025-07-16T08:42:15.732Z","","","","","","","","","","","","","","win-only","0","g1:NW,g2:SE","0.4","7","0","548294.9","2267","7279.2","135266.8","1","4","4","6","2","4","4","39","35","0.29545454545454547","1628.5","3000","1975","[""down"",""right""]","{""num_key_presses"":18,""num_perfect"":7,""num_errors"":0,""num_randdir"":11,""num_randdir_good_moves"":6,""num_whilered"":0,""num_whileblue"":0,""num_blue"":1,""num_good_moves"":13}","[277.7142857142857,277.6205357142857,1.9,277.7142857142857,277.6205357142857,182.8,277.7142857142857,277.6205357142857,287.8,277.7142857142857,277.6205357142857,473,277.7142857142857,277.6205357142857,654,311.7142857142857,300.6205357142857,847.6,427.7142857142857,427.6205357142857,974.5,454.7142857142857,469.6205357142857,1092,474.7142857142857,493.6205357142857,1215.2,485.7142857142857,498.6205357142857,1327.9,491.7142857142857,499.6205357142857,1515.1,491.7142857142857,499.6205357142857,1719.4,491.7142857142857,499.6205357142857,1902.3,491.7142857142857,499.6205357142857,2085.4,491.7142857142857,499.6205357142857,2284.9,491.7142857142857,499.6205357142857,2445.5,491.7142857142857,499.6205357142857,2613,491.7142857142857,499.6205357142857,2769.7,491.7142857142857,499.6205357142857,2928.7,491.7142857142857,499.6205357142857,3084.6,491.7142857142857,499.6205357142857,3246.2,491.7142857142857,499.6205357142857,3397.1,491.7142857142857,499.6205357142857,3563.7,491.7142857142857,499.6205357142857,3720.6,491.7142857142857,499.6205357142857,3874.7,491.7142857142857,499.6205357142857,4040.2,491.7142857142857,499.6205357142857,4204.5,491.7142857142857,499.6205357142857,4368.6,491.7142857142857,499.6205357142857,4530.1,491.7142857142857,499.6205357142857,4686.3,491.7142857142857,499.6205357142857,4845.4]","[1743.6,1743.6,1000,0,743.7,""smooth"",""down"",""down"",""good_move"",4952.1,3207,1984.2,1745.2,1222.7,""smooth"",""down"",""down"",""good_move"",12353.4,7399.3,2478,9116.8,758.6,""oops"",""down"",""left"",""bad_move"",27057,14702.1,2743.1,12355,11959,""oops"",""down"",""down"",""good_move"",30728.8,3670.3,2802.2,27058.5,868.1,""oops"",""right"",""left"",""bad_move"",45825.7,15094.3,1460.6,30731.4,13633.7,""oops"",""right"",""up"",""bad_move"",61145.7,15318,2817,45827.8,12500.9,""oops"",""right"",""down"",""good_move"",65072.1,3925,2711.4,61147.1,1213.6,""smooth"",""right"",""right"",""good_move"",68546.1,3471.4,1726.9,65074.7,1744.5,""oops"",""right"",""down"",""good_move"",71796.9,3248.1,2002.5,68548.8,1245.6,""smooth"",""right"",""right"",""good_move"",75282,3482.9,2730.8,71799.1,752.1,""oops"",""right"",""left"",""bad_move"",91243.1,15959.4,2708.1,75283.8,13251.2,""smooth"",""right"",""right"",""good_move"",94748.4,3504.1,2657.2,91244.3,846.9,""oops"",""right"",""right"",""good_move"",97947.7,3196.9,2312.6,94750.8,884.3,""oops"",""right"",""up"",""bad_move"",114116,16166.3,2564,97949.8,13602.3,""oops"",""right"",""right"",""good_move"",120682.9,6565.4,2868.1,114117.5,3697.3,""oops"",""right"",""right"",""good_move"",124195.1,3510.9,2388.4,120684.4,1122.3,""smooth"",""right"",""right"",""good_move"",127101.3,2898.8,2018.2,124202.5,880.6,""smooth"",""down"",""down"",""good_move""]","",""
"5374","","<div style=""width:500px;"">
  <p>What determined the result of this run?</p>
  </div>","0","html-slider-response","40","673880","0.0-5.0-1.6","67","1","2025-07-16 08:30:56","1f75c3e559b7213887762d5229550c2b","41.113.3.113","Mozilla/5.0 (Windows NT 10.0; Win64; x64) AppleWebKit/537.36 (KHTML, like Gecko) Chrome/138.0.0.0 Safari/537.36","WebKit","Chrome","138.0.0.0","Windows","10.0","https://app.prolific.com/","en-ZA,en-GB;q=0.9,en-US;q=0.8,en;q=0.7,zu;q=0.6","5f3287b83428cb05746e2214","68764874ac79eee8c1d4cb03","687762b2ebbec5797d458b95","2","0","5f3287b83428cb05746e2214","2","0","2025-07-16T08:42:21.120Z","","","","","","","","","","","AttribQ","","50","","","","","","","","","","","","","","","","","","","","","","","","","","","","",""
"5210","","<div style=""width:500px;"">
  <p>How much control did you have over the ball?</p>
  </div>","0","html-slider-response","41","679107","0.0-5.0-2.6","67","1","2025-07-16 08:30:56","1f75c3e559b7213887762d5229550c2b","41.113.3.113","Mozilla/5.0 (Windows NT 10.0; Win64; x64) AppleWebKit/537.36 (KHTML, like Gecko) Chrome/138.0.0.0 Safari/537.36","WebKit","Chrome","138.0.0.0","Windows","10.0","https://app.prolific.com/","en-ZA,en-GB;q=0.9,en-US;q=0.8,en;q=0.7,zu;q=0.6","5f3287b83428cb05746e2214","68764874ac79eee8c1d4cb03","687762b2ebbec5797d458b95","2","0","5f3287b83428cb05746e2214","2","0","2025-07-16T08:42:26.347Z","","","","","","","","","","","ControlQ","","50","","","","","","","","","","","","","","","","","","","","","","","","","","","","",""
"4446","","<div style=""width:500px;"">
  <p>How would you describe your current emotional state?</p>
  </div>","66","html-slider-response","42","683570","0.0-5.0-3.6","67","1","2025-07-16 08:30:56","1f75c3e559b7213887762d5229550c2b","41.113.3.113","Mozilla/5.0 (Windows NT 10.0; Win64; x64) AppleWebKit/537.36 (KHTML, like Gecko) Chrome/138.0.0.0 Safari/537.36","WebKit","Chrome","138.0.0.0","Windows","10.0","https://app.prolific.com/","en-ZA,en-GB;q=0.9,en-US;q=0.8,en;q=0.7,zu;q=0.6","5f3287b83428cb05746e2214","68764874ac79eee8c1d4cb03","687762b2ebbec5797d458b95","2","0","5f3287b83428cb05746e2214","2","0","2025-07-16T08:42:30.810Z","","","","","","","","","","","StressQ","","50","","","","","","","","","","","","","","","","","","","","","","","","","","","","",""
"5060","","<div style=""width:500px;"">
  <p>What best describes how you currently feel?</p>
  </div>","72","html-slider-response","43","688650","0.0-5.0-4.6","67","1","2025-07-16 08:30:56","1f75c3e559b7213887762d5229550c2b","41.113.3.113","Mozilla/5.0 (Windows NT 10.0; Win64; x64) AppleWebKit/537.36 (KHTML, like Gecko) Chrome/138.0.0.0 Safari/537.36","WebKit","Chrome","138.0.0.0","Windows","10.0","https://app.prolific.com/","en-ZA,en-GB;q=0.9,en-US;q=0.8,en;q=0.7,zu;q=0.6","5f3287b83428cb05746e2214","68764874ac79eee8c1d4cb03","687762b2ebbec5797d458b95","2","0","5f3287b83428cb05746e2214","2","0","2025-07-16T08:42:35.890Z","","","","","","","","","","","MotivationQ","","50","","","","","","","","","","","","","","","","","","","","","","","","","","","","",""
"","","","","ctl-task-cpt","44","1125348","0.0-5.0-0.7","67","1","2025-07-16 08:30:56","1f75c3e559b7213887762d5229550c2b","41.113.3.113","Mozilla/5.0 (Windows NT 10.0; Win64; x64) AppleWebKit/537.36 (KHTML, like Gecko) Chrome/138.0.0.0 Safari/537.36","WebKit","Chrome","138.0.0.0","Windows","10.0","https://app.prolific.com/","en-ZA,en-GB;q=0.9,en-US;q=0.8,en;q=0.7,zu;q=0.6","5f3287b83428cb05746e2214","68764874ac79eee8c1d4cb03","687762b2ebbec5797d458b95","2","0","5f3287b83428cb05746e2214","2","0","2025-07-16T08:49:52.588Z","","","","","","","","","","","","","","win-only","0","g1:NW,g2:SE","0.3","8","0","706847.2","1743.7","6808.2","433653.9","1","4","8","6","2","8","8","47","39","0.3560606060606061","1615.6","3000","1220","[""down"",""right""]","{""num_key_presses"":42,""num_perfect"":13,""num_errors"":0,""num_randdir"":29,""num_randdir_good_moves"":15,""num_whilered"":0,""num_whileblue"":0,""num_blue"":5,""num_good_moves"":28}","[276.7142857142857,276.6205357142857,2.9,276.7142857142857,276.6205357142857,153.2,276.7142857142857,276.6205357142857,277.2,276.7142857142857,276.6205357142857,405,276.7142857142857,276.6205357142857,535.4,276.7142857142857,276.6205357142857,654,405.7142857142857,389.6205357142857,812.1,463.7142857142857,454.6205357142857,977.2,471.7142857142857,466.6205357142857,1130.9,479.7142857142857,479.6205357142857,1288.6,484.7142857142857,491.6205357142857,1417.9,484.7142857142857,491.6205357142857,1542.1,484.7142857142857,491.6205357142857,1677.4,484.7142857142857,491.6205357142857,1801.8,484.7142857142857,491.6205357142857,1922.6,484.7142857142857,491.6205357142857,2052.9,484.7142857142857,491.6205357142857,2188.4,484.7142857142857,491.6205357142857,2321.2,484.7142857142857,491.6205357142857,2432.7,484.7142857142857,491.6205357142857,2542.9,484.7142857142857,491.6205357142857,2650.7,484.7142857142857,491.6205357142857,2756.5,484.7142857142857,491.6205357142857,2860.3,484.7142857142857,491.6205357142857,2968.5,484.7142857142857,491.6205357142857,3071.1,484.7142857142857,491.6205357142857,3187.5,484.7142857142857,491.6205357142857,3307.3,484.7142857142857,491.6205357142857,3417.1,484.7142857142857,491.6205357142857,3520.8,484.7142857142857,491.6205357142857,3629.5,484.7142857142857,491.6205357142857,3740.5,484.7142857142857,491.6205357142857,3848.9,484.7142857142857,491.6205357142857,3964.9,484.7142857142857,491.6205357142857,4075.4,484.7142857142857,491.6205357142857,4188.7,484.7142857142857,491.6205357142857,4301.3,484.7142857142857,491.6205357142857,4410.2,484.7142857142857,491.6205357142857,4516.3,484.7142857142857,491.6205357142857,4625.5,484.7142857142857,491.6205357142857,4734.7,484.7142857142857,491.6205357142857,4846.5,484.7142857142857,491.6205357142857,4953.6]","[1717.7,1717.7,1000,0,717.7,""smooth"",""down"",""down"",""good_move"",7811.4,6092.2,2107.1,5081.2,623.1,""smooth"",""right"",""right"",""good_move"",10550.1,2737,2052,7813.1,685,""oops"",""right"",""left"",""bad_move"",29975.9,19423.9,3378,10552,16045.9,""oops"",""right"",""right"",""good_move"",34000.5,4019.7,2730.4,29980.8,1289.3,""smooth"",""right"",""right"",""good_move"",36893.3,2890,1954,34003.3,936,""oops"",""right"",""right"",""good_move"",39789.5,2892.9,2001.4,36896.7,891.4,""oops"",""right"",""down"",""good_move"",42842.8,3051.2,2001.1,39791.6,1050.1,""oops"",""right"",""up"",""bad_move"",63072.7,20225.5,2348.7,42847.3,17876.7,""oops"",""down"",""down"",""good_move"",66866.6,3792.5,2410.2,63074.1,1382.3,""oops"",""down"",""up"",""bad_move"",86436.6,19567.8,2297.6,66868.8,17270.2,""oops"",""down"",""up"",""bad_move"",106525.8,20087.9,3337.8,86438,16750,""smooth"",""down"",""down"",""good_move"",110206.2,3679.1,2517.9,106527.3,1161.1,""oops"",""down"",""up"",""bad_move"",130505.6,20297.3,2640,110208.4,17657.2,""oops"",""down"",""down"",""good_move"",133629.8,3122.6,2399.8,130507.2,722.8,""oops"",""down"",""down"",""good_move"",137021,3389.5,2724,133631.7,665.4,""oops"",""down"",""right"",""good_move"",140975.7,3952.8,2648,137022.9,1304.8,""oops"",""down"",""left"",""bad_move"",161733.2,20755.9,2863,140977.3,17893,""smooth"",""down"",""down"",""good_move"",165478.8,3743.9,3098.4,161734.9,645.5,""smooth"",""down"",""down"",""good_move"",168631.5,3150.2,2389.8,165481.4,760.3,""oops"",""down"",""up"",""bad_move"",189642.9,21009,2967.4,168633.9,18041.6,""smooth"",""right"",""right"",""good_move"",193380.6,3736.3,2648.8,189644.3,1087.5,""smooth"",""right"",""right"",""good_move"",196232.5,2850.3,2028.3,193382.5,821.8,""oops"",""down"",""down"",""good_move"",199967.2,3727.8,2793.7,196239.4,934.1,""oops"",""down"",""up"",""bad_move"",225186.6,25217.8,1996.2,221954.1,1236.4,""oops"",""down"",""down"",""good_move"",227907.4,2719.1,1961.3,225188.3,757.8,""smooth"",""down"",""down"",""good_move"",231622.7,3713.2,3036.8,227909.5,676.4,""oops"",""down"",""left"",""bad_move"",255034.9,23409.8,2045.7,231625.1,21364.1,""oops"",""down"",""right"",""good_move"",258085.6,3049.3,2338.8,255036.4,710.4,""oops"",""down"",""up"",""bad_move"",280736.7,22648.6,2641.3,258088.1,20007.3,""oops"",""down"",""left"",""bad_move"",302883.8,22145.4,1815,280738.4,20330.4,""oops"",""down"",""down"",""good_move"",306979.6,4094.3,3325.9,302885.3,768.5,""oops"",""down"",""down"",""good_move"",311016.1,4034,3066.4,306982.2,967.5,""smooth"",""right"",""right"",""good_move"",314912.3,3894.6,2857.2,311017.9,1037.3,""oops"",""down"",""up"",""bad_move"",344350.4,29436,2568.2,314914.5,26867.7,""oops"",""down"",""left"",""bad_move"",367322.9,22971,2410.5,344351.9,20560.5,""oops"",""down"",""right"",""good_move"",370751.9,3427.6,2274.6,367324.5,1152.8,""smooth"",""down"",""down"",""good_move"",375610.9,4856.7,2889.7,370754.2,1967,""oops"",""right"",""right"",""good_move"",379388.7,3771.6,2502.1,375617.1,1269.5,""smooth"",""down"",""down"",""good_move"",383114.1,3723.3,2518.8,379390.8,1204.5,""oops"",""right"",""up"",""bad_move"",410637,27520,2698.3,383117.2,24821.6,""oops"",""down"",""right"",""good_move"",417630.8,6992.4,2189.8,414040.3,1400.7,""smooth"",""down"",""down"",""good_move""]","",""
"5091","","<div style=""width:500px;"">
  <p>What determined the result of this run?</p>
  </div>","0","html-slider-response","45","1130442","0.0-5.0-1.7","67","1","2025-07-16 08:30:56","1f75c3e559b7213887762d5229550c2b","41.113.3.113","Mozilla/5.0 (Windows NT 10.0; Win64; x64) AppleWebKit/537.36 (KHTML, like Gecko) Chrome/138.0.0.0 Safari/537.36","WebKit","Chrome","138.0.0.0","Windows","10.0","https://app.prolific.com/","en-ZA,en-GB;q=0.9,en-US;q=0.8,en;q=0.7,zu;q=0.6","5f3287b83428cb05746e2214","68764874ac79eee8c1d4cb03","687762b2ebbec5797d458b95","2","0","5f3287b83428cb05746e2214","2","0","2025-07-16T08:49:57.682Z","","","","","","","","","","","AttribQ","","50","","","","","","","","","","","","","","","","","","","","","","","","","","","","",""
"5890","","<div style=""width:500px;"">
  <p>How much control did you have over the ball?</p>
  </div>","0","html-slider-response","46","1136341","0.0-5.0-2.7","67","1","2025-07-16 08:30:56","1f75c3e559b7213887762d5229550c2b","41.113.3.113","Mozilla/5.0 (Windows NT 10.0; Win64; x64) AppleWebKit/537.36 (KHTML, like Gecko) Chrome/138.0.0.0 Safari/537.36","WebKit","Chrome","138.0.0.0","Windows","10.0","https://app.prolific.com/","en-ZA,en-GB;q=0.9,en-US;q=0.8,en;q=0.7,zu;q=0.6","5f3287b83428cb05746e2214","68764874ac79eee8c1d4cb03","687762b2ebbec5797d458b95","2","0","5f3287b83428cb05746e2214","2","0","2025-07-16T08:50:03.581Z","","","","","","","","","","","ControlQ","","50","","","","","","","","","","","","","","","","","","","","","","","","","","","","",""
"4804","","<div style=""width:500px;"">
  <p>How would you describe your current emotional state?</p>
  </div>","100","html-slider-response","47","1141153","0.0-5.0-3.7","67","1","2025-07-16 08:30:56","1f75c3e559b7213887762d5229550c2b","41.113.3.113","Mozilla/5.0 (Windows NT 10.0; Win64; x64) AppleWebKit/537.36 (KHTML, like Gecko) Chrome/138.0.0.0 Safari/537.36","WebKit","Chrome","138.0.0.0","Windows","10.0","https://app.prolific.com/","en-ZA,en-GB;q=0.9,en-US;q=0.8,en;q=0.7,zu;q=0.6","5f3287b83428cb05746e2214","68764874ac79eee8c1d4cb03","687762b2ebbec5797d458b95","2","0","5f3287b83428cb05746e2214","2","0","2025-07-16T08:50:08.393Z","","","","","","","","","","","StressQ","","50","","","","","","","","","","","","","","","","","","","","","","","","","","","","",""
"4877","","<div style=""width:500px;"">
  <p>What best describes how you currently feel?</p>
  </div>","1","html-slider-response","48","1146038","0.0-5.0-4.7","67","1","2025-07-16 08:30:56","1f75c3e559b7213887762d5229550c2b","41.113.3.113","Mozilla/5.0 (Windows NT 10.0; Win64; x64) AppleWebKit/537.36 (KHTML, like Gecko) Chrome/138.0.0.0 Safari/537.36","WebKit","Chrome","138.0.0.0","Windows","10.0","https://app.prolific.com/","en-ZA,en-GB;q=0.9,en-US;q=0.8,en;q=0.7,zu;q=0.6","5f3287b83428cb05746e2214","68764874ac79eee8c1d4cb03","687762b2ebbec5797d458b95","2","0","5f3287b83428cb05746e2214","2","0","2025-07-16T08:50:13.278Z","","","","","","","","","","","MotivationQ","","50","","","","","","","","","","","","","","","","","","","","","","","","","","","","",""
"","","","","ctl-task-cpt","49","1279910","0.0-5.0-0.8","67","1","2025-07-16 08:30:56","1f75c3e559b7213887762d5229550c2b","41.113.3.113","Mozilla/5.0 (Windows NT 10.0; Win64; x64) AppleWebKit/537.36 (KHTML, like Gecko) Chrome/138.0.0.0 Safari/537.36","WebKit","Chrome","138.0.0.0","Windows","10.0","https://app.prolific.com/","en-ZA,en-GB;q=0.9,en-US;q=0.8,en;q=0.7,zu;q=0.6","5f3287b83428cb05746e2214","68764874ac79eee8c1d4cb03","687762b2ebbec5797d458b95","2","0","5f3287b83428cb05746e2214","2","0","2025-07-16T08:52:27.150Z","","","","","","","","","","","","","","win-only","0","g1:NW,g2:SE","0.2","9","0","1164226.3","3097.1","8107.4","130835.5","1","4","8","6","2","-8","-11","36","47","0.2727272727272727","1945.6","3000","-805","[""down"",""right""]","{""num_key_presses"":23,""num_perfect"":4,""num_errors"":3,""num_randdir"":16,""num_randdir_good_moves"":7,""num_whilered"":0,""num_whileblue"":1,""num_blue"":6,""num_good_moves"":12}","[272.7142857142857,275.6205357142857,4.9,272.7142857142857,275.6205357142857,109.6,272.7142857142857,275.6205357142857,222.8,272.7142857142857,275.6205357142857,371,272.7142857142857,275.6205357142857,496.9,272.7142857142857,275.6205357142857,620.7,399.7142857142857,408.6205357142857,724.2,480.7142857142857,549.6205357142857,837.6,498.7142857142857,561.6205357142857,941.1,516.7142857142857,562.6205357142857,1047.5,515.7142857142857,551.6205357142857,1181.3,514.7142857142857,549.6205357142857,1328.2,509.7142857142857,542.6205357142857,1460.3,509.7142857142857,540.6205357142857,1564.1,509.7142857142857,540.6205357142857,1680.9,509.7142857142857,540.6205357142857,1816.5,509.7142857142857,540.6205357142857,1967.1,509.7142857142857,540.6205357142857,2075,509.7142857142857,540.6205357142857,2177.4,509.7142857142857,540.6205357142857,2306.4,509.7142857142857,540.6205357142857,2408.8,509.7142857142857,540.6205357142857,2527.5,509.7142857142857,540.6205357142857,2656,509.7142857142857,540.6205357142857,2761.9,509.7142857142857,540.6205357142857,2864.8,509.7142857142857,540.6205357142857,2970.8,509.7142857142857,540.6205357142857,3086.8,509.7142857142857,540.6205357142857,3199.6,509.7142857142857,540.6205357142857,3306.8,509.7142857142857,540.6205357142857,3436.9,509.7142857142857,540.6205357142857,3549.1,509.7142857142857,540.6205357142857,3665.1,509.7142857142857,540.6205357142857,3777.7,509.7142857142857,540.6205357142857,3949.2,509.7142857142857,540.6205357142857,4053.1,497.7142857142857,518.6205357142857,4186.9,495.7142857142857,514.6205357142857,4296.1,495.7142857142857,514.6205357142857,4399.4,495.7142857142857,514.6205357142857,4510.2,495.7142857142857,514.6205357142857,4617.8,495.7142857142857,514.6205357142857,4747.1,495.7142857142857,514.6205357142857,4866.9,495.7142857142857,514.6205357142857,4974.8]","[5719.8,5719.8,2611,2040.1,1068.7,""oops"",""down"",""down"",""good_move"",12966.8,7244.8,2069.3,5722,5175.5,""oops"",""down"",""up"",""bad_move"",23480.7,10502.4,2544.3,20223.9,712.5,""oops"",""right"",""left"",""bad_move"",32933.2,9450,2610.3,23483.2,6839.8,""smooth"",""down"",""down"",""good_move"",36645.1,3710.4,2625.7,32934.8,1084.6,""oops"",""down"",""up"",""bad_move"",45051.4,8403.4,2798.8,36648,5604.6,""smooth"",""right"",""right"",""good_move"",51684.8,6631.7,3129.8,48059.4,495.6,""oops"",""right"",""up"",""bad_move"",59561.7,7873.8,2156.6,56878.5,526.6,""oops"",""right"",""down"",""good_move"",60200.7,636.5,2159.1,59564.2,-1522.6,""error"",""-"",""-"",""no_move"",64203.7,4000.9,2234.1,61210,759.6,""oops"",""down"",""down"",""good_move"",71592.2,7386.2,3024.3,67910.3,657.6,""oops"",""down"",""up"",""bad_move"",78254.3,6660.2,2676.9,71594.1,3983.3,""oops"",""right"",""right"",""good_move"",81470.3,3214.2,2576.7,78256.2,637.4,""oops"",""down"",""right"",""good_move"",82241.1,768.8,2698.6,81472.3,-1929.8,""error"",""-"",""-"",""no_move"",86787.2,4545,2931.3,83268,588,""oops"",""down"",""right"",""good_move"",90008.2,3219.1,2726.9,86789.1,492.2,""smooth"",""down"",""down"",""good_move"",92567.7,2555.8,2063.4,90012,492.3,""smooth"",""down"",""down"",""good_move"",95588.9,3019.2,2539.6,92569.7,479.6,""oops"",""down"",""up"",""bad_move"",100103.5,4512.8,2784.5,95590.7,1728.3,""oops"",""down"",""down"",""good_move"",103225.3,3119.7,2540.4,100105.7,579.3,""oops"",""down"",""up"",""bad_move"",108361.6,5133.6,2433.1,103228.3,2700.3,""oops"",""down"",""up"",""bad_move"",113609.3,5242.1,4754.9,108367.2,487.2,""while_blue"",""down"",""down"",""good_move"",117300.9,3689.4,2922.4,113611.7,766.8,""oops"",""down"",""up"",""bad_move""]","",""
"4986","","<div style=""width:500px;"">
  <p>What determined the result of this run?</p>
  </div>","0","html-slider-response","50","1284901","0.0-5.0-1.8","67","1","2025-07-16 08:30:56","1f75c3e559b7213887762d5229550c2b","41.113.3.113","Mozilla/5.0 (Windows NT 10.0; Win64; x64) AppleWebKit/537.36 (KHTML, like Gecko) Chrome/138.0.0.0 Safari/537.36","WebKit","Chrome","138.0.0.0","Windows","10.0","https://app.prolific.com/","en-ZA,en-GB;q=0.9,en-US;q=0.8,en;q=0.7,zu;q=0.6","5f3287b83428cb05746e2214","68764874ac79eee8c1d4cb03","687762b2ebbec5797d458b95","2","0","5f3287b83428cb05746e2214","2","0","2025-07-16T08:52:32.141Z","","","","","","","","","","","AttribQ","","50","","","","","","","","","","","","","","","","","","","","","","","","","","","","",""
"3621","","<div style=""width:500px;"">
  <p>How much control did you have over the ball?</p>
  </div>","0","html-slider-response","51","1288532","0.0-5.0-2.8","67","1","2025-07-16 08:30:56","1f75c3e559b7213887762d5229550c2b","41.113.3.113","Mozilla/5.0 (Windows NT 10.0; Win64; x64) AppleWebKit/537.36 (KHTML, like Gecko) Chrome/138.0.0.0 Safari/537.36","WebKit","Chrome","138.0.0.0","Windows","10.0","https://app.prolific.com/","en-ZA,en-GB;q=0.9,en-US;q=0.8,en;q=0.7,zu;q=0.6","5f3287b83428cb05746e2214","68764874ac79eee8c1d4cb03","687762b2ebbec5797d458b95","2","0","5f3287b83428cb05746e2214","2","0","2025-07-16T08:52:35.772Z","","","","","","","","","","","ControlQ","","50","","","","","","","","","","","","","","","","","","","","","","","","","","","","",""
"3640","","<div style=""width:500px;"">
  <p>How would you describe your current emotional state?</p>
  </div>","100","html-slider-response","52","1292178","0.0-5.0-3.8","67","1","2025-07-16 08:30:56","1f75c3e559b7213887762d5229550c2b","41.113.3.113","Mozilla/5.0 (Windows NT 10.0; Win64; x64) AppleWebKit/537.36 (KHTML, like Gecko) Chrome/138.0.0.0 Safari/537.36","WebKit","Chrome","138.0.0.0","Windows","10.0","https://app.prolific.com/","en-ZA,en-GB;q=0.9,en-US;q=0.8,en;q=0.7,zu;q=0.6","5f3287b83428cb05746e2214","68764874ac79eee8c1d4cb03","687762b2ebbec5797d458b95","2","0","5f3287b83428cb05746e2214","2","0","2025-07-16T08:52:39.418Z","","","","","","","","","","","StressQ","","50","","","","","","","","","","","","","","","","","","","","","","","","","","","","",""
"3746","","<div style=""width:500px;"">
  <p>What best describes how you currently feel?</p>
  </div>","0","html-slider-response","53","1295930","0.0-5.0-4.8","67","1","2025-07-16 08:30:56","1f75c3e559b7213887762d5229550c2b","41.113.3.113","Mozilla/5.0 (Windows NT 10.0; Win64; x64) AppleWebKit/537.36 (KHTML, like Gecko) Chrome/138.0.0.0 Safari/537.36","WebKit","Chrome","138.0.0.0","Windows","10.0","https://app.prolific.com/","en-ZA,en-GB;q=0.9,en-US;q=0.8,en;q=0.7,zu;q=0.6","5f3287b83428cb05746e2214","68764874ac79eee8c1d4cb03","687762b2ebbec5797d458b95","2","0","5f3287b83428cb05746e2214","2","0","2025-07-16T08:52:43.170Z","","","","","","","","","","","MotivationQ","","50","","","","","","","","","","","","","","","","","","","","","","","","","","","","",""
"","","","","ctl-task-cpt","54","1363473","0.0-5.0-0.9","67","1","2025-07-16 08:30:56","1f75c3e559b7213887762d5229550c2b","41.113.3.113","Mozilla/5.0 (Windows NT 10.0; Win64; x64) AppleWebKit/537.36 (KHTML, like Gecko) Chrome/138.0.0.0 Safari/537.36","WebKit","Chrome","138.0.0.0","Windows","10.0","https://app.prolific.com/","en-ZA,en-GB;q=0.9,en-US;q=0.8,en;q=0.7,zu;q=0.6","5f3287b83428cb05746e2214","68764874ac79eee8c1d4cb03","687762b2ebbec5797d458b95","2","0","5f3287b83428cb05746e2214","2","0","2025-07-16T08:53:50.713Z","","","","","","","","","","","","","","win-only","3","g1:SW,g2:NE","0.4","10","0","1314119","3048.3","8058.9","64481","1","4","4","6","2","4","4","40","36","0.30303030303030304","5010.6","3000","1900","[""up"",""right""]","{""num_key_presses"":10,""num_perfect"":4,""num_errors"":0,""num_randdir"":6,""num_randdir_good_moves"":5,""num_whilered"":0,""num_whileblue"":0,""num_blue"":4,""num_good_moves"":8}","[282.7142857142857,274.6205357142857,2.6,282.7142857142857,274.6205357142857,131.9,282.7142857142857,274.6205357142857,243.7,282.7142857142857,274.6205357142857,353.7,282.7142857142857,274.6205357142857,471.6,282.7142857142857,274.6205357142857,589.3,282.7142857142857,274.6205357142857,709.5,312.7142857142857,235.62053571428572,836.1,417.7142857142857,115.62053571428572,944.1,451.7142857142857,71.62053571428572,1047.4,476.7142857142857,56.620535714285715,1181.1,486.7142857142857,63.620535714285715,1294.2,487.7142857142857,66.62053571428572,1414.8,487.7142857142857,66.62053571428572,1542.1,487.7142857142857,66.62053571428572,1657.3,487.7142857142857,66.62053571428572,1764.4,487.7142857142857,66.62053571428572,1882,487.7142857142857,66.62053571428572,1998.3,487.7142857142857,66.62053571428572,2103,487.7142857142857,66.62053571428572,2224.7,487.7142857142857,66.62053571428572,2340.2,487.7142857142857,66.62053571428572,2440.5,487.7142857142857,66.62053571428572,2543,487.7142857142857,66.62053571428572,2669.2,487.7142857142857,66.62053571428572,2773.8,487.7142857142857,66.62053571428572,2874,487.7142857142857,66.62053571428572,2993.2,487.7142857142857,66.62053571428572,3114.2,487.7142857142857,66.62053571428572,3219,487.7142857142857,66.62053571428572,3355.4,487.7142857142857,66.62053571428572,3481.8,487.7142857142857,66.62053571428572,3608.7,487.7142857142857,66.62053571428572,3711,487.7142857142857,66.62053571428572,3831.5,487.7142857142857,66.62053571428572,3948.5,487.7142857142857,66.62053571428572,4052.7,487.7142857142857,66.62053571428572,4158.9,487.7142857142857,66.62053571428572,4260.1,487.7142857142857,66.62053571428572,4370,487.7142857142857,66.62053571428572,4472.7,487.7142857142857,66.62053571428572,4593.8,487.7142857142857,66.62053571428572,4702.5,487.7142857142857,66.62053571428572,4807.1,487.7142857142857,66.62053571428572,4929.7]","[1868.4,1868.4,1000,0,868.4,""smooth"",""right"",""right"",""good_move"",8269.6,6394.7,2605.7,5128,535.9,""oops"",""right"",""down"",""bad_move"",14555.7,6285,1767.9,11554.1,1233.7,""smooth"",""down"",""down"",""bad_move"",20811.4,6249.6,2255.4,17954.1,601.9,""oops"",""right"",""right"",""good_move"",23736.8,2922.7,2180.9,20814.1,741.8,""oops"",""right"",""up"",""good_move"",28460.2,4720.6,2709.1,23739.6,2011.5,""oops"",""up"",""right"",""good_move"",31760.9,3293.4,2526.2,28467.5,767.2,""smooth"",""up"",""up"",""good_move"",37549.8,5787.1,2176.4,31762.8,3610.6,""smooth"",""up"",""up"",""good_move"",47772.1,10221.2,2474.1,44675.5,622.5,""oops"",""up"",""up"",""good_move"",55563.5,7789.6,2496.5,47774,5293.1,""oops"",""up"",""up"",""good_move""]","",""
"5541","","<div style=""width:500px;"">
  <p>What determined the result of this run?</p>
  </div>","80","html-slider-response","55","1369022","0.0-5.0-1.9","67","1","2025-07-16 08:30:56","1f75c3e559b7213887762d5229550c2b","41.113.3.113","Mozilla/5.0 (Windows NT 10.0; Win64; x64) AppleWebKit/537.36 (KHTML, like Gecko) Chrome/138.0.0.0 Safari/537.36","WebKit","Chrome","138.0.0.0","Windows","10.0","https://app.prolific.com/","en-ZA,en-GB;q=0.9,en-US;q=0.8,en;q=0.7,zu;q=0.6","5f3287b83428cb05746e2214","68764874ac79eee8c1d4cb03","687762b2ebbec5797d458b95","2","0","5f3287b83428cb05746e2214","2","0","2025-07-16T08:53:56.262Z","","","","","","","","","","","AttribQ","","50","","","","","","","","","","","","","","","","","","","","","","","","","","","","",""
"7541","","<div style=""width:500px;"">
  <p>How much control did you have over the ball?</p>
  </div>","59","html-slider-response","56","1376571","0.0-5.0-2.9","67","1","2025-07-16 08:30:56","1f75c3e559b7213887762d5229550c2b","41.113.3.113","Mozilla/5.0 (Windows NT 10.0; Win64; x64) AppleWebKit/537.36 (KHTML, like Gecko) Chrome/138.0.0.0 Safari/537.36","WebKit","Chrome","138.0.0.0","Windows","10.0","https://app.prolific.com/","en-ZA,en-GB;q=0.9,en-US;q=0.8,en;q=0.7,zu;q=0.6","5f3287b83428cb05746e2214","68764874ac79eee8c1d4cb03","687762b2ebbec5797d458b95","2","0","5f3287b83428cb05746e2214","2","0","2025-07-16T08:54:03.811Z","","","","","","","","","","","ControlQ","","50","","","","","","","","","","","","","","","","","","","","","","","","","","","","",""
"4050","","<div style=""width:500px;"">
  <p>How would you describe your current emotional state?</p>
  </div>","100","html-slider-response","57","1380631","0.0-5.0-3.9","67","1","2025-07-16 08:30:56","1f75c3e559b7213887762d5229550c2b","41.113.3.113","Mozilla/5.0 (Windows NT 10.0; Win64; x64) AppleWebKit/537.36 (KHTML, like Gecko) Chrome/138.0.0.0 Safari/537.36","WebKit","Chrome","138.0.0.0","Windows","10.0","https://app.prolific.com/","en-ZA,en-GB;q=0.9,en-US;q=0.8,en;q=0.7,zu;q=0.6","5f3287b83428cb05746e2214","68764874ac79eee8c1d4cb03","687762b2ebbec5797d458b95","2","0","5f3287b83428cb05746e2214","2","0","2025-07-16T08:54:07.871Z","","","","","","","","","","","StressQ","","50","","","","","","","","","","","","","","","","","","","","","","","","","","","","",""
"3230","","<div style=""width:500px;"">
  <p>What best describes how you currently feel?</p>
  </div>","50","html-slider-response","58","1383869","0.0-5.0-4.9","67","1","2025-07-16 08:30:56","1f75c3e559b7213887762d5229550c2b","41.113.3.113","Mozilla/5.0 (Windows NT 10.0; Win64; x64) AppleWebKit/537.36 (KHTML, like Gecko) Chrome/138.0.0.0 Safari/537.36","WebKit","Chrome","138.0.0.0","Windows","10.0","https://app.prolific.com/","en-ZA,en-GB;q=0.9,en-US;q=0.8,en;q=0.7,zu;q=0.6","5f3287b83428cb05746e2214","68764874ac79eee8c1d4cb03","687762b2ebbec5797d458b95","2","0","5f3287b83428cb05746e2214","2","0","2025-07-16T08:54:11.109Z","","","","","","","","","","","MotivationQ","","50","","","","","","","","","","","","","","","","","","","","","","","","","","","","",""
"","","","","ctl-task-cpt","59","1492112","0.0-5.0-0.10","67","1","2025-07-16 08:30:56","1f75c3e559b7213887762d5229550c2b","41.113.3.113","Mozilla/5.0 (Windows NT 10.0; Win64; x64) AppleWebKit/537.36 (KHTML, like Gecko) Chrome/138.0.0.0 Safari/537.36","WebKit","Chrome","138.0.0.0","Windows","10.0","https://app.prolific.com/","en-ZA,en-GB;q=0.9,en-US;q=0.8,en;q=0.7,zu;q=0.6","5f3287b83428cb05746e2214","68764874ac79eee8c1d4cb03","687762b2ebbec5797d458b95","2","0","5f3287b83428cb05746e2214","2","0","2025-07-16T08:55:59.352Z","","","","","","","","","","","","","","win-only","2","g1:SE,g2:NW","0.5","11","0","1402062.4","2346.1","7415","105154.1","1","4","8","6","2","8","7","47","40","0.3560606060606061","5068.9","3000","1555","[""left"",""up""]","{""num_key_presses"":14,""num_perfect"":7,""num_errors"":1,""num_randdir"":6,""num_randdir_good_moves"":2,""num_whilered"":0,""num_whileblue"":1,""num_blue"":3,""num_good_moves"":10}","[276.7142857142857,278.6205357142857,6.4,276.7142857142857,278.6205357142857,116,276.7142857142857,278.6205357142857,257.8,276.7142857142857,278.6205357142857,401.8,276.7142857142857,278.6205357142857,542.2,276.7142857142857,278.6205357142857,676.7,267.7142857142857,305.6205357142857,859.7,143.71428571428572,188.62053571428572,1020,142.71428571428572,166.62053571428572,1148.6,142.71428571428572,166.62053571428572,1274.1,132.71428571428572,158.62053571428572,1439.8,44.714285714285715,70.62053571428572,1605.5,44.714285714285715,68.62053571428572,1772.8,44.714285714285715,68.62053571428572,1979,44.714285714285715,68.62053571428572,2135.2,44.714285714285715,68.62053571428572,2315.7,44.714285714285715,68.62053571428572,2469.4,44.714285714285715,68.62053571428572,2635.2,44.714285714285715,68.62053571428572,2777.9,44.714285714285715,68.62053571428572,2904.1,44.714285714285715,68.62053571428572,3021.4,44.714285714285715,68.62053571428572,3140.9,44.714285714285715,68.62053571428572,3271.6,44.714285714285715,68.62053571428572,3388.3,44.714285714285715,68.62053571428572,3510.3,44.714285714285715,68.62053571428572,3627.5,44.714285714285715,68.62053571428572,3741,44.714285714285715,68.62053571428572,3855.5,44.714285714285715,68.62053571428572,3975.9,44.714285714285715,68.62053571428572,4119.7,44.714285714285715,68.62053571428572,4241.8,44.714285714285715,68.62053571428572,4367.2,44.714285714285715,68.62053571428572,4511,44.714285714285715,68.62053571428572,4640.7,44.714285714285715,68.62053571428572,4778.4,44.714285714285715,68.62053571428572,4925.7]","[1803.2,1803.2,1000,0,803.2,""smooth"",""left"",""left"",""good_move"",14928.5,13123.7,2834.1,1804.8,10289.6,""oops"",""left"",""up"",""good_move"",25257.8,10318,2199.5,14939.8,8118.5,""smooth"",""left"",""left"",""good_move"",31014.1,5754.7,2650,25259.4,3104.7,""oops"",""left"",""down"",""bad_move"",33749.9,2733.1,1975.7,31016.9,757.4,""smooth"",""up"",""up"",""good_move"",40319.2,6567.7,6016.8,33751.6,550.8,""while_blue"",""up"",""left"",""good_move"",46330,6009.9,2227.7,40320.1,3782.3,""oops"",""up"",""down"",""bad_move"",49905.6,3572.6,2795.3,46333,777.3,""oops"",""up"",""down"",""bad_move"",52705.7,2795.4,1889.3,49910.3,906.1,""smooth"",""up"",""up"",""good_move"",59099.5,6385.8,2420.2,52713.8,3965.5,""oops"",""up"",""down"",""bad_move"",65669.2,6568.4,2387,62619.7,662.5,""smooth"",""up"",""up"",""good_move"",77505.8,11835.5,2406.1,74416.4,683.3,""smooth"",""up"",""up"",""good_move"",87105.6,9598.4,2499.3,77507.2,7099.1,""smooth"",""up"",""up"",""good_move"",96862.1,9752.1,3126.2,87110,6625.9,""oops"",""up"",""up"",""good_move""]","",""
"12652","","<div style=""width:500px;"">
  <p>What determined the result of this run?</p>
  </div>","77","html-slider-response","60","1504770","0.0-5.0-1.10","67","1","2025-07-16 08:30:56","1f75c3e559b7213887762d5229550c2b","41.113.3.113","Mozilla/5.0 (Windows NT 10.0; Win64; x64) AppleWebKit/537.36 (KHTML, like Gecko) Chrome/138.0.0.0 Safari/537.36","WebKit","Chrome","138.0.0.0","Windows","10.0","https://app.prolific.com/","en-ZA,en-GB;q=0.9,en-US;q=0.8,en;q=0.7,zu;q=0.6","5f3287b83428cb05746e2214","68764874ac79eee8c1d4cb03","687762b2ebbec5797d458b95","2","0","5f3287b83428cb05746e2214","2","0","2025-07-16T08:56:12.010Z","","","","","","","","","","","AttribQ","","50","","","","","","","","","","","","","","","","","","","","","","","","","","","","",""
"5147","","<div style=""width:500px;"">
  <p>How much control did you have over the ball?</p>
  </div>","74","html-slider-response","61","1509926","0.0-5.0-2.10","67","1","2025-07-16 08:30:56","1f75c3e559b7213887762d5229550c2b","41.113.3.113","Mozilla/5.0 (Windows NT 10.0; Win64; x64) AppleWebKit/537.36 (KHTML, like Gecko) Chrome/138.0.0.0 Safari/537.36","WebKit","Chrome","138.0.0.0","Windows","10.0","https://app.prolific.com/","en-ZA,en-GB;q=0.9,en-US;q=0.8,en;q=0.7,zu;q=0.6","5f3287b83428cb05746e2214","68764874ac79eee8c1d4cb03","687762b2ebbec5797d458b95","2","0","5f3287b83428cb05746e2214","2","0","2025-07-16T08:56:17.166Z","","","","","","","","","","","ControlQ","","50","","","","","","","","","","","","","","","","","","","","","","","","","","","","",""
"5606","","<div style=""width:500px;"">
  <p>How would you describe your current emotional state?</p>
  </div>","81","html-slider-response","62","1515544","0.0-5.0-3.10","67","1","2025-07-16 08:30:56","1f75c3e559b7213887762d5229550c2b","41.113.3.113","Mozilla/5.0 (Windows NT 10.0; Win64; x64) AppleWebKit/537.36 (KHTML, like Gecko) Chrome/138.0.0.0 Safari/537.36","WebKit","Chrome","138.0.0.0","Windows","10.0","https://app.prolific.com/","en-ZA,en-GB;q=0.9,en-US;q=0.8,en;q=0.7,zu;q=0.6","5f3287b83428cb05746e2214","68764874ac79eee8c1d4cb03","687762b2ebbec5797d458b95","2","0","5f3287b83428cb05746e2214","2","0","2025-07-16T08:56:22.784Z","","","","","","","","","","","StressQ","","50","","","","","","","","","","","","","","","","","","","","","","","","","","","","",""
"4184","","<div style=""width:500px;"">
  <p>What best describes how you currently feel?</p>
  </div>","15","html-slider-response","63","1519739","0.0-5.0-4.10","67","1","2025-07-16 08:30:56","1f75c3e559b7213887762d5229550c2b","41.113.3.113","Mozilla/5.0 (Windows NT 10.0; Win64; x64) AppleWebKit/537.36 (KHTML, like Gecko) Chrome/138.0.0.0 Safari/537.36","WebKit","Chrome","138.0.0.0","Windows","10.0","https://app.prolific.com/","en-ZA,en-GB;q=0.9,en-US;q=0.8,en;q=0.7,zu;q=0.6","5f3287b83428cb05746e2214","68764874ac79eee8c1d4cb03","687762b2ebbec5797d458b95","2","0","5f3287b83428cb05746e2214","2","0","2025-07-16T08:56:26.979Z","","","","","","","","","","","MotivationQ","","50","","","","","","","","","","","","","","","","","","","","","","","","","","","","",""
"","","","","ctl-task-cpt","64","1632030","0.0-5.0-0.11","67","1","2025-07-16 08:30:56","1f75c3e559b7213887762d5229550c2b","41.113.3.113","Mozilla/5.0 (Windows NT 10.0; Win64; x64) AppleWebKit/537.36 (KHTML, like Gecko) Chrome/138.0.0.0 Safari/537.36","WebKit","Chrome","138.0.0.0","Windows","10.0","https://app.prolific.com/","en-ZA,en-GB;q=0.9,en-US;q=0.8,en;q=0.7,zu;q=0.6","5f3287b83428cb05746e2214","68764874ac79eee8c1d4cb03","687762b2ebbec5797d458b95","2","0","5f3287b83428cb05746e2214","2","0","2025-07-16T08:58:19.270Z","","","","","","","","","","","","","","win-only","2","g1:SE,g2:NW","0.6","12","0","1537932.6","10401.8","15456.6","109235.2","1","4","4","6","2","4","4","51","47","0.38636363636363635","2331.2","3000","2130","[""left"",""up""]","{""num_key_presses"":8,""num_perfect"":5,""num_errors"":0,""num_randdir"":3,""num_randdir_good_moves"":2,""num_whilered"":0,""num_whileblue"":0,""num_blue"":1,""num_good_moves"":7}","[283.7142857142857,275.6205357142857,2.4,283.7142857142857,275.6205357142857,188,283.7142857142857,275.6205357142857,321.4,283.7142857142857,275.6205357142857,443.7,283.7142857142857,275.6205357142857,544.2,283.7142857142857,275.6205357142857,731.1,283.7142857142857,275.6205357142857,904,283.7142857142857,275.6205357142857,1070.1,283.7142857142857,275.6205357142857,1237.1,212.71428571428572,204.62053571428572,1439.9,53.714285714285715,43.620535714285715,1566.7,31.714285714285715,27.620535714285715,1685.1,37.714285714285715,35.620535714285715,1900.4,44.714285714285715,46.620535714285715,2003.6,47.714285714285715,52.620535714285715,2110.8,47.714285714285715,52.620535714285715,2216.1,47.714285714285715,52.620535714285715,2339.9,47.714285714285715,52.620535714285715,2547.8,47.714285714285715,52.620535714285715,2741,47.714285714285715,52.620535714285715,2933.7,47.714285714285715,52.620535714285715,3121.7,47.714285714285715,52.620535714285715,3294.1,47.714285714285715,52.620535714285715,3469.6,47.714285714285715,52.620535714285715,3649.2,47.714285714285715,52.620535714285715,3818.4,47.714285714285715,52.620535714285715,3994.1,47.714285714285715,52.620535714285715,4181.5,47.714285714285715,52.620535714285715,4355.1,47.714285714285715,52.620535714285715,4526.3,47.714285714285715,52.620535714285715,4695.3,47.714285714285715,52.620535714285715,4874.5]","[2033.1,2033.1,1000,0,1033.1,""oops"",""left"",""left"",""good_move"",19954.2,17919.6,2657.4,2034.6,15262.2,""oops"",""left"",""up"",""good_move"",36794.9,16839.3,2288.4,19955.6,14550.9,""smooth"",""left"",""left"",""good_move"",58436.1,21640.1,1800.7,54668.3,1967.2,""smooth"",""left"",""left"",""good_move"",76452.3,18003.2,2245.4,58449.1,15757.8,""smooth"",""up"",""up"",""good_move"",83586.7,7133.3,2549.7,76453.5,4583.5,""oops"",""up"",""down"",""bad_move"",87754.4,4166,2648.6,83588.4,1517.4,""smooth"",""up"",""up"",""good_move"",93119.7,5357.9,2651.4,87761.9,2706.5,""smooth"",""up"",""up"",""good_move""]","",""
"10776","","<div style=""width:500px;"">
  <p>What determined the result of this run?</p>
  </div>","82","html-slider-response","65","1642810","0.0-5.0-1.11","67","1","2025-07-16 08:30:56","1f75c3e559b7213887762d5229550c2b","41.113.3.113","Mozilla/5.0 (Windows NT 10.0; Win64; x64) AppleWebKit/537.36 (KHTML, like Gecko) Chrome/138.0.0.0 Safari/537.36","WebKit","Chrome","138.0.0.0","Windows","10.0","https://app.prolific.com/","en-ZA,en-GB;q=0.9,en-US;q=0.8,en;q=0.7,zu;q=0.6","5f3287b83428cb05746e2214","68764874ac79eee8c1d4cb03","687762b2ebbec5797d458b95","2","0","5f3287b83428cb05746e2214","2","0","2025-07-16T08:58:30.050Z","","","","","","","","","","","AttribQ","","50","","","","","","","","","","","","","","","","","","","","","","","","","","","","",""
"6551","","<div style=""width:500px;"">
  <p>How much control did you have over the ball?</p>
  </div>","87","html-slider-response","66","1649367","0.0-5.0-2.11","67","1","2025-07-16 08:30:56","1f75c3e559b7213887762d5229550c2b","41.113.3.113","Mozilla/5.0 (Windows NT 10.0; Win64; x64) AppleWebKit/537.36 (KHTML, like Gecko) Chrome/138.0.0.0 Safari/537.36","WebKit","Chrome","138.0.0.0","Windows","10.0","https://app.prolific.com/","en-ZA,en-GB;q=0.9,en-US;q=0.8,en;q=0.7,zu;q=0.6","5f3287b83428cb05746e2214","68764874ac79eee8c1d4cb03","687762b2ebbec5797d458b95","2","0","5f3287b83428cb05746e2214","2","0","2025-07-16T08:58:36.607Z","","","","","","","","","","","ControlQ","","50","","","","","","","","","","","","","","","","","","","","","","","","","","","","",""
"5703","","<div style=""width:500px;"">
  <p>How would you describe your current emotional state?</p>
  </div>","34","html-slider-response","67","1655077","0.0-5.0-3.11","67","1","2025-07-16 08:30:56","1f75c3e559b7213887762d5229550c2b","41.113.3.113","Mozilla/5.0 (Windows NT 10.0; Win64; x64) AppleWebKit/537.36 (KHTML, like Gecko) Chrome/138.0.0.0 Safari/537.36","WebKit","Chrome","138.0.0.0","Windows","10.0","https://app.prolific.com/","en-ZA,en-GB;q=0.9,en-US;q=0.8,en;q=0.7,zu;q=0.6","5f3287b83428cb05746e2214","68764874ac79eee8c1d4cb03","687762b2ebbec5797d458b95","2","0","5f3287b83428cb05746e2214","2","0","2025-07-16T08:58:42.318Z","","","","","","","","","","","StressQ","","50","","","","","","","","","","","","","","","","","","","","","","","","","","","","",""
"9936","","<div style=""width:500px;"">
  <p>What best describes how you currently feel?</p>
  </div>","79","html-slider-response","68","1665020","0.0-5.0-4.11","67","1","2025-07-16 08:30:56","1f75c3e559b7213887762d5229550c2b","41.113.3.113","Mozilla/5.0 (Windows NT 10.0; Win64; x64) AppleWebKit/537.36 (KHTML, like Gecko) Chrome/138.0.0.0 Safari/537.36","WebKit","Chrome","138.0.0.0","Windows","10.0","https://app.prolific.com/","en-ZA,en-GB;q=0.9,en-US;q=0.8,en;q=0.7,zu;q=0.6","5f3287b83428cb05746e2214","68764874ac79eee8c1d4cb03","687762b2ebbec5797d458b95","2","0","5f3287b83428cb05746e2214","2","0","2025-07-16T08:58:52.260Z","","","","","","","","","","","MotivationQ","","50","","","","","","","","","","","","","","","","","","","","","","","","","","","","",""
"","","","","ctl-task-cpt","69","1760999","0.0-5.0-0.12","67","1","2025-07-16 08:30:56","1f75c3e559b7213887762d5229550c2b","41.113.3.113","Mozilla/5.0 (Windows NT 10.0; Win64; x64) AppleWebKit/537.36 (KHTML, like Gecko) Chrome/138.0.0.0 Safari/537.36","WebKit","Chrome","138.0.0.0","Windows","10.0","https://app.prolific.com/","en-ZA,en-GB;q=0.9,en-US;q=0.8,en;q=0.7,zu;q=0.6","5f3287b83428cb05746e2214","68764874ac79eee8c1d4cb03","687762b2ebbec5797d458b95","2","0","5f3287b83428cb05746e2214","2","0","2025-07-16T09:00:28.239Z","","","","","","","","","","","","","","win-only","3","g1:SW,g2:NE","0.7","13","0","1683212.4","2232.7","7296.1","92919.5","1","4","4","6","2","4","4","55","51","0.4166666666666667","1808.1","3000","2150","[""up"",""right""]","{""num_key_presses"":8,""num_perfect"":6,""num_errors"":0,""num_randdir"":2,""num_randdir_good_moves"":1,""num_whilered"":0,""num_whileblue"":0,""num_blue"":1,""num_good_moves"":7}","[276.7142857142857,278.6205357142857,4.3,276.7142857142857,278.6205357142857,148.3,276.7142857142857,278.6205357142857,328.8,276.7142857142857,278.6205357142857,437.6,276.7142857142857,278.6205357142857,575.4,276.7142857142857,278.6205357142857,716.9,277.7142857142857,271.6205357142857,866.1,317.7142857142857,194.62053571428572,967,465.7142857142857,81.62053571428572,1151.4,477.7142857142857,75.62053571428572,1328.1,489.7142857142857,66.62053571428572,1519.1,489.7142857142857,66.62053571428572,1672.3,489.7142857142857,66.62053571428572,1845.5,489.7142857142857,66.62053571428572,2007,489.7142857142857,66.62053571428572,2170.8,489.7142857142857,66.62053571428572,2313.8,489.7142857142857,66.62053571428572,2475.4,489.7142857142857,66.62053571428572,2605.8,489.7142857142857,66.62053571428572,2741.9,489.7142857142857,66.62053571428572,2867.5,489.7142857142857,66.62053571428572,2995.2,489.7142857142857,66.62053571428572,3132.5,489.7142857142857,66.62053571428572,3269.7,489.7142857142857,66.62053571428572,3418.1,489.7142857142857,66.62053571428572,3544.4,489.7142857142857,66.62053571428572,3679,489.7142857142857,66.62053571428572,3817.9,489.7142857142857,66.62053571428572,3958.7,489.7142857142857,66.62053571428572,4066.5,489.7142857142857,66.62053571428572,4205.4,489.7142857142857,66.62053571428572,4355.8,489.7142857142857,66.62053571428572,4571.7,489.7142857142857,66.62053571428572,4735.6,489.7142857142857,66.62053571428572,4883.3]","[1951.9,1951.9,1000,0,951.9,""smooth"",""right"",""right"",""good_move"",7174,5220.5,2717.4,1953.5,2503.1,""smooth"",""right"",""right"",""good_move"",12137.8,4961.4,2888.7,7176.4,2072.7,""oops"",""up"",""up"",""good_move"",28227.9,16087.8,2453.8,12140.1,13634,""smooth"",""up"",""up"",""good_move"",45089.9,16860.7,2450.4,28229.3,14410.2,""smooth"",""up"",""up"",""good_move"",62009.4,16918.5,2553.4,45091,14365,""oops"",""right"",""left"",""bad_move"",80563.7,18549.6,2321.3,77643.8,598.6,""smooth"",""right"",""right"",""good_move"",84611.3,4046.3,2992.6,80565,1053.7,""smooth"",""right"",""right"",""good_move""]","",""
"7660","","<div style=""width:500px;"">
  <p>What determined the result of this run?</p>
  </div>","66","html-slider-response","70","1768664","0.0-5.0-1.12","67","1","2025-07-16 08:30:56","1f75c3e559b7213887762d5229550c2b","41.113.3.113","Mozilla/5.0 (Windows NT 10.0; Win64; x64) AppleWebKit/537.36 (KHTML, like Gecko) Chrome/138.0.0.0 Safari/537.36","WebKit","Chrome","138.0.0.0","Windows","10.0","https://app.prolific.com/","en-ZA,en-GB;q=0.9,en-US;q=0.8,en;q=0.7,zu;q=0.6","5f3287b83428cb05746e2214","68764874ac79eee8c1d4cb03","687762b2ebbec5797d458b95","2","0","5f3287b83428cb05746e2214","2","0","2025-07-16T09:00:35.904Z","","","","","","","","","","","AttribQ","","50","","","","","","","","","","","","","","","","","","","","","","","","","","","","",""
"3150","","<div style=""width:500px;"">
  <p>How much control did you have over the ball?</p>
  </div>","57","html-slider-response","71","1771821","0.0-5.0-2.12","67","1","2025-07-16 08:30:56","1f75c3e559b7213887762d5229550c2b","41.113.3.113","Mozilla/5.0 (Windows NT 10.0; Win64; x64) AppleWebKit/537.36 (KHTML, like Gecko) Chrome/138.0.0.0 Safari/537.36","WebKit","Chrome","138.0.0.0","Windows","10.0","https://app.prolific.com/","en-ZA,en-GB;q=0.9,en-US;q=0.8,en;q=0.7,zu;q=0.6","5f3287b83428cb05746e2214","68764874ac79eee8c1d4cb03","687762b2ebbec5797d458b95","2","0","5f3287b83428cb05746e2214","2","0","2025-07-16T09:00:39.061Z","","","","","","","","","","","ControlQ","","50","","","","","","","","","","","","","","","","","","","","","","","","","","","","",""
"3657","","<div style=""width:500px;"">
  <p>How would you describe your current emotional state?</p>
  </div>","83","html-slider-response","72","1775485","0.0-5.0-3.12","67","1","2025-07-16 08:30:56","1f75c3e559b7213887762d5229550c2b","41.113.3.113","Mozilla/5.0 (Windows NT 10.0; Win64; x64) AppleWebKit/537.36 (KHTML, like Gecko) Chrome/138.0.0.0 Safari/537.36","WebKit","Chrome","138.0.0.0","Windows","10.0","https://app.prolific.com/","en-ZA,en-GB;q=0.9,en-US;q=0.8,en;q=0.7,zu;q=0.6","5f3287b83428cb05746e2214","68764874ac79eee8c1d4cb03","687762b2ebbec5797d458b95","2","0","5f3287b83428cb05746e2214","2","0","2025-07-16T09:00:42.725Z","","","","","","","","","","","StressQ","","50","","","","","","","","","","","","","","","","","","","","","","","","","","","","",""
"3396","","<div style=""width:500px;"">
  <p>What best describes how you currently feel?</p>
  </div>","70","html-slider-response","73","1778888","0.0-5.0-4.12","67","1","2025-07-16 08:30:56","1f75c3e559b7213887762d5229550c2b","41.113.3.113","Mozilla/5.0 (Windows NT 10.0; Win64; x64) AppleWebKit/537.36 (KHTML, like Gecko) Chrome/138.0.0.0 Safari/537.36","WebKit","Chrome","138.0.0.0","Windows","10.0","https://app.prolific.com/","en-ZA,en-GB;q=0.9,en-US;q=0.8,en;q=0.7,zu;q=0.6","5f3287b83428cb05746e2214","68764874ac79eee8c1d4cb03","687762b2ebbec5797d458b95","2","0","5f3287b83428cb05746e2214","2","0","2025-07-16T09:00:46.128Z","","","","","","","","","","","MotivationQ","","50","","","","","","","","","","","","","","","","","","","","","","","","","","","","",""
