"rt","response_timestamp","stimulus","response","trial_type","trial_index","time_elapsed","internal_node_id","run_id","condition","recorded_at","source_code_version","ip","user_agent","device","browser","browser_version","platform","platform_version","referer","accept_language","PROLIFIC_PID","STUDY_ID","SESSION_ID","WEEK","BATCH","prolific_id","week","batch","realtime","success","responses","item_order","radio_event_ids","radio_event_times","key_event_times","mouse_event_times","straightlining","zigzagging","honeypot","eventType","view_history","slider_start","which_type","canvas_config","goals_layout","control_level","trial_number","tutorial_trial_number","trial_start_time","phase1_start_time","phase2_start_time","phase3_start_time","goal_1_value","goal_1_distance","goal_2_value","goal_2_distance","goal_selected","outcome","outcome_total","participant_final_score","participant_initial_score","participant_final_score_prop","goal_choice_rt","allocated_time","allocated_time_remaining","goal_direction","counts","mouse_movements","key_presses","question_order","question_id"
"10824","1753255904596","<p style='font-size:40px;line-height:1.25'><strong>Welcome to the experiment!</strong></p><p style='font-size:1.1em;line-height:1.25'>Thank you for participanting in our experiment again! You will be asked to play the Dysfunctional Ball Game again. We will briefly recap the rules before we start.</p><p style='font-size:1.1em;line-height:1.25'>Press <strong>Next</strong> to continue.</p>","0","custom-html-button-response","0","10828","0.0-0.0","176","1","2025-07-23 07:31:31","1f75c3e559b7213887762d5229550c2b","216.120.189.119","Mozilla/5.0 (Windows NT 10.0; Win64; x64) AppleWebKit/537.36 (KHTML, like Gecko) Chrome/138.0.0.0 Safari/537.36","WebKit","Chrome","138.0.0.0","Windows","10.0","https://app.prolific.com/","en-US,en;q=0.9","669c1e1fdb95a995eb1d3077","683dba2a8a9dda3513610c04","68808f66400d10f055e328d5","3","0","669c1e1fdb95a995eb1d3077","3","0","2025-07-23T07:31:44.597Z","","","","","","","","","","","","","","","","","","","","","","","","","","","","","","","","","","","","","","","","","",""
"5311","","","","fullscreen","1","17144","0.0-1.0","176","1","2025-07-23 07:31:31","1f75c3e559b7213887762d5229550c2b","216.120.189.119","Mozilla/5.0 (Windows NT 10.0; Win64; x64) AppleWebKit/537.36 (KHTML, like Gecko) Chrome/138.0.0.0 Safari/537.36","WebKit","Chrome","138.0.0.0","Windows","10.0","https://app.prolific.com/","en-US,en;q=0.9","669c1e1fdb95a995eb1d3077","683dba2a8a9dda3513610c04","68808f66400d10f055e328d5","3","0","669c1e1fdb95a995eb1d3077","3","0","","true","","","","","","","","","","","","","","","","","","","","","","","","","","","","","","","","","","","","","","","","",""
"8596","1753255919511","<p style='font-size:1.1em;line-height:1.25'>In the following, we will ask you a few questions relating to your feelings in the last 24 hours.<br></p><p style='font-size:1.1em;line-height:1.25'>Press the <strong>Next</strong> button to continue.</p>","0","custom-html-button-response","2","25742","0.0-2.0-0.0","176","1","2025-07-23 07:31:31","1f75c3e559b7213887762d5229550c2b","216.120.189.119","Mozilla/5.0 (Windows NT 10.0; Win64; x64) AppleWebKit/537.36 (KHTML, like Gecko) Chrome/138.0.0.0 Safari/537.36","WebKit","Chrome","138.0.0.0","Windows","10.0","https://app.prolific.com/","en-US,en;q=0.9","669c1e1fdb95a995eb1d3077","683dba2a8a9dda3513610c04","68808f66400d10f055e328d5","3","0","669c1e1fdb95a995eb1d3077","3","0","2025-07-23T07:31:59.511Z","","","","","","","","","","","","","","","","","","","","","","","","","","","","","","","","","","","","","","","","","",""
"103327.80000001192","","","","survey-template","3","129077","0.0-2.0-1.0","176","1","2025-07-23 07:31:31","1f75c3e559b7213887762d5229550c2b","216.120.189.119","Mozilla/5.0 (Windows NT 10.0; Win64; x64) AppleWebKit/537.36 (KHTML, like Gecko) Chrome/138.0.0.0 Safari/537.36","WebKit","Chrome","138.0.0.0","Windows","10.0","https://app.prolific.com/","en-US,en;q=0.9","669c1e1fdb95a995eb1d3077","683dba2a8a9dda3513610c04","68808f66400d10f055e328d5","3","0","669c1e1fdb95a995eb1d3077","3","0","2025-07-23T07:33:42.847Z","","{""Q01"":""0"",""Q02"":""0"",""Q03"":""0"",""Q04"":""1"",""Q05"":""1"",""Q06"":""0"",""Q07"":""0"",""Q08"":""0"",""Q09"":""0"",""Q10"":""0"",""Q11"":""0"",""Q12"":""1"",""Q13"":""5"",""Q14"":""1"",""Q15"":""0"",""Q16"":""0"",""Q17"":""0"",""Q18"":""0"",""Q19"":""1"",""Q20"":""0"",""Q21"":""0"",""Q22"":""0""}","[0,1,2,3,4,5,6,7,8,9,10,11,12,13,14,15,16,17,18,19,20,21]","[""Q01"",""Q03"",""Q02"",""Q04"",""Q05"",""Q05"",""Q06"",""Q07"",""Q08"",""Q09"",""Q10"",""Q11"",""Q12"",""Q13"",""Q14"",""Q15"",""Q16"",""Q17"",""Q18"",""Q19"",""Q20"",""Q21"",""Q22""]","[2867.300000011921,7213.300000011921,7994.300000011921,10603,12393,14355.099999964237,18716.30000001192,21039,22783.30000001192,25399,27505.19999998808,31632.19999998808,33865.09999996424,37557.09999996424,41737.19999998808,63413.09999996424,67855,68713,72427.19999998808,87614.19999998808,95839.19999998808,98508.19999998808,100643.59999996424]","[]","[0.09999996423721313,2867.300000011921,4888.899999976158,6394.899999976158,7213.300000011921,7994.300000011921,9724,10603,12393,14355.099999964237,18716.30000001192,21039,22783.30000001192,25399,27505.19999998808,31632.19999998808,33865.09999996424,37557.09999996424,41737.19999998808,62232.39999997616,63413.09999996424,66517.5,67855,68713,71389.39999997616,72427.19999998808,85486.09999996424,87614.19999998808,93162,94876.09999996424,95365.09999996424,95839.19999998808,97741,98508.19999998808,100643.59999996424,103319.30000001192]","0.7272727272727273","0.2857142857142857","0","drsp","","","","","","","","","","","","","","","","","","","","","","","","","","","","","","",""
"13701.800000011921","","","","survey-template","4","142782","0.0-2.0-2.0","176","1","2025-07-23 07:31:31","1f75c3e559b7213887762d5229550c2b","216.120.189.119","Mozilla/5.0 (Windows NT 10.0; Win64; x64) AppleWebKit/537.36 (KHTML, like Gecko) Chrome/138.0.0.0 Safari/537.36","WebKit","Chrome","138.0.0.0","Windows","10.0","https://app.prolific.com/","en-US,en;q=0.9","669c1e1fdb95a995eb1d3077","683dba2a8a9dda3513610c04","68808f66400d10f055e328d5","3","0","669c1e1fdb95a995eb1d3077","3","0","2025-07-23T07:33:56.551Z","","{""Q01"":""1"",""Q02"":""5"",""Q03"":""0""}","[0,1,2]","[""Q01"",""Q02"",""Q03""]","[5851.5,8151.5,12151.5]","[]","[4377.5,5851.5,8151.5,12151.5,13700.5]","0.6666666666666666","0.5","0","stress","","","","","","","","","","","","","","","","","","","","","","","","","","","","","","",""
"15109","","","","instructions","5","157893","0.0-3.0-0.0","176","1","2025-07-23 07:31:31","1f75c3e559b7213887762d5229550c2b","216.120.189.119","Mozilla/5.0 (Windows NT 10.0; Win64; x64) AppleWebKit/537.36 (KHTML, like Gecko) Chrome/138.0.0.0 Safari/537.36","WebKit","Chrome","138.0.0.0","Windows","10.0","https://app.prolific.com/","en-US,en;q=0.9","669c1e1fdb95a995eb1d3077","683dba2a8a9dda3513610c04","68808f66400d10f055e328d5","3","0","669c1e1fdb95a995eb1d3077","3","0","","","","","","","","","","","","","[{""page_index"":0,""viewing_time"":15109}]","","","","","","","","","","","","","","","","","","","","","","","","","","","","","",""
"10245","","<p>Before you start with this game please answer the following three questions yourself. </p>
  <p>Through this game, we measure several aspects of your cognitive performance, such as reaction times, multi-tasking capabilities </p>
  <p>and the ability to assess the situation you are in.</p>
  <p></p>
  <p><b>How good do you usually are in such tasks?</b></p>","100","html-slider-response","6","168140","0.0-4.0-0.0","176","1","2025-07-23 07:31:31","1f75c3e559b7213887762d5229550c2b","216.120.189.119","Mozilla/5.0 (Windows NT 10.0; Win64; x64) AppleWebKit/537.36 (KHTML, like Gecko) Chrome/138.0.0.0 Safari/537.36","WebKit","Chrome","138.0.0.0","Windows","10.0","https://app.prolific.com/","en-US,en;q=0.9","669c1e1fdb95a995eb1d3077","683dba2a8a9dda3513610c04","68808f66400d10f055e328d5","3","0","669c1e1fdb95a995eb1d3077","3","0","2025-07-23T07:34:21.909Z","","","","","","","","","","","PreSkillQ","","50","","","","","","","","","","","","","","","","","","","","","","","","","","","","",""
"6930","","<div style=""width:500px;"">
  <p>How well do you think you will perform in this task compared to other participants?</p>
  </div>","100","html-slider-response","7","175072","0.0-4.0-1.0","176","1","2025-07-23 07:31:31","1f75c3e559b7213887762d5229550c2b","216.120.189.119","Mozilla/5.0 (Windows NT 10.0; Win64; x64) AppleWebKit/537.36 (KHTML, like Gecko) Chrome/138.0.0.0 Safari/537.36","WebKit","Chrome","138.0.0.0","Windows","10.0","https://app.prolific.com/","en-US,en;q=0.9","669c1e1fdb95a995eb1d3077","683dba2a8a9dda3513610c04","68808f66400d10f055e328d5","3","0","669c1e1fdb95a995eb1d3077","3","0","2025-07-23T07:34:28.841Z","","","","","","","","","","","PrePerfQ","","50","","","","","","","","","","","","","","","","","","","","","","","","","","","","",""
"7644","","<div style=""width:500px;"">
  <p>What best describes how you currently feel?</p>
  </div>","100","html-slider-response","8","182717","0.0-4.0-2.0","176","1","2025-07-23 07:31:31","1f75c3e559b7213887762d5229550c2b","216.120.189.119","Mozilla/5.0 (Windows NT 10.0; Win64; x64) AppleWebKit/537.36 (KHTML, like Gecko) Chrome/138.0.0.0 Safari/537.36","WebKit","Chrome","138.0.0.0","Windows","10.0","https://app.prolific.com/","en-US,en;q=0.9","669c1e1fdb95a995eb1d3077","683dba2a8a9dda3513610c04","68808f66400d10f055e328d5","3","0","669c1e1fdb95a995eb1d3077","3","0","2025-07-23T07:34:36.487Z","","","","","","","","","","","PreMotivationQ","","50","","","","","","","","","","","","","","","","","","","","","","","","","","","","",""
"","","","","ctl-task-cpt","9","216299","0.0-5.0-0.0","176","1","2025-07-23 07:31:31","1f75c3e559b7213887762d5229550c2b","216.120.189.119","Mozilla/5.0 (Windows NT 10.0; Win64; x64) AppleWebKit/537.36 (KHTML, like Gecko) Chrome/138.0.0.0 Safari/537.36","WebKit","Chrome","138.0.0.0","Windows","10.0","https://app.prolific.com/","en-US,en;q=0.9","669c1e1fdb95a995eb1d3077","683dba2a8a9dda3513610c04","68808f66400d10f055e328d5","3","0","669c1e1fdb95a995eb1d3077","3","0","2025-07-23T07:35:10.069Z","","","","","","","","","","","","","","win-only","0","g1:NW,g2:SE","1","1","0","186531.4","1910.1","6917.8","30571.5","1","4","8","6","2","8","8","8","0","0.06060606060606061","1402.8","3000","1025","[""down"",""right""]","{""num_key_presses"":6,""num_perfect"":6,""num_errors"":0,""num_randdir"":0,""num_randdir_good_moves"":0,""num_whilered"":0,""num_whileblue"":0,""num_blue"":2,""num_good_moves"":6}","[291.22232142857143,293.12857142857143,0.6,291.22232142857143,293.12857142857143,106,291.22232142857143,293.12857142857143,206.4,291.22232142857143,293.12857142857143,307.5,269.22232142857143,306.12857142857143,408.2,256.22232142857143,314.12857142857143,508.2,260.22232142857143,362.12857142857143,611.7,319.22232142857143,406.12857142857143,715.9,423.22232142857143,513.1285714285714,817.9,431.22232142857143,514.1285714285714,927.1,455.22232142857143,529.1285714285714,1034.1,528.2223214285714,548.1285714285714,1140.8,583.2223214285714,553.1285714285714,1252.3,585.2223214285714,554.1285714285714,1358.2,585.2223214285714,556.1285714285714,1459,585.2223214285714,554.1285714285714,1561.4,572.2223214285714,549.1285714285714,1661.6,544.2223214285714,545.1285714285714,1764.9,444.22232142857143,536.1285714285714,1867.9,381.22232142857143,510.12857142857143,1981.1,374.22232142857143,502.12857142857143,2081.8,375.22232142857143,500.12857142857143,2186.5,375.22232142857143,500.12857142857143,2287.5,377.22232142857143,499.12857142857143,2395.2,377.22232142857143,498.12857142857143,2495.5,378.22232142857143,496.12857142857143,2597.3,379.22232142857143,494.12857142857143,2697.6,379.22232142857143,494.12857142857143,2802.4,379.22232142857143,494.12857142857143,2906.6,379.22232142857143,494.12857142857143,3007.9,381.22232142857143,494.12857142857143,3109.4,381.22232142857143,494.12857142857143,3213.1,381.22232142857143,495.12857142857143,3316.9,381.22232142857143,495.12857142857143,3417.2,381.22232142857143,497.12857142857143,3517.6,382.22232142857143,497.12857142857143,3621.1,385.22232142857143,498.12857142857143,3724.1,386.22232142857143,498.12857142857143,3825.7,386.22232142857143,498.12857142857143,3926,387.22232142857143,498.12857142857143,4036.8,387.22232142857143,498.12857142857143,4137.4,387.22232142857143,496.12857142857143,4243,387.22232142857143,496.12857142857143,4347.8,387.22232142857143,495.12857142857143,4456.3,387.22232142857143,495.12857142857143,4557.4,387.22232142857143,495.12857142857143,4658.1,387.22232142857143,495.12857142857143,4763.3,387.22232142857143,495.12857142857143,4873.8,387.22232142857143,495.12857142857143,4987.2]","[5119.6,5119.6,2522.1,2006.2,591.3,""smooth"",""right"",""right"",""good_move"",7776,2655.5,2167.6,5120.5,487.9,""smooth"",""right"",""right"",""good_move"",11289.3,3511.8,3008.2,7777.5,503.6,""smooth"",""down"",""down"",""good_move"",17684.7,6394,2484.6,14783.6,416.6,""smooth"",""down"",""down"",""good_move"",20325.2,2639.9,2074.2,17685.3,565.8,""smooth"",""down"",""down"",""good_move"",23518.1,3191.8,2687.2,20326.3,504.6,""smooth"",""right"",""right"",""good_move""]","",""
"6316","","<div style=""width:500px;"">
  <p>What determined the result of this run?</p>
  </div>","100","html-slider-response","10","222618","0.0-5.0-1.0","176","1","2025-07-23 07:31:31","1f75c3e559b7213887762d5229550c2b","216.120.189.119","Mozilla/5.0 (Windows NT 10.0; Win64; x64) AppleWebKit/537.36 (KHTML, like Gecko) Chrome/138.0.0.0 Safari/537.36","WebKit","Chrome","138.0.0.0","Windows","10.0","https://app.prolific.com/","en-US,en;q=0.9","669c1e1fdb95a995eb1d3077","683dba2a8a9dda3513610c04","68808f66400d10f055e328d5","3","0","669c1e1fdb95a995eb1d3077","3","0","2025-07-23T07:35:16.387Z","","","","","","","","","","","AttribQ","","50","","","","","","","","","","","","","","","","","","","","","","","","","","","","",""
"4734","","<div style=""width:500px;"">
  <p>How much control did you have over the ball?</p>
  </div>","100","html-slider-response","11","227355","0.0-5.0-2.0","176","1","2025-07-23 07:31:31","1f75c3e559b7213887762d5229550c2b","216.120.189.119","Mozilla/5.0 (Windows NT 10.0; Win64; x64) AppleWebKit/537.36 (KHTML, like Gecko) Chrome/138.0.0.0 Safari/537.36","WebKit","Chrome","138.0.0.0","Windows","10.0","https://app.prolific.com/","en-US,en;q=0.9","669c1e1fdb95a995eb1d3077","683dba2a8a9dda3513610c04","68808f66400d10f055e328d5","3","0","669c1e1fdb95a995eb1d3077","3","0","2025-07-23T07:35:21.124Z","","","","","","","","","","","ControlQ","","50","","","","","","","","","","","","","","","","","","","","","","","","","","","","",""
"3607","","<div style=""width:500px;"">
  <p>How would you describe your current emotional state?</p>
  </div>","0","html-slider-response","12","230963","0.0-5.0-3.0","176","1","2025-07-23 07:31:31","1f75c3e559b7213887762d5229550c2b","216.120.189.119","Mozilla/5.0 (Windows NT 10.0; Win64; x64) AppleWebKit/537.36 (KHTML, like Gecko) Chrome/138.0.0.0 Safari/537.36","WebKit","Chrome","138.0.0.0","Windows","10.0","https://app.prolific.com/","en-US,en;q=0.9","669c1e1fdb95a995eb1d3077","683dba2a8a9dda3513610c04","68808f66400d10f055e328d5","3","0","669c1e1fdb95a995eb1d3077","3","0","2025-07-23T07:35:24.732Z","","","","","","","","","","","StressQ","","50","","","","","","","","","","","","","","","","","","","","","","","","","","","","",""
"5270","","<div style=""width:500px;"">
  <p>What best describes how you currently feel?</p>
  </div>","100","html-slider-response","13","236234","0.0-5.0-4.0","176","1","2025-07-23 07:31:31","1f75c3e559b7213887762d5229550c2b","216.120.189.119","Mozilla/5.0 (Windows NT 10.0; Win64; x64) AppleWebKit/537.36 (KHTML, like Gecko) Chrome/138.0.0.0 Safari/537.36","WebKit","Chrome","138.0.0.0","Windows","10.0","https://app.prolific.com/","en-US,en;q=0.9","669c1e1fdb95a995eb1d3077","683dba2a8a9dda3513610c04","68808f66400d10f055e328d5","3","0","669c1e1fdb95a995eb1d3077","3","0","2025-07-23T07:35:30.003Z","","","","","","","","","","","MotivationQ","","50","","","","","","","","","","","","","","","","","","","","","","","","","","","","",""
"","","","","ctl-task-cpt","14","267222","0.0-5.0-0.1","176","1","2025-07-23 07:31:31","1f75c3e559b7213887762d5229550c2b","216.120.189.119","Mozilla/5.0 (Windows NT 10.0; Win64; x64) AppleWebKit/537.36 (KHTML, like Gecko) Chrome/138.0.0.0 Safari/537.36","WebKit","Chrome","138.0.0.0","Windows","10.0","https://app.prolific.com/","en-US,en;q=0.9","669c1e1fdb95a995eb1d3077","683dba2a8a9dda3513610c04","68808f66400d10f055e328d5","3","0","669c1e1fdb95a995eb1d3077","3","0","2025-07-23T07:36:00.991Z","","","","","","","","","","","","","","win-only","3","g1:SW,g2:NE","0.9","2","0","240046","1460.8","6463.2","27971","1","4","4","6","2","4","4","12","8","0.09090909090909091","1135.4","3000","865","[""up"",""right""]","{""num_key_presses"":8,""num_perfect"":7,""num_errors"":0,""num_randdir"":1,""num_randdir_good_moves"":0,""num_whilered"":0,""num_whileblue"":0,""num_blue"":0,""num_good_moves"":7}","[300.22232142857143,304.12857142857143,1,300.22232142857143,304.12857142857143,109,300.22232142857143,302.12857142857143,210.7,300.22232142857143,304.12857142857143,312.4,300.22232142857143,328.12857142857143,420.7,289.22232142857143,343.12857142857143,522.6,377.22232142857143,277.12857142857143,632.9,552.2223214285714,140.12857142857143,733.4,570.2223214285714,84.12857142857143,834.4,571.2223214285714,75.12857142857143,935.7,567.2223214285714,71.12857142857143,1041,566.2223214285714,71.12857142857143,1145.3,566.2223214285714,71.12857142857143,1250.9,558.2223214285714,159.12857142857143,1357,579.2223214285714,586.1285714285714,1461.1,604.2223214285714,683.1285714285714,1568.9,614.2223214285714,683.1285714285714,1670.5,618.2223214285714,683.1285714285714,1772,618.2223214285714,683.1285714285714,1873.6,618.2223214285714,683.1285714285714,1983.1,618.2223214285714,683.1285714285714,2090.8,618.2223214285714,683.1285714285714,2192.9,618.2223214285714,683.1285714285714,2297,618.2223214285714,683.1285714285714,2401,618.2223214285714,682.1285714285714,2501.3,618.2223214285714,682.1285714285714,2606.9,618.2223214285714,681.1285714285714,2712.3,619.2223214285714,680.1285714285714,2816,619.2223214285714,679.1285714285714,2920.5,619.2223214285714,677.1285714285714,3028.6,620.2223214285714,677.1285714285714,3129.5,618.2223214285714,678.1285714285714,3229.6,618.2223214285714,682.1285714285714,3332.7,616.2223214285714,683.1285714285714,3439.3,616.2223214285714,683.1285714285714,3539.9,616.2223214285714,683.1285714285714,3640,616.2223214285714,683.1285714285714,3740,616.2223214285714,683.1285714285714,3840.5,614.2223214285714,682.1285714285714,3950.8,611.2223214285714,680.1285714285714,4058.1,610.2223214285714,680.1285714285714,4159.7,610.2223214285714,680.1285714285714,4262.3,610.2223214285714,680.1285714285714,4371,610.2223214285714,680.1285714285714,4479.7,610.2223214285714,680.1285714285714,4582.3,610.2223214285714,680.1285714285714,4690.4,610.2223214285714,680.1285714285714,4791.6,610.2223214285714,680.1285714285714,4892.6]","[1414.8,1414.8,1000,0,414.9,""smooth"",""up"",""up"",""good_move"",4458.2,3042.3,2645.9,1415.9,396.4,""smooth"",""up"",""up"",""good_move"",8251.5,3791.6,3441.5,4460.4,350.1,""smooth"",""right"",""right"",""good_move"",10896,2642.4,2284.3,8253.6,358.1,""oops"",""right"",""down"",""bad_move"",13506.5,2609.6,2254.3,10896.9,355.3,""smooth"",""right"",""right"",""good_move"",15590,2081.9,1632.3,13508.1,449.6,""smooth"",""right"",""right"",""good_move"",18592,3000.6,2598.5,15591.4,402.1,""smooth"",""up"",""up"",""good_move"",21384,2789.7,2385,18594.3,404.7,""smooth"",""up"",""up"",""good_move""]","",""
"3541","","<div style=""width:500px;"">
  <p>What determined the result of this run?</p>
  </div>","100","html-slider-response","15","270766","0.0-5.0-1.1","176","1","2025-07-23 07:31:31","1f75c3e559b7213887762d5229550c2b","216.120.189.119","Mozilla/5.0 (Windows NT 10.0; Win64; x64) AppleWebKit/537.36 (KHTML, like Gecko) Chrome/138.0.0.0 Safari/537.36","WebKit","Chrome","138.0.0.0","Windows","10.0","https://app.prolific.com/","en-US,en;q=0.9","669c1e1fdb95a995eb1d3077","683dba2a8a9dda3513610c04","68808f66400d10f055e328d5","3","0","669c1e1fdb95a995eb1d3077","3","0","2025-07-23T07:36:04.535Z","","","","","","","","","","","AttribQ","","50","","","","","","","","","","","","","","","","","","","","","","","","","","","","",""
"3253","","<div style=""width:500px;"">
  <p>How much control did you have over the ball?</p>
  </div>","100","html-slider-response","16","274021","0.0-5.0-2.1","176","1","2025-07-23 07:31:31","1f75c3e559b7213887762d5229550c2b","216.120.189.119","Mozilla/5.0 (Windows NT 10.0; Win64; x64) AppleWebKit/537.36 (KHTML, like Gecko) Chrome/138.0.0.0 Safari/537.36","WebKit","Chrome","138.0.0.0","Windows","10.0","https://app.prolific.com/","en-US,en;q=0.9","669c1e1fdb95a995eb1d3077","683dba2a8a9dda3513610c04","68808f66400d10f055e328d5","3","0","669c1e1fdb95a995eb1d3077","3","0","2025-07-23T07:36:07.790Z","","","","","","","","","","","ControlQ","","50","","","","","","","","","","","","","","","","","","","","","","","","","","","","",""
"3691","","<div style=""width:500px;"">
  <p>How would you describe your current emotional state?</p>
  </div>","0","html-slider-response","17","277713","0.0-5.0-3.1","176","1","2025-07-23 07:31:31","1f75c3e559b7213887762d5229550c2b","216.120.189.119","Mozilla/5.0 (Windows NT 10.0; Win64; x64) AppleWebKit/537.36 (KHTML, like Gecko) Chrome/138.0.0.0 Safari/537.36","WebKit","Chrome","138.0.0.0","Windows","10.0","https://app.prolific.com/","en-US,en;q=0.9","669c1e1fdb95a995eb1d3077","683dba2a8a9dda3513610c04","68808f66400d10f055e328d5","3","0","669c1e1fdb95a995eb1d3077","3","0","2025-07-23T07:36:11.482Z","","","","","","","","","","","StressQ","","50","","","","","","","","","","","","","","","","","","","","","","","","","","","","",""
"3622","","<div style=""width:500px;"">
  <p>What best describes how you currently feel?</p>
  </div>","99","html-slider-response","18","281336","0.0-5.0-4.1","176","1","2025-07-23 07:31:31","1f75c3e559b7213887762d5229550c2b","216.120.189.119","Mozilla/5.0 (Windows NT 10.0; Win64; x64) AppleWebKit/537.36 (KHTML, like Gecko) Chrome/138.0.0.0 Safari/537.36","WebKit","Chrome","138.0.0.0","Windows","10.0","https://app.prolific.com/","en-US,en;q=0.9","669c1e1fdb95a995eb1d3077","683dba2a8a9dda3513610c04","68808f66400d10f055e328d5","3","0","669c1e1fdb95a995eb1d3077","3","0","2025-07-23T07:36:15.105Z","","","","","","","","","","","MotivationQ","","50","","","","","","","","","","","","","","","","","","","","","","","","","","","","",""
"","","","","ctl-task-cpt","19","313003","0.0-5.0-0.2","176","1","2025-07-23 07:31:31","1f75c3e559b7213887762d5229550c2b","216.120.189.119","Mozilla/5.0 (Windows NT 10.0; Win64; x64) AppleWebKit/537.36 (KHTML, like Gecko) Chrome/138.0.0.0 Safari/537.36","WebKit","Chrome","138.0.0.0","Windows","10.0","https://app.prolific.com/","en-US,en;q=0.9","669c1e1fdb95a995eb1d3077","683dba2a8a9dda3513610c04","68808f66400d10f055e328d5","3","0","669c1e1fdb95a995eb1d3077","3","0","2025-07-23T07:36:46.772Z","","","","","","","","","","","","","","win-only","1","g1:NE,g2:SW","0.8","3","0","285148.7","1241.6","6246.7","28646.9","1","4","8","6","2","8","7","19","12","0.14393939393939395","1345.5","3000","1210","[""down"",""left""]","{""num_key_presses"":8,""num_perfect"":7,""num_errors"":1,""num_randdir"":0,""num_randdir_good_moves"":0,""num_whilered"":0,""num_whileblue"":1,""num_blue"":1,""num_good_moves"":7}","[296.22232142857143,302.12857142857143,0.5,298.22232142857143,302.12857142857143,105.1,306.22232142857143,290.12857142857143,212.2,346.22232142857143,271.12857142857143,314.9,423.22232142857143,220.12857142857143,422.4,467.22232142857143,166.12857142857143,530.6,448.22232142857143,178.12857142857143,634.9,201.22232142857143,414.12857142857143,741.1,91.22232142857143,566.1285714285714,850.1,56.222321428571426,616.1285714285714,957.6,54.222321428571426,611.1285714285714,1073.3,53.222321428571426,573.1285714285714,1185,59.222321428571426,561.1285714285714,1294.1,60.222321428571426,561.1285714285714,1402.2,63.222321428571426,555.1285714285714,1504.8,111.22232142857143,551.1285714285714,1614.1,300.22232142857143,601.1285714285714,1721.6,300.22232142857143,601.1285714285714,1832.1,300.22232142857143,601.1285714285714,1938.8,300.22232142857143,601.1285714285714,2044.6,300.22232142857143,601.1285714285714,2153.6,300.22232142857143,601.1285714285714,2257.5,300.22232142857143,601.1285714285714,2370.7,300.22232142857143,602.1285714285714,2475.3,300.22232142857143,602.1285714285714,2582,299.22232142857143,604.1285714285714,2684.7,299.22232142857143,604.1285714285714,2790.2,299.22232142857143,604.1285714285714,2901,299.22232142857143,604.1285714285714,3004.1,299.22232142857143,604.1285714285714,3107,299.22232142857143,604.1285714285714,3212.7,299.22232142857143,604.1285714285714,3321.3,299.22232142857143,605.1285714285714,3423.5,299.22232142857143,605.1285714285714,3525,298.22232142857143,605.1285714285714,3626,298.22232142857143,605.1285714285714,3732.1,298.22232142857143,605.1285714285714,3837.9,298.22232142857143,605.1285714285714,3941.2,298.22232142857143,605.1285714285714,4055.9,298.22232142857143,605.1285714285714,4158.3,298.22232142857143,605.1285714285714,4259.4,298.22232142857143,605.1285714285714,4364.2,298.22232142857143,605.1285714285714,4465.5,298.22232142857143,605.1285714285714,4572.8,298.22232142857143,605.1285714285714,4674.8,298.22232142857143,605.1285714285714,4787.6,298.22232142857143,605.1285714285714,4896]","[1403.7,1403.8,1000,0,403.8,""smooth"",""down"",""down"",""good_move"",3881,2475.7,2120.1,1405.4,355.6,""smooth"",""down"",""down"",""good_move"",7334.9,3452.7,3078,3882.3,374.7,""smooth"",""left"",""left"",""good_move"",10923.4,3587.5,3185.5,7335.9,402,""smooth"",""left"",""left"",""good_move"",13769,2844,2503.4,10925,340.6,""smooth"",""down"",""down"",""good_move"",16879.4,3109.2,2772.8,13770.2,336.4,""while_blue"",""left"",""right"",""bad_move"",19215.9,2334.2,1902.6,16881.7,431.6,""smooth"",""left"",""left"",""good_move"",22235.4,3018.6,2483.7,19216.8,535,""smooth"",""left"",""left"",""good_move""]","",""
"4344","","<div style=""width:500px;"">
  <p>What determined the result of this run?</p>
  </div>","100","html-slider-response","20","317349","0.0-5.0-1.2","176","1","2025-07-23 07:31:31","1f75c3e559b7213887762d5229550c2b","216.120.189.119","Mozilla/5.0 (Windows NT 10.0; Win64; x64) AppleWebKit/537.36 (KHTML, like Gecko) Chrome/138.0.0.0 Safari/537.36","WebKit","Chrome","138.0.0.0","Windows","10.0","https://app.prolific.com/","en-US,en;q=0.9","669c1e1fdb95a995eb1d3077","683dba2a8a9dda3513610c04","68808f66400d10f055e328d5","3","0","669c1e1fdb95a995eb1d3077","3","0","2025-07-23T07:36:51.118Z","","","","","","","","","","","AttribQ","","50","","","","","","","","","","","","","","","","","","","","","","","","","","","","",""
"3819","","<div style=""width:500px;"">
  <p>How much control did you have over the ball?</p>
  </div>","100","html-slider-response","21","321170","0.0-5.0-2.2","176","1","2025-07-23 07:31:31","1f75c3e559b7213887762d5229550c2b","216.120.189.119","Mozilla/5.0 (Windows NT 10.0; Win64; x64) AppleWebKit/537.36 (KHTML, like Gecko) Chrome/138.0.0.0 Safari/537.36","WebKit","Chrome","138.0.0.0","Windows","10.0","https://app.prolific.com/","en-US,en;q=0.9","669c1e1fdb95a995eb1d3077","683dba2a8a9dda3513610c04","68808f66400d10f055e328d5","3","0","669c1e1fdb95a995eb1d3077","3","0","2025-07-23T07:36:54.939Z","","","","","","","","","","","ControlQ","","50","","","","","","","","","","","","","","","","","","","","","","","","","","","","",""
"3749","","<div style=""width:500px;"">
  <p>How would you describe your current emotional state?</p>
  </div>","1","html-slider-response","22","324920","0.0-5.0-3.2","176","1","2025-07-23 07:31:31","1f75c3e559b7213887762d5229550c2b","216.120.189.119","Mozilla/5.0 (Windows NT 10.0; Win64; x64) AppleWebKit/537.36 (KHTML, like Gecko) Chrome/138.0.0.0 Safari/537.36","WebKit","Chrome","138.0.0.0","Windows","10.0","https://app.prolific.com/","en-US,en;q=0.9","669c1e1fdb95a995eb1d3077","683dba2a8a9dda3513610c04","68808f66400d10f055e328d5","3","0","669c1e1fdb95a995eb1d3077","3","0","2025-07-23T07:36:58.689Z","","","","","","","","","","","StressQ","","50","","","","","","","","","","","","","","","","","","","","","","","","","","","","",""
"3066","","<div style=""width:500px;"">
  <p>What best describes how you currently feel?</p>
  </div>","100","html-slider-response","23","327988","0.0-5.0-4.2","176","1","2025-07-23 07:31:31","1f75c3e559b7213887762d5229550c2b","216.120.189.119","Mozilla/5.0 (Windows NT 10.0; Win64; x64) AppleWebKit/537.36 (KHTML, like Gecko) Chrome/138.0.0.0 Safari/537.36","WebKit","Chrome","138.0.0.0","Windows","10.0","https://app.prolific.com/","en-US,en;q=0.9","669c1e1fdb95a995eb1d3077","683dba2a8a9dda3513610c04","68808f66400d10f055e328d5","3","0","669c1e1fdb95a995eb1d3077","3","0","2025-07-23T07:37:01.758Z","","","","","","","","","","","MotivationQ","","50","","","","","","","","","","","","","","","","","","","","","","","","","","","","",""
"","","","","ctl-task-cpt","24","352204","0.0-5.0-0.3","176","1","2025-07-23 07:31:31","1f75c3e559b7213887762d5229550c2b","216.120.189.119","Mozilla/5.0 (Windows NT 10.0; Win64; x64) AppleWebKit/537.36 (KHTML, like Gecko) Chrome/138.0.0.0 Safari/537.36","WebKit","Chrome","138.0.0.0","Windows","10.0","https://app.prolific.com/","en-US,en;q=0.9","669c1e1fdb95a995eb1d3077","683dba2a8a9dda3513610c04","68808f66400d10f055e328d5","3","0","669c1e1fdb95a995eb1d3077","3","0","2025-07-23T07:37:25.973Z","","","","","","","","","","","","","","win-only","2","g1:SE,g2:NW","0.7","4","0","331803.7","1239","6241.3","21202.7","1","4","4","6","2","4","4","23","19","0.17424242424242425","1678.8","3000","1355","[""left"",""up""]","{""num_key_presses"":6,""num_perfect"":4,""num_errors"":0,""num_randdir"":2,""num_randdir_good_moves"":2,""num_whilered"":0,""num_whileblue"":0,""num_blue"":0,""num_good_moves"":6}","[292.22232142857143,299.12857142857143,1,292.22232142857143,299.12857142857143,111.6,292.22232142857143,299.12857142857143,224.8,294.22232142857143,303.12857142857143,337.2,368.22232142857143,393.12857142857143,454.4,405.22232142857143,415.12857142857143,556.5,397.22232142857143,412.12857142857143,665,138.22232142857143,259.12857142857143,768.7,57.222321428571426,167.12857142857143,868.8,56.222321428571426,153.12857142857143,975.1,75.22232142857143,111.12857142857143,1085.7,84.22232142857143,44.128571428571426,1193.3,82.22232142857143,31.128571428571426,1300.2,78.22232142857143,32.128571428571426,1422.3,66.22232142857143,44.128571428571426,1522.5,60.222321428571426,47.128571428571426,1624.7,58.222321428571426,50.128571428571426,1732.7,58.222321428571426,50.128571428571426,1833.6,95.22232142857143,83.12857142857143,1933.8,402.22232142857143,404.12857142857143,2035.2,599.2223214285714,683.1285714285714,2138.4,610.2223214285714,683.1285714285714,2249.7,610.2223214285714,683.1285714285714,2353.9,610.2223214285714,683.1285714285714,2464,610.2223214285714,683.1285714285714,2567.3,610.2223214285714,683.1285714285714,2668,610.2223214285714,683.1285714285714,2785.3,610.2223214285714,683.1285714285714,2888.4,610.2223214285714,683.1285714285714,2999.2,610.2223214285714,683.1285714285714,3102.7,610.2223214285714,683.1285714285714,3207.5,610.2223214285714,683.1285714285714,3319.1,610.2223214285714,683.1285714285714,3424,610.2223214285714,682.1285714285714,3527.5,610.2223214285714,682.1285714285714,3633.3,610.2223214285714,682.1285714285714,3738.4,610.2223214285714,682.1285714285714,3842.6,610.2223214285714,682.1285714285714,3963.9,610.2223214285714,682.1285714285714,4077.7,610.2223214285714,682.1285714285714,4192.3,610.2223214285714,682.1285714285714,4296,610.2223214285714,682.1285714285714,4397.1,610.2223214285714,682.1285714285714,4515.8,610.2223214285714,682.1285714285714,4618.7,610.2223214285714,682.1285714285714,4721.3,610.2223214285714,682.1285714285714,4823.5,610.2223214285714,682.1285714285714,4928.8]","[1380.4,1380.4,1000,0,380.4,""smooth"",""up"",""up"",""good_move"",4073.8,2691.9,2265.7,1382,426.2,""smooth"",""up"",""up"",""good_move"",6759.2,2684.5,2274.7,4074.7,409.8,""smooth"",""left"",""left"",""good_move"",9836.8,3076.1,2640.7,6760.8,435.4,""oops"",""left"",""left"",""good_move"",12306.8,2468.5,2048.4,9838.4,420.1,""oops"",""up"",""left"",""good_move"",14819.7,2511.4,2044.6,12308.3,466.8,""smooth"",""up"",""up"",""good_move""]","",""
"4013","","<div style=""width:500px;"">
  <p>What determined the result of this run?</p>
  </div>","100","html-slider-response","25","356219","0.0-5.0-1.3","176","1","2025-07-23 07:31:31","1f75c3e559b7213887762d5229550c2b","216.120.189.119","Mozilla/5.0 (Windows NT 10.0; Win64; x64) AppleWebKit/537.36 (KHTML, like Gecko) Chrome/138.0.0.0 Safari/537.36","WebKit","Chrome","138.0.0.0","Windows","10.0","https://app.prolific.com/","en-US,en;q=0.9","669c1e1fdb95a995eb1d3077","683dba2a8a9dda3513610c04","68808f66400d10f055e328d5","3","0","669c1e1fdb95a995eb1d3077","3","0","2025-07-23T07:37:29.988Z","","","","","","","","","","","AttribQ","","50","","","","","","","","","","","","","","","","","","","","","","","","","","","","",""
"2945","","<div style=""width:500px;"">
  <p>How much control did you have over the ball?</p>
  </div>","100","html-slider-response","26","359166","0.0-5.0-2.3","176","1","2025-07-23 07:31:31","1f75c3e559b7213887762d5229550c2b","216.120.189.119","Mozilla/5.0 (Windows NT 10.0; Win64; x64) AppleWebKit/537.36 (KHTML, like Gecko) Chrome/138.0.0.0 Safari/537.36","WebKit","Chrome","138.0.0.0","Windows","10.0","https://app.prolific.com/","en-US,en;q=0.9","669c1e1fdb95a995eb1d3077","683dba2a8a9dda3513610c04","68808f66400d10f055e328d5","3","0","669c1e1fdb95a995eb1d3077","3","0","2025-07-23T07:37:32.935Z","","","","","","","","","","","ControlQ","","50","","","","","","","","","","","","","","","","","","","","","","","","","","","","",""
"6601","","<div style=""width:500px;"">
  <p>How would you describe your current emotional state?</p>
  </div>","1","html-slider-response","27","365769","0.0-5.0-3.3","176","1","2025-07-23 07:31:31","1f75c3e559b7213887762d5229550c2b","216.120.189.119","Mozilla/5.0 (Windows NT 10.0; Win64; x64) AppleWebKit/537.36 (KHTML, like Gecko) Chrome/138.0.0.0 Safari/537.36","WebKit","Chrome","138.0.0.0","Windows","10.0","https://app.prolific.com/","en-US,en;q=0.9","669c1e1fdb95a995eb1d3077","683dba2a8a9dda3513610c04","68808f66400d10f055e328d5","3","0","669c1e1fdb95a995eb1d3077","3","0","2025-07-23T07:37:39.538Z","","","","","","","","","","","StressQ","","50","","","","","","","","","","","","","","","","","","","","","","","","","","","","",""
"9177","","<div style=""width:500px;"">
  <p>What best describes how you currently feel?</p>
  </div>","100","html-slider-response","28","374947","0.0-5.0-4.3","176","1","2025-07-23 07:31:31","1f75c3e559b7213887762d5229550c2b","216.120.189.119","Mozilla/5.0 (Windows NT 10.0; Win64; x64) AppleWebKit/537.36 (KHTML, like Gecko) Chrome/138.0.0.0 Safari/537.36","WebKit","Chrome","138.0.0.0","Windows","10.0","https://app.prolific.com/","en-US,en;q=0.9","669c1e1fdb95a995eb1d3077","683dba2a8a9dda3513610c04","68808f66400d10f055e328d5","3","0","669c1e1fdb95a995eb1d3077","3","0","2025-07-23T07:37:48.716Z","","","","","","","","","","","MotivationQ","","50","","","","","","","","","","","","","","","","","","","","","","","","","","","","",""
"","","","","ctl-task-cpt","29","420949","0.0-5.0-0.4","176","1","2025-07-23 07:31:31","1f75c3e559b7213887762d5229550c2b","216.120.189.119","Mozilla/5.0 (Windows NT 10.0; Win64; x64) AppleWebKit/537.36 (KHTML, like Gecko) Chrome/138.0.0.0 Safari/537.36","WebKit","Chrome","138.0.0.0","Windows","10.0","https://app.prolific.com/","en-US,en;q=0.9","669c1e1fdb95a995eb1d3077","683dba2a8a9dda3513610c04","68808f66400d10f055e328d5","3","0","669c1e1fdb95a995eb1d3077","3","0","2025-07-23T07:38:34.718Z","","","","","","","","","","","","","","win-only","1","g1:NE,g2:SW","0.6","5","0","378761.4","1403","6409.3","42978.7","1","4","4","6","2","-4","-4","19","23","0.14393939393939395","1375.8","3000","-1905","[""down"",""left""]","{""num_key_presses"":10,""num_perfect"":6,""num_errors"":0,""num_randdir"":4,""num_randdir_good_moves"":1,""num_whilered"":0,""num_whileblue"":0,""num_blue"":2,""num_good_moves"":7}","[299.22232142857143,298.12857142857143,0.3,299.22232142857143,298.12857142857143,104.7,299.22232142857143,298.12857142857143,207.2,299.22232142857143,298.12857142857143,308.9,309.22232142857143,290.12857142857143,410.2,329.22232142857143,285.12857142857143,520.1,245.22232142857143,363.12857142857143,626.8,128.22232142857143,472.12857142857143,739.1,119.22232142857143,518.1285714285714,856.7,108.22232142857143,533.1285714285714,976.8,94.22232142857143,531.1285714285714,1082.7,73.22232142857143,535.1285714285714,1189.1,34.222321428571426,545.1285714285714,1306.7,38.222321428571426,540.1285714285714,1410.2,38.222321428571426,540.1285714285714,1517.3,42.222321428571426,526.1285714285714,1625.9,84.22232142857143,505.12857142857143,1740.1,215.22232142857143,468.12857142857143,1843.9,225.22232142857143,473.12857142857143,1944.3,228.22232142857143,475.12857142857143,2045.1,234.22232142857143,479.12857142857143,2156.7,236.22232142857143,480.12857142857143,2259.1,236.22232142857143,480.12857142857143,2359.2,236.22232142857143,480.12857142857143,2459.5,236.22232142857143,480.12857142857143,2560.6,236.22232142857143,480.12857142857143,2673.1,236.22232142857143,480.12857142857143,2774.8,236.22232142857143,480.12857142857143,2875.6,236.22232142857143,480.12857142857143,2979.1,236.22232142857143,480.12857142857143,3082.9,236.22232142857143,480.12857142857143,3183.3,236.22232142857143,480.12857142857143,3295.4,236.22232142857143,478.12857142857143,3401.9,239.22232142857143,478.12857142857143,3502.7,239.22232142857143,478.12857142857143,3603.5,239.22232142857143,480.12857142857143,3710,239.22232142857143,480.12857142857143,3811.3,239.22232142857143,480.12857142857143,3924,239.22232142857143,480.12857142857143,4038.1,239.22232142857143,480.12857142857143,4143.5,239.22232142857143,480.12857142857143,4248.5,239.22232142857143,480.12857142857143,4351.6,239.22232142857143,480.12857142857143,4461.4,239.22232142857143,480.12857142857143,4575.4,239.22232142857143,480.12857142857143,4686.4,239.22232142857143,480.12857142857143,4789.9,239.22232142857143,480.12857142857143,4891.8,239.22232142857143,480.12857142857143,4998.3]","[1404.5,1404.6,1000,0,404.6,""oops"",""down"",""up"",""bad_move"",4056.7,2650.4,2193.3,1406.4,457.1,""smooth"",""down"",""down"",""good_move"",10468.2,6408.9,2745.5,7340.3,382.5,""oops"",""left"",""left"",""good_move"",13786.1,3316.1,2869.2,10470.1,446.9,""oops"",""down"",""up"",""bad_move"",16236.8,2449.9,1980,13786.9,469.9,""smooth"",""down"",""down"",""good_move"",19126.6,2888.9,2215.4,16237.7,673.5,""oops"",""left"",""right"",""bad_move"",24854.1,5726.7,2330,22053.7,470.4,""smooth"",""left"",""left"",""good_move"",28398.5,3543.8,3111.1,24854.8,432.7,""smooth"",""left"",""left"",""good_move"",31854.5,3455.4,2663.9,28399.1,791.5,""smooth"",""down"",""down"",""good_move"",34796.8,2941.5,2396.7,31855.3,544.8,""smooth"",""down"",""down"",""good_move""]","",""
"2693","","<div style=""width:500px;"">
  <p>What determined the result of this run?</p>
  </div>","100","html-slider-response","30","423645","0.0-5.0-1.4","176","1","2025-07-23 07:31:31","1f75c3e559b7213887762d5229550c2b","216.120.189.119","Mozilla/5.0 (Windows NT 10.0; Win64; x64) AppleWebKit/537.36 (KHTML, like Gecko) Chrome/138.0.0.0 Safari/537.36","WebKit","Chrome","138.0.0.0","Windows","10.0","https://app.prolific.com/","en-US,en;q=0.9","669c1e1fdb95a995eb1d3077","683dba2a8a9dda3513610c04","68808f66400d10f055e328d5","3","0","669c1e1fdb95a995eb1d3077","3","0","2025-07-23T07:38:37.414Z","","","","","","","","","","","AttribQ","","50","","","","","","","","","","","","","","","","","","","","","","","","","","","","",""
"2402","","<div style=""width:500px;"">
  <p>How much control did you have over the ball?</p>
  </div>","100","html-slider-response","31","426049","0.0-5.0-2.4","176","1","2025-07-23 07:31:31","1f75c3e559b7213887762d5229550c2b","216.120.189.119","Mozilla/5.0 (Windows NT 10.0; Win64; x64) AppleWebKit/537.36 (KHTML, like Gecko) Chrome/138.0.0.0 Safari/537.36","WebKit","Chrome","138.0.0.0","Windows","10.0","https://app.prolific.com/","en-US,en;q=0.9","669c1e1fdb95a995eb1d3077","683dba2a8a9dda3513610c04","68808f66400d10f055e328d5","3","0","669c1e1fdb95a995eb1d3077","3","0","2025-07-23T07:38:39.818Z","","","","","","","","","","","ControlQ","","50","","","","","","","","","","","","","","","","","","","","","","","","","","","","",""
"2142","","<div style=""width:500px;"">
  <p>How would you describe your current emotional state?</p>
  </div>","0","html-slider-response","32","428192","0.0-5.0-3.4","176","1","2025-07-23 07:31:31","1f75c3e559b7213887762d5229550c2b","216.120.189.119","Mozilla/5.0 (Windows NT 10.0; Win64; x64) AppleWebKit/537.36 (KHTML, like Gecko) Chrome/138.0.0.0 Safari/537.36","WebKit","Chrome","138.0.0.0","Windows","10.0","https://app.prolific.com/","en-US,en;q=0.9","669c1e1fdb95a995eb1d3077","683dba2a8a9dda3513610c04","68808f66400d10f055e328d5","3","0","669c1e1fdb95a995eb1d3077","3","0","2025-07-23T07:38:41.961Z","","","","","","","","","","","StressQ","","50","","","","","","","","","","","","","","","","","","","","","","","","","","","","",""
"2134","","<div style=""width:500px;"">
  <p>What best describes how you currently feel?</p>
  </div>","100","html-slider-response","33","430327","0.0-5.0-4.4","176","1","2025-07-23 07:31:31","1f75c3e559b7213887762d5229550c2b","216.120.189.119","Mozilla/5.0 (Windows NT 10.0; Win64; x64) AppleWebKit/537.36 (KHTML, like Gecko) Chrome/138.0.0.0 Safari/537.36","WebKit","Chrome","138.0.0.0","Windows","10.0","https://app.prolific.com/","en-US,en;q=0.9","669c1e1fdb95a995eb1d3077","683dba2a8a9dda3513610c04","68808f66400d10f055e328d5","3","0","669c1e1fdb95a995eb1d3077","3","0","2025-07-23T07:38:44.097Z","","","","","","","","","","","MotivationQ","","50","","","","","","","","","","","","","","","","","","","","","","","","","","","","",""
"","","","","ctl-task-cpt","34","470996","0.0-5.0-0.5","176","1","2025-07-23 07:31:31","1f75c3e559b7213887762d5229550c2b","216.120.189.119","Mozilla/5.0 (Windows NT 10.0; Win64; x64) AppleWebKit/537.36 (KHTML, like Gecko) Chrome/138.0.0.0 Safari/537.36","WebKit","Chrome","138.0.0.0","Windows","10.0","https://app.prolific.com/","en-US,en;q=0.9","669c1e1fdb95a995eb1d3077","683dba2a8a9dda3513610c04","68808f66400d10f055e328d5","3","0","669c1e1fdb95a995eb1d3077","3","0","2025-07-23T07:39:24.766Z","","","","","","","","","","","","","","win-only","1","g1:NE,g2:SW","0.5","6","0","434141.1","824.2","5831.5","37653.1","1","4","8","6","2","8","8","27","19","0.20454545454545456","1090.9","3000","65","[""down"",""left""]","{""num_key_presses"":12,""num_perfect"":7,""num_errors"":0,""num_randdir"":5,""num_randdir_good_moves"":2,""num_whilered"":0,""num_whileblue"":0,""num_blue"":0,""num_good_moves"":9}","[297.22232142857143,300.12857142857143,0.8,297.22232142857143,300.12857142857143,106.9,297.22232142857143,300.12857142857143,208,285.22232142857143,316.12857142857143,316.9,283.22232142857143,330.12857142857143,424.7,280.22232142857143,399.12857142857143,525.1,190.22232142857143,524.1285714285714,625.1,120.22232142857143,554.1285714285714,728.6,97.22232142857143,553.1285714285714,828.6,45.222321428571426,543.1285714285714,934.4,20.222321428571426,539.1285714285714,1038.2,19.222321428571426,538.1285714285714,1139.6,19.222321428571426,534.1285714285714,1250.1,19.222321428571426,530.1285714285714,1360.1,45.222321428571426,536.1285714285714,1466.5,156.22232142857143,562.1285714285714,1581.6,220.22232142857143,585.1285714285714,1688.4,262.22232142857143,620.1285714285714,1790.4,264.22232142857143,626.1285714285714,1905.3,261.22232142857143,628.1285714285714,2007.8,257.22232142857143,621.1285714285714,2112.5,257.22232142857143,619.1285714285714,2216.4,240.22232142857143,611.1285714285714,2324.4,124.22232142857143,581.1285714285714,2438.8,106.22232142857143,568.1285714285714,2540.1,104.22232142857143,559.1285714285714,2646.5,93.22232142857143,552.1285714285714,2748.2,68.22232142857143,548.1285714285714,2853.7,64.22232142857143,548.1285714285714,2955.8,59.222321428571426,548.1285714285714,3058.6,56.222321428571426,545.1285714285714,3167,56.222321428571426,545.1285714285714,3267.2,56.222321428571426,545.1285714285714,3374.7,56.222321428571426,541.1285714285714,3477.9,56.222321428571426,538.1285714285714,3586,57.222321428571426,536.1285714285714,3690.2,163.22232142857143,533.1285714285714,3792.1,305.22232142857143,563.1285714285714,3893.8,419.22232142857143,625.1285714285714,3996.5,441.22232142857143,664.1285714285714,4098.3,460.22232142857143,683.1285714285714,4205.1,460.22232142857143,682.1285714285714,4307.7,460.22232142857143,683.1285714285714,4408.4,461.22232142857143,683.1285714285714,4516.9,461.22232142857143,681.1285714285714,4622.9,461.22232142857143,680.1285714285714,4723,463.22232142857143,682.1285714285714,4838.6,464.22232142857143,683.1285714285714,4947.1]","[1382.1,1382.2,1000,0,382.2,""oops"",""down"",""up"",""bad_move"",3947.9,2563.6,2188.4,1384.4,375.2,""smooth"",""down"",""down"",""good_move"",6938,2988.7,2594.9,3949.3,393.8,""oops"",""left"",""left"",""good_move"",9867.5,2928.1,2492.5,6939.4,435.6,""smooth"",""down"",""down"",""good_move"",13227,3358.5,2949.9,9868.5,408.6,""smooth"",""left"",""left"",""good_move"",16345,3117.1,2728.2,13227.9,388.9,""oops"",""down"",""left"",""good_move"",18684.1,2337.7,1919.8,16346.4,417.9,""oops"",""down"",""right"",""bad_move"",20810.4,2125.3,1743.1,18685.1,382.3,""oops"",""down"",""up"",""bad_move"",23706.7,2895.4,2369.2,20811.4,526.2,""smooth"",""down"",""down"",""good_move"",25919.6,2212.1,1743.4,23707.5,468.7,""smooth"",""down"",""down"",""good_move"",28793,2872.5,2477.8,25920.5,394.7,""smooth"",""left"",""left"",""good_move"",31682.7,2888.8,2264,28793.9,624.8,""smooth"",""down"",""down"",""good_move""]","",""
"2333","","<div style=""width:500px;"">
  <p>What determined the result of this run?</p>
  </div>","100","html-slider-response","35","473332","0.0-5.0-1.5","176","1","2025-07-23 07:31:31","1f75c3e559b7213887762d5229550c2b","216.120.189.119","Mozilla/5.0 (Windows NT 10.0; Win64; x64) AppleWebKit/537.36 (KHTML, like Gecko) Chrome/138.0.0.0 Safari/537.36","WebKit","Chrome","138.0.0.0","Windows","10.0","https://app.prolific.com/","en-US,en;q=0.9","669c1e1fdb95a995eb1d3077","683dba2a8a9dda3513610c04","68808f66400d10f055e328d5","3","0","669c1e1fdb95a995eb1d3077","3","0","2025-07-23T07:39:27.101Z","","","","","","","","","","","AttribQ","","50","","","","","","","","","","","","","","","","","","","","","","","","","","","","",""
"2850","","<div style=""width:500px;"">
  <p>How much control did you have over the ball?</p>
  </div>","100","html-slider-response","36","476183","0.0-5.0-2.5","176","1","2025-07-23 07:31:31","1f75c3e559b7213887762d5229550c2b","216.120.189.119","Mozilla/5.0 (Windows NT 10.0; Win64; x64) AppleWebKit/537.36 (KHTML, like Gecko) Chrome/138.0.0.0 Safari/537.36","WebKit","Chrome","138.0.0.0","Windows","10.0","https://app.prolific.com/","en-US,en;q=0.9","669c1e1fdb95a995eb1d3077","683dba2a8a9dda3513610c04","68808f66400d10f055e328d5","3","0","669c1e1fdb95a995eb1d3077","3","0","2025-07-23T07:39:29.952Z","","","","","","","","","","","ControlQ","","50","","","","","","","","","","","","","","","","","","","","","","","","","","","","",""
"2831","","<div style=""width:500px;"">
  <p>How would you describe your current emotional state?</p>
  </div>","1","html-slider-response","37","479016","0.0-5.0-3.5","176","1","2025-07-23 07:31:31","1f75c3e559b7213887762d5229550c2b","216.120.189.119","Mozilla/5.0 (Windows NT 10.0; Win64; x64) AppleWebKit/537.36 (KHTML, like Gecko) Chrome/138.0.0.0 Safari/537.36","WebKit","Chrome","138.0.0.0","Windows","10.0","https://app.prolific.com/","en-US,en;q=0.9","669c1e1fdb95a995eb1d3077","683dba2a8a9dda3513610c04","68808f66400d10f055e328d5","3","0","669c1e1fdb95a995eb1d3077","3","0","2025-07-23T07:39:32.785Z","","","","","","","","","","","StressQ","","50","","","","","","","","","","","","","","","","","","","","","","","","","","","","",""
"2360","","<div style=""width:500px;"">
  <p>What best describes how you currently feel?</p>
  </div>","100","html-slider-response","38","481378","0.0-5.0-4.5","176","1","2025-07-23 07:31:31","1f75c3e559b7213887762d5229550c2b","216.120.189.119","Mozilla/5.0 (Windows NT 10.0; Win64; x64) AppleWebKit/537.36 (KHTML, like Gecko) Chrome/138.0.0.0 Safari/537.36","WebKit","Chrome","138.0.0.0","Windows","10.0","https://app.prolific.com/","en-US,en;q=0.9","669c1e1fdb95a995eb1d3077","683dba2a8a9dda3513610c04","68808f66400d10f055e328d5","3","0","669c1e1fdb95a995eb1d3077","3","0","2025-07-23T07:39:35.147Z","","","","","","","","","","","MotivationQ","","50","","","","","","","","","","","","","","","","","","","","","","","","","","","","",""
"","","","","ctl-task-cpt","39","519159","0.0-5.0-0.6","176","1","2025-07-23 07:31:31","1f75c3e559b7213887762d5229550c2b","216.120.189.119","Mozilla/5.0 (Windows NT 10.0; Win64; x64) AppleWebKit/537.36 (KHTML, like Gecko) Chrome/138.0.0.0 Safari/537.36","WebKit","Chrome","138.0.0.0","Windows","10.0","https://app.prolific.com/","en-US,en;q=0.9","669c1e1fdb95a995eb1d3077","683dba2a8a9dda3513610c04","68808f66400d10f055e328d5","3","0","669c1e1fdb95a995eb1d3077","3","0","2025-07-23T07:40:12.929Z","","","","","","","","","","","","","","win-only","1","g1:NE,g2:SW","0.4","7","0","485191.6","2658.5","7681.6","34754.5","1","4","4","6","2","4","4","31","27","0.23484848484848486","1082.9","3000","1240","[""down"",""left""]","{""num_key_presses"":8,""num_perfect"":4,""num_errors"":0,""num_randdir"":4,""num_randdir_good_moves"":3,""num_whilered"":0,""num_whileblue"":0,""num_blue"":1,""num_good_moves"":7}","[292.22232142857143,296.12857142857143,1.5,292.22232142857143,296.12857142857143,115.2,292.22232142857143,296.12857142857143,215.7,292.22232142857143,300.12857142857143,318.4,291.22232142857143,314.12857142857143,438.5,208.22232142857143,437.12857142857143,538.7,104.22232142857143,535.1285714285714,647.4,97.22232142857143,542.1285714285714,751,89.22232142857143,542.1285714285714,854.7,60.222321428571426,553.1285714285714,980,56.222321428571426,554.1285714285714,1091.5,57.222321428571426,553.1285714285714,1200.6,93.22232142857143,517.1285714285714,1304.4,176.22232142857143,478.12857142857143,1414.2,298.22232142857143,418.12857142857143,1524.3,314.22232142857143,408.12857142857143,1633.2,319.22232142857143,405.12857142857143,1737.2,321.22232142857143,402.12857142857143,1865.6,321.22232142857143,402.12857142857143,1971.1,321.22232142857143,402.12857142857143,2074.6,321.22232142857143,402.12857142857143,2175.8,321.22232142857143,402.12857142857143,2288.5,321.22232142857143,402.12857142857143,2388.9,321.22232142857143,402.12857142857143,2494,321.22232142857143,402.12857142857143,2595.4,321.22232142857143,402.12857142857143,2695.4,321.22232142857143,402.12857142857143,2799.1,321.22232142857143,402.12857142857143,2903.8,321.22232142857143,402.12857142857143,3017.3,321.22232142857143,402.12857142857143,3119.4,321.22232142857143,402.12857142857143,3221.5,321.22232142857143,402.12857142857143,3335.7,323.22232142857143,399.12857142857143,3436.4,324.22232142857143,393.12857142857143,3549,326.22232142857143,385.12857142857143,3655.1,326.22232142857143,382.12857142857143,3768.4,327.22232142857143,383.12857142857143,3870.1,327.22232142857143,388.12857142857143,3989.1,327.22232142857143,391.12857142857143,4096,327.22232142857143,393.12857142857143,4200.8,327.22232142857143,394.12857142857143,4306.1,327.22232142857143,394.12857142857143,4406.5,327.22232142857143,394.12857142857143,4508.6,327.22232142857143,394.12857142857143,4609.4,327.22232142857143,394.12857142857143,4722.1,328.22232142857143,394.12857142857143,4824.8,328.22232142857143,394.12857142857143,4935.2]","[1443.3,1443.3,1000,0,443.3,""oops"",""down"",""left"",""good_move"",4850.2,3405.7,2992.2,1444.5,413.6,""smooth"",""down"",""down"",""good_move"",11758.5,6906.3,2452.4,8896.6,409.5,""oops"",""down"",""up"",""bad_move"",15037.6,3277.9,2806.7,11759.7,471.2,""smooth"",""left"",""left"",""good_move"",18075.9,3037.1,2675.2,15038.8,361.9,""oops"",""down"",""left"",""good_move"",21219.4,3142,2741.5,18077.4,400.5,""oops"",""down"",""down"",""good_move"",24073.4,2853.3,2399.8,21220.1,453.5,""smooth"",""down"",""down"",""good_move"",26827.9,2754.2,2253.5,24073.8,500.6,""smooth"",""down"",""down"",""good_move""]","",""
"3875","","<div style=""width:500px;"">
  <p>What determined the result of this run?</p>
  </div>","100","html-slider-response","40","523037","0.0-5.0-1.6","176","1","2025-07-23 07:31:31","1f75c3e559b7213887762d5229550c2b","216.120.189.119","Mozilla/5.0 (Windows NT 10.0; Win64; x64) AppleWebKit/537.36 (KHTML, like Gecko) Chrome/138.0.0.0 Safari/537.36","WebKit","Chrome","138.0.0.0","Windows","10.0","https://app.prolific.com/","en-US,en;q=0.9","669c1e1fdb95a995eb1d3077","683dba2a8a9dda3513610c04","68808f66400d10f055e328d5","3","0","669c1e1fdb95a995eb1d3077","3","0","2025-07-23T07:40:16.806Z","","","","","","","","","","","AttribQ","","50","","","","","","","","","","","","","","","","","","","","","","","","","","","","",""
"2238","","<div style=""width:500px;"">
  <p>How much control did you have over the ball?</p>
  </div>","100","html-slider-response","41","525277","0.0-5.0-2.6","176","1","2025-07-23 07:31:31","1f75c3e559b7213887762d5229550c2b","216.120.189.119","Mozilla/5.0 (Windows NT 10.0; Win64; x64) AppleWebKit/537.36 (KHTML, like Gecko) Chrome/138.0.0.0 Safari/537.36","WebKit","Chrome","138.0.0.0","Windows","10.0","https://app.prolific.com/","en-US,en;q=0.9","669c1e1fdb95a995eb1d3077","683dba2a8a9dda3513610c04","68808f66400d10f055e328d5","3","0","669c1e1fdb95a995eb1d3077","3","0","2025-07-23T07:40:19.046Z","","","","","","","","","","","ControlQ","","50","","","","","","","","","","","","","","","","","","","","","","","","","","","","",""
"3233","","<div style=""width:500px;"">
  <p>How would you describe your current emotional state?</p>
  </div>","1","html-slider-response","42","528512","0.0-5.0-3.6","176","1","2025-07-23 07:31:31","1f75c3e559b7213887762d5229550c2b","216.120.189.119","Mozilla/5.0 (Windows NT 10.0; Win64; x64) AppleWebKit/537.36 (KHTML, like Gecko) Chrome/138.0.0.0 Safari/537.36","WebKit","Chrome","138.0.0.0","Windows","10.0","https://app.prolific.com/","en-US,en;q=0.9","669c1e1fdb95a995eb1d3077","683dba2a8a9dda3513610c04","68808f66400d10f055e328d5","3","0","669c1e1fdb95a995eb1d3077","3","0","2025-07-23T07:40:22.281Z","","","","","","","","","","","StressQ","","50","","","","","","","","","","","","","","","","","","","","","","","","","","","","",""
"2056","","<div style=""width:500px;"">
  <p>What best describes how you currently feel?</p>
  </div>","100","html-slider-response","43","530569","0.0-5.0-4.6","176","1","2025-07-23 07:31:31","1f75c3e559b7213887762d5229550c2b","216.120.189.119","Mozilla/5.0 (Windows NT 10.0; Win64; x64) AppleWebKit/537.36 (KHTML, like Gecko) Chrome/138.0.0.0 Safari/537.36","WebKit","Chrome","138.0.0.0","Windows","10.0","https://app.prolific.com/","en-US,en;q=0.9","669c1e1fdb95a995eb1d3077","683dba2a8a9dda3513610c04","68808f66400d10f055e328d5","3","0","669c1e1fdb95a995eb1d3077","3","0","2025-07-23T07:40:24.339Z","","","","","","","","","","","MotivationQ","","50","","","","","","","","","","","","","","","","","","","","","","","","","","","","",""
"","","","","ctl-task-cpt","44","586348","0.0-5.0-0.7","176","1","2025-07-23 07:31:31","1f75c3e559b7213887762d5229550c2b","216.120.189.119","Mozilla/5.0 (Windows NT 10.0; Win64; x64) AppleWebKit/537.36 (KHTML, like Gecko) Chrome/138.0.0.0 Safari/537.36","WebKit","Chrome","138.0.0.0","Windows","10.0","https://app.prolific.com/","en-US,en;q=0.9","669c1e1fdb95a995eb1d3077","683dba2a8a9dda3513610c04","68808f66400d10f055e328d5","3","0","669c1e1fdb95a995eb1d3077","3","0","2025-07-23T07:41:20.117Z","","","","","","","","","","","","","","win-only","2","g1:SE,g2:NW","0.3","8","0","534383.8","922.3","5925.2","52755.7","1","4","8","6","2","-8","-9","22","31","0.16666666666666666","1406.5","3000","-1175","[""left"",""up""]","{""num_key_presses"":13,""num_perfect"":5,""num_errors"":1,""num_randdir"":7,""num_randdir_good_moves"":2,""num_whilered"":0,""num_whileblue"":1,""num_blue"":3,""num_good_moves"":8}","[304.22232142857143,298.12857142857143,0.5,304.22232142857143,298.12857142857143,105.1,304.22232142857143,298.12857142857143,207,262.22232142857143,342.12857142857143,314.1,247.22232142857143,373.12857142857143,414.9,261.22232142857143,392.12857142857143,518.1,278.22232142857143,401.12857142857143,619.6,226.22232142857143,321.12857142857143,720.6,175.22232142857143,161.12857142857143,821.7,144.22232142857143,117.12857142857143,932.1,127.22232142857143,105.12857142857143,1036.2,75.22232142857143,67.12857142857143,1148.1,57.222321428571426,57.128571428571426,1250.9,49.222321428571426,53.128571428571426,1354.7,48.222321428571426,51.128571428571426,1478.9,48.222321428571426,50.128571428571426,1584.2,105.22232142857143,120.12857142857143,1693.9,288.22232142857143,376.12857142857143,1802.3,356.22232142857143,498.12857142857143,1907.9,354.22232142857143,495.12857142857143,2010.9,354.22232142857143,494.12857142857143,2134.5,354.22232142857143,491.12857142857143,2240.4,355.22232142857143,489.12857142857143,2351.7,355.22232142857143,489.12857142857143,2455.6,355.22232142857143,490.12857142857143,2558.3,357.22232142857143,488.12857142857143,2661.4,357.22232142857143,489.12857142857143,2784.2,357.22232142857143,491.12857142857143,2891.7,357.22232142857143,492.12857142857143,2996.3,357.22232142857143,492.12857142857143,3101.1,354.22232142857143,492.12857142857143,3215.1,353.22232142857143,492.12857142857143,3331.1,353.22232142857143,492.12857142857143,3432.6,353.22232142857143,492.12857142857143,3535.7,353.22232142857143,492.12857142857143,3644.4,353.22232142857143,492.12857142857143,3747.9,353.22232142857143,492.12857142857143,3849.6,353.22232142857143,492.12857142857143,3951,353.22232142857143,492.12857142857143,4051.9,353.22232142857143,492.12857142857143,4154.8,353.22232142857143,492.12857142857143,4255.6,353.22232142857143,492.12857142857143,4376,353.22232142857143,492.12857142857143,4492.2,353.22232142857143,492.12857142857143,4597.3,353.22232142857143,492.12857142857143,4700.9,353.22232142857143,492.12857142857143,4815,353.22232142857143,492.12857142857143,4920.6]","[1430.6,1430.6,1000,0,430.6,""oops"",""up"",""left"",""good_move"",8259,6826.5,2395.3,5455.4,408.3,""smooth"",""up"",""up"",""good_move"",10569.9,2310,1262.5,8259.9,1047.5,""smooth"",""up"",""up"",""good_move"",13281.4,2710.5,2269.6,10570.9,440.9,""oops"",""left"",""right"",""bad_move"",15964.2,2680.9,2375.4,13283.3,305.5,""oops"",""left"",""right"",""bad_move"",19426.4,3461.3,3128.4,15965.1,332.9,""while_blue"",""left"",""up"",""good_move"",24677.3,5250,1841.4,22481.2,354.7,""oops"",""left"",""left"",""good_move"",28267.2,3588.9,2998.7,24678.3,590.2,""smooth"",""left"",""left"",""good_move"",31064.9,2797.1,2032.2,28267.8,764.9,""oops"",""left"",""down"",""bad_move"",34455.9,3389.9,2844.6,31066.1,545.3,""oops"",""left"",""down"",""bad_move"",37694.7,3236.4,2826,34458.3,410.4,""oops"",""up"",""down"",""bad_move"",40266.9,2571,1910.4,37695.9,660.6,""smooth"",""left"",""left"",""good_move"",43343.1,3075.4,2680.7,40267.7,394.7,""smooth"",""up"",""up"",""good_move""]","",""
"2525","","<div style=""width:500px;"">
  <p>What determined the result of this run?</p>
  </div>","100","html-slider-response","45","588875","0.0-5.0-1.7","176","1","2025-07-23 07:31:31","1f75c3e559b7213887762d5229550c2b","216.120.189.119","Mozilla/5.0 (Windows NT 10.0; Win64; x64) AppleWebKit/537.36 (KHTML, like Gecko) Chrome/138.0.0.0 Safari/537.36","WebKit","Chrome","138.0.0.0","Windows","10.0","https://app.prolific.com/","en-US,en;q=0.9","669c1e1fdb95a995eb1d3077","683dba2a8a9dda3513610c04","68808f66400d10f055e328d5","3","0","669c1e1fdb95a995eb1d3077","3","0","2025-07-23T07:41:22.644Z","","","","","","","","","","","AttribQ","","50","","","","","","","","","","","","","","","","","","","","","","","","","","","","",""
"3682","","<div style=""width:500px;"">
  <p>How much control did you have over the ball?</p>
  </div>","97","html-slider-response","46","592559","0.0-5.0-2.7","176","1","2025-07-23 07:31:31","1f75c3e559b7213887762d5229550c2b","216.120.189.119","Mozilla/5.0 (Windows NT 10.0; Win64; x64) AppleWebKit/537.36 (KHTML, like Gecko) Chrome/138.0.0.0 Safari/537.36","WebKit","Chrome","138.0.0.0","Windows","10.0","https://app.prolific.com/","en-US,en;q=0.9","669c1e1fdb95a995eb1d3077","683dba2a8a9dda3513610c04","68808f66400d10f055e328d5","3","0","669c1e1fdb95a995eb1d3077","3","0","2025-07-23T07:41:26.328Z","","","","","","","","","","","ControlQ","","50","","","","","","","","","","","","","","","","","","","","","","","","","","","","",""
"4496","","<div style=""width:500px;"">
  <p>How would you describe your current emotional state?</p>
  </div>","38","html-slider-response","47","597057","0.0-5.0-3.7","176","1","2025-07-23 07:31:31","1f75c3e559b7213887762d5229550c2b","216.120.189.119","Mozilla/5.0 (Windows NT 10.0; Win64; x64) AppleWebKit/537.36 (KHTML, like Gecko) Chrome/138.0.0.0 Safari/537.36","WebKit","Chrome","138.0.0.0","Windows","10.0","https://app.prolific.com/","en-US,en;q=0.9","669c1e1fdb95a995eb1d3077","683dba2a8a9dda3513610c04","68808f66400d10f055e328d5","3","0","669c1e1fdb95a995eb1d3077","3","0","2025-07-23T07:41:30.826Z","","","","","","","","","","","StressQ","","50","","","","","","","","","","","","","","","","","","","","","","","","","","","","",""
"3913","","<div style=""width:500px;"">
  <p>What best describes how you currently feel?</p>
  </div>","99","html-slider-response","48","600972","0.0-5.0-4.7","176","1","2025-07-23 07:31:31","1f75c3e559b7213887762d5229550c2b","216.120.189.119","Mozilla/5.0 (Windows NT 10.0; Win64; x64) AppleWebKit/537.36 (KHTML, like Gecko) Chrome/138.0.0.0 Safari/537.36","WebKit","Chrome","138.0.0.0","Windows","10.0","https://app.prolific.com/","en-US,en;q=0.9","669c1e1fdb95a995eb1d3077","683dba2a8a9dda3513610c04","68808f66400d10f055e328d5","3","0","669c1e1fdb95a995eb1d3077","3","0","2025-07-23T07:41:34.741Z","","","","","","","","","","","MotivationQ","","50","","","","","","","","","","","","","","","","","","","","","","","","","","","","",""
"","","","","ctl-task-cpt","49","657889","0.0-5.0-0.8","176","1","2025-07-23 07:31:31","1f75c3e559b7213887762d5229550c2b","216.120.189.119","Mozilla/5.0 (Windows NT 10.0; Win64; x64) AppleWebKit/537.36 (KHTML, like Gecko) Chrome/138.0.0.0 Safari/537.36","WebKit","Chrome","138.0.0.0","Windows","10.0","https://app.prolific.com/","en-US,en;q=0.9","669c1e1fdb95a995eb1d3077","683dba2a8a9dda3513610c04","68808f66400d10f055e328d5","3","0","669c1e1fdb95a995eb1d3077","3","0","2025-07-23T07:42:31.658Z","","","","","","","","","","","","","","win-only","1","g1:NE,g2:SW","0.2","9","0","604785.2","5772.9","10780.2","53878.6","1","4","8","6","2","-8","-8","14","22","0.10606060606060606","1216.9","3000","-1650","[""down"",""left""]","{""num_key_presses"":13,""num_perfect"":3,""num_errors"":0,""num_randdir"":10,""num_randdir_good_moves"":5,""num_whilered"":0,""num_whileblue"":0,""num_blue"":1,""num_good_moves"":7}","[292.22232142857143,294.12857142857143,0.7,292.22232142857143,294.12857142857143,116.4,294.22232142857143,294.12857142857143,217.8,294.22232142857143,294.12857142857143,324.5,295.22232142857143,294.12857142857143,427.3,297.22232142857143,313.12857142857143,528,191.22232142857143,469.12857142857143,646.3,82.22232142857143,569.1285714285714,748,48.222321428571426,594.1285714285714,861.1,63.222321428571426,570.1285714285714,979.9,58.222321428571426,553.1285714285714,1094.9,57.222321428571426,549.1285714285714,1195.7,57.222321428571426,549.1285714285714,1296.5,57.222321428571426,549.1285714285714,1396.9,55.222321428571426,544.1285714285714,1500.9,54.222321428571426,539.1285714285714,1602.5,53.222321428571426,530.1285714285714,1712.7,53.222321428571426,524.1285714285714,1815.8,53.222321428571426,524.1285714285714,1922,53.222321428571426,524.1285714285714,2047.3,53.222321428571426,524.1285714285714,2151.1,53.222321428571426,524.1285714285714,2255.6,52.222321428571426,521.1285714285714,2370,52.222321428571426,520.1285714285714,2471.9,52.222321428571426,520.1285714285714,2577.9,52.222321428571426,520.1285714285714,2689.8,52.222321428571426,520.1285714285714,2791.3,52.222321428571426,520.1285714285714,2897.5,52.222321428571426,520.1285714285714,2999.1,52.222321428571426,520.1285714285714,3105.1,52.222321428571426,520.1285714285714,3212,52.222321428571426,520.1285714285714,3322.5,52.222321428571426,520.1285714285714,3423.9,52.222321428571426,520.1285714285714,3539.7,52.222321428571426,520.1285714285714,3642.2,52.222321428571426,520.1285714285714,3748.9,52.222321428571426,520.1285714285714,3858.2,52.222321428571426,520.1285714285714,3976.1,52.222321428571426,520.1285714285714,4078.9,51.222321428571426,520.1285714285714,4184,51.222321428571426,521.1285714285714,4285.4,51.222321428571426,521.1285714285714,4387.4,51.222321428571426,521.1285714285714,4495.8,51.222321428571426,521.1285714285714,4597.6,51.222321428571426,521.1285714285714,4699.9,51.222321428571426,521.1285714285714,4802.6,51.222321428571426,520.1285714285714,4909.1]","[1826.5,1826.5,1000,0,826.5,""smooth"",""down"",""down"",""good_move"",4268.9,2440.9,2064.9,1828,376,""oops"",""down"",""left"",""good_move"",7042.7,2772.5,2347.4,4270.2,425.1,""oops"",""down"",""down"",""good_move"",9262.1,2218.7,1483.3,7043.5,735.4,""oops"",""down"",""down"",""good_move"",12449.4,3186.1,2821.4,9263.3,364.7,""oops"",""left"",""right"",""bad_move"",15418,2967.4,2022.2,12450.6,945.2,""oops"",""up"",""right"",""bad_move"",17947.6,2529.2,1663.7,15418.4,865.5,""smooth"",""left"",""left"",""good_move"",21159.8,3211.5,2744.9,17948.3,466.6,""oops"",""left"",""up"",""bad_move"",24997.1,3836.4,3384.7,21160.7,451.7,""oops"",""left"",""down"",""good_move"",31487.7,6489.9,2500.8,28606.4,380.5,""oops"",""left"",""right"",""bad_move"",34519.5,3030.6,2703.4,31488.9,327.2,""smooth"",""right"",""right"",""bad_move"",37547.9,3027.6,2630.3,34520.3,397.3,""oops"",""left"",""left"",""good_move"",40640.3,3091.7,2593.9,37548.6,497.9,""oops"",""left"",""right"",""bad_move""]","",""
"3138","","<div style=""width:500px;"">
  <p>What determined the result of this run?</p>
  </div>","100","html-slider-response","50","661029","0.0-5.0-1.8","176","1","2025-07-23 07:31:31","1f75c3e559b7213887762d5229550c2b","216.120.189.119","Mozilla/5.0 (Windows NT 10.0; Win64; x64) AppleWebKit/537.36 (KHTML, like Gecko) Chrome/138.0.0.0 Safari/537.36","WebKit","Chrome","138.0.0.0","Windows","10.0","https://app.prolific.com/","en-US,en;q=0.9","669c1e1fdb95a995eb1d3077","683dba2a8a9dda3513610c04","68808f66400d10f055e328d5","3","0","669c1e1fdb95a995eb1d3077","3","0","2025-07-23T07:42:34.798Z","","","","","","","","","","","AttribQ","","50","","","","","","","","","","","","","","","","","","","","","","","","","","","","",""
"3248","","<div style=""width:500px;"">
  <p>How much control did you have over the ball?</p>
  </div>","99","html-slider-response","51","664279","0.0-5.0-2.8","176","1","2025-07-23 07:31:31","1f75c3e559b7213887762d5229550c2b","216.120.189.119","Mozilla/5.0 (Windows NT 10.0; Win64; x64) AppleWebKit/537.36 (KHTML, like Gecko) Chrome/138.0.0.0 Safari/537.36","WebKit","Chrome","138.0.0.0","Windows","10.0","https://app.prolific.com/","en-US,en;q=0.9","669c1e1fdb95a995eb1d3077","683dba2a8a9dda3513610c04","68808f66400d10f055e328d5","3","0","669c1e1fdb95a995eb1d3077","3","0","2025-07-23T07:42:38.048Z","","","","","","","","","","","ControlQ","","50","","","","","","","","","","","","","","","","","","","","","","","","","","","","",""
"5627","","<div style=""width:500px;"">
  <p>How would you describe your current emotional state?</p>
  </div>","1","html-slider-response","52","669908","0.0-5.0-3.8","176","1","2025-07-23 07:31:31","1f75c3e559b7213887762d5229550c2b","216.120.189.119","Mozilla/5.0 (Windows NT 10.0; Win64; x64) AppleWebKit/537.36 (KHTML, like Gecko) Chrome/138.0.0.0 Safari/537.36","WebKit","Chrome","138.0.0.0","Windows","10.0","https://app.prolific.com/","en-US,en;q=0.9","669c1e1fdb95a995eb1d3077","683dba2a8a9dda3513610c04","68808f66400d10f055e328d5","3","0","669c1e1fdb95a995eb1d3077","3","0","2025-07-23T07:42:43.677Z","","","","","","","","","","","StressQ","","50","","","","","","","","","","","","","","","","","","","","","","","","","","","","",""
"2179","","<div style=""width:500px;"">
  <p>What best describes how you currently feel?</p>
  </div>","99","html-slider-response","53","672089","0.0-5.0-4.8","176","1","2025-07-23 07:31:31","1f75c3e559b7213887762d5229550c2b","216.120.189.119","Mozilla/5.0 (Windows NT 10.0; Win64; x64) AppleWebKit/537.36 (KHTML, like Gecko) Chrome/138.0.0.0 Safari/537.36","WebKit","Chrome","138.0.0.0","Windows","10.0","https://app.prolific.com/","en-US,en;q=0.9","669c1e1fdb95a995eb1d3077","683dba2a8a9dda3513610c04","68808f66400d10f055e328d5","3","0","669c1e1fdb95a995eb1d3077","3","0","2025-07-23T07:42:45.858Z","","","","","","","","","","","MotivationQ","","50","","","","","","","","","","","","","","","","","","","","","","","","","","","","",""
"","","","","ctl-task-cpt","54","720479","0.0-5.0-0.9","176","1","2025-07-23 07:31:31","1f75c3e559b7213887762d5229550c2b","216.120.189.119","Mozilla/5.0 (Windows NT 10.0; Win64; x64) AppleWebKit/537.36 (KHTML, like Gecko) Chrome/138.0.0.0 Safari/537.36","WebKit","Chrome","138.0.0.0","Windows","10.0","https://app.prolific.com/","en-US,en;q=0.9","669c1e1fdb95a995eb1d3077","683dba2a8a9dda3513610c04","68808f66400d10f055e328d5","3","0","669c1e1fdb95a995eb1d3077","3","0","2025-07-23T07:43:34.249Z","","","","","","","","","","","","","","win-only","1","g1:NE,g2:SW","0.4","10","0","675903.4","12496.1","17503.4","45378.3","1","4","4","6","2","4","4","18","14","0.13636363636363635","1244.7","3000","1265","[""down"",""left""]","{""num_key_presses"":8,""num_perfect"":4,""num_errors"":0,""num_randdir"":4,""num_randdir_good_moves"":3,""num_whilered"":0,""num_whileblue"":0,""num_blue"":1,""num_good_moves"":7}","[291.22232142857143,291.12857142857143,0.6,293.22232142857143,295.12857142857143,117.7,295.22232142857143,295.12857142857143,220.4,295.22232142857143,295.12857142857143,322.4,296.22232142857143,298.12857142857143,429.3,291.22232142857143,320.12857142857143,531.4,219.22232142857143,411.12857142857143,635.6,184.22232142857143,465.12857142857143,749.2,131.22232142857143,508.12857142857143,854.2,55.222321428571426,527.1285714285714,957.1,51.222321428571426,528.1285714285714,1061.5,41.222321428571426,531.1285714285714,1161.6,41.222321428571426,531.1285714285714,1261.7,43.222321428571426,531.1285714285714,1361.8,43.222321428571426,527.1285714285714,1463.8,43.222321428571426,524.1285714285714,1573.7,46.222321428571426,520.1285714285714,1679.5,49.222321428571426,514.1285714285714,1811.8,53.222321428571426,510.12857142857143,1912.7,54.222321428571426,506.12857142857143,2013,56.222321428571426,505.12857142857143,2122.1,57.222321428571426,504.12857142857143,2223.5,57.222321428571426,503.12857142857143,2326.3,57.222321428571426,502.12857142857143,2445.4,57.222321428571426,502.12857142857143,2550.5,55.222321428571426,501.12857142857143,2666.6,55.222321428571426,501.12857142857143,2786,55.222321428571426,501.12857142857143,2890.2,55.222321428571426,501.12857142857143,2995.5,56.222321428571426,501.12857142857143,3101.3,56.222321428571426,501.12857142857143,3221.4,56.222321428571426,501.12857142857143,3322.1,56.222321428571426,500.12857142857143,3424.4,56.222321428571426,500.12857142857143,3531,56.222321428571426,500.12857142857143,3636.2,56.222321428571426,500.12857142857143,3736.2,56.222321428571426,500.12857142857143,3837.3,56.222321428571426,500.12857142857143,3940.9,56.222321428571426,500.12857142857143,4051.8,59.222321428571426,500.12857142857143,4155.7,115.22232142857143,500.12857142857143,4259.6,152.22232142857143,491.12857142857143,4359.8,155.22232142857143,490.12857142857143,4467.8,155.22232142857143,490.12857142857143,4568.8,155.22232142857143,489.12857142857143,4673.9,155.22232142857143,489.12857142857143,4775.1,155.22232142857143,489.12857142857143,4882.7,155.22232142857143,489.12857142857143,4987.8]","[1783.5,1783.5,1000,0,783.5,""smooth"",""down"",""down"",""good_move"",4315.7,2530.7,2087.1,1785.1,443.6,""smooth"",""down"",""down"",""good_move"",7481.6,3165,2755.4,4316.6,409.6,""oops"",""down"",""up"",""bad_move"",10745.7,3263.2,2731,7482.5,532.2,""smooth"",""left"",""left"",""good_move"",13112.3,2366.1,2008.2,10746.2,357.9,""oops"",""left"",""down"",""good_move"",16808.9,3696,3286.7,13112.9,409.3,""oops"",""left"",""down"",""good_move"",20508.6,3698.8,3258.5,16809.8,440.3,""smooth"",""left"",""left"",""good_move"",27612.2,7102.7,2580.8,24561.1,470.3,""oops"",""left"",""left"",""good_move""]","",""
"17835","","<div style=""width:500px;"">
  <p>What determined the result of this run?</p>
  </div>","96","html-slider-response","55","738317","0.0-5.0-1.9","176","1","2025-07-23 07:31:31","1f75c3e559b7213887762d5229550c2b","216.120.189.119","Mozilla/5.0 (Windows NT 10.0; Win64; x64) AppleWebKit/537.36 (KHTML, like Gecko) Chrome/138.0.0.0 Safari/537.36","WebKit","Chrome","138.0.0.0","Windows","10.0","https://app.prolific.com/","en-US,en;q=0.9","669c1e1fdb95a995eb1d3077","683dba2a8a9dda3513610c04","68808f66400d10f055e328d5","3","0","669c1e1fdb95a995eb1d3077","3","0","2025-07-23T07:43:52.086Z","","","","","","","","","","","AttribQ","","50","","","","","","","","","","","","","","","","","","","","","","","","","","","","",""
"2395","","<div style=""width:500px;"">
  <p>How much control did you have over the ball?</p>
  </div>","100","html-slider-response","56","740716","0.0-5.0-2.9","176","1","2025-07-23 07:31:31","1f75c3e559b7213887762d5229550c2b","216.120.189.119","Mozilla/5.0 (Windows NT 10.0; Win64; x64) AppleWebKit/537.36 (KHTML, like Gecko) Chrome/138.0.0.0 Safari/537.36","WebKit","Chrome","138.0.0.0","Windows","10.0","https://app.prolific.com/","en-US,en;q=0.9","669c1e1fdb95a995eb1d3077","683dba2a8a9dda3513610c04","68808f66400d10f055e328d5","3","0","669c1e1fdb95a995eb1d3077","3","0","2025-07-23T07:43:54.485Z","","","","","","","","","","","ControlQ","","50","","","","","","","","","","","","","","","","","","","","","","","","","","","","",""
"2343","","<div style=""width:500px;"">
  <p>How would you describe your current emotional state?</p>
  </div>","4","html-slider-response","57","743061","0.0-5.0-3.9","176","1","2025-07-23 07:31:31","1f75c3e559b7213887762d5229550c2b","216.120.189.119","Mozilla/5.0 (Windows NT 10.0; Win64; x64) AppleWebKit/537.36 (KHTML, like Gecko) Chrome/138.0.0.0 Safari/537.36","WebKit","Chrome","138.0.0.0","Windows","10.0","https://app.prolific.com/","en-US,en;q=0.9","669c1e1fdb95a995eb1d3077","683dba2a8a9dda3513610c04","68808f66400d10f055e328d5","3","0","669c1e1fdb95a995eb1d3077","3","0","2025-07-23T07:43:56.830Z","","","","","","","","","","","StressQ","","50","","","","","","","","","","","","","","","","","","","","","","","","","","","","",""
"2096","","<div style=""width:500px;"">
  <p>What best describes how you currently feel?</p>
  </div>","100","html-slider-response","58","745159","0.0-5.0-4.9","176","1","2025-07-23 07:31:31","1f75c3e559b7213887762d5229550c2b","216.120.189.119","Mozilla/5.0 (Windows NT 10.0; Win64; x64) AppleWebKit/537.36 (KHTML, like Gecko) Chrome/138.0.0.0 Safari/537.36","WebKit","Chrome","138.0.0.0","Windows","10.0","https://app.prolific.com/","en-US,en;q=0.9","669c1e1fdb95a995eb1d3077","683dba2a8a9dda3513610c04","68808f66400d10f055e328d5","3","0","669c1e1fdb95a995eb1d3077","3","0","2025-07-23T07:43:58.929Z","","","","","","","","","","","MotivationQ","","50","","","","","","","","","","","","","","","","","","","","","","","","","","","","",""
"","","","","ctl-task-cpt","59","802619","0.0-5.0-0.10","176","1","2025-07-23 07:31:31","1f75c3e559b7213887762d5229550c2b","216.120.189.119","Mozilla/5.0 (Windows NT 10.0; Win64; x64) AppleWebKit/537.36 (KHTML, like Gecko) Chrome/138.0.0.0 Safari/537.36","WebKit","Chrome","138.0.0.0","Windows","10.0","https://app.prolific.com/","en-US,en;q=0.9","669c1e1fdb95a995eb1d3077","683dba2a8a9dda3513610c04","68808f66400d10f055e328d5","3","0","669c1e1fdb95a995eb1d3077","3","0","2025-07-23T07:44:56.388Z","","","","","","","","","","","","","","win-only","3","g1:SW,g2:NE","0.5","11","0","748974.4","3132.6","8135.9","54425.3","1","4","4","6","2","4","4","22","18","0.16666666666666666","1232.2","3000","900","[""up"",""right""]","{""num_key_presses"":12,""num_perfect"":7,""num_errors"":0,""num_randdir"":5,""num_randdir_good_moves"":2,""num_whilered"":0,""num_whileblue"":0,""num_blue"":3,""num_good_moves"":9}","[293.22232142857143,300.12857142857143,0.4,293.22232142857143,300.12857142857143,102.8,293.22232142857143,300.12857142857143,210.1,293.22232142857143,300.12857142857143,310.1,294.22232142857143,309.12857142857143,410.3,236.22232142857143,379.12857142857143,520.9,251.22232142857143,357.12857142857143,624.1,546.2223214285714,125.12857142857143,737.4,557.2223214285714,107.12857142857143,845,555.2223214285714,106.12857142857143,951.3,551.2223214285714,77.12857142857143,1059.6,547.2223214285714,51.128571428571426,1166.6,547.2223214285714,51.128571428571426,1275,547.2223214285714,51.128571428571426,1379.4,554.2223214285714,85.12857142857143,1487.9,630.2223214285714,400.12857142857143,1595.2,728.2223214285714,683.1285714285714,1697.2,135.22232142857143,683.1285714285714,1805.6,-244.77767857142857,683.1285714285714,1906.3,-244.77767857142857,683.1285714285714,2006.8,-244.77767857142857,683.1285714285714,2109.1,-244.77767857142857,683.1285714285714,2217.2,-244.77767857142857,683.1285714285714,2317.5,-244.77767857142857,683.1285714285714,2423.8,-244.77767857142857,683.1285714285714,2533,-244.77767857142857,683.1285714285714,2633.9,-244.77767857142857,683.1285714285714,2734,-244.77767857142857,683.1285714285714,2834.4,-244.77767857142857,683.1285714285714,2943.7,-244.77767857142857,683.1285714285714,3051.2,-244.77767857142857,683.1285714285714,3156.7,-244.77767857142857,683.1285714285714,3268,-244.77767857142857,683.1285714285714,3377.8,-244.77767857142857,683.1285714285714,3492.9,-244.77767857142857,683.1285714285714,3607.5,-244.77767857142857,683.1285714285714,3729.9,-244.77767857142857,683.1285714285714,3830.7,-244.77767857142857,683.1285714285714,3934.5,-244.77767857142857,683.1285714285714,4040.4,-244.77767857142857,683.1285714285714,4153.4,-244.77767857142857,683.1285714285714,4267.2,-244.77767857142857,683.1285714285714,4367.6,-244.77767857142857,683.1285714285714,4476.4,-244.77767857142857,683.1285714285714,4592.9,-244.77767857142857,683.1285714285714,4707,-244.77767857142857,683.1285714285714,4820.4,-244.77767857142857,683.1285714285714,4920.5]","[1403.1,1403.1,1000,0,403.1,""oops"",""up"",""down"",""bad_move"",9257.2,7853.6,3229,5518.7,509.5,""smooth"",""up"",""up"",""good_move"",12371.1,3112.9,2619.8,9258.2,493.1,""oops"",""right"",""down"",""bad_move"",15515.3,3143.5,2691.2,12371.8,452.4,""oops"",""right"",""up"",""good_move"",18531,3015,2472.9,15516,542.1,""smooth"",""right"",""right"",""good_move"",25464.4,6932.4,2359.9,22658.6,446,""oops"",""up"",""left"",""bad_move"",32139.6,6674.3,2448.3,29226.2,465.1,""smooth"",""up"",""up"",""good_move"",34922.2,2781.7,2198.1,32140.5,583.6,""oops"",""up"",""up"",""good_move"",37421.9,2498.6,1822,34923.3,676.7,""smooth"",""right"",""right"",""good_move"",40116.1,2693.1,2266.7,37423,426.4,""smooth"",""right"",""right"",""good_move"",42724.8,2607.9,2181.4,40116.9,426.5,""smooth"",""up"",""up"",""good_move"",45929,3203.4,2472,42725.6,731.4,""smooth"",""right"",""right"",""good_move""]","",""
"6256","","<div style=""width:500px;"">
  <p>What determined the result of this run?</p>
  </div>","99","html-slider-response","60","808878","0.0-5.0-1.10","176","1","2025-07-23 07:31:31","1f75c3e559b7213887762d5229550c2b","216.120.189.119","Mozilla/5.0 (Windows NT 10.0; Win64; x64) AppleWebKit/537.36 (KHTML, like Gecko) Chrome/138.0.0.0 Safari/537.36","WebKit","Chrome","138.0.0.0","Windows","10.0","https://app.prolific.com/","en-US,en;q=0.9","669c1e1fdb95a995eb1d3077","683dba2a8a9dda3513610c04","68808f66400d10f055e328d5","3","0","669c1e1fdb95a995eb1d3077","3","0","2025-07-23T07:45:02.647Z","","","","","","","","","","","AttribQ","","50","","","","","","","","","","","","","","","","","","","","","","","","","","","","",""
"1890","","<div style=""width:500px;"">
  <p>How much control did you have over the ball?</p>
  </div>","99","html-slider-response","61","810772","0.0-5.0-2.10","176","1","2025-07-23 07:31:31","1f75c3e559b7213887762d5229550c2b","216.120.189.119","Mozilla/5.0 (Windows NT 10.0; Win64; x64) AppleWebKit/537.36 (KHTML, like Gecko) Chrome/138.0.0.0 Safari/537.36","WebKit","Chrome","138.0.0.0","Windows","10.0","https://app.prolific.com/","en-US,en;q=0.9","669c1e1fdb95a995eb1d3077","683dba2a8a9dda3513610c04","68808f66400d10f055e328d5","3","0","669c1e1fdb95a995eb1d3077","3","0","2025-07-23T07:45:04.541Z","","","","","","","","","","","ControlQ","","50","","","","","","","","","","","","","","","","","","","","","","","","","","","","",""
"3967","","<div style=""width:500px;"">
  <p>How would you describe your current emotional state?</p>
  </div>","0","html-slider-response","62","814741","0.0-5.0-3.10","176","1","2025-07-23 07:31:31","1f75c3e559b7213887762d5229550c2b","216.120.189.119","Mozilla/5.0 (Windows NT 10.0; Win64; x64) AppleWebKit/537.36 (KHTML, like Gecko) Chrome/138.0.0.0 Safari/537.36","WebKit","Chrome","138.0.0.0","Windows","10.0","https://app.prolific.com/","en-US,en;q=0.9","669c1e1fdb95a995eb1d3077","683dba2a8a9dda3513610c04","68808f66400d10f055e328d5","3","0","669c1e1fdb95a995eb1d3077","3","0","2025-07-23T07:45:08.511Z","","","","","","","","","","","StressQ","","50","","","","","","","","","","","","","","","","","","","","","","","","","","","","",""
"2209","","<div style=""width:500px;"">
  <p>What best describes how you currently feel?</p>
  </div>","99","html-slider-response","63","816953","0.0-5.0-4.10","176","1","2025-07-23 07:31:31","1f75c3e559b7213887762d5229550c2b","216.120.189.119","Mozilla/5.0 (Windows NT 10.0; Win64; x64) AppleWebKit/537.36 (KHTML, like Gecko) Chrome/138.0.0.0 Safari/537.36","WebKit","Chrome","138.0.0.0","Windows","10.0","https://app.prolific.com/","en-US,en;q=0.9","669c1e1fdb95a995eb1d3077","683dba2a8a9dda3513610c04","68808f66400d10f055e328d5","3","0","669c1e1fdb95a995eb1d3077","3","0","2025-07-23T07:45:10.722Z","","","","","","","","","","","MotivationQ","","50","","","","","","","","","","","","","","","","","","","","","","","","","","","","",""
"","","","","ctl-task-cpt","64","844169","0.0-5.0-0.11","176","1","2025-07-23 07:31:31","1f75c3e559b7213887762d5229550c2b","216.120.189.119","Mozilla/5.0 (Windows NT 10.0; Win64; x64) AppleWebKit/537.36 (KHTML, like Gecko) Chrome/138.0.0.0 Safari/537.36","WebKit","Chrome","138.0.0.0","Windows","10.0","https://app.prolific.com/","en-US,en;q=0.9","669c1e1fdb95a995eb1d3077","683dba2a8a9dda3513610c04","68808f66400d10f055e328d5","3","0","669c1e1fdb95a995eb1d3077","3","0","2025-07-23T07:45:37.938Z","","","","","","","","","","","","","","win-only","1","g1:NE,g2:SW","0.6","12","0","820767","2696.7","7699.3","24191.5","1","4","8","6","2","8","8","30","22","0.22727272727272727","1225","3000","2080","[""down"",""left""]","{""num_key_presses"":6,""num_perfect"":4,""num_errors"":0,""num_randdir"":2,""num_randdir_good_moves"":2,""num_whilered"":0,""num_whileblue"":0,""num_blue"":0,""num_good_moves"":6}","[299.22232142857143,302.12857142857143,0.7,299.22232142857143,302.12857142857143,140.8,293.22232142857143,305.12857142857143,263.2,282.22232142857143,332.12857142857143,394.5,278.22232142857143,384.12857142857143,501.3,199.22232142857143,443.12857142857143,611.5,68.22232142857143,510.12857142857143,716.6,21.222321428571426,534.1285714285714,836.8,24.222321428571426,539.1285714285714,943.3,40.222321428571426,540.1285714285714,1043.6,46.222321428571426,540.1285714285714,1143.8,51.222321428571426,541.1285714285714,1249.7,71.22232142857143,527.1285714285714,1391.3,91.22232142857143,521.1285714285714,1497.1,207.22232142857143,487.12857142857143,1601.8,337.22232142857143,421.12857142857143,1711.2,399.22232142857143,380.12857142857143,1818.1,410.22232142857143,365.12857142857143,1926.4,410.22232142857143,362.12857142857143,2033.2,412.22232142857143,361.12857142857143,2136.7,412.22232142857143,361.12857142857143,2240.2,412.22232142857143,361.12857142857143,2381.6,412.22232142857143,361.12857142857143,2484.9,412.22232142857143,361.12857142857143,2586,412.22232142857143,361.12857142857143,2694.1,412.22232142857143,361.12857142857143,2803.7,412.22232142857143,361.12857142857143,2907.3,412.22232142857143,360.12857142857143,3037,412.22232142857143,357.12857142857143,3140.7,413.22232142857143,356.12857142857143,3247.7,413.22232142857143,355.12857142857143,3350.8,413.22232142857143,353.12857142857143,3480,413.22232142857143,353.12857142857143,3584.2,413.22232142857143,353.12857142857143,3690.2,413.22232142857143,353.12857142857143,3795.6,413.22232142857143,353.12857142857143,3896.3,413.22232142857143,353.12857142857143,4001,413.22232142857143,353.12857142857143,4104.3,413.22232142857143,354.12857142857143,4217,413.22232142857143,354.12857142857143,4317.7,413.22232142857143,354.12857142857143,4425.8,413.22232142857143,355.12857142857143,4527.9,413.22232142857143,355.12857142857143,4630.4,413.22232142857143,355.12857142857143,4737.5,413.22232142857143,355.12857142857143,4840.3,413.22232142857143,355.12857142857143,4943.2]","[1435.3,1435.3,1000,0,435.3,""smooth"",""down"",""down"",""good_move"",4506.7,3069.6,2608.6,1437.2,461,""smooth"",""down"",""down"",""good_move"",7631.1,3123.5,2718.3,4507.6,405.2,""oops"",""left"",""left"",""good_move"",10713.3,3081.2,2232.2,7632.2,849,""oops"",""left"",""left"",""good_move"",13141.4,2427.4,1765.4,10714.1,662,""smooth"",""down"",""down"",""good_move"",16262.3,3120.2,2691.1,13142.1,429.1,""smooth"",""left"",""left"",""good_move""]","",""
"6034","","<div style=""width:500px;"">
  <p>What determined the result of this run?</p>
  </div>","100","html-slider-response","65","850205","0.0-5.0-1.11","176","1","2025-07-23 07:31:31","1f75c3e559b7213887762d5229550c2b","216.120.189.119","Mozilla/5.0 (Windows NT 10.0; Win64; x64) AppleWebKit/537.36 (KHTML, like Gecko) Chrome/138.0.0.0 Safari/537.36","WebKit","Chrome","138.0.0.0","Windows","10.0","https://app.prolific.com/","en-US,en;q=0.9","669c1e1fdb95a995eb1d3077","683dba2a8a9dda3513610c04","68808f66400d10f055e328d5","3","0","669c1e1fdb95a995eb1d3077","3","0","2025-07-23T07:45:43.974Z","","","","","","","","","","","AttribQ","","50","","","","","","","","","","","","","","","","","","","","","","","","","","","","",""
"2833","","<div style=""width:500px;"">
  <p>How much control did you have over the ball?</p>
  </div>","100","html-slider-response","66","853041","0.0-5.0-2.11","176","1","2025-07-23 07:31:31","1f75c3e559b7213887762d5229550c2b","216.120.189.119","Mozilla/5.0 (Windows NT 10.0; Win64; x64) AppleWebKit/537.36 (KHTML, like Gecko) Chrome/138.0.0.0 Safari/537.36","WebKit","Chrome","138.0.0.0","Windows","10.0","https://app.prolific.com/","en-US,en;q=0.9","669c1e1fdb95a995eb1d3077","683dba2a8a9dda3513610c04","68808f66400d10f055e328d5","3","0","669c1e1fdb95a995eb1d3077","3","0","2025-07-23T07:45:46.810Z","","","","","","","","","","","ControlQ","","50","","","","","","","","","","","","","","","","","","","","","","","","","","","","",""
"2245","","<div style=""width:500px;"">
  <p>How would you describe your current emotional state?</p>
  </div>","2","html-slider-response","67","855288","0.0-5.0-3.11","176","1","2025-07-23 07:31:31","1f75c3e559b7213887762d5229550c2b","216.120.189.119","Mozilla/5.0 (Windows NT 10.0; Win64; x64) AppleWebKit/537.36 (KHTML, like Gecko) Chrome/138.0.0.0 Safari/537.36","WebKit","Chrome","138.0.0.0","Windows","10.0","https://app.prolific.com/","en-US,en;q=0.9","669c1e1fdb95a995eb1d3077","683dba2a8a9dda3513610c04","68808f66400d10f055e328d5","3","0","669c1e1fdb95a995eb1d3077","3","0","2025-07-23T07:45:49.057Z","","","","","","","","","","","StressQ","","50","","","","","","","","","","","","","","","","","","","","","","","","","","","","",""
"4403","","<div style=""width:500px;"">
  <p>What best describes how you currently feel?</p>
  </div>","100","html-slider-response","68","859694","0.0-5.0-4.11","176","1","2025-07-23 07:31:31","1f75c3e559b7213887762d5229550c2b","216.120.189.119","Mozilla/5.0 (Windows NT 10.0; Win64; x64) AppleWebKit/537.36 (KHTML, like Gecko) Chrome/138.0.0.0 Safari/537.36","WebKit","Chrome","138.0.0.0","Windows","10.0","https://app.prolific.com/","en-US,en;q=0.9","669c1e1fdb95a995eb1d3077","683dba2a8a9dda3513610c04","68808f66400d10f055e328d5","3","0","669c1e1fdb95a995eb1d3077","3","0","2025-07-23T07:45:53.463Z","","","","","","","","","","","MotivationQ","","50","","","","","","","","","","","","","","","","","","","","","","","","","","","","",""
"","","","","ctl-task-cpt","69","909415","0.0-5.0-0.12","176","1","2025-07-23 07:31:31","1f75c3e559b7213887762d5229550c2b","216.120.189.119","Mozilla/5.0 (Windows NT 10.0; Win64; x64) AppleWebKit/537.36 (KHTML, like Gecko) Chrome/138.0.0.0 Safari/537.36","WebKit","Chrome","138.0.0.0","Windows","10.0","https://app.prolific.com/","en-US,en;q=0.9","669c1e1fdb95a995eb1d3077","683dba2a8a9dda3513610c04","68808f66400d10f055e328d5","3","0","669c1e1fdb95a995eb1d3077","3","0","2025-07-23T07:46:43.185Z","","","","","","","","","","","","","","win-only","0","g1:NW,g2:SE","0.7","13","0","863507.8","1809.6","6825.3","46696.3","1","4","8","6","2","8","7","37","30","0.2803030303030303","1067.5","3000","1660","[""down"",""right""]","{""num_key_presses"":8,""num_perfect"":5,""num_errors"":1,""num_randdir"":2,""num_randdir_good_moves"":2,""num_whilered"":0,""num_whileblue"":1,""num_blue"":6,""num_good_moves"":7}","[292.22232142857143,292.12857142857143,0.4,292.22232142857143,292.12857142857143,113.3,292.22232142857143,290.12857142857143,224.1,296.22232142857143,288.12857142857143,325.5,317.22232142857143,301.12857142857143,428,382.22232142857143,394.12857142857143,540.3,465.22232142857143,465.12857142857143,644.1,539.2223214285714,537.1285714285714,750,542.2223214285714,540.1285714285714,860.9,550.2223214285714,549.1285714285714,964.1,553.2223214285714,549.1285714285714,1069.2,553.2223214285714,549.1285714285714,1180.2,553.2223214285714,547.1285714285714,1281,553.2223214285714,547.1285714285714,1393.6,553.2223214285714,546.1285714285714,1502.8,554.2223214285714,543.1285714285714,1608.1,554.2223214285714,543.1285714285714,1708.1,554.2223214285714,542.1285714285714,1816,554.2223214285714,542.1285714285714,1917.8,554.2223214285714,541.1285714285714,2020.5,554.2223214285714,538.1285714285714,2127.5,556.2223214285714,538.1285714285714,2228.4,556.2223214285714,537.1285714285714,2331.8,556.2223214285714,537.1285714285714,2439.1,556.2223214285714,537.1285714285714,2540.7,556.2223214285714,537.1285714285714,2645,556.2223214285714,537.1285714285714,2754.3,556.2223214285714,537.1285714285714,2866.9,556.2223214285714,537.1285714285714,2968.2,556.2223214285714,537.1285714285714,3072.2,556.2223214285714,537.1285714285714,3173.2,556.2223214285714,537.1285714285714,3286.3,556.2223214285714,537.1285714285714,3394.9,556.2223214285714,537.1285714285714,3503.4,556.2223214285714,537.1285714285714,3612,556.2223214285714,537.1285714285714,3715.7,556.2223214285714,537.1285714285714,3837.2,556.2223214285714,537.1285714285714,3939,556.2223214285714,537.1285714285714,4040.7,556.2223214285714,537.1285714285714,4147.6,556.2223214285714,537.1285714285714,4254.1,556.2223214285714,537.1285714285714,4356.5,556.2223214285714,537.1285714285714,4458.7,556.2223214285714,537.1285714285714,4578.9,556.2223214285714,537.1285714285714,4688.5,556.2223214285714,537.1285714285714,4796.7,556.2223214285714,537.1285714285714,4907.2]","[1464.7,1464.7,1000,0,464.7,""smooth"",""down"",""down"",""good_move"",12043.6,10577.7,2646.8,8989,407.9,""while_blue"",""down"",""left"",""bad_move"",19019,6974.3,2877.8,15644.7,496.6,""smooth"",""down"",""down"",""good_move"",25586.5,6565.6,2806.5,22268.7,511.3,""smooth"",""down"",""down"",""good_move"",28272.1,2685.1,2245.7,25587.1,439.4,""smooth"",""right"",""right"",""good_move"",31869.7,3596.5,3137,28273.2,459.5,""oops"",""right"",""right"",""good_move"",34141.6,2271.1,1730,31870.5,541.1,""smooth"",""right"",""right"",""good_move"",39637.4,5495,2421.4,36703.2,512.8,""oops"",""right"",""right"",""good_move""]","",""
"11205","","<div style=""width:500px;"">
  <p>What determined the result of this run?</p>
  </div>","98","html-slider-response","70","920623","0.0-5.0-1.12","176","1","2025-07-23 07:31:31","1f75c3e559b7213887762d5229550c2b","216.120.189.119","Mozilla/5.0 (Windows NT 10.0; Win64; x64) AppleWebKit/537.36 (KHTML, like Gecko) Chrome/138.0.0.0 Safari/537.36","WebKit","Chrome","138.0.0.0","Windows","10.0","https://app.prolific.com/","en-US,en;q=0.9","669c1e1fdb95a995eb1d3077","683dba2a8a9dda3513610c04","68808f66400d10f055e328d5","3","0","669c1e1fdb95a995eb1d3077","3","0","2025-07-23T07:46:54.392Z","","","","","","","","","","","AttribQ","","50","","","","","","","","","","","","","","","","","","","","","","","","","","","","",""
"1780","","<div style=""width:500px;"">
  <p>How much control did you have over the ball?</p>
  </div>","100","html-slider-response","71","922405","0.0-5.0-2.12","176","1","2025-07-23 07:31:31","1f75c3e559b7213887762d5229550c2b","216.120.189.119","Mozilla/5.0 (Windows NT 10.0; Win64; x64) AppleWebKit/537.36 (KHTML, like Gecko) Chrome/138.0.0.0 Safari/537.36","WebKit","Chrome","138.0.0.0","Windows","10.0","https://app.prolific.com/","en-US,en;q=0.9","669c1e1fdb95a995eb1d3077","683dba2a8a9dda3513610c04","68808f66400d10f055e328d5","3","0","669c1e1fdb95a995eb1d3077","3","0","2025-07-23T07:46:56.174Z","","","","","","","","","","","ControlQ","","50","","","","","","","","","","","","","","","","","","","","","","","","","","","","",""
"4019","","<div style=""width:500px;"">
  <p>How would you describe your current emotional state?</p>
  </div>","1","html-slider-response","72","926426","0.0-5.0-3.12","176","1","2025-07-23 07:31:31","1f75c3e559b7213887762d5229550c2b","216.120.189.119","Mozilla/5.0 (Windows NT 10.0; Win64; x64) AppleWebKit/537.36 (KHTML, like Gecko) Chrome/138.0.0.0 Safari/537.36","WebKit","Chrome","138.0.0.0","Windows","10.0","https://app.prolific.com/","en-US,en;q=0.9","669c1e1fdb95a995eb1d3077","683dba2a8a9dda3513610c04","68808f66400d10f055e328d5","3","0","669c1e1fdb95a995eb1d3077","3","0","2025-07-23T07:47:00.196Z","","","","","","","","","","","StressQ","","50","","","","","","","","","","","","","","","","","","","","","","","","","","","","",""
"4440","","<div style=""width:500px;"">
  <p>What best describes how you currently feel?</p>
  </div>","100","html-slider-response","73","930869","0.0-5.0-4.12","176","1","2025-07-23 07:31:31","1f75c3e559b7213887762d5229550c2b","216.120.189.119","Mozilla/5.0 (Windows NT 10.0; Win64; x64) AppleWebKit/537.36 (KHTML, like Gecko) Chrome/138.0.0.0 Safari/537.36","WebKit","Chrome","138.0.0.0","Windows","10.0","https://app.prolific.com/","en-US,en;q=0.9","669c1e1fdb95a995eb1d3077","683dba2a8a9dda3513610c04","68808f66400d10f055e328d5","3","0","669c1e1fdb95a995eb1d3077","3","0","2025-07-23T07:47:04.638Z","","","","","","","","","","","MotivationQ","","50","","","","","","","","","","","","","","","","","","","","","","","","","","","","",""
