"rt","response_timestamp","stimulus","response","trial_type","trial_index","time_elapsed","internal_node_id","run_id","condition","recorded_at","source_code_version","ip","user_agent","device","browser","browser_version","platform","platform_version","referer","accept_language","PROLIFIC_PID","STUDY_ID","SESSION_ID","WEEK","BATCH","prolific_id","week","batch","realtime","success","responses","item_order","radio_event_ids","radio_event_times","key_event_times","mouse_event_times","straightlining","zigzagging","honeypot","eventType","view_history","slider_start","which_type","canvas_config","goals_layout","control_level","trial_number","tutorial_trial_number","trial_start_time","phase1_start_time","phase2_start_time","phase3_start_time","goal_1_value","goal_1_distance","goal_2_value","goal_2_distance","goal_selected","outcome","outcome_total","participant_final_score","participant_initial_score","participant_final_score_prop","goal_choice_rt","allocated_time","allocated_time_remaining","goal_direction","counts","mouse_movements","key_presses","question_order","question_id"
"3416","1752655243390","<p style='font-size:40px;line-height:1.25'><strong>Welcome to the experiment!</strong></p><p style='font-size:1.1em;line-height:1.25'>Thank you for participanting in our experiment again! You will be asked to play the Dysfunctional Ball Game again. We will briefly recap the rules before we start.</p><p style='font-size:1.1em;line-height:1.25'>Press <strong>Next</strong> to continue.</p>","0","custom-html-button-response","0","3418","0.0-0.0","80","1","2025-07-16 08:40:40","1f75c3e559b7213887762d5229550c2b","94.134.108.176","Mozilla/5.0 (Windows NT 10.0; Win64; x64) AppleWebKit/537.36 (KHTML, like Gecko) Chrome/138.0.0.0 Safari/537.36","WebKit","Chrome","138.0.0.0","Windows","10.0","https://app.prolific.com/","de-DE,de;q=0.9,en-DE;q=0.8,en;q=0.7,es-ES;q=0.6,es;q=0.5,en-US;q=0.4","646219bb0b91a6f3327e39fb","68764874ac79eee8c1d4cb03","687763e3256f9c7e313b4f59","2","0","646219bb0b91a6f3327e39fb","2","0","2025-07-16T08:40:43.390Z","","","","","","","","","","","","","","","","","","","","","","","","","","","","","","","","","","","","","","","","","",""
"16278","","","","fullscreen","1","20700","0.0-1.0","80","1","2025-07-16 08:40:40","1f75c3e559b7213887762d5229550c2b","94.134.108.176","Mozilla/5.0 (Windows NT 10.0; Win64; x64) AppleWebKit/537.36 (KHTML, like Gecko) Chrome/138.0.0.0 Safari/537.36","WebKit","Chrome","138.0.0.0","Windows","10.0","https://app.prolific.com/","de-DE,de;q=0.9,en-DE;q=0.8,en;q=0.7,es-ES;q=0.6,es;q=0.5,en-US;q=0.4","646219bb0b91a6f3327e39fb","68764874ac79eee8c1d4cb03","687763e3256f9c7e313b4f59","2","0","646219bb0b91a6f3327e39fb","2","0","","true","","","","","","","","","","","","","","","","","","","","","","","","","","","","","","","","","","","","","","","","",""
"2094","1752655262766","<p style='font-size:1.1em;line-height:1.25'>In the following, we will ask you a few questions relating to your feelings in the last 24 hours.<br></p><p style='font-size:1.1em;line-height:1.25'>Press the <strong>Next</strong> button to continue.</p>","0","custom-html-button-response","2","22794","0.0-2.0-0.0","80","1","2025-07-16 08:40:40","1f75c3e559b7213887762d5229550c2b","94.134.108.176","Mozilla/5.0 (Windows NT 10.0; Win64; x64) AppleWebKit/537.36 (KHTML, like Gecko) Chrome/138.0.0.0 Safari/537.36","WebKit","Chrome","138.0.0.0","Windows","10.0","https://app.prolific.com/","de-DE,de;q=0.9,en-DE;q=0.8,en;q=0.7,es-ES;q=0.6,es;q=0.5,en-US;q=0.4","646219bb0b91a6f3327e39fb","68764874ac79eee8c1d4cb03","687763e3256f9c7e313b4f59","2","0","646219bb0b91a6f3327e39fb","2","0","2025-07-16T08:41:02.767Z","","","","","","","","","","","","","","","","","","","","","","","","","","","","","","","","","","","","","","","","","",""
"100080.00000000001","","","","survey-template","3","122878","0.0-2.0-1.0","80","1","2025-07-16 08:40:40","1f75c3e559b7213887762d5229550c2b","94.134.108.176","Mozilla/5.0 (Windows NT 10.0; Win64; x64) AppleWebKit/537.36 (KHTML, like Gecko) Chrome/138.0.0.0 Safari/537.36","WebKit","Chrome","138.0.0.0","Windows","10.0","https://app.prolific.com/","de-DE,de;q=0.9,en-DE;q=0.8,en;q=0.7,es-ES;q=0.6,es;q=0.5,en-US;q=0.4","646219bb0b91a6f3327e39fb","68764874ac79eee8c1d4cb03","687763e3256f9c7e313b4f59","2","0","646219bb0b91a6f3327e39fb","2","0","2025-07-16T08:42:42.850Z","","{""Q01"":""2"",""Q02"":""1"",""Q03"":""0"",""Q04"":""2"",""Q05"":""1"",""Q06"":""0"",""Q07"":""1"",""Q08"":""0"",""Q09"":""2"",""Q10"":""2"",""Q11"":""2"",""Q12"":""0"",""Q13"":""5"",""Q14"":""0"",""Q15"":""2"",""Q16"":""2"",""Q17"":""2"",""Q18"":""1"",""Q19"":""2"",""Q20"":""1"",""Q21"":""1"",""Q22"":""1""}","[0,1,2,3,4,5,6,7,8,9,10,11,12,13,14,15,16,17,18,19,20,21]","[""Q01"",""Q03"",""Q02"",""Q04"",""Q07"",""Q06"",""Q05"",""Q09"",""Q08"",""Q03"",""Q04"",""Q10"",""Q11"",""Q13"",""Q12"",""Q14"",""Q15"",""Q16"",""Q17"",""Q18"",""Q19"",""Q19"",""Q20"",""Q20"",""Q21"",""Q22""]","[3853.9000000000087,8550.900000000009,9037,12086.800000000003,17718.600000000006,27631.800000000003,28967.800000000003,46950.59999999999,48429.7,54731.7,55773.59999999999,63161.59999999999,64689.59999999999,66915.50000000001,69184.50000000001,71231.59999999999,74204.50000000001,76713.50000000001,79741.40000000001,81932.40000000001,82568.40000000001,85737.40000000001,87114.40000000001,88561.2,97768.40000000001,98984.2]","[]","[0,3853.9000000000087,7944.900000000009,8550.900000000009,9037,12086.800000000003,17718.600000000006,26825.09999999999,27631.800000000003,28451.90000000001,28967.800000000003,46253.500000000015,46950.59999999999,48429.7,53963.7,54731.7,55773.59999999999,63161.59999999999,64689.59999999999,66915.50000000001,69184.50000000001,71231.59999999999,74204.50000000001,76713.50000000001,79741.40000000001,81062.50000000001,81932.40000000001,82568.40000000001,85737.40000000001,87114.40000000001,88144.3,88561.2,97768.40000000001,98984.2,100076.59999999999]","0.4090909090909091","0.5238095238095238","0","drsp","","","","","","","","","","","","","","","","","","","","","","","","","","","","","","",""
"23983.699999999983","","","","survey-template","4","146863","0.0-2.0-2.0","80","1","2025-07-16 08:40:40","1f75c3e559b7213887762d5229550c2b","94.134.108.176","Mozilla/5.0 (Windows NT 10.0; Win64; x64) AppleWebKit/537.36 (KHTML, like Gecko) Chrome/138.0.0.0 Safari/537.36","WebKit","Chrome","138.0.0.0","Windows","10.0","https://app.prolific.com/","de-DE,de;q=0.9,en-DE;q=0.8,en;q=0.7,es-ES;q=0.6,es;q=0.5,en-US;q=0.4","646219bb0b91a6f3327e39fb","68764874ac79eee8c1d4cb03","687763e3256f9c7e313b4f59","2","0","646219bb0b91a6f3327e39fb","2","0","2025-07-16T08:43:06.835Z","","{""Q01"":""2"",""Q02"":""4"",""Q03"":""1""}","[0,1,2]","[""Q01"",""Q02"",""Q03""]","[13708.600000000006,18380.699999999983,23448.699999999983]","[]","[11103.699999999983,11823.799999999988,13708.600000000006,14262.600000000006,18380.699999999983,23448.699999999983,23982.79999999999]","0.6666666666666666","0.5","0","stress","","","","","","","","","","","","","","","","","","","","","","","","","","","","","","",""
"16450","","","","instructions","5","163314","0.0-3.0-0.0","80","1","2025-07-16 08:40:40","1f75c3e559b7213887762d5229550c2b","94.134.108.176","Mozilla/5.0 (Windows NT 10.0; Win64; x64) AppleWebKit/537.36 (KHTML, like Gecko) Chrome/138.0.0.0 Safari/537.36","WebKit","Chrome","138.0.0.0","Windows","10.0","https://app.prolific.com/","de-DE,de;q=0.9,en-DE;q=0.8,en;q=0.7,es-ES;q=0.6,es;q=0.5,en-US;q=0.4","646219bb0b91a6f3327e39fb","68764874ac79eee8c1d4cb03","687763e3256f9c7e313b4f59","2","0","646219bb0b91a6f3327e39fb","2","0","","","","","","","","","","","","","[{""page_index"":0,""viewing_time"":16450}]","","","","","","","","","","","","","","","","","","","","","","","","","","","","","",""
"26376","","<p>Before you start with this game please answer the following three questions yourself. </p>
  <p>Through this game, we measure several aspects of your cognitive performance, such as reaction times, multi-tasking capabilities </p>
  <p>and the ability to assess the situation you are in.</p>
  <p></p>
  <p><b>How good do you usually are in such tasks?</b></p>","64","html-slider-response","6","189691","0.0-4.0-0.0","80","1","2025-07-16 08:40:40","1f75c3e559b7213887762d5229550c2b","94.134.108.176","Mozilla/5.0 (Windows NT 10.0; Win64; x64) AppleWebKit/537.36 (KHTML, like Gecko) Chrome/138.0.0.0 Safari/537.36","WebKit","Chrome","138.0.0.0","Windows","10.0","https://app.prolific.com/","de-DE,de;q=0.9,en-DE;q=0.8,en;q=0.7,es-ES;q=0.6,es;q=0.5,en-US;q=0.4","646219bb0b91a6f3327e39fb","68764874ac79eee8c1d4cb03","687763e3256f9c7e313b4f59","2","0","646219bb0b91a6f3327e39fb","2","0","2025-07-16T08:43:49.663Z","","","","","","","","","","","PreSkillQ","","50","","","","","","","","","","","","","","","","","","","","","","","","","","","","",""
"4340","","<div style=""width:500px;"">
  <p>How well do you think you will perform in this task compared to other participants?</p>
  </div>","42","html-slider-response","7","194032","0.0-4.0-1.0","80","1","2025-07-16 08:40:40","1f75c3e559b7213887762d5229550c2b","94.134.108.176","Mozilla/5.0 (Windows NT 10.0; Win64; x64) AppleWebKit/537.36 (KHTML, like Gecko) Chrome/138.0.0.0 Safari/537.36","WebKit","Chrome","138.0.0.0","Windows","10.0","https://app.prolific.com/","de-DE,de;q=0.9,en-DE;q=0.8,en;q=0.7,es-ES;q=0.6,es;q=0.5,en-US;q=0.4","646219bb0b91a6f3327e39fb","68764874ac79eee8c1d4cb03","687763e3256f9c7e313b4f59","2","0","646219bb0b91a6f3327e39fb","2","0","2025-07-16T08:43:54.004Z","","","","","","","","","","","PrePerfQ","","50","","","","","","","","","","","","","","","","","","","","","","","","","","","","",""
"2885","","<div style=""width:500px;"">
  <p>What best describes how you currently feel?</p>
  </div>","43","html-slider-response","8","196918","0.0-4.0-2.0","80","1","2025-07-16 08:40:40","1f75c3e559b7213887762d5229550c2b","94.134.108.176","Mozilla/5.0 (Windows NT 10.0; Win64; x64) AppleWebKit/537.36 (KHTML, like Gecko) Chrome/138.0.0.0 Safari/537.36","WebKit","Chrome","138.0.0.0","Windows","10.0","https://app.prolific.com/","de-DE,de;q=0.9,en-DE;q=0.8,en;q=0.7,es-ES;q=0.6,es;q=0.5,en-US;q=0.4","646219bb0b91a6f3327e39fb","68764874ac79eee8c1d4cb03","687763e3256f9c7e313b4f59","2","0","646219bb0b91a6f3327e39fb","2","0","2025-07-16T08:43:56.890Z","","","","","","","","","","","PreMotivationQ","","50","","","","","","","","","","","","","","","","","","","","","","","","","","","","",""
"","","","","ctl-task-cpt","9","272122","0.0-5.0-0.0","80","1","2025-07-16 08:40:40","1f75c3e559b7213887762d5229550c2b","94.134.108.176","Mozilla/5.0 (Windows NT 10.0; Win64; x64) AppleWebKit/537.36 (KHTML, like Gecko) Chrome/138.0.0.0 Safari/537.36","WebKit","Chrome","138.0.0.0","Windows","10.0","https://app.prolific.com/","de-DE,de;q=0.9,en-DE;q=0.8,en;q=0.7,es-ES;q=0.6,es;q=0.5,en-US;q=0.4","646219bb0b91a6f3327e39fb","68764874ac79eee8c1d4cb03","687763e3256f9c7e313b4f59","2","0","646219bb0b91a6f3327e39fb","2","0","2025-07-16T08:45:12.094Z","","","","","","","","","","","","","","win-only","3","g1:SW,g2:NE","1","1","0","198238.5","52190.6","57195.8","72200.2","1","4","8","6","2","8","8","8","0","0.06060606060606061","2393.2","3000","1330","[""up"",""right""]","{""num_key_presses"":6,""num_perfect"":6,""num_errors"":0,""num_randdir"":0,""num_randdir_good_moves"":0,""num_whilered"":0,""num_whileblue"":0,""num_blue"":0,""num_good_moves"":6}","[568.4285714285714,553.3348214285714,0.3,566.4285714285714,554.3348214285714,101.2,566.4285714285714,554.3348214285714,205.5,566.4285714285714,554.3348214285714,310.1,582.4285714285714,578.3348214285714,410.1,567.4285714285714,621.3348214285714,510.1,557.4285714285714,627.3348214285714,615.2,317.42857142857144,873.3348214285714,720.9,232.42857142857144,962.3348214285714,825,178.42857142857144,979.3348214285714,925.8,167.42857142857144,983.3348214285714,1026.5,480.42857142857144,710.3348214285714,1130.8,789.4285714285714,351.33482142857144,1235.9,703.4285714285714,460.33482142857144,1336,99.42857142857143,1177.3348214285713,1439.8,-41.57142857142857,1265.3348214285713,1545.2,-4.571428571428569,1162.3348214285713,1650.1,4.428571428571431,1144.3348214285713,1750.5,61.42857142857143,1101.3348214285713,1850.8,268.42857142857144,839.3348214285714,1955.4,848.4285714285714,175.33482142857144,2060.3,948.4285714285714,122.33482142857143,2160.6,980.4285714285714,129.33482142857144,2265.6,1003.4285714285714,94.33482142857143,2370.5,1003.4285714285714,92.33482142857143,2471.3,1003.4285714285714,94.33482142857143,2575.2,1003.4285714285714,94.33482142857143,2675.5,1003.4285714285714,94.33482142857143,2775.7,1003.4285714285714,94.33482142857143,2875.7,1003.4285714285714,94.33482142857143,2979.8,1003.4285714285714,94.33482142857143,3080,1003.4285714285714,94.33482142857143,3185.2,1003.4285714285714,94.33482142857143,3285.4,1003.4285714285714,94.33482142857143,3385.7,1003.4285714285714,94.33482142857143,3489.8,1003.4285714285714,94.33482142857143,3589.9,1003.4285714285714,94.33482142857143,3690.2,1003.4285714285714,94.33482142857143,3790.5,1003.4285714285714,94.33482142857143,3890.7,1003.4285714285714,94.33482142857143,3994.8,1003.4285714285714,94.33482142857143,4095,1003.4285714285714,94.33482142857143,4195.4,1003.4285714285714,94.33482142857143,4295.4,1003.4285714285714,94.33482142857143,4400.7,1003.4285714285714,94.33482142857143,4505.1,1003.4285714285714,94.33482142857143,4610.3,1003.4285714285714,94.33482142857143,4714.8,1003.4285714285714,94.33482142857143,4815.3,1003.4285714285714,94.33482142857143,4920.6]","[1260.5,1260.4,1000,0.1,260.4,""smooth"",""right"",""right"",""good_move"",3443.3,2182.4,1924.4,1260.9,258,""smooth"",""right"",""right"",""good_move"",6491.3,3047.9,2783.4,3443.4,264.5,""smooth"",""right"",""right"",""good_move"",10287.2,3795.8,3517.1,6491.5,278.6,""smooth"",""up"",""up"",""good_move"",13090.1,2802.7,2515.3,10287.4,287.5,""smooth"",""up"",""up"",""good_move"",14912.6,1822.2,1464.8,13090.4,357.4,""smooth"",""up"",""up"",""good_move""]","",""
"2766","","<div style=""width:500px;"">
  <p>What determined the result of this run?</p>
  </div>","100","html-slider-response","10","274890","0.0-5.0-1.0","80","1","2025-07-16 08:40:40","1f75c3e559b7213887762d5229550c2b","94.134.108.176","Mozilla/5.0 (Windows NT 10.0; Win64; x64) AppleWebKit/537.36 (KHTML, like Gecko) Chrome/138.0.0.0 Safari/537.36","WebKit","Chrome","138.0.0.0","Windows","10.0","https://app.prolific.com/","de-DE,de;q=0.9,en-DE;q=0.8,en;q=0.7,es-ES;q=0.6,es;q=0.5,en-US;q=0.4","646219bb0b91a6f3327e39fb","68764874ac79eee8c1d4cb03","687763e3256f9c7e313b4f59","2","0","646219bb0b91a6f3327e39fb","2","0","2025-07-16T08:45:14.862Z","","","","","","","","","","","AttribQ","","50","","","","","","","","","","","","","","","","","","","","","","","","","","","","",""
"2908","","<div style=""width:500px;"">
  <p>How much control did you have over the ball?</p>
  </div>","100","html-slider-response","11","277799","0.0-5.0-2.0","80","1","2025-07-16 08:40:40","1f75c3e559b7213887762d5229550c2b","94.134.108.176","Mozilla/5.0 (Windows NT 10.0; Win64; x64) AppleWebKit/537.36 (KHTML, like Gecko) Chrome/138.0.0.0 Safari/537.36","WebKit","Chrome","138.0.0.0","Windows","10.0","https://app.prolific.com/","de-DE,de;q=0.9,en-DE;q=0.8,en;q=0.7,es-ES;q=0.6,es;q=0.5,en-US;q=0.4","646219bb0b91a6f3327e39fb","68764874ac79eee8c1d4cb03","687763e3256f9c7e313b4f59","2","0","646219bb0b91a6f3327e39fb","2","0","2025-07-16T08:45:17.771Z","","","","","","","","","","","ControlQ","","50","","","","","","","","","","","","","","","","","","","","","","","","","","","","",""
"2321","","<div style=""width:500px;"">
  <p>How would you describe your current emotional state?</p>
  </div>","41","html-slider-response","12","280121","0.0-5.0-3.0","80","1","2025-07-16 08:40:40","1f75c3e559b7213887762d5229550c2b","94.134.108.176","Mozilla/5.0 (Windows NT 10.0; Win64; x64) AppleWebKit/537.36 (KHTML, like Gecko) Chrome/138.0.0.0 Safari/537.36","WebKit","Chrome","138.0.0.0","Windows","10.0","https://app.prolific.com/","de-DE,de;q=0.9,en-DE;q=0.8,en;q=0.7,es-ES;q=0.6,es;q=0.5,en-US;q=0.4","646219bb0b91a6f3327e39fb","68764874ac79eee8c1d4cb03","687763e3256f9c7e313b4f59","2","0","646219bb0b91a6f3327e39fb","2","0","2025-07-16T08:45:20.093Z","","","","","","","","","","","StressQ","","50","","","","","","","","","","","","","","","","","","","","","","","","","","","","",""
"2882","","<div style=""width:500px;"">
  <p>What best describes how you currently feel?</p>
  </div>","58","html-slider-response","13","283004","0.0-5.0-4.0","80","1","2025-07-16 08:40:40","1f75c3e559b7213887762d5229550c2b","94.134.108.176","Mozilla/5.0 (Windows NT 10.0; Win64; x64) AppleWebKit/537.36 (KHTML, like Gecko) Chrome/138.0.0.0 Safari/537.36","WebKit","Chrome","138.0.0.0","Windows","10.0","https://app.prolific.com/","de-DE,de;q=0.9,en-DE;q=0.8,en;q=0.7,es-ES;q=0.6,es;q=0.5,en-US;q=0.4","646219bb0b91a6f3327e39fb","68764874ac79eee8c1d4cb03","687763e3256f9c7e313b4f59","2","0","646219bb0b91a6f3327e39fb","2","0","2025-07-16T08:45:22.976Z","","","","","","","","","","","MotivationQ","","50","","","","","","","","","","","","","","","","","","","","","","","","","","","","",""
"","","","","ctl-task-cpt","14","316257","0.0-5.0-0.1","80","1","2025-07-16 08:40:40","1f75c3e559b7213887762d5229550c2b","94.134.108.176","Mozilla/5.0 (Windows NT 10.0; Win64; x64) AppleWebKit/537.36 (KHTML, like Gecko) Chrome/138.0.0.0 Safari/537.36","WebKit","Chrome","138.0.0.0","Windows","10.0","https://app.prolific.com/","de-DE,de;q=0.9,en-DE;q=0.8,en;q=0.7,es-ES;q=0.6,es;q=0.5,en-US;q=0.4","646219bb0b91a6f3327e39fb","68764874ac79eee8c1d4cb03","687763e3256f9c7e313b4f59","2","0","646219bb0b91a6f3327e39fb","2","0","2025-07-16T08:45:56.229Z","","","","","","","","","","","","","","win-only","2","g1:SE,g2:NW","0.9","2","0","284324.1","1014.9","6016.2","30241.5","1","4","4","6","2","4","3","11","8","0.08333333333333333","1980.4","3000","1170","[""left"",""up""]","{""num_key_presses"":8,""num_perfect"":6,""num_errors"":1,""num_randdir"":1,""num_randdir_good_moves"":0,""num_whilered"":0,""num_whileblue"":1,""num_blue"":2,""num_good_moves"":7}","[569.4285714285714,548.3348214285714,0.2,569.4285714285714,548.3348214285714,101.9,569.4285714285714,548.3348214285714,205.6,569.4285714285714,548.3348214285714,305.9,569.4285714285714,548.3348214285714,406,568.4285714285714,551.3348214285714,506.1,568.4285714285714,551.3348214285714,610.4,568.4285714285714,551.3348214285714,711.4,568.4285714285714,554.3348214285714,816.9,567.4285714285714,557.3348214285714,921.5,555.4285714285714,563.3348214285714,1025.7,548.4285714285714,569.3348214285714,1131.2,546.4285714285714,578.3348214285714,1231.5,551.4285714285714,592.3348214285714,1336.1,556.4285714285714,596.3348214285714,1441.4,552.4285714285714,590.3348214285714,1545.9,276.42857142857144,323.33482142857144,1650.8,180.42857142857144,198.33482142857144,1756.4,164.42857142857144,165.33482142857144,1856.9,129.42857142857144,126.33482142857143,1960.8,129.42857142857144,125.33482142857143,2065.3,130.42857142857144,134.33482142857144,2166.3,460.42857142857144,434.33482142857144,2271,1369.4285714285713,790.3348214285714,2375.9,1526.4285714285713,810.3348214285714,2476.2,1600.4285714285713,765.3348214285714,2580.7,1604.4285714285713,753.3348214285714,2685.5,1604.4285714285713,753.3348214285714,2785.5,1604.4285714285713,753.3348214285714,2885.9,1604.4285714285713,753.3348214285714,2990.3,1604.4285714285713,753.3348214285714,3091,1604.4285714285713,753.3348214285714,3196.3,1604.4285714285713,753.3348214285714,3300.3,1604.4285714285713,753.3348214285714,3400.6,1604.4285714285713,753.3348214285714,3500.9,1604.4285714285713,753.3348214285714,3602.1,1604.4285714285713,753.3348214285714,3705.9,1604.4285714285713,753.3348214285714,3810.3,1604.4285714285713,753.3348214285714,3911.7,1604.4285714285713,753.3348214285714,4015.7,1604.4285714285713,753.3348214285714,4115.9,1604.4285714285713,753.3348214285714,4220.4,1604.4285714285713,753.3348214285714,4320.4,1604.4285714285713,753.3348214285714,4420.8,1604.4285714285713,753.3348214285714,4521.1,1604.4285714285713,753.3348214285714,4625.8,1604.4285714285713,753.3348214285714,4731.2,1604.4285714285713,753.3348214285714,4836.3,1604.4285714285713,753.3348214285714,4940.4]","[1242.3,1242.3,1000,0,242.3,""smooth"",""left"",""left"",""good_move"",3529.1,2286.5,2020.8,1242.6,265.7,""smooth"",""up"",""up"",""good_move"",6031.1,2501.9,2241.1,3529.3,260.8,""oops"",""left"",""right"",""bad_move"",8369.3,2337.9,2108.6,6031.4,229.3,""smooth"",""up"",""up"",""good_move"",11164.4,2794.9,2575.4,8369.5,219.5,""while_blue"",""left"",""up"",""good_move"",14323,3158.4,2875.5,11164.6,282.9,""smooth"",""left"",""left"",""good_move"",17141.2,2818.2,2534.1,14323,284.1,""smooth"",""left"",""left"",""good_move"",24137.2,6995.9,2705.1,21124.9,307.2,""smooth"",""left"",""left"",""good_move""]","",""
"4187","","<div style=""width:500px;"">
  <p>What determined the result of this run?</p>
  </div>","95","html-slider-response","15","320446","0.0-5.0-1.1","80","1","2025-07-16 08:40:40","1f75c3e559b7213887762d5229550c2b","94.134.108.176","Mozilla/5.0 (Windows NT 10.0; Win64; x64) AppleWebKit/537.36 (KHTML, like Gecko) Chrome/138.0.0.0 Safari/537.36","WebKit","Chrome","138.0.0.0","Windows","10.0","https://app.prolific.com/","de-DE,de;q=0.9,en-DE;q=0.8,en;q=0.7,es-ES;q=0.6,es;q=0.5,en-US;q=0.4","646219bb0b91a6f3327e39fb","68764874ac79eee8c1d4cb03","687763e3256f9c7e313b4f59","2","0","646219bb0b91a6f3327e39fb","2","0","2025-07-16T08:46:00.418Z","","","","","","","","","","","AttribQ","","50","","","","","","","","","","","","","","","","","","","","","","","","","","","","",""
"2429","","<div style=""width:500px;"">
  <p>How much control did you have over the ball?</p>
  </div>","93","html-slider-response","16","322875","0.0-5.0-2.1","80","1","2025-07-16 08:40:40","1f75c3e559b7213887762d5229550c2b","94.134.108.176","Mozilla/5.0 (Windows NT 10.0; Win64; x64) AppleWebKit/537.36 (KHTML, like Gecko) Chrome/138.0.0.0 Safari/537.36","WebKit","Chrome","138.0.0.0","Windows","10.0","https://app.prolific.com/","de-DE,de;q=0.9,en-DE;q=0.8,en;q=0.7,es-ES;q=0.6,es;q=0.5,en-US;q=0.4","646219bb0b91a6f3327e39fb","68764874ac79eee8c1d4cb03","687763e3256f9c7e313b4f59","2","0","646219bb0b91a6f3327e39fb","2","0","2025-07-16T08:46:02.848Z","","","","","","","","","","","ControlQ","","50","","","","","","","","","","","","","","","","","","","","","","","","","","","","",""
"2390","","<div style=""width:500px;"">
  <p>How would you describe your current emotional state?</p>
  </div>","45","html-slider-response","17","325266","0.0-5.0-3.1","80","1","2025-07-16 08:40:40","1f75c3e559b7213887762d5229550c2b","94.134.108.176","Mozilla/5.0 (Windows NT 10.0; Win64; x64) AppleWebKit/537.36 (KHTML, like Gecko) Chrome/138.0.0.0 Safari/537.36","WebKit","Chrome","138.0.0.0","Windows","10.0","https://app.prolific.com/","de-DE,de;q=0.9,en-DE;q=0.8,en;q=0.7,es-ES;q=0.6,es;q=0.5,en-US;q=0.4","646219bb0b91a6f3327e39fb","68764874ac79eee8c1d4cb03","687763e3256f9c7e313b4f59","2","0","646219bb0b91a6f3327e39fb","2","0","2025-07-16T08:46:05.239Z","","","","","","","","","","","StressQ","","50","","","","","","","","","","","","","","","","","","","","","","","","","","","","",""
"1892","","<div style=""width:500px;"">
  <p>What best describes how you currently feel?</p>
  </div>","53","html-slider-response","18","327159","0.0-5.0-4.1","80","1","2025-07-16 08:40:40","1f75c3e559b7213887762d5229550c2b","94.134.108.176","Mozilla/5.0 (Windows NT 10.0; Win64; x64) AppleWebKit/537.36 (KHTML, like Gecko) Chrome/138.0.0.0 Safari/537.36","WebKit","Chrome","138.0.0.0","Windows","10.0","https://app.prolific.com/","de-DE,de;q=0.9,en-DE;q=0.8,en;q=0.7,es-ES;q=0.6,es;q=0.5,en-US;q=0.4","646219bb0b91a6f3327e39fb","68764874ac79eee8c1d4cb03","687763e3256f9c7e313b4f59","2","0","646219bb0b91a6f3327e39fb","2","0","2025-07-16T08:46:07.131Z","","","","","","","","","","","MotivationQ","","50","","","","","","","","","","","","","","","","","","","","","","","","","","","","",""
"","","","","ctl-task-cpt","19","346278","0.0-5.0-0.2","80","1","2025-07-16 08:40:40","1f75c3e559b7213887762d5229550c2b","94.134.108.176","Mozilla/5.0 (Windows NT 10.0; Win64; x64) AppleWebKit/537.36 (KHTML, like Gecko) Chrome/138.0.0.0 Safari/537.36","WebKit","Chrome","138.0.0.0","Windows","10.0","https://app.prolific.com/","de-DE,de;q=0.9,en-DE;q=0.8,en;q=0.7,es-ES;q=0.6,es;q=0.5,en-US;q=0.4","646219bb0b91a6f3327e39fb","68764874ac79eee8c1d4cb03","687763e3256f9c7e313b4f59","2","0","646219bb0b91a6f3327e39fb","2","0","2025-07-16T08:46:26.250Z","","","","","","","","","","","","","","win-only","2","g1:SE,g2:NW","0.8","3","0","328479.8","898.5","5900.4","16101","1","4","8","6","1","1","1","12","11","0.09090909090909091","988.9","3000","1860","[""down"",""right""]","{""num_key_presses"":4,""num_perfect"":4,""num_errors"":0,""num_randdir"":0,""num_randdir_good_moves"":0,""num_whilered"":0,""num_whileblue"":0,""num_blue"":0,""num_good_moves"":4}","[557.4285714285714,554.3348214285714,0.1,557.4285714285714,554.3348214285714,102.2,556.4285714285714,554.3348214285714,207.1,552.4285714285714,554.3348214285714,307.5,552.4285714285714,555.3348214285714,407.7,550.4285714285714,563.3348214285714,512.4,549.4285714285714,577.3348214285714,617,605.4285714285714,682.3348214285714,717.4,891.4285714285714,926.3348214285714,817.4,954.4285714285714,967.3348214285714,922.3,958.4285714285714,968.3348214285714,1023,959.4285714285714,969.3348214285714,1127.2,1019.4285714285714,966.3348214285714,1232.3,1603.4285714285713,1004.3348214285714,1337.3,1702.4285714285713,1005.3348214285714,1437.3,1703.4285714285713,1005.3348214285714,1537.3,1703.4285714285713,1005.3348214285714,1637.9,1703.4285714285713,1005.3348214285714,1742.3,1703.4285714285713,1005.3348214285714,1842.7,1703.4285714285713,1005.3348214285714,1947.2,1703.4285714285713,1005.3348214285714,2047.4,1703.4285714285713,1005.3348214285714,2152.1,1703.4285714285713,1005.3348214285714,2252.5,1703.4285714285713,1005.3348214285714,2356.9,1703.4285714285713,1005.3348214285714,2457.7,1703.4285714285713,1005.3348214285714,2561.8,1703.4285714285713,1005.3348214285714,2662.3,1703.4285714285713,1005.3348214285714,2762.7,1703.4285714285713,1005.3348214285714,2867.4,1703.4285714285713,1005.3348214285714,2967.5,1703.4285714285713,1005.3348214285714,3067.5,1703.4285714285713,1005.3348214285714,3172.4,1703.4285714285713,1005.3348214285714,3277.3,1703.4285714285713,1005.3348214285714,3377.5,1703.4285714285713,1005.3348214285714,3482.5,1703.4285714285713,1005.3348214285714,3587.5,1703.4285714285713,1005.3348214285714,3692.8,1703.4285714285713,1005.3348214285714,3797.8,1703.4285714285713,1005.3348214285714,3901.8,1703.4285714285713,1005.3348214285714,4003.8,1703.4285714285713,1005.3348214285714,4108.3,1703.4285714285713,1005.3348214285714,4211.9,1703.4285714285713,1005.3348214285714,4312.4,1703.4285714285713,1005.3348214285714,4417,1703.4285714285713,1005.3348214285714,4517.1,1703.4285714285713,1005.3348214285714,4617.7,1703.4285714285713,1005.3348214285714,4718,1703.4285714285713,1005.3348214285714,4822.3,1703.4285714285713,1005.3348214285714,4926.9]","[1270.2,1270.2,1000,0,270.2,""smooth"",""right"",""right"",""good_move"",4478.1,3207.6,2934.5,1270.5,273.1,""smooth"",""down"",""down"",""good_move"",6761.9,2283.4,1960.4,4478.5,323,""smooth"",""down"",""down"",""good_move"",10114.1,3352,3057.6,6762.1,294.4,""smooth"",""right"",""right"",""good_move""]","",""
"2973","","<div style=""width:500px;"">
  <p>What determined the result of this run?</p>
  </div>","99","html-slider-response","20","349252","0.0-5.0-1.2","80","1","2025-07-16 08:40:40","1f75c3e559b7213887762d5229550c2b","94.134.108.176","Mozilla/5.0 (Windows NT 10.0; Win64; x64) AppleWebKit/537.36 (KHTML, like Gecko) Chrome/138.0.0.0 Safari/537.36","WebKit","Chrome","138.0.0.0","Windows","10.0","https://app.prolific.com/","de-DE,de;q=0.9,en-DE;q=0.8,en;q=0.7,es-ES;q=0.6,es;q=0.5,en-US;q=0.4","646219bb0b91a6f3327e39fb","68764874ac79eee8c1d4cb03","687763e3256f9c7e313b4f59","2","0","646219bb0b91a6f3327e39fb","2","0","2025-07-16T08:46:29.224Z","","","","","","","","","","","AttribQ","","50","","","","","","","","","","","","","","","","","","","","","","","","","","","","",""
"2619","","<div style=""width:500px;"">
  <p>How much control did you have over the ball?</p>
  </div>","100","html-slider-response","21","351872","0.0-5.0-2.2","80","1","2025-07-16 08:40:40","1f75c3e559b7213887762d5229550c2b","94.134.108.176","Mozilla/5.0 (Windows NT 10.0; Win64; x64) AppleWebKit/537.36 (KHTML, like Gecko) Chrome/138.0.0.0 Safari/537.36","WebKit","Chrome","138.0.0.0","Windows","10.0","https://app.prolific.com/","de-DE,de;q=0.9,en-DE;q=0.8,en;q=0.7,es-ES;q=0.6,es;q=0.5,en-US;q=0.4","646219bb0b91a6f3327e39fb","68764874ac79eee8c1d4cb03","687763e3256f9c7e313b4f59","2","0","646219bb0b91a6f3327e39fb","2","0","2025-07-16T08:46:31.844Z","","","","","","","","","","","ControlQ","","50","","","","","","","","","","","","","","","","","","","","","","","","","","","","",""
"1871","","<div style=""width:500px;"">
  <p>How would you describe your current emotional state?</p>
  </div>","44","html-slider-response","22","353745","0.0-5.0-3.2","80","1","2025-07-16 08:40:40","1f75c3e559b7213887762d5229550c2b","94.134.108.176","Mozilla/5.0 (Windows NT 10.0; Win64; x64) AppleWebKit/537.36 (KHTML, like Gecko) Chrome/138.0.0.0 Safari/537.36","WebKit","Chrome","138.0.0.0","Windows","10.0","https://app.prolific.com/","de-DE,de;q=0.9,en-DE;q=0.8,en;q=0.7,es-ES;q=0.6,es;q=0.5,en-US;q=0.4","646219bb0b91a6f3327e39fb","68764874ac79eee8c1d4cb03","687763e3256f9c7e313b4f59","2","0","646219bb0b91a6f3327e39fb","2","0","2025-07-16T08:46:33.717Z","","","","","","","","","","","StressQ","","50","","","","","","","","","","","","","","","","","","","","","","","","","","","","",""
"1940","","<div style=""width:500px;"">
  <p>What best describes how you currently feel?</p>
  </div>","56","html-slider-response","23","355685","0.0-5.0-4.2","80","1","2025-07-16 08:40:40","1f75c3e559b7213887762d5229550c2b","94.134.108.176","Mozilla/5.0 (Windows NT 10.0; Win64; x64) AppleWebKit/537.36 (KHTML, like Gecko) Chrome/138.0.0.0 Safari/537.36","WebKit","Chrome","138.0.0.0","Windows","10.0","https://app.prolific.com/","de-DE,de;q=0.9,en-DE;q=0.8,en;q=0.7,es-ES;q=0.6,es;q=0.5,en-US;q=0.4","646219bb0b91a6f3327e39fb","68764874ac79eee8c1d4cb03","687763e3256f9c7e313b4f59","2","0","646219bb0b91a6f3327e39fb","2","0","2025-07-16T08:46:35.657Z","","","","","","","","","","","MotivationQ","","50","","","","","","","","","","","","","","","","","","","","","","","","","","","","",""
"","","","","ctl-task-cpt","24","388678","0.0-5.0-0.3","80","1","2025-07-16 08:40:40","1f75c3e559b7213887762d5229550c2b","94.134.108.176","Mozilla/5.0 (Windows NT 10.0; Win64; x64) AppleWebKit/537.36 (KHTML, like Gecko) Chrome/138.0.0.0 Safari/537.36","WebKit","Chrome","138.0.0.0","Windows","10.0","https://app.prolific.com/","de-DE,de;q=0.9,en-DE;q=0.8,en;q=0.7,es-ES;q=0.6,es;q=0.5,en-US;q=0.4","646219bb0b91a6f3327e39fb","68764874ac79eee8c1d4cb03","687763e3256f9c7e313b4f59","2","0","646219bb0b91a6f3327e39fb","2","0","2025-07-16T08:47:08.651Z","","","","","","","","","","","","","","win-only","1","g1:NE,g2:SW","0.7","4","0","357005.7","985.5","5991.1","29976.1","1","4","4","6","2","4","4","16","12","0.12121212121212122","1751.4","3000","855","[""down"",""left""]","{""num_key_presses"":8,""num_perfect"":6,""num_errors"":0,""num_randdir"":2,""num_randdir_good_moves"":1,""num_whilered"":0,""num_whileblue"":0,""num_blue"":1,""num_good_moves"":7}","[556.4285714285714,556.3348214285714,0.1,556.4285714285714,556.3348214285714,100.1,556.4285714285714,556.3348214285714,200.6,556.4285714285714,556.3348214285714,305.3,555.4285714285714,559.3348214285714,410.6,543.4285714285714,585.3348214285714,514.9,534.4285714285714,599.3348214285714,615.7,531.4285714285714,603.3348214285714,720.5,527.4285714285714,607.3348214285714,824.8,527.4285714285714,607.3348214285714,930.4,462.42857142857144,705.3348214285714,1035.8,64.42857142857143,1051.3348214285713,1143.2,44.42857142857143,1059.3348214285713,1246.5,62.42857142857143,1033.3348214285713,1350.5,95.42857142857143,1001.3348214285714,1455,95.42857142857143,1000.3348214285714,1555.4,95.42857142857143,1000.3348214285714,1660.8,95.42857142857143,1000.3348214285714,1765.7,95.42857142857143,1000.3348214285714,1870.2,95.42857142857143,1000.3348214285714,1970.6,221.42857142857144,1003.3348214285714,2075,717.4285714285714,1077.3348214285713,2175.5,1489.4285714285713,1233.3348214285713,2280.2,1527.4285714285713,1234.3348214285713,2380.3,1527.4285714285713,1234.3348214285713,2485.7,1527.4285714285713,1234.3348214285713,2589.8,1527.4285714285713,1234.3348214285713,2690.5,1527.4285714285713,1234.3348214285713,2791.2,1527.4285714285713,1234.3348214285713,2895.7,1527.4285714285713,1234.3348214285713,3000.8,1527.4285714285713,1234.3348214285713,3105.5,1527.4285714285713,1234.3348214285713,3210.6,1527.4285714285713,1234.3348214285713,3314.8,1527.4285714285713,1234.3348214285713,3415.3,1527.4285714285713,1234.3348214285713,3520.7,1527.4285714285713,1234.3348214285713,3625.7,1527.4285714285713,1234.3348214285713,3730.4,1527.4285714285713,1234.3348214285713,3830.5,1527.4285714285713,1234.3348214285713,3930.7,1527.4285714285713,1234.3348214285713,4035.1,1527.4285714285713,1234.3348214285713,4135.7,1527.4285714285713,1234.3348214285713,4239.7,1527.4285714285713,1234.3348214285713,4340.5,1527.4285714285713,1234.3348214285713,4440.6,1527.4285714285713,1234.3348214285713,4541.3,1527.4285714285713,1234.3348214285713,4644.9,1527.4285714285713,1234.3348214285713,4745.5,1527.4285714285713,1234.3348214285713,4849.8,1527.4285714285713,1234.3348214285713,4950.1]","[1257.4,1257.4,1000,0,257.4,""smooth"",""left"",""left"",""good_move"",3852.3,2594.6,2347.9,1257.7,246.7,""oops"",""down"",""up"",""bad_move"",6596.4,2743.9,2474.5,3852.5,269.4,""smooth"",""down"",""down"",""good_move"",9631.5,3034.9,2777.2,6596.6,257.7,""smooth"",""left"",""left"",""good_move"",12691.3,3059.5,2789.6,9631.8,269.9,""smooth"",""down"",""down"",""good_move"",15638.4,2947,2665.8,12691.4,281.3,""smooth"",""down"",""down"",""good_move"",21259.4,5620.8,2437.3,18529.3,292.8,""oops"",""left"",""down"",""good_move"",23897.3,2637.8,2332,21259.5,305.8,""smooth"",""left"",""left"",""good_move""]","",""
"5159","","<div style=""width:500px;"">
  <p>What determined the result of this run?</p>
  </div>","41","html-slider-response","25","393838","0.0-5.0-1.3","80","1","2025-07-16 08:40:40","1f75c3e559b7213887762d5229550c2b","94.134.108.176","Mozilla/5.0 (Windows NT 10.0; Win64; x64) AppleWebKit/537.36 (KHTML, like Gecko) Chrome/138.0.0.0 Safari/537.36","WebKit","Chrome","138.0.0.0","Windows","10.0","https://app.prolific.com/","de-DE,de;q=0.9,en-DE;q=0.8,en;q=0.7,es-ES;q=0.6,es;q=0.5,en-US;q=0.4","646219bb0b91a6f3327e39fb","68764874ac79eee8c1d4cb03","687763e3256f9c7e313b4f59","2","0","646219bb0b91a6f3327e39fb","2","0","2025-07-16T08:47:13.810Z","","","","","","","","","","","AttribQ","","50","","","","","","","","","","","","","","","","","","","","","","","","","","","","",""
"2639","","<div style=""width:500px;"">
  <p>How much control did you have over the ball?</p>
  </div>","58","html-slider-response","26","396478","0.0-5.0-2.3","80","1","2025-07-16 08:40:40","1f75c3e559b7213887762d5229550c2b","94.134.108.176","Mozilla/5.0 (Windows NT 10.0; Win64; x64) AppleWebKit/537.36 (KHTML, like Gecko) Chrome/138.0.0.0 Safari/537.36","WebKit","Chrome","138.0.0.0","Windows","10.0","https://app.prolific.com/","de-DE,de;q=0.9,en-DE;q=0.8,en;q=0.7,es-ES;q=0.6,es;q=0.5,en-US;q=0.4","646219bb0b91a6f3327e39fb","68764874ac79eee8c1d4cb03","687763e3256f9c7e313b4f59","2","0","646219bb0b91a6f3327e39fb","2","0","2025-07-16T08:47:16.450Z","","","","","","","","","","","ControlQ","","50","","","","","","","","","","","","","","","","","","","","","","","","","","","","",""
"2618","","<div style=""width:500px;"">
  <p>How would you describe your current emotional state?</p>
  </div>","58","html-slider-response","27","399097","0.0-5.0-3.3","80","1","2025-07-16 08:40:40","1f75c3e559b7213887762d5229550c2b","94.134.108.176","Mozilla/5.0 (Windows NT 10.0; Win64; x64) AppleWebKit/537.36 (KHTML, like Gecko) Chrome/138.0.0.0 Safari/537.36","WebKit","Chrome","138.0.0.0","Windows","10.0","https://app.prolific.com/","de-DE,de;q=0.9,en-DE;q=0.8,en;q=0.7,es-ES;q=0.6,es;q=0.5,en-US;q=0.4","646219bb0b91a6f3327e39fb","68764874ac79eee8c1d4cb03","687763e3256f9c7e313b4f59","2","0","646219bb0b91a6f3327e39fb","2","0","2025-07-16T08:47:19.069Z","","","","","","","","","","","StressQ","","50","","","","","","","","","","","","","","","","","","","","","","","","","","","","",""
"3038","","<div style=""width:500px;"">
  <p>What best describes how you currently feel?</p>
  </div>","55","html-slider-response","28","402136","0.0-5.0-4.3","80","1","2025-07-16 08:40:40","1f75c3e559b7213887762d5229550c2b","94.134.108.176","Mozilla/5.0 (Windows NT 10.0; Win64; x64) AppleWebKit/537.36 (KHTML, like Gecko) Chrome/138.0.0.0 Safari/537.36","WebKit","Chrome","138.0.0.0","Windows","10.0","https://app.prolific.com/","de-DE,de;q=0.9,en-DE;q=0.8,en;q=0.7,es-ES;q=0.6,es;q=0.5,en-US;q=0.4","646219bb0b91a6f3327e39fb","68764874ac79eee8c1d4cb03","687763e3256f9c7e313b4f59","2","0","646219bb0b91a6f3327e39fb","2","0","2025-07-16T08:47:22.108Z","","","","","","","","","","","MotivationQ","","50","","","","","","","","","","","","","","","","","","","","","","","","","","","","",""
"","","","","ctl-task-cpt","29","419659","0.0-5.0-0.4","80","1","2025-07-16 08:40:40","1f75c3e559b7213887762d5229550c2b","94.134.108.176","Mozilla/5.0 (Windows NT 10.0; Win64; x64) AppleWebKit/537.36 (KHTML, like Gecko) Chrome/138.0.0.0 Safari/537.36","WebKit","Chrome","138.0.0.0","Windows","10.0","https://app.prolific.com/","de-DE,de;q=0.9,en-DE;q=0.8,en;q=0.7,es-ES;q=0.6,es;q=0.5,en-US;q=0.4","646219bb0b91a6f3327e39fb","68764874ac79eee8c1d4cb03","687763e3256f9c7e313b4f59","2","0","646219bb0b91a6f3327e39fb","2","0","2025-07-16T08:47:39.632Z","","","","","","","","","","","","","","win-only","0","g1:NW,g2:SE","0.6","5","0","403456.6","777.8","5781.1","14505.2","1","4","8","6","1","1","0","16","16","0.12121212121212122","2777.3","3000","2200","[""left"",""up""]","{""num_key_presses"":4,""num_perfect"":3,""num_errors"":1,""num_randdir"":0,""num_randdir_good_moves"":0,""num_whilered"":0,""num_whileblue"":1,""num_blue"":1,""num_good_moves"":4}","[557.4285714285714,552.3348214285714,0.2,557.4285714285714,552.3348214285714,102.8,557.4285714285714,552.3348214285714,203.1,557.4285714285714,555.3348214285714,307.5,590.4285714285714,632.3348214285714,408.1,750.4285714285714,870.3348214285714,513.2,780.4285714285714,901.3348214285714,618.3,659.4285714285714,828.3348214285714,723.2,375.42857142857144,625.3348214285714,823.3,245.42857142857144,437.33482142857144,927.7,249.42857142857144,291.33482142857144,1028.2,220.42857142857144,239.33482142857144,1132.8,160.42857142857144,181.33482142857144,1238.3,145.42857142857144,159.33482142857144,1343.2,144.42857142857144,156.33482142857144,1448.2,144.42857142857144,156.33482142857144,1548.4,144.42857142857144,156.33482142857144,1653.1,144.42857142857144,155.33482142857144,1753.1,144.42857142857144,155.33482142857144,1853.2,149.42857142857144,173.33482142857144,1953.6,567.4285714285714,619.3348214285714,2058.6,643.4285714285714,688.3348214285714,2163.4,358.42857142857144,441.33482142857144,2267.4,156.42857142857144,286.33482142857144,2367.7,154.42857142857144,276.33482142857144,2472.8,155.42857142857144,250.33482142857144,2578.2,80.42857142857143,166.33482142857144,2683.8,57.42857142857143,122.33482142857143,2788,57.42857142857143,122.33482142857143,2892.9,63.42857142857143,128.33482142857144,2997.6,524.4285714285714,378.33482142857144,3097.9,1449.4285714285713,929.3348214285714,3199,1657.4285714285713,1044.3348214285713,3302.8,1657.4285714285713,1044.3348214285713,3403,1657.4285714285713,1044.3348214285713,3503.1,1657.4285714285713,1044.3348214285713,3603.2,1657.4285714285713,1044.3348214285713,3707.5,1657.4285714285713,1044.3348214285713,3807.6,1657.4285714285713,1044.3348214285713,3907.6,1657.4285714285713,1044.3348214285713,4013.8,1657.4285714285713,1044.3348214285713,4117.8,1657.4285714285713,1044.3348214285713,4223,1657.4285714285713,1044.3348214285713,4327.9,1657.4285714285713,1044.3348214285713,4433.3,1657.4285714285713,1044.3348214285713,4537.4,1657.4285714285713,1044.3348214285713,4638,1657.4285714285713,1044.3348214285713,4738.3,1657.4285714285713,1044.3348214285713,4842.5,1657.4285714285713,1044.3348214285713,4942.5]","[1296.3,1296.3,1000,0,296.3,""smooth"",""left"",""left"",""good_move"",3887.2,2590.8,2337.6,1296.4,253.2,""smooth"",""up"",""up"",""good_move"",6615.6,2728.1,2458.1,3887.5,270,""smooth"",""up"",""up"",""good_move"",8637.1,2021.4,1739.2,6615.8,282.1,""while_blue"",""left"",""left"",""good_move""]","",""
"2793","","<div style=""width:500px;"">
  <p>What determined the result of this run?</p>
  </div>","97","html-slider-response","30","422454","0.0-5.0-1.4","80","1","2025-07-16 08:40:40","1f75c3e559b7213887762d5229550c2b","94.134.108.176","Mozilla/5.0 (Windows NT 10.0; Win64; x64) AppleWebKit/537.36 (KHTML, like Gecko) Chrome/138.0.0.0 Safari/537.36","WebKit","Chrome","138.0.0.0","Windows","10.0","https://app.prolific.com/","de-DE,de;q=0.9,en-DE;q=0.8,en;q=0.7,es-ES;q=0.6,es;q=0.5,en-US;q=0.4","646219bb0b91a6f3327e39fb","68764874ac79eee8c1d4cb03","687763e3256f9c7e313b4f59","2","0","646219bb0b91a6f3327e39fb","2","0","2025-07-16T08:47:42.426Z","","","","","","","","","","","AttribQ","","50","","","","","","","","","","","","","","","","","","","","","","","","","","","","",""
"1372","","<div style=""width:500px;"">
  <p>How much control did you have over the ball?</p>
  </div>","99","html-slider-response","31","423827","0.0-5.0-2.4","80","1","2025-07-16 08:40:40","1f75c3e559b7213887762d5229550c2b","94.134.108.176","Mozilla/5.0 (Windows NT 10.0; Win64; x64) AppleWebKit/537.36 (KHTML, like Gecko) Chrome/138.0.0.0 Safari/537.36","WebKit","Chrome","138.0.0.0","Windows","10.0","https://app.prolific.com/","de-DE,de;q=0.9,en-DE;q=0.8,en;q=0.7,es-ES;q=0.6,es;q=0.5,en-US;q=0.4","646219bb0b91a6f3327e39fb","68764874ac79eee8c1d4cb03","687763e3256f9c7e313b4f59","2","0","646219bb0b91a6f3327e39fb","2","0","2025-07-16T08:47:43.799Z","","","","","","","","","","","ControlQ","","50","","","","","","","","","","","","","","","","","","","","","","","","","","","","",""
"3077","","<div style=""width:500px;"">
  <p>How would you describe your current emotional state?</p>
  </div>","49","html-slider-response","32","426905","0.0-5.0-3.4","80","1","2025-07-16 08:40:40","1f75c3e559b7213887762d5229550c2b","94.134.108.176","Mozilla/5.0 (Windows NT 10.0; Win64; x64) AppleWebKit/537.36 (KHTML, like Gecko) Chrome/138.0.0.0 Safari/537.36","WebKit","Chrome","138.0.0.0","Windows","10.0","https://app.prolific.com/","de-DE,de;q=0.9,en-DE;q=0.8,en;q=0.7,es-ES;q=0.6,es;q=0.5,en-US;q=0.4","646219bb0b91a6f3327e39fb","68764874ac79eee8c1d4cb03","687763e3256f9c7e313b4f59","2","0","646219bb0b91a6f3327e39fb","2","0","2025-07-16T08:47:46.877Z","","","","","","","","","","","StressQ","","50","","","","","","","","","","","","","","","","","","","","","","","","","","","","",""
"2147","","<div style=""width:500px;"">
  <p>What best describes how you currently feel?</p>
  </div>","56","html-slider-response","33","429053","0.0-5.0-4.4","80","1","2025-07-16 08:40:40","1f75c3e559b7213887762d5229550c2b","94.134.108.176","Mozilla/5.0 (Windows NT 10.0; Win64; x64) AppleWebKit/537.36 (KHTML, like Gecko) Chrome/138.0.0.0 Safari/537.36","WebKit","Chrome","138.0.0.0","Windows","10.0","https://app.prolific.com/","de-DE,de;q=0.9,en-DE;q=0.8,en;q=0.7,es-ES;q=0.6,es;q=0.5,en-US;q=0.4","646219bb0b91a6f3327e39fb","68764874ac79eee8c1d4cb03","687763e3256f9c7e313b4f59","2","0","646219bb0b91a6f3327e39fb","2","0","2025-07-16T08:47:49.025Z","","","","","","","","","","","MotivationQ","","50","","","","","","","","","","","","","","","","","","","","","","","","","","","","",""
"","","","","ctl-task-cpt","34","462781","0.0-5.0-0.5","80","1","2025-07-16 08:40:40","1f75c3e559b7213887762d5229550c2b","94.134.108.176","Mozilla/5.0 (Windows NT 10.0; Win64; x64) AppleWebKit/537.36 (KHTML, like Gecko) Chrome/138.0.0.0 Safari/537.36","WebKit","Chrome","138.0.0.0","Windows","10.0","https://app.prolific.com/","de-DE,de;q=0.9,en-DE;q=0.8,en;q=0.7,es-ES;q=0.6,es;q=0.5,en-US;q=0.4","646219bb0b91a6f3327e39fb","68764874ac79eee8c1d4cb03","687763e3256f9c7e313b4f59","2","0","646219bb0b91a6f3327e39fb","2","0","2025-07-16T08:48:22.753Z","","","","","","","","","","","","","","win-only","2","g1:SE,g2:NW","0.5","6","0","430373.2","884.6","5885.9","30710.3","1","4","4","6","2","4","4","20","16","0.15151515151515152","1701.2","3000","225","[""left"",""up""]","{""num_key_presses"":10,""num_perfect"":5,""num_errors"":0,""num_randdir"":5,""num_randdir_good_moves"":3,""num_whilered"":0,""num_whileblue"":0,""num_blue"":0,""num_good_moves"":8}","[563.4285714285714,569.3348214285714,0.1,563.4285714285714,568.3348214285714,102.8,563.4285714285714,568.3348214285714,206.2,563.4285714285714,568.3348214285714,311.2,563.4285714285714,568.3348214285714,411.2,563.4285714285714,571.3348214285714,516.2,563.4285714285714,575.3348214285714,616.2,563.4285714285714,575.3348214285714,720.9,563.4285714285714,575.3348214285714,821.4,563.4285714285714,578.3348214285714,922.2,563.4285714285714,580.3348214285714,1025.7,563.4285714285714,584.3348214285714,1126.6,549.4285714285714,587.3348214285714,1232.4,390.42857142857144,460.33482142857144,1336.9,246.42857142857144,175.33482142857144,1441,191.42857142857144,154.33482142857144,1546.1,127.42857142857143,124.33482142857143,1646.5,124.42857142857143,114.33482142857143,1750.6,124.42857142857143,114.33482142857143,1850.7,208.42857142857144,210.33482142857144,1956.8,1140.4285714285713,659.3348214285714,2060.7,1523.4285714285713,778.3348214285714,2161.4,1523.4285714285713,778.3348214285714,2261.6,1523.4285714285713,778.3348214285714,2366.4,1523.4285714285713,778.3348214285714,2471.2,1523.4285714285713,778.3348214285714,2571.3,1523.4285714285713,778.3348214285714,2675.8,1523.4285714285713,778.3348214285714,2776.4,1523.4285714285713,778.3348214285714,2880.6,1523.4285714285713,778.3348214285714,2981.2,1523.4285714285713,778.3348214285714,3086.6,1523.4285714285713,778.3348214285714,3191,1523.4285714285713,778.3348214285714,3296.4,1523.4285714285713,778.3348214285714,3401.5,1523.4285714285713,778.3348214285714,3506.1,1523.4285714285713,778.3348214285714,3606.4,1523.4285714285713,778.3348214285714,3706.4,1523.4285714285713,778.3348214285714,3806.7,1523.4285714285713,778.3348214285714,3907,1523.4285714285713,778.3348214285714,4011,1523.4285714285713,778.3348214285714,4115.9,1523.4285714285713,778.3348214285714,4216.3,1523.4285714285713,778.3348214285714,4316.3,1523.4285714285713,778.3348214285714,4420.7,1523.4285714285713,778.3348214285714,4520.8,1523.4285714285713,778.3348214285714,4626,1523.4285714285713,778.3348214285714,4726.3,1523.4285714285713,778.3348214285714,4831.5,1523.4285714285713,778.3348214285714,4936.2]","[1266.6,1266.6,1000,0,266.6,""oops"",""left"",""up"",""good_move"",3789.7,2522.9,2232.5,1266.8,290.4,""smooth"",""left"",""left"",""good_move"",5976.4,2186.5,1887.9,3789.9,298.6,""oops"",""left"",""down"",""bad_move"",8214.7,2238.1,1954.9,5976.6,283.2,""oops"",""left"",""up"",""good_move"",11145.7,2930.8,2617.8,8214.9,313,""oops"",""left"",""right"",""bad_move"",13668.5,2522.7,2231.1,11145.9,291.6,""smooth"",""left"",""left"",""good_move"",17107.6,3438.9,3171.6,13668.7,267.4,""smooth"",""up"",""up"",""good_move"",18961.7,1854,1561.1,17107.7,292.9,""oops"",""left"",""left"",""good_move"",21980.5,3018.6,2755.9,18961.9,262.7,""smooth"",""up"",""up"",""good_move"",24740,2759.3,2495.4,21980.7,263.9,""smooth"",""left"",""left"",""good_move""]","",""
"2080","","<div style=""width:500px;"">
  <p>What determined the result of this run?</p>
  </div>","29","html-slider-response","35","464863","0.0-5.0-1.5","80","1","2025-07-16 08:40:40","1f75c3e559b7213887762d5229550c2b","94.134.108.176","Mozilla/5.0 (Windows NT 10.0; Win64; x64) AppleWebKit/537.36 (KHTML, like Gecko) Chrome/138.0.0.0 Safari/537.36","WebKit","Chrome","138.0.0.0","Windows","10.0","https://app.prolific.com/","de-DE,de;q=0.9,en-DE;q=0.8,en;q=0.7,es-ES;q=0.6,es;q=0.5,en-US;q=0.4","646219bb0b91a6f3327e39fb","68764874ac79eee8c1d4cb03","687763e3256f9c7e313b4f59","2","0","646219bb0b91a6f3327e39fb","2","0","2025-07-16T08:48:24.835Z","","","","","","","","","","","AttribQ","","50","","","","","","","","","","","","","","","","","","","","","","","","","","","","",""
"1676","","<div style=""width:500px;"">
  <p>How much control did you have over the ball?</p>
  </div>","43","html-slider-response","36","466540","0.0-5.0-2.5","80","1","2025-07-16 08:40:40","1f75c3e559b7213887762d5229550c2b","94.134.108.176","Mozilla/5.0 (Windows NT 10.0; Win64; x64) AppleWebKit/537.36 (KHTML, like Gecko) Chrome/138.0.0.0 Safari/537.36","WebKit","Chrome","138.0.0.0","Windows","10.0","https://app.prolific.com/","de-DE,de;q=0.9,en-DE;q=0.8,en;q=0.7,es-ES;q=0.6,es;q=0.5,en-US;q=0.4","646219bb0b91a6f3327e39fb","68764874ac79eee8c1d4cb03","687763e3256f9c7e313b4f59","2","0","646219bb0b91a6f3327e39fb","2","0","2025-07-16T08:48:26.512Z","","","","","","","","","","","ControlQ","","50","","","","","","","","","","","","","","","","","","","","","","","","","","","","",""
"1985","","<div style=""width:500px;"">
  <p>How would you describe your current emotional state?</p>
  </div>","66","html-slider-response","37","468526","0.0-5.0-3.5","80","1","2025-07-16 08:40:40","1f75c3e559b7213887762d5229550c2b","94.134.108.176","Mozilla/5.0 (Windows NT 10.0; Win64; x64) AppleWebKit/537.36 (KHTML, like Gecko) Chrome/138.0.0.0 Safari/537.36","WebKit","Chrome","138.0.0.0","Windows","10.0","https://app.prolific.com/","de-DE,de;q=0.9,en-DE;q=0.8,en;q=0.7,es-ES;q=0.6,es;q=0.5,en-US;q=0.4","646219bb0b91a6f3327e39fb","68764874ac79eee8c1d4cb03","687763e3256f9c7e313b4f59","2","0","646219bb0b91a6f3327e39fb","2","0","2025-07-16T08:48:28.498Z","","","","","","","","","","","StressQ","","50","","","","","","","","","","","","","","","","","","","","","","","","","","","","",""
"2423","","<div style=""width:500px;"">
  <p>What best describes how you currently feel?</p>
  </div>","57","html-slider-response","38","470950","0.0-5.0-4.5","80","1","2025-07-16 08:40:40","1f75c3e559b7213887762d5229550c2b","94.134.108.176","Mozilla/5.0 (Windows NT 10.0; Win64; x64) AppleWebKit/537.36 (KHTML, like Gecko) Chrome/138.0.0.0 Safari/537.36","WebKit","Chrome","138.0.0.0","Windows","10.0","https://app.prolific.com/","de-DE,de;q=0.9,en-DE;q=0.8,en;q=0.7,es-ES;q=0.6,es;q=0.5,en-US;q=0.4","646219bb0b91a6f3327e39fb","68764874ac79eee8c1d4cb03","687763e3256f9c7e313b4f59","2","0","646219bb0b91a6f3327e39fb","2","0","2025-07-16T08:48:30.922Z","","","","","","","","","","","MotivationQ","","50","","","","","","","","","","","","","","","","","","","","","","","","","","","","",""
"","","","","ctl-task-cpt","39","533458","0.0-5.0-0.6","80","1","2025-07-16 08:40:40","1f75c3e559b7213887762d5229550c2b","94.134.108.176","Mozilla/5.0 (Windows NT 10.0; Win64; x64) AppleWebKit/537.36 (KHTML, like Gecko) Chrome/138.0.0.0 Safari/537.36","WebKit","Chrome","138.0.0.0","Windows","10.0","https://app.prolific.com/","de-DE,de;q=0.9,en-DE;q=0.8,en;q=0.7,es-ES;q=0.6,es;q=0.5,en-US;q=0.4","646219bb0b91a6f3327e39fb","68764874ac79eee8c1d4cb03","687763e3256f9c7e313b4f59","2","0","646219bb0b91a6f3327e39fb","2","0","2025-07-16T08:49:33.430Z","","","","","","","","","","","","","","win-only","1","g1:NE,g2:SW","0.4","7","0","472269.6","852.9","5855.2","59490.4","1","4","4","6","2","-4","-4","16","20","0.12121212121212122","1789.8","3000","-3015","[""down"",""left""]","{""num_key_presses"":11,""num_perfect"":5,""num_errors"":0,""num_randdir"":6,""num_randdir_good_moves"":1,""num_whilered"":0,""num_whileblue"":0,""num_blue"":6,""num_good_moves"":6}","[549.4285714285714,549.3348214285714,0.2,549.4285714285714,549.3348214285714,102.2,549.4285714285714,549.3348214285714,202.2,549.4285714285714,549.3348214285714,302.8,544.4285714285714,553.3348214285714,408.9,481.42857142857144,624.3348214285714,512.6,362.42857142857144,793.3348214285714,613.3,294.42857142857144,895.3348214285714,717.6,280.42857142857144,915.3348214285714,817.8,280.42857142857144,915.3348214285714,918.6,220.42857142857144,968.3348214285714,1023.1,175.42857142857144,1014.3348214285714,1128.2,148.42857142857144,1044.3348214285713,1232.8,140.42857142857144,1050.3348214285713,1333.3,140.42857142857144,1050.3348214285713,1438.4,140.42857142857144,1050.3348214285713,1542.9,140.42857142857144,1050.3348214285713,1643.1,140.42857142857144,1050.3348214285713,1743.2,140.42857142857144,1050.3348214285713,1847.4,134.42857142857144,1050.3348214285713,1953,189.42857142857144,1046.3348214285713,2053,1132.4285714285713,1044.3348214285713,2153.3,1588.4285714285713,1026.3348214285713,2257.8,1626.4285714285713,1003.3348214285714,2358.7,1627.4285714285713,999.3348214285714,2462.6,1627.4285714285713,999.3348214285714,2563.1,1627.4285714285713,999.3348214285714,2667.3,1627.4285714285713,999.3348214285714,2768.5,1627.4285714285713,999.3348214285714,2872.6,1627.4285714285713,999.3348214285714,2978.7,1627.4285714285713,999.3348214285714,3082.5,1627.4285714285713,999.3348214285714,3187.8,1627.4285714285713,999.3348214285714,3292.6,1627.4285714285713,999.3348214285714,3393.1,1627.4285714285713,999.3348214285714,3493.1,1627.4285714285713,999.3348214285714,3597.7,1627.4285714285713,999.3348214285714,3703,1627.4285714285713,999.3348214285714,3803.1,1627.4285714285713,999.3348214285714,3903.2,1627.4285714285713,999.3348214285714,4007.4,1627.4285714285713,999.3348214285714,4107.4,1627.4285714285713,999.3348214285714,4207.5,1627.4285714285713,999.3348214285714,4312.9,1627.4285714285713,999.3348214285714,4417.3,1627.4285714285713,999.3348214285714,4517.4,1627.4285714285713,999.3348214285714,4617.4,1627.4285714285713,999.3348214285714,4718.1,1627.4285714285713,999.3348214285714,4822.6,1627.4285714285713,999.3348214285714,4922.9]","[7380.3,7380.3,2217.5,4855.4,307.4,""oops"",""left"",""up"",""bad_move"",14955.9,7575.3,3305.3,11350,300.6,""smooth"",""left"",""left"",""good_move"",17842.9,2886.9,2641.3,14956,245.6,""oops"",""left"",""up"",""bad_move"",20937.8,3094.7,2817.1,17843.1,277.6,""oops"",""left"",""right"",""bad_move"",23364.9,2426.9,2133.7,20938,293.2,""smooth"",""left"",""left"",""good_move"",33289.8,9924.8,2546.7,30470,273.1,""oops"",""left"",""down"",""good_move"",36124.5,2834.5,2581.5,33290,253,""oops"",""left"",""up"",""bad_move"",38999.7,2875,2612.5,36124.7,262.5,""oops"",""left"",""right"",""bad_move"",41690.6,2690.9,2447.3,38999.8,243.5,""smooth"",""left"",""left"",""good_move"",44495,2804.3,2550.7,41690.8,253.6,""smooth"",""left"",""left"",""good_move"",47245.7,2750.5,2497.7,44495.2,252.8,""smooth"",""left"",""left"",""good_move""]","",""
"3831","","<div style=""width:500px;"">
  <p>What determined the result of this run?</p>
  </div>","0","html-slider-response","40","537290","0.0-5.0-1.6","80","1","2025-07-16 08:40:40","1f75c3e559b7213887762d5229550c2b","94.134.108.176","Mozilla/5.0 (Windows NT 10.0; Win64; x64) AppleWebKit/537.36 (KHTML, like Gecko) Chrome/138.0.0.0 Safari/537.36","WebKit","Chrome","138.0.0.0","Windows","10.0","https://app.prolific.com/","de-DE,de;q=0.9,en-DE;q=0.8,en;q=0.7,es-ES;q=0.6,es;q=0.5,en-US;q=0.4","646219bb0b91a6f3327e39fb","68764874ac79eee8c1d4cb03","687763e3256f9c7e313b4f59","2","0","646219bb0b91a6f3327e39fb","2","0","2025-07-16T08:49:37.262Z","","","","","","","","","","","AttribQ","","50","","","","","","","","","","","","","","","","","","","","","","","","","","","","",""
"3551","","<div style=""width:500px;"">
  <p>How much control did you have over the ball?</p>
  </div>","3","html-slider-response","41","540841","0.0-5.0-2.6","80","1","2025-07-16 08:40:40","1f75c3e559b7213887762d5229550c2b","94.134.108.176","Mozilla/5.0 (Windows NT 10.0; Win64; x64) AppleWebKit/537.36 (KHTML, like Gecko) Chrome/138.0.0.0 Safari/537.36","WebKit","Chrome","138.0.0.0","Windows","10.0","https://app.prolific.com/","de-DE,de;q=0.9,en-DE;q=0.8,en;q=0.7,es-ES;q=0.6,es;q=0.5,en-US;q=0.4","646219bb0b91a6f3327e39fb","68764874ac79eee8c1d4cb03","687763e3256f9c7e313b4f59","2","0","646219bb0b91a6f3327e39fb","2","0","2025-07-16T08:49:40.814Z","","","","","","","","","","","ControlQ","","50","","","","","","","","","","","","","","","","","","","","","","","","","","","","",""
"2042","","<div style=""width:500px;"">
  <p>How would you describe your current emotional state?</p>
  </div>","86","html-slider-response","42","542884","0.0-5.0-3.6","80","1","2025-07-16 08:40:40","1f75c3e559b7213887762d5229550c2b","94.134.108.176","Mozilla/5.0 (Windows NT 10.0; Win64; x64) AppleWebKit/537.36 (KHTML, like Gecko) Chrome/138.0.0.0 Safari/537.36","WebKit","Chrome","138.0.0.0","Windows","10.0","https://app.prolific.com/","de-DE,de;q=0.9,en-DE;q=0.8,en;q=0.7,es-ES;q=0.6,es;q=0.5,en-US;q=0.4","646219bb0b91a6f3327e39fb","68764874ac79eee8c1d4cb03","687763e3256f9c7e313b4f59","2","0","646219bb0b91a6f3327e39fb","2","0","2025-07-16T08:49:42.856Z","","","","","","","","","","","StressQ","","50","","","","","","","","","","","","","","","","","","","","","","","","","","","","",""
"2057","","<div style=""width:500px;"">
  <p>What best describes how you currently feel?</p>
  </div>","39","html-slider-response","43","544942","0.0-5.0-4.6","80","1","2025-07-16 08:40:40","1f75c3e559b7213887762d5229550c2b","94.134.108.176","Mozilla/5.0 (Windows NT 10.0; Win64; x64) AppleWebKit/537.36 (KHTML, like Gecko) Chrome/138.0.0.0 Safari/537.36","WebKit","Chrome","138.0.0.0","Windows","10.0","https://app.prolific.com/","de-DE,de;q=0.9,en-DE;q=0.8,en;q=0.7,es-ES;q=0.6,es;q=0.5,en-US;q=0.4","646219bb0b91a6f3327e39fb","68764874ac79eee8c1d4cb03","687763e3256f9c7e313b4f59","2","0","646219bb0b91a6f3327e39fb","2","0","2025-07-16T08:49:44.915Z","","","","","","","","","","","MotivationQ","","50","","","","","","","","","","","","","","","","","","","","","","","","","","","","",""
"","","","","ctl-task-cpt","44","606566","0.0-5.0-0.7","80","1","2025-07-16 08:40:40","1f75c3e559b7213887762d5229550c2b","94.134.108.176","Mozilla/5.0 (Windows NT 10.0; Win64; x64) AppleWebKit/537.36 (KHTML, like Gecko) Chrome/138.0.0.0 Safari/537.36","WebKit","Chrome","138.0.0.0","Windows","10.0","https://app.prolific.com/","de-DE,de;q=0.9,en-DE;q=0.8,en;q=0.7,es-ES;q=0.6,es;q=0.5,en-US;q=0.4","646219bb0b91a6f3327e39fb","68764874ac79eee8c1d4cb03","687763e3256f9c7e313b4f59","2","0","646219bb0b91a6f3327e39fb","2","0","2025-07-16T08:50:46.538Z","","","","","","","","","","","","","","win-only","2","g1:SE,g2:NW","0.3","8","0","546262.6","1002.3","6005.5","58605.9","1","4","8","6","2","-8","-9","7","16","0.05303030303030303","2014.2","3000","-3015","[""left"",""up""]","{""num_key_presses"":12,""num_perfect"":3,""num_errors"":1,""num_randdir"":8,""num_randdir_good_moves"":4,""num_whilered"":0,""num_whileblue"":1,""num_blue"":7,""num_good_moves"":7}","[561.4285714285714,559.3348214285714,0.1,561.4285714285714,559.3348214285714,104.3,560.4285714285714,559.3348214285714,208.3,566.4285714285714,583.3348214285714,308.6,567.4285714285714,601.3348214285714,408.6,630.4285714285714,688.3348214285714,514.2,797.4285714285714,857.3348214285714,618.4,779.4285714285714,835.3348214285714,718.8,481.42857142857144,611.3348214285714,823,331.42857142857144,546.3348214285714,928.1,312.42857142857144,544.3348214285714,1028.1,319.42857142857144,565.3348214285714,1128.7,328.42857142857144,585.3348214285714,1233.1,374.42857142857144,636.3348214285714,1333.7,466.42857142857144,701.3348214285714,1433.7,504.42857142857144,730.3348214285714,1538.2,287.42857142857144,536.3348214285714,1638.6,103.42857142857143,311.33482142857144,1742.9,68.42857142857143,201.33482142857144,1843,68.42857142857143,158.33482142857144,1943.6,105.42857142857143,127.33482142857143,2043.9,104.42857142857143,128.33482142857144,2148.5,297.42857142857144,233.33482142857144,2248.9,1585.4285714285713,552.3348214285714,2348.9,1834.4285714285713,592.3348214285714,2453.5,1834.4285714285713,592.3348214285714,2553.5,1834.4285714285713,592.3348214285714,2653.9,1834.4285714285713,592.3348214285714,2758.4,1834.4285714285713,592.3348214285714,2863.8,1834.4285714285713,592.3348214285714,2968.5,1834.4285714285713,592.3348214285714,3073.6,1834.4285714285713,592.3348214285714,3178.2,1834.4285714285713,592.3348214285714,3278.8,1834.4285714285713,592.3348214285714,3383.9,1834.4285714285713,592.3348214285714,3488.4,1834.4285714285713,592.3348214285714,3593.1,1834.4285714285713,592.3348214285714,3694.4,1834.4285714285713,592.3348214285714,3798,1834.4285714285713,592.3348214285714,3898.5,1834.4285714285713,592.3348214285714,4004.6,1834.4285714285713,592.3348214285714,4108,1834.4285714285713,592.3348214285714,4209.1,1834.4285714285713,592.3348214285714,4313.5,1834.4285714285713,592.3348214285714,4413.5,1834.4285714285713,592.3348214285714,4518.1,1834.4285714285713,592.3348214285714,4618.7,1834.4285714285713,592.3348214285714,4718.8,1834.4285714285713,592.3348214285714,4823.5,1834.4285714285713,592.3348214285714,4928]","[7803.6,7803.6,2451.4,5030.3,321.9,""oops"",""left"",""up"",""good_move"",10766.1,2962.4,2695.9,7803.7,266.5,""oops"",""left"",""left"",""good_move"",13476.4,2710.1,2400.6,10766.3,309.5,""oops"",""left"",""left"",""good_move"",16007.4,2530.9,2256.1,13476.5,274.8,""oops"",""up"",""left"",""good_move"",18421.2,2413.8,2170.4,16007.5,243.4,""oops"",""up"",""down"",""bad_move"",20679.1,2257.7,1974,18421.4,283.7,""while_blue"",""up"",""right"",""bad_move"",23865.1,3185.7,2912.8,20679.4,272.9,""smooth"",""up"",""up"",""good_move"",26650.9,2785.6,2506.4,23865.3,279.2,""smooth"",""up"",""up"",""good_move"",39896.4,13245.4,2297.3,37334.7,264.4,""smooth"",""up"",""up"",""good_move"",42867.1,2970.6,2701.6,39896.5,269,""oops"",""left"",""right"",""bad_move"",45529.3,2662.1,2423.3,42867.2,238.8,""oops"",""left"",""right"",""bad_move"",47738.3,2208.9,1919,45529.4,289.9,""oops"",""left"",""right"",""bad_move""]","",""
"1493","","<div style=""width:500px;"">
  <p>What determined the result of this run?</p>
  </div>","0","html-slider-response","45","608060","0.0-5.0-1.7","80","1","2025-07-16 08:40:40","1f75c3e559b7213887762d5229550c2b","94.134.108.176","Mozilla/5.0 (Windows NT 10.0; Win64; x64) AppleWebKit/537.36 (KHTML, like Gecko) Chrome/138.0.0.0 Safari/537.36","WebKit","Chrome","138.0.0.0","Windows","10.0","https://app.prolific.com/","de-DE,de;q=0.9,en-DE;q=0.8,en;q=0.7,es-ES;q=0.6,es;q=0.5,en-US;q=0.4","646219bb0b91a6f3327e39fb","68764874ac79eee8c1d4cb03","687763e3256f9c7e313b4f59","2","0","646219bb0b91a6f3327e39fb","2","0","2025-07-16T08:50:48.032Z","","","","","","","","","","","AttribQ","","50","","","","","","","","","","","","","","","","","","","","","","","","","","","","",""
"2362","","<div style=""width:500px;"">
  <p>How much control did you have over the ball?</p>
  </div>","0","html-slider-response","46","610423","0.0-5.0-2.7","80","1","2025-07-16 08:40:40","1f75c3e559b7213887762d5229550c2b","94.134.108.176","Mozilla/5.0 (Windows NT 10.0; Win64; x64) AppleWebKit/537.36 (KHTML, like Gecko) Chrome/138.0.0.0 Safari/537.36","WebKit","Chrome","138.0.0.0","Windows","10.0","https://app.prolific.com/","de-DE,de;q=0.9,en-DE;q=0.8,en;q=0.7,es-ES;q=0.6,es;q=0.5,en-US;q=0.4","646219bb0b91a6f3327e39fb","68764874ac79eee8c1d4cb03","687763e3256f9c7e313b4f59","2","0","646219bb0b91a6f3327e39fb","2","0","2025-07-16T08:50:50.395Z","","","","","","","","","","","ControlQ","","50","","","","","","","","","","","","","","","","","","","","","","","","","","","","",""
"1190","","<div style=""width:500px;"">
  <p>How would you describe your current emotional state?</p>
  </div>","100","html-slider-response","47","611614","0.0-5.0-3.7","80","1","2025-07-16 08:40:40","1f75c3e559b7213887762d5229550c2b","94.134.108.176","Mozilla/5.0 (Windows NT 10.0; Win64; x64) AppleWebKit/537.36 (KHTML, like Gecko) Chrome/138.0.0.0 Safari/537.36","WebKit","Chrome","138.0.0.0","Windows","10.0","https://app.prolific.com/","de-DE,de;q=0.9,en-DE;q=0.8,en;q=0.7,es-ES;q=0.6,es;q=0.5,en-US;q=0.4","646219bb0b91a6f3327e39fb","68764874ac79eee8c1d4cb03","687763e3256f9c7e313b4f59","2","0","646219bb0b91a6f3327e39fb","2","0","2025-07-16T08:50:51.586Z","","","","","","","","","","","StressQ","","50","","","","","","","","","","","","","","","","","","","","","","","","","","","","",""
"2069","","<div style=""width:500px;"">
  <p>What best describes how you currently feel?</p>
  </div>","9","html-slider-response","48","613684","0.0-5.0-4.7","80","1","2025-07-16 08:40:40","1f75c3e559b7213887762d5229550c2b","94.134.108.176","Mozilla/5.0 (Windows NT 10.0; Win64; x64) AppleWebKit/537.36 (KHTML, like Gecko) Chrome/138.0.0.0 Safari/537.36","WebKit","Chrome","138.0.0.0","Windows","10.0","https://app.prolific.com/","de-DE,de;q=0.9,en-DE;q=0.8,en;q=0.7,es-ES;q=0.6,es;q=0.5,en-US;q=0.4","646219bb0b91a6f3327e39fb","68764874ac79eee8c1d4cb03","687763e3256f9c7e313b4f59","2","0","646219bb0b91a6f3327e39fb","2","0","2025-07-16T08:50:53.656Z","","","","","","","","","","","MotivationQ","","50","","","","","","","","","","","","","","","","","","","","","","","","","","","","",""
"","","","","ctl-task-cpt","49","663983","0.0-5.0-0.8","80","1","2025-07-16 08:40:40","1f75c3e559b7213887762d5229550c2b","94.134.108.176","Mozilla/5.0 (Windows NT 10.0; Win64; x64) AppleWebKit/537.36 (KHTML, like Gecko) Chrome/138.0.0.0 Safari/537.36","WebKit","Chrome","138.0.0.0","Windows","10.0","https://app.prolific.com/","de-DE,de;q=0.9,en-DE;q=0.8,en;q=0.7,es-ES;q=0.6,es;q=0.5,en-US;q=0.4","646219bb0b91a6f3327e39fb","68764874ac79eee8c1d4cb03","687763e3256f9c7e313b4f59","2","0","646219bb0b91a6f3327e39fb","2","0","2025-07-16T08:51:43.955Z","","","","","","","","","","","","","","win-only","0","g1:NW,g2:SE","0.2","9","0","615004.2","828.8","5830.5","47280.6","1","4","4","6","2","-4","-5","2","7","0.015151515151515152","858.2","3000","-3015","[""down"",""right""]","{""num_key_presses"":10,""num_perfect"":2,""num_errors"":1,""num_randdir"":7,""num_randdir_good_moves"":3,""num_whilered"":0,""num_whileblue"":1,""num_blue"":4,""num_good_moves"":5}","[566.4285714285714,544.3348214285714,0.1,566.4285714285714,544.3348214285714,102.2,566.4285714285714,544.3348214285714,206.5,566.4285714285714,544.3348214285714,306.7,566.4285714285714,545.3348214285714,412.6,602.4285714285714,636.3348214285714,517.7,939.4285714285714,1084.3348214285713,621.6,990.4285714285714,1082.3348214285713,721.6,991.4285714285714,1025.3348214285713,821.6,991.4285714285714,1022.3348214285714,922.3,1070.4285714285713,1006.3348214285714,1026.5,1599.4285714285713,907.3348214285714,1126.7,1768.4285714285713,851.3348214285714,1227.4,1768.4285714285713,851.3348214285714,1331.8,1768.4285714285713,851.3348214285714,1432.4,1768.4285714285713,851.3348214285714,1536.8,1768.4285714285713,851.3348214285714,1637.4,1768.4285714285713,851.3348214285714,1737.4,1768.4285714285713,851.3348214285714,1841.4,1768.4285714285713,851.3348214285714,1941.7,1768.4285714285713,851.3348214285714,2042.3,1768.4285714285713,851.3348214285714,2142.3,1768.4285714285713,851.3348214285714,2246.9,1768.4285714285713,851.3348214285714,2351.4,1768.4285714285713,851.3348214285714,2452.3,1768.4285714285713,851.3348214285714,2557.5,1768.4285714285713,851.3348214285714,2661.7,1768.4285714285713,851.3348214285714,2762.2,1768.4285714285713,851.3348214285714,2862.3,1768.4285714285713,851.3348214285714,2967.5,1768.4285714285713,851.3348214285714,3072.1,1768.4285714285713,851.3348214285714,3172.1,1768.4285714285713,851.3348214285714,3277.8,1768.4285714285713,851.3348214285714,3381.8,1768.4285714285713,851.3348214285714,3482.3,1768.4285714285713,851.3348214285714,3586.9,1768.4285714285713,851.3348214285714,3691.5,1768.4285714285713,851.3348214285714,3791.9,1768.4285714285713,851.3348214285714,3892.7,1768.4285714285713,851.3348214285714,3996.7,1768.4285714285713,851.3348214285714,4097.6,1768.4285714285713,851.3348214285714,4201.8,1768.4285714285713,851.3348214285714,4307.2,1768.4285714285713,851.3348214285714,4412,1768.4285714285713,851.3348214285714,4512.4,1768.4285714285713,851.3348214285714,4616.9,1768.4285714285713,851.3348214285714,4717.2,1768.4285714285713,851.3348214285714,4822.5,1768.4285714285713,851.3348214285714,4926.7]","[1272.4,1272.4,1000,0,272.4,""oops"",""down"",""right"",""good_move"",4579.3,3306.7,2996.4,1272.6,310.3,""oops"",""down"",""up"",""bad_move"",11473.5,6894,2679.8,8500.2,293.5,""smooth"",""down"",""down"",""good_move"",17976.5,6502.8,2862.8,14834.8,278.9,""smooth"",""down"",""down"",""good_move"",20903.3,2926.7,2632.6,17976.7,294.1,""oops"",""right"",""right"",""good_move"",23368.3,2464.9,2122.9,20903.5,342,""oops"",""down"",""right"",""good_move"",25393.3,2024.9,1644.9,23368.4,380,""oops"",""down"",""left"",""bad_move"",28111.4,2717.9,2463.8,25393.5,254.1,""oops"",""down"",""up"",""bad_move"",31205.1,3093.5,2824.1,28111.6,269.4,""while_blue"",""down"",""left"",""bad_move"",38286.5,7081.1,2986.1,34980.3,320.1,""oops"",""right"",""up"",""bad_move""]","",""
"2114","","<div style=""width:500px;"">
  <p>What determined the result of this run?</p>
  </div>","0","html-slider-response","50","666098","0.0-5.0-1.8","80","1","2025-07-16 08:40:40","1f75c3e559b7213887762d5229550c2b","94.134.108.176","Mozilla/5.0 (Windows NT 10.0; Win64; x64) AppleWebKit/537.36 (KHTML, like Gecko) Chrome/138.0.0.0 Safari/537.36","WebKit","Chrome","138.0.0.0","Windows","10.0","https://app.prolific.com/","de-DE,de;q=0.9,en-DE;q=0.8,en;q=0.7,es-ES;q=0.6,es;q=0.5,en-US;q=0.4","646219bb0b91a6f3327e39fb","68764874ac79eee8c1d4cb03","687763e3256f9c7e313b4f59","2","0","646219bb0b91a6f3327e39fb","2","0","2025-07-16T08:51:46.070Z","","","","","","","","","","","AttribQ","","50","","","","","","","","","","","","","","","","","","","","","","","","","","","","",""
"1658","","<div style=""width:500px;"">
  <p>How much control did you have over the ball?</p>
  </div>","0","html-slider-response","51","667757","0.0-5.0-2.8","80","1","2025-07-16 08:40:40","1f75c3e559b7213887762d5229550c2b","94.134.108.176","Mozilla/5.0 (Windows NT 10.0; Win64; x64) AppleWebKit/537.36 (KHTML, like Gecko) Chrome/138.0.0.0 Safari/537.36","WebKit","Chrome","138.0.0.0","Windows","10.0","https://app.prolific.com/","de-DE,de;q=0.9,en-DE;q=0.8,en;q=0.7,es-ES;q=0.6,es;q=0.5,en-US;q=0.4","646219bb0b91a6f3327e39fb","68764874ac79eee8c1d4cb03","687763e3256f9c7e313b4f59","2","0","646219bb0b91a6f3327e39fb","2","0","2025-07-16T08:51:47.729Z","","","","","","","","","","","ControlQ","","50","","","","","","","","","","","","","","","","","","","","","","","","","","","","",""
"1394","","<div style=""width:500px;"">
  <p>How would you describe your current emotional state?</p>
  </div>","100","html-slider-response","52","669152","0.0-5.0-3.8","80","1","2025-07-16 08:40:40","1f75c3e559b7213887762d5229550c2b","94.134.108.176","Mozilla/5.0 (Windows NT 10.0; Win64; x64) AppleWebKit/537.36 (KHTML, like Gecko) Chrome/138.0.0.0 Safari/537.36","WebKit","Chrome","138.0.0.0","Windows","10.0","https://app.prolific.com/","de-DE,de;q=0.9,en-DE;q=0.8,en;q=0.7,es-ES;q=0.6,es;q=0.5,en-US;q=0.4","646219bb0b91a6f3327e39fb","68764874ac79eee8c1d4cb03","687763e3256f9c7e313b4f59","2","0","646219bb0b91a6f3327e39fb","2","0","2025-07-16T08:51:49.124Z","","","","","","","","","","","StressQ","","50","","","","","","","","","","","","","","","","","","","","","","","","","","","","",""
"2321","","<div style=""width:500px;"">
  <p>What best describes how you currently feel?</p>
  </div>","0","html-slider-response","53","671474","0.0-5.0-4.8","80","1","2025-07-16 08:40:40","1f75c3e559b7213887762d5229550c2b","94.134.108.176","Mozilla/5.0 (Windows NT 10.0; Win64; x64) AppleWebKit/537.36 (KHTML, like Gecko) Chrome/138.0.0.0 Safari/537.36","WebKit","Chrome","138.0.0.0","Windows","10.0","https://app.prolific.com/","de-DE,de;q=0.9,en-DE;q=0.8,en;q=0.7,es-ES;q=0.6,es;q=0.5,en-US;q=0.4","646219bb0b91a6f3327e39fb","68764874ac79eee8c1d4cb03","687763e3256f9c7e313b4f59","2","0","646219bb0b91a6f3327e39fb","2","0","2025-07-16T08:51:51.446Z","","","","","","","","","","","MotivationQ","","50","","","","","","","","","","","","","","","","","","","","","","","","","","","","",""
"","","","","ctl-task-cpt","54","695608","0.0-5.0-0.9","80","1","2025-07-16 08:40:40","1f75c3e559b7213887762d5229550c2b","94.134.108.176","Mozilla/5.0 (Windows NT 10.0; Win64; x64) AppleWebKit/537.36 (KHTML, like Gecko) Chrome/138.0.0.0 Safari/537.36","WebKit","Chrome","138.0.0.0","Windows","10.0","https://app.prolific.com/","de-DE,de;q=0.9,en-DE;q=0.8,en;q=0.7,es-ES;q=0.6,es;q=0.5,en-US;q=0.4","646219bb0b91a6f3327e39fb","68764874ac79eee8c1d4cb03","687763e3256f9c7e313b4f59","2","0","646219bb0b91a6f3327e39fb","2","0","2025-07-16T08:52:15.580Z","","","","","","","","","","","","","","win-only","3","g1:SW,g2:NE","0.4","10","0","672794.1","538","5540.6","21116.3","1","4","8","6","1","1","1","3","2","0.022727272727272728","763.3","3000","1420","[""down"",""left""]","{""num_key_presses"":6,""num_perfect"":2,""num_errors"":0,""num_randdir"":4,""num_randdir_good_moves"":3,""num_whilered"":0,""num_whileblue"":0,""num_blue"":0,""num_good_moves"":5}","[546.4285714285714,565.3348214285714,0.1,546.4285714285714,565.3348214285714,103.6,545.4285714285714,565.3348214285714,208.1,544.4285714285714,565.3348214285714,312.4,531.4285714285714,576.3348214285714,412.7,472.42857142857144,654.3348214285714,514,263.42857142857144,910.3348214285714,618,174.42857142857144,979.3348214285714,722.7,145.42857142857144,996.3348214285714,828.1,185.42857142857144,969.3348214285714,933.2,1051.4285714285713,826.3348214285714,1038.2,1834.4285714285713,784.3348214285714,1138.5,1834.4285714285713,778.3348214285714,1243,1834.4285714285713,778.3348214285714,1347.8,1834.4285714285713,778.3348214285714,1448.4,1834.4285714285713,778.3348214285714,1548.5,1834.4285714285713,778.3348214285714,1649.6,1834.4285714285713,778.3348214285714,1752.8,1834.4285714285713,778.3348214285714,1853.3,1834.4285714285713,778.3348214285714,1958.4,1834.4285714285713,778.3348214285714,2062.7,1834.4285714285713,778.3348214285714,2168.3,1834.4285714285713,778.3348214285714,2274,1834.4285714285713,778.3348214285714,2378.3,1834.4285714285713,778.3348214285714,2478.4,1834.4285714285713,778.3348214285714,2582.3,1834.4285714285713,778.3348214285714,2682.8,1834.4285714285713,778.3348214285714,2788.2,1834.4285714285713,778.3348214285714,2888.3,1834.4285714285713,778.3348214285714,2992.3,1834.4285714285713,778.3348214285714,3092.3,1834.4285714285713,778.3348214285714,3193.2,1834.4285714285713,778.3348214285714,3297.4,1834.4285714285713,778.3348214285714,3397.8,1834.4285714285713,778.3348214285714,3498.4,1834.4285714285713,778.3348214285714,3602.9,1834.4285714285713,778.3348214285714,3707.8,1834.4285714285713,778.3348214285714,3808,1834.4285714285713,778.3348214285714,3912.6,1834.4285714285713,778.3348214285714,4013,1834.4285714285713,778.3348214285714,4113.2,1834.4285714285713,778.3348214285714,4213.5,1834.4285714285713,778.3348214285714,4317.8,1834.4285714285713,778.3348214285714,4422.9,1834.4285714285713,778.3348214285714,4523.2,1834.4285714285713,778.3348214285714,4627.4,1834.4285714285713,778.3348214285714,4728.6,1834.4285714285713,778.3348214285714,4832.9,1834.4285714285713,778.3348214285714,4933]","[1257.5,1257.5,1000,0,257.5,""smooth"",""down"",""down"",""good_move"",4111.6,2854,2561.2,1257.7,292.8,""oops"",""left"",""down"",""good_move"",6546.1,2434.3,2170.6,4111.8,263.7,""smooth"",""left"",""left"",""good_move"",9629.1,3082.8,2800.9,6546.3,281.9,""oops"",""left"",""right"",""bad_move"",12880.1,3250.7,2991.3,9629.4,259.4,""oops"",""left"",""left"",""good_move"",15490.3,2610,2353.9,12880.3,256.1,""oops"",""left"",""left"",""good_move""]","",""
"2528","","<div style=""width:500px;"">
  <p>What determined the result of this run?</p>
  </div>","6","html-slider-response","55","698137","0.0-5.0-1.9","80","1","2025-07-16 08:40:40","1f75c3e559b7213887762d5229550c2b","94.134.108.176","Mozilla/5.0 (Windows NT 10.0; Win64; x64) AppleWebKit/537.36 (KHTML, like Gecko) Chrome/138.0.0.0 Safari/537.36","WebKit","Chrome","138.0.0.0","Windows","10.0","https://app.prolific.com/","de-DE,de;q=0.9,en-DE;q=0.8,en;q=0.7,es-ES;q=0.6,es;q=0.5,en-US;q=0.4","646219bb0b91a6f3327e39fb","68764874ac79eee8c1d4cb03","687763e3256f9c7e313b4f59","2","0","646219bb0b91a6f3327e39fb","2","0","2025-07-16T08:52:18.109Z","","","","","","","","","","","AttribQ","","50","","","","","","","","","","","","","","","","","","","","","","","","","","","","",""
"3892","","<div style=""width:500px;"">
  <p>How much control did you have over the ball?</p>
  </div>","57","html-slider-response","56","702030","0.0-5.0-2.9","80","1","2025-07-16 08:40:40","1f75c3e559b7213887762d5229550c2b","94.134.108.176","Mozilla/5.0 (Windows NT 10.0; Win64; x64) AppleWebKit/537.36 (KHTML, like Gecko) Chrome/138.0.0.0 Safari/537.36","WebKit","Chrome","138.0.0.0","Windows","10.0","https://app.prolific.com/","de-DE,de;q=0.9,en-DE;q=0.8,en;q=0.7,es-ES;q=0.6,es;q=0.5,en-US;q=0.4","646219bb0b91a6f3327e39fb","68764874ac79eee8c1d4cb03","687763e3256f9c7e313b4f59","2","0","646219bb0b91a6f3327e39fb","2","0","2025-07-16T08:52:22.002Z","","","","","","","","","","","ControlQ","","50","","","","","","","","","","","","","","","","","","","","","","","","","","","","",""
"2048","","<div style=""width:500px;"">
  <p>How would you describe your current emotional state?</p>
  </div>","100","html-slider-response","57","704079","0.0-5.0-3.9","80","1","2025-07-16 08:40:40","1f75c3e559b7213887762d5229550c2b","94.134.108.176","Mozilla/5.0 (Windows NT 10.0; Win64; x64) AppleWebKit/537.36 (KHTML, like Gecko) Chrome/138.0.0.0 Safari/537.36","WebKit","Chrome","138.0.0.0","Windows","10.0","https://app.prolific.com/","de-DE,de;q=0.9,en-DE;q=0.8,en;q=0.7,es-ES;q=0.6,es;q=0.5,en-US;q=0.4","646219bb0b91a6f3327e39fb","68764874ac79eee8c1d4cb03","687763e3256f9c7e313b4f59","2","0","646219bb0b91a6f3327e39fb","2","0","2025-07-16T08:52:24.051Z","","","","","","","","","","","StressQ","","50","","","","","","","","","","","","","","","","","","","","","","","","","","","","",""
"1715","","<div style=""width:500px;"">
  <p>What best describes how you currently feel?</p>
  </div>","1","html-slider-response","58","705795","0.0-5.0-4.9","80","1","2025-07-16 08:40:40","1f75c3e559b7213887762d5229550c2b","94.134.108.176","Mozilla/5.0 (Windows NT 10.0; Win64; x64) AppleWebKit/537.36 (KHTML, like Gecko) Chrome/138.0.0.0 Safari/537.36","WebKit","Chrome","138.0.0.0","Windows","10.0","https://app.prolific.com/","de-DE,de;q=0.9,en-DE;q=0.8,en;q=0.7,es-ES;q=0.6,es;q=0.5,en-US;q=0.4","646219bb0b91a6f3327e39fb","68764874ac79eee8c1d4cb03","687763e3256f9c7e313b4f59","2","0","646219bb0b91a6f3327e39fb","2","0","2025-07-16T08:52:25.767Z","","","","","","","","","","","MotivationQ","","50","","","","","","","","","","","","","","","","","","","","","","","","","","","","",""
"","","","","ctl-task-cpt","59","751213","0.0-5.0-0.10","80","1","2025-07-16 08:40:40","1f75c3e559b7213887762d5229550c2b","94.134.108.176","Mozilla/5.0 (Windows NT 10.0; Win64; x64) AppleWebKit/537.36 (KHTML, like Gecko) Chrome/138.0.0.0 Safari/537.36","WebKit","Chrome","138.0.0.0","Windows","10.0","https://app.prolific.com/","de-DE,de;q=0.9,en-DE;q=0.8,en;q=0.7,es-ES;q=0.6,es;q=0.5,en-US;q=0.4","646219bb0b91a6f3327e39fb","68764874ac79eee8c1d4cb03","687763e3256f9c7e313b4f59","2","0","646219bb0b91a6f3327e39fb","2","0","2025-07-16T08:53:11.185Z","","","","","","","","","","","","","","win-only","2","g1:SE,g2:NW","0.5","11","0","707114.9","765.8","5770.7","42400.7","1","4","8","6","1","-1","-3","0","3","0","771.5","3000","-3015","[""down"",""right""]","{""num_key_presses"":11,""num_perfect"":5,""num_errors"":2,""num_randdir"":4,""num_randdir_good_moves"":1,""num_whilered"":0,""num_whileblue"":2,""num_blue"":3,""num_good_moves"":6}","[555.4285714285714,559.3348214285714,0.1,555.4285714285714,559.3348214285714,105.2,555.4285714285714,559.3348214285714,205.6,556.4285714285714,566.3348214285714,309.8,597.4285714285714,657.3348214285714,409.7,566.4285714285714,672.3348214285714,509.9,824.4285714285714,897.3348214285714,610.6,1031.4285714285713,1045.3348214285713,714.9,1037.4285714285713,1045.3348214285713,815.2,1041.4285714285713,1035.3348214285713,920.2,1216.4285714285713,991.3348214285714,1020.9,1499.4285714285713,922.3348214285714,1124.8,1499.4285714285713,922.3348214285714,1230.2,1499.4285714285713,922.3348214285714,1334.5,1499.4285714285713,922.3348214285714,1439.9,1499.4285714285713,922.3348214285714,1544.6,1499.4285714285713,922.3348214285714,1645.2,1499.4285714285713,922.3348214285714,1749.7,1499.4285714285713,922.3348214285714,1849.8,1499.4285714285713,922.3348214285714,1950.4,1499.4285714285713,922.3348214285714,2050.4,1499.4285714285713,922.3348214285714,2155.2,1499.4285714285713,922.3348214285714,2255.5,1499.4285714285713,922.3348214285714,2360.1,1499.4285714285713,922.3348214285714,2460.2,1499.4285714285713,922.3348214285714,2564.4,1499.4285714285713,922.3348214285714,2664.8,1499.4285714285713,922.3348214285714,2766,1499.4285714285713,922.3348214285714,2870.1,1499.4285714285713,922.3348214285714,2975.3,1499.4285714285713,922.3348214285714,3079.3,1499.4285714285713,922.3348214285714,3180,1499.4285714285713,922.3348214285714,3280,1499.4285714285713,922.3348214285714,3380.9,1499.4285714285713,922.3348214285714,3485.1,1499.4285714285713,922.3348214285714,3590.1,1499.4285714285713,922.3348214285714,3694.4,1499.4285714285713,922.3348214285714,3794.7,1499.4285714285713,922.3348214285714,3900.1,1499.4285714285713,922.3348214285714,4004.4,1499.4285714285713,922.3348214285714,4104.6,1499.4285714285713,922.3348214285714,4204.7,1499.4285714285713,922.3348214285714,4310.1,1499.4285714285713,922.3348214285714,4410.1,1499.4285714285713,922.3348214285714,4514.4,1499.4285714285713,922.3348214285714,4614.5,1499.4285714285713,922.3348214285714,4720.2,1499.4285714285713,922.3348214285714,4824.8,1499.4285714285713,922.3348214285714,4929.7]","[1285.1,1285.1,1000,0,285.1,""smooth"",""down"",""down"",""good_move"",4432.2,3146.9,2837,1285.3,309.9,""oops"",""right"",""down"",""good_move"",7611.2,3178.9,2905.8,4432.3,273.1,""oops"",""right"",""left"",""bad_move"",10537,2925.6,2620.9,7611.4,304.7,""smooth"",""right"",""right"",""good_move"",13711.9,3174.7,2908.4,10537.2,266.3,""oops"",""right"",""up"",""bad_move"",15950.3,2238.2,1901.2,13712.1,337,""oops"",""right"",""up"",""bad_move"",18964.2,3013.8,2749.3,15950.4,264.5,""while_blue"",""right"",""left"",""bad_move"",22066.9,3102.4,2785.3,18964.5,317.1,""smooth"",""down"",""down"",""good_move"",24220.9,2153.8,1867.4,22067.1,286.4,""smooth"",""right"",""right"",""good_move"",26583.2,2362.1,2078.7,24221.1,283.4,""while_blue"",""right"",""up"",""bad_move"",29985,3401.6,3123.4,26583.4,278.2,""smooth"",""down"",""down"",""good_move""]","",""
"3642","","<div style=""width:500px;"">
  <p>What determined the result of this run?</p>
  </div>","5","html-slider-response","60","754856","0.0-5.0-1.10","80","1","2025-07-16 08:40:40","1f75c3e559b7213887762d5229550c2b","94.134.108.176","Mozilla/5.0 (Windows NT 10.0; Win64; x64) AppleWebKit/537.36 (KHTML, like Gecko) Chrome/138.0.0.0 Safari/537.36","WebKit","Chrome","138.0.0.0","Windows","10.0","https://app.prolific.com/","de-DE,de;q=0.9,en-DE;q=0.8,en;q=0.7,es-ES;q=0.6,es;q=0.5,en-US;q=0.4","646219bb0b91a6f3327e39fb","68764874ac79eee8c1d4cb03","687763e3256f9c7e313b4f59","2","0","646219bb0b91a6f3327e39fb","2","0","2025-07-16T08:53:14.828Z","","","","","","","","","","","AttribQ","","50","","","","","","","","","","","","","","","","","","","","","","","","","","","","",""
"2140","","<div style=""width:500px;"">
  <p>How much control did you have over the ball?</p>
  </div>","2","html-slider-response","61","756997","0.0-5.0-2.10","80","1","2025-07-16 08:40:40","1f75c3e559b7213887762d5229550c2b","94.134.108.176","Mozilla/5.0 (Windows NT 10.0; Win64; x64) AppleWebKit/537.36 (KHTML, like Gecko) Chrome/138.0.0.0 Safari/537.36","WebKit","Chrome","138.0.0.0","Windows","10.0","https://app.prolific.com/","de-DE,de;q=0.9,en-DE;q=0.8,en;q=0.7,es-ES;q=0.6,es;q=0.5,en-US;q=0.4","646219bb0b91a6f3327e39fb","68764874ac79eee8c1d4cb03","687763e3256f9c7e313b4f59","2","0","646219bb0b91a6f3327e39fb","2","0","2025-07-16T08:53:16.969Z","","","","","","","","","","","ControlQ","","50","","","","","","","","","","","","","","","","","","","","","","","","","","","","",""
"1719","","<div style=""width:500px;"">
  <p>How would you describe your current emotional state?</p>
  </div>","100","html-slider-response","62","758717","0.0-5.0-3.10","80","1","2025-07-16 08:40:40","1f75c3e559b7213887762d5229550c2b","94.134.108.176","Mozilla/5.0 (Windows NT 10.0; Win64; x64) AppleWebKit/537.36 (KHTML, like Gecko) Chrome/138.0.0.0 Safari/537.36","WebKit","Chrome","138.0.0.0","Windows","10.0","https://app.prolific.com/","de-DE,de;q=0.9,en-DE;q=0.8,en;q=0.7,es-ES;q=0.6,es;q=0.5,en-US;q=0.4","646219bb0b91a6f3327e39fb","68764874ac79eee8c1d4cb03","687763e3256f9c7e313b4f59","2","0","646219bb0b91a6f3327e39fb","2","0","2025-07-16T08:53:18.689Z","","","","","","","","","","","StressQ","","50","","","","","","","","","","","","","","","","","","","","","","","","","","","","",""
"1341","","<div style=""width:500px;"">
  <p>What best describes how you currently feel?</p>
  </div>","2","html-slider-response","63","760059","0.0-5.0-4.10","80","1","2025-07-16 08:40:40","1f75c3e559b7213887762d5229550c2b","94.134.108.176","Mozilla/5.0 (Windows NT 10.0; Win64; x64) AppleWebKit/537.36 (KHTML, like Gecko) Chrome/138.0.0.0 Safari/537.36","WebKit","Chrome","138.0.0.0","Windows","10.0","https://app.prolific.com/","de-DE,de;q=0.9,en-DE;q=0.8,en;q=0.7,es-ES;q=0.6,es;q=0.5,en-US;q=0.4","646219bb0b91a6f3327e39fb","68764874ac79eee8c1d4cb03","687763e3256f9c7e313b4f59","2","0","646219bb0b91a6f3327e39fb","2","0","2025-07-16T08:53:20.031Z","","","","","","","","","","","MotivationQ","","50","","","","","","","","","","","","","","","","","","","","","","","","","","","","",""
"","","","","ctl-task-cpt","64","802024","0.0-5.0-0.11","80","1","2025-07-16 08:40:40","1f75c3e559b7213887762d5229550c2b","94.134.108.176","Mozilla/5.0 (Windows NT 10.0; Win64; x64) AppleWebKit/537.36 (KHTML, like Gecko) Chrome/138.0.0.0 Safari/537.36","WebKit","Chrome","138.0.0.0","Windows","10.0","https://app.prolific.com/","de-DE,de;q=0.9,en-DE;q=0.8,en;q=0.7,es-ES;q=0.6,es;q=0.5,en-US;q=0.4","646219bb0b91a6f3327e39fb","68764874ac79eee8c1d4cb03","687763e3256f9c7e313b4f59","2","0","646219bb0b91a6f3327e39fb","2","0","2025-07-16T08:54:01.996Z","","","","","","","","","","","","","","win-only","3","g1:SW,g2:NE","0.6","12","0","761378.7","493.7","5495.7","38946.5","1","4","4","6","1","1","0","0","0","0","638.8","3000","575","[""down"",""left""]","{""num_key_presses"":9,""num_perfect"":5,""num_errors"":1,""num_randdir"":3,""num_randdir_good_moves"":1,""num_whilered"":0,""num_whileblue"":0,""num_blue"":3,""num_good_moves"":6}","[564.4285714285714,556.3348214285714,0,564.4285714285714,555.3348214285714,102.9,558.4285714285714,551.3348214285714,207.1,557.4285714285714,551.3348214285714,307.9,382.42857142857144,715.3348214285714,412.5,95.42857142857143,1005.3348214285714,516.7,21.42857142857143,1088.3348214285713,622.4,21.42857142857143,1088.3348214285713,727.1,67.42857142857143,1058.3348214285713,827.5,154.42857142857144,1038.3348214285713,932,1086.4285714285713,1007.3348214285714,1032.3,1584.4285714285713,1072.3348214285713,1136.9,1603.4285714285713,1070.3348214285713,1237.3,1603.4285714285713,1070.3348214285713,1338.1,1603.4285714285713,1070.3348214285713,1442.9,1603.4285714285713,1070.3348214285713,1547.2,1603.4285714285713,1070.3348214285713,1647.2,1603.4285714285713,1070.3348214285713,1747.3,1603.4285714285713,1070.3348214285713,1848,1603.4285714285713,1070.3348214285713,1952.6,1603.4285714285713,1070.3348214285713,2056.9,1603.4285714285713,1070.3348214285713,2157,1603.4285714285713,1070.3348214285713,2262.3,1603.4285714285713,1070.3348214285713,2362.5,1603.4285714285713,1070.3348214285713,2463.7,1603.4285714285713,1070.3348214285713,2567,1603.4285714285713,1070.3348214285713,2667.1,1603.4285714285713,1070.3348214285713,2767.1,1603.4285714285713,1070.3348214285713,2867.5,1603.4285714285713,1070.3348214285713,2972.6,1603.4285714285713,1070.3348214285713,3077.4,1603.4285714285713,1070.3348214285713,3182.2,1603.4285714285713,1070.3348214285713,3282.3,1603.4285714285713,1070.3348214285713,3386.8,1603.4285714285713,1070.3348214285713,3491.6,1603.4285714285713,1070.3348214285713,3592.5,1603.4285714285713,1070.3348214285713,3697,1603.4285714285713,1070.3348214285713,3803.5,1603.4285714285713,1070.3348214285713,3907.3,1603.4285714285713,1070.3348214285713,4011.9,1603.4285714285713,1070.3348214285713,4112.4,1603.4285714285713,1070.3348214285713,4217.2,1603.4285714285713,1070.3348214285713,4322.2,1603.4285714285713,1070.3348214285713,4426.6,1603.4285714285713,1070.3348214285713,4527.3,1603.4285714285713,1070.3348214285713,4631.5,1603.4285714285713,1070.3348214285713,4731.5,1603.4285714285713,1070.3348214285713,4832.5,1603.4285714285713,1070.3348214285713,4938.2]","[1293.2,1293.2,1000,0,293.2,""smooth"",""left"",""left"",""good_move"",8494.2,7200.8,3322.7,4855.2,316.3,""oops"",""left"",""right"",""bad_move"",11589.3,3095,2775.7,8494.3,319.3,""smooth"",""left"",""left"",""good_move"",14291.1,2701.5,2419,11589.6,282.5,""oops"",""down"",""left"",""good_move"",14719.4,428.2,2557.4,14291.2,-2129.2,""error"",""-"",""-"",""no_move"",18001.1,3281.6,1964.3,15720.4,316.4,""smooth"",""down"",""down"",""good_move"",20711.2,2709.9,2396.6,18001.3,313.3,""oops"",""down"",""right"",""bad_move"",26886.3,6174.9,1980.7,24625,280.6,""smooth"",""left"",""left"",""good_move"",33361.2,6474.7,2157.6,30865.9,337.7,""smooth"",""down"",""down"",""good_move""]","",""
"2165","","<div style=""width:500px;"">
  <p>What determined the result of this run?</p>
  </div>","0","html-slider-response","65","804190","0.0-5.0-1.11","80","1","2025-07-16 08:40:40","1f75c3e559b7213887762d5229550c2b","94.134.108.176","Mozilla/5.0 (Windows NT 10.0; Win64; x64) AppleWebKit/537.36 (KHTML, like Gecko) Chrome/138.0.0.0 Safari/537.36","WebKit","Chrome","138.0.0.0","Windows","10.0","https://app.prolific.com/","de-DE,de;q=0.9,en-DE;q=0.8,en;q=0.7,es-ES;q=0.6,es;q=0.5,en-US;q=0.4","646219bb0b91a6f3327e39fb","68764874ac79eee8c1d4cb03","687763e3256f9c7e313b4f59","2","0","646219bb0b91a6f3327e39fb","2","0","2025-07-16T08:54:04.162Z","","","","","","","","","","","AttribQ","","50","","","","","","","","","","","","","","","","","","","","","","","","","","","","",""
"1727","","<div style=""width:500px;"">
  <p>How much control did you have over the ball?</p>
  </div>","8","html-slider-response","66","805918","0.0-5.0-2.11","80","1","2025-07-16 08:40:40","1f75c3e559b7213887762d5229550c2b","94.134.108.176","Mozilla/5.0 (Windows NT 10.0; Win64; x64) AppleWebKit/537.36 (KHTML, like Gecko) Chrome/138.0.0.0 Safari/537.36","WebKit","Chrome","138.0.0.0","Windows","10.0","https://app.prolific.com/","de-DE,de;q=0.9,en-DE;q=0.8,en;q=0.7,es-ES;q=0.6,es;q=0.5,en-US;q=0.4","646219bb0b91a6f3327e39fb","68764874ac79eee8c1d4cb03","687763e3256f9c7e313b4f59","2","0","646219bb0b91a6f3327e39fb","2","0","2025-07-16T08:54:05.890Z","","","","","","","","","","","ControlQ","","50","","","","","","","","","","","","","","","","","","","","","","","","","","","","",""
"1889","","<div style=""width:500px;"">
  <p>How would you describe your current emotional state?</p>
  </div>","100","html-slider-response","67","807808","0.0-5.0-3.11","80","1","2025-07-16 08:40:40","1f75c3e559b7213887762d5229550c2b","94.134.108.176","Mozilla/5.0 (Windows NT 10.0; Win64; x64) AppleWebKit/537.36 (KHTML, like Gecko) Chrome/138.0.0.0 Safari/537.36","WebKit","Chrome","138.0.0.0","Windows","10.0","https://app.prolific.com/","de-DE,de;q=0.9,en-DE;q=0.8,en;q=0.7,es-ES;q=0.6,es;q=0.5,en-US;q=0.4","646219bb0b91a6f3327e39fb","68764874ac79eee8c1d4cb03","687763e3256f9c7e313b4f59","2","0","646219bb0b91a6f3327e39fb","2","0","2025-07-16T08:54:07.780Z","","","","","","","","","","","StressQ","","50","","","","","","","","","","","","","","","","","","","","","","","","","","","","",""
"1159","","<div style=""width:500px;"">
  <p>What best describes how you currently feel?</p>
  </div>","0","html-slider-response","68","808968","0.0-5.0-4.11","80","1","2025-07-16 08:40:40","1f75c3e559b7213887762d5229550c2b","94.134.108.176","Mozilla/5.0 (Windows NT 10.0; Win64; x64) AppleWebKit/537.36 (KHTML, like Gecko) Chrome/138.0.0.0 Safari/537.36","WebKit","Chrome","138.0.0.0","Windows","10.0","https://app.prolific.com/","de-DE,de;q=0.9,en-DE;q=0.8,en;q=0.7,es-ES;q=0.6,es;q=0.5,en-US;q=0.4","646219bb0b91a6f3327e39fb","68764874ac79eee8c1d4cb03","687763e3256f9c7e313b4f59","2","0","646219bb0b91a6f3327e39fb","2","0","2025-07-16T08:54:08.940Z","","","","","","","","","","","MotivationQ","","50","","","","","","","","","","","","","","","","","","","","","","","","","","","","",""
"","","","","ctl-task-cpt","69","839612","0.0-5.0-0.12","80","1","2025-07-16 08:40:40","1f75c3e559b7213887762d5229550c2b","94.134.108.176","Mozilla/5.0 (Windows NT 10.0; Win64; x64) AppleWebKit/537.36 (KHTML, like Gecko) Chrome/138.0.0.0 Safari/537.36","WebKit","Chrome","138.0.0.0","Windows","10.0","https://app.prolific.com/","de-DE,de;q=0.9,en-DE;q=0.8,en;q=0.7,es-ES;q=0.6,es;q=0.5,en-US;q=0.4","646219bb0b91a6f3327e39fb","68764874ac79eee8c1d4cb03","687763e3256f9c7e313b4f59","2","0","646219bb0b91a6f3327e39fb","2","0","2025-07-16T08:54:39.584Z","","","","","","","","","","","","","","win-only","3","g1:SW,g2:NE","0.7","13","0","810287.5","890.4","5891.2","27625.7","1","4","8","6","1","1","1","1","0","0.007575757575757576","631.7","3000","1135","[""down"",""left""]","{""num_key_presses"":6,""num_perfect"":4,""num_errors"":0,""num_randdir"":2,""num_randdir_good_moves"":1,""num_whilered"":0,""num_whileblue"":0,""num_blue"":2,""num_good_moves"":5}","[550.4285714285714,557.3348214285714,0.1,550.4285714285714,557.3348214285714,105,550.4285714285714,557.3348214285714,210.5,527.4285714285714,626.3348214285714,310.6,409.42857142857144,775.3348214285714,411.5,226.42857142857144,948.3348214285714,515.7,118.42857142857143,1041.3348214285713,619.8,118.42857142857143,1041.3348214285713,719.8,148.42857142857144,1031.3348214285713,821,806.4285714285714,1088.3348214285713,924.9,1594.4285714285713,1251.3348214285713,1024.9,1643.4285714285713,1253.3348214285713,1125.8,1643.4285714285713,1253.3348214285713,1230.5,1643.4285714285713,1253.3348214285713,1335.5,1643.4285714285713,1253.3348214285713,1435.8,1643.4285714285713,1253.3348214285713,1540,1643.4285714285713,1253.3348214285713,1640.4,1643.4285714285713,1253.3348214285713,1745.6,1643.4285714285713,1253.3348214285713,1849.8,1643.4285714285713,1253.3348214285713,1950,1643.4285714285713,1253.3348214285713,2050.4,1643.4285714285713,1253.3348214285713,2154.8,1643.4285714285713,1253.3348214285713,2256.3,1643.4285714285713,1253.3348214285713,2360.1,1643.4285714285713,1253.3348214285713,2465.7,1643.4285714285713,1253.3348214285713,2565.7,1643.4285714285713,1253.3348214285713,2666.4,1643.4285714285713,1253.3348214285713,2770.4,1643.4285714285713,1253.3348214285713,2875.6,1643.4285714285713,1253.3348214285713,2980.5,1643.4285714285713,1253.3348214285713,3085.6,1643.4285714285713,1253.3348214285713,3190.3,1643.4285714285713,1253.3348214285713,3295.5,1643.4285714285713,1253.3348214285713,3399.7,1643.4285714285713,1253.3348214285713,3500.5,1643.4285714285713,1253.3348214285713,3600.6,1643.4285714285713,1253.3348214285713,3704.9,1643.4285714285713,1253.3348214285713,3805.3,1643.4285714285713,1253.3348214285713,3905.8,1643.4285714285713,1253.3348214285713,4010.5,1643.4285714285713,1253.3348214285713,4115.1,1643.4285714285713,1253.3348214285713,4215.3,1643.4285714285713,1253.3348214285713,4315.6,1643.4285714285713,1253.3348214285713,4420.6,1643.4285714285713,1253.3348214285713,4524.9,1643.4285714285713,1253.3348214285713,4625.6,1643.4285714285713,1253.3348214285713,4730.8,1643.4285714285713,1253.3348214285713,4835.2,1643.4285714285713,1253.3348214285713,4940.6]","[1323.5,1323.5,1000,0,323.5,""smooth"",""left"",""left"",""good_move"",4414,3090.3,2794.3,1323.7,296,""smooth"",""down"",""down"",""good_move"",10726.7,6312.5,2701.5,7698.9,326.3,""oops"",""left"",""right"",""bad_move"",16311.8,5585,2313.8,13694.6,303.4,""smooth"",""left"",""left"",""good_move"",18692.6,2380.6,2025.3,16312,355.3,""oops"",""left"",""down"",""good_move"",21647.9,2955.2,2659.6,18692.7,295.6,""smooth"",""left"",""left"",""good_move""]","",""
"1552","","<div style=""width:500px;"">
  <p>What determined the result of this run?</p>
  </div>","1","html-slider-response","70","841165","0.0-5.0-1.12","80","1","2025-07-16 08:40:40","1f75c3e559b7213887762d5229550c2b","94.134.108.176","Mozilla/5.0 (Windows NT 10.0; Win64; x64) AppleWebKit/537.36 (KHTML, like Gecko) Chrome/138.0.0.0 Safari/537.36","WebKit","Chrome","138.0.0.0","Windows","10.0","https://app.prolific.com/","de-DE,de;q=0.9,en-DE;q=0.8,en;q=0.7,es-ES;q=0.6,es;q=0.5,en-US;q=0.4","646219bb0b91a6f3327e39fb","68764874ac79eee8c1d4cb03","687763e3256f9c7e313b4f59","2","0","646219bb0b91a6f3327e39fb","2","0","2025-07-16T08:54:41.137Z","","","","","","","","","","","AttribQ","","50","","","","","","","","","","","","","","","","","","","","","","","","","","","","",""
"1307","","<div style=""width:500px;"">
  <p>How much control did you have over the ball?</p>
  </div>","16","html-slider-response","71","842473","0.0-5.0-2.12","80","1","2025-07-16 08:40:40","1f75c3e559b7213887762d5229550c2b","94.134.108.176","Mozilla/5.0 (Windows NT 10.0; Win64; x64) AppleWebKit/537.36 (KHTML, like Gecko) Chrome/138.0.0.0 Safari/537.36","WebKit","Chrome","138.0.0.0","Windows","10.0","https://app.prolific.com/","de-DE,de;q=0.9,en-DE;q=0.8,en;q=0.7,es-ES;q=0.6,es;q=0.5,en-US;q=0.4","646219bb0b91a6f3327e39fb","68764874ac79eee8c1d4cb03","687763e3256f9c7e313b4f59","2","0","646219bb0b91a6f3327e39fb","2","0","2025-07-16T08:54:42.445Z","","","","","","","","","","","ControlQ","","50","","","","","","","","","","","","","","","","","","","","","","","","","","","","",""
"1829","","<div style=""width:500px;"">
  <p>How would you describe your current emotional state?</p>
  </div>","100","html-slider-response","72","844303","0.0-5.0-3.12","80","1","2025-07-16 08:40:40","1f75c3e559b7213887762d5229550c2b","94.134.108.176","Mozilla/5.0 (Windows NT 10.0; Win64; x64) AppleWebKit/537.36 (KHTML, like Gecko) Chrome/138.0.0.0 Safari/537.36","WebKit","Chrome","138.0.0.0","Windows","10.0","https://app.prolific.com/","de-DE,de;q=0.9,en-DE;q=0.8,en;q=0.7,es-ES;q=0.6,es;q=0.5,en-US;q=0.4","646219bb0b91a6f3327e39fb","68764874ac79eee8c1d4cb03","687763e3256f9c7e313b4f59","2","0","646219bb0b91a6f3327e39fb","2","0","2025-07-16T08:54:44.275Z","","","","","","","","","","","StressQ","","50","","","","","","","","","","","","","","","","","","","","","","","","","","","","",""
"1469","","<div style=""width:500px;"">
  <p>What best describes how you currently feel?</p>
  </div>","0","html-slider-response","73","845772","0.0-5.0-4.12","80","1","2025-07-16 08:40:40","1f75c3e559b7213887762d5229550c2b","94.134.108.176","Mozilla/5.0 (Windows NT 10.0; Win64; x64) AppleWebKit/537.36 (KHTML, like Gecko) Chrome/138.0.0.0 Safari/537.36","WebKit","Chrome","138.0.0.0","Windows","10.0","https://app.prolific.com/","de-DE,de;q=0.9,en-DE;q=0.8,en;q=0.7,es-ES;q=0.6,es;q=0.5,en-US;q=0.4","646219bb0b91a6f3327e39fb","68764874ac79eee8c1d4cb03","687763e3256f9c7e313b4f59","2","0","646219bb0b91a6f3327e39fb","2","0","2025-07-16T08:54:45.744Z","","","","","","","","","","","MotivationQ","","50","","","","","","","","","","","","","","","","","","","","","","","","","","","","",""
