"rt","response_timestamp","stimulus","response","trial_type","trial_index","time_elapsed","internal_node_id","run_id","condition","recorded_at","source_code_version","ip","user_agent","device","browser","browser_version","platform","platform_version","referer","accept_language","PROLIFIC_PID","STUDY_ID","SESSION_ID","WEEK","BATCH","prolific_id","week","batch","realtime","success","responses","item_order","radio_event_ids","radio_event_times","key_event_times","mouse_event_times","straightlining","zigzagging","honeypot","eventType","view_history","slider_start","which_type","canvas_config","goals_layout","control_level","trial_number","tutorial_trial_number","trial_start_time","phase1_start_time","phase2_start_time","phase3_start_time","goal_1_value","goal_1_distance","goal_2_value","goal_2_distance","goal_selected","outcome","outcome_total","participant_final_score","participant_initial_score","participant_final_score_prop","goal_choice_rt","allocated_time","allocated_time_remaining","goal_direction","counts","mouse_movements","key_presses","question_order","question_id"
"75597","1753864726079","<p style='font-size:40px;line-height:1.25'><strong>Welcome to the experiment!</strong></p><p style='font-size:1.1em;line-height:1.25'>Thank you for participanting in our experiment again! You will be asked to play the Dysfunctional Ball Game again. We will briefly recap the rules before we start.</p><p style='font-size:1.1em;line-height:1.25'>Press <strong>Next</strong> to continue.</p>","0","custom-html-button-response","0","75601","0.0-0.0","254","1","2025-07-30 08:37:33","1f75c3e559b7213887762d5229550c2b","216.120.189.142","Mozilla/5.0 (Windows NT 10.0; Win64; x64) AppleWebKit/537.36 (KHTML, like Gecko) Chrome/138.0.0.0 Safari/537.36","WebKit","Chrome","138.0.0.0","Windows","10.0","https://app.prolific.com/","en-US,en;q=0.9","672c8a3b9fb83ab9c5f02fd2","6877631c9844ddd5501205fc","6889d9c5f0f4e162a312abd9","3","1","672c8a3b9fb83ab9c5f02fd2","3","1","2025-07-30T08:38:46.081Z","","","","","","","","","","","","","","","","","","","","","","","","","","","","","","","","","","","","","","","","","",""
"3309","","","","fullscreen","1","79939","0.0-1.0","254","1","2025-07-30 08:37:33","1f75c3e559b7213887762d5229550c2b","216.120.189.142","Mozilla/5.0 (Windows NT 10.0; Win64; x64) AppleWebKit/537.36 (KHTML, like Gecko) Chrome/138.0.0.0 Safari/537.36","WebKit","Chrome","138.0.0.0","Windows","10.0","https://app.prolific.com/","en-US,en;q=0.9","672c8a3b9fb83ab9c5f02fd2","6877631c9844ddd5501205fc","6889d9c5f0f4e162a312abd9","3","1","672c8a3b9fb83ab9c5f02fd2","3","1","","true","","","","","","","","","","","","","","","","","","","","","","","","","","","","","","","","","","","","","","","","",""
"3627","1753864734048","<p style='font-size:1.1em;line-height:1.25'>In the following, we will ask you a few questions relating to your feelings in the last 24 hours.<br></p><p style='font-size:1.1em;line-height:1.25'>Press the <strong>Next</strong> button to continue.</p>","0","custom-html-button-response","2","83568","0.0-2.0-0.0","254","1","2025-07-30 08:37:33","1f75c3e559b7213887762d5229550c2b","216.120.189.142","Mozilla/5.0 (Windows NT 10.0; Win64; x64) AppleWebKit/537.36 (KHTML, like Gecko) Chrome/138.0.0.0 Safari/537.36","WebKit","Chrome","138.0.0.0","Windows","10.0","https://app.prolific.com/","en-US,en;q=0.9","672c8a3b9fb83ab9c5f02fd2","6877631c9844ddd5501205fc","6889d9c5f0f4e162a312abd9","3","1","672c8a3b9fb83ab9c5f02fd2","3","1","2025-07-30T08:38:54.049Z","","","","","","","","","","","","","","","","","","","","","","","","","","","","","","","","","","","","","","","","","",""
"95891.90000009537","","","","survey-template","3","179471","0.0-2.0-1.0","254","1","2025-07-30 08:37:33","1f75c3e559b7213887762d5229550c2b","216.120.189.142","Mozilla/5.0 (Windows NT 10.0; Win64; x64) AppleWebKit/537.36 (KHTML, like Gecko) Chrome/138.0.0.0 Safari/537.36","WebKit","Chrome","138.0.0.0","Windows","10.0","https://app.prolific.com/","en-US,en;q=0.9","672c8a3b9fb83ab9c5f02fd2","6877631c9844ddd5501205fc","6889d9c5f0f4e162a312abd9","3","1","672c8a3b9fb83ab9c5f02fd2","3","1","2025-07-30T08:40:29.951Z","","{""Q01"":""0"",""Q02"":""0"",""Q03"":""0"",""Q04"":""0"",""Q05"":""1"",""Q06"":""0"",""Q07"":""1"",""Q08"":""0"",""Q09"":""0"",""Q10"":""0"",""Q11"":""1"",""Q12"":""0"",""Q13"":""5"",""Q14"":""2"",""Q15"":""1"",""Q16"":""0"",""Q17"":""0"",""Q18"":""0"",""Q19"":""3"",""Q20"":""0"",""Q21"":""0"",""Q22"":""0""}","[0,1,2,3,4,5,6,7,8,9,10,11,12,13,14,15,16,17,18,19,20,21]","[""Q01"",""Q02"",""Q03"",""Q04"",""Q05"",""Q06"",""Q07"",""Q08"",""Q09"",""Q10"",""Q11"",""Q12"",""Q13"",""Q14"",""Q15"",""Q15"",""Q16"",""Q17"",""Q18"",""Q19"",""Q20"",""Q21"",""Q22""]","[4272.200000047684,6370.400000095367,9318.200000047684,12188.600000143051,20459.700000047684,24514.10000014305,26496,32186.299999952316,33985.10000014305,39499.60000014305,41296.10000014305,47491.5,51083.40000009537,55095.90000009537,59278.10000014305,60807,64710.700000047684,66919.29999995232,68448.5,74285.20000004768,79928.40000009537,88829.10000014305,94070.5]","[]","[0.20000004768371582,4272.200000047684,6370.400000095367,9318.200000047684,12188.600000143051,20459.700000047684,24514.10000014305,26496,29256.5,32186.299999952316,33985.10000014305,39499.60000014305,41296.10000014305,47491.5,51083.40000009537,55095.90000009537,59278.10000014305,60807,64710.700000047684,66919.29999995232,68448.5,74285.20000004768,79928.40000009537,85968.79999995232,88829.10000014305,94070.5,95884.60000014305]","0.6818181818181818","0.42857142857142855","0","drsp","","","","","","","","","","","","","","","","","","","","","","","","","","","","","","",""
"19551.700000047684","","","","survey-template","4","199026","0.0-2.0-2.0","254","1","2025-07-30 08:37:33","1f75c3e559b7213887762d5229550c2b","216.120.189.142","Mozilla/5.0 (Windows NT 10.0; Win64; x64) AppleWebKit/537.36 (KHTML, like Gecko) Chrome/138.0.0.0 Safari/537.36","WebKit","Chrome","138.0.0.0","Windows","10.0","https://app.prolific.com/","en-US,en;q=0.9","672c8a3b9fb83ab9c5f02fd2","6877631c9844ddd5501205fc","6889d9c5f0f4e162a312abd9","3","1","672c8a3b9fb83ab9c5f02fd2","3","1","2025-07-30T08:40:49.506Z","","{""Q01"":""1"",""Q02"":""1"",""Q03"":""1""}","[0,1,2]","[""Q01"",""Q02"",""Q03""]","[4621.299999952316,9141.5,16590.700000047684]","[]","[4621.299999952316,9141.5,16590.700000047684,19549.900000095367]","0.6666666666666666","0","0","stress","","","","","","","","","","","","","","","","","","","","","","","","","","","","","","",""
"3868","","","","instructions","5","202896","0.0-3.0-0.0","254","1","2025-07-30 08:37:33","1f75c3e559b7213887762d5229550c2b","216.120.189.142","Mozilla/5.0 (Windows NT 10.0; Win64; x64) AppleWebKit/537.36 (KHTML, like Gecko) Chrome/138.0.0.0 Safari/537.36","WebKit","Chrome","138.0.0.0","Windows","10.0","https://app.prolific.com/","en-US,en;q=0.9","672c8a3b9fb83ab9c5f02fd2","6877631c9844ddd5501205fc","6889d9c5f0f4e162a312abd9","3","1","672c8a3b9fb83ab9c5f02fd2","3","1","","","","","","","","","","","","","[{""page_index"":0,""viewing_time"":3868}]","","","","","","","","","","","","","","","","","","","","","","","","","","","","","",""
"37741","","<p>Before you start with this game please answer the following three questions yourself. </p>
  <p>Through this game, we measure several aspects of your cognitive performance, such as reaction times, multi-tasking capabilities </p>
  <p>and the ability to assess the situation you are in.</p>
  <p></p>
  <p><b>How good do you usually are in such tasks?</b></p>","78","html-slider-response","6","240640","0.0-4.0-0.0","254","1","2025-07-30 08:37:33","1f75c3e559b7213887762d5229550c2b","216.120.189.142","Mozilla/5.0 (Windows NT 10.0; Win64; x64) AppleWebKit/537.36 (KHTML, like Gecko) Chrome/138.0.0.0 Safari/537.36","WebKit","Chrome","138.0.0.0","Windows","10.0","https://app.prolific.com/","en-US,en;q=0.9","672c8a3b9fb83ab9c5f02fd2","6877631c9844ddd5501205fc","6889d9c5f0f4e162a312abd9","3","1","672c8a3b9fb83ab9c5f02fd2","3","1","2025-07-30T08:41:31.120Z","","","","","","","","","","","PreSkillQ","","50","","","","","","","","","","","","","","","","","","","","","","","","","","","","",""
"4854","","<div style=""width:500px;"">
  <p>How well do you think you will perform in this task compared to other participants?</p>
  </div>","90","html-slider-response","7","245496","0.0-4.0-1.0","254","1","2025-07-30 08:37:33","1f75c3e559b7213887762d5229550c2b","216.120.189.142","Mozilla/5.0 (Windows NT 10.0; Win64; x64) AppleWebKit/537.36 (KHTML, like Gecko) Chrome/138.0.0.0 Safari/537.36","WebKit","Chrome","138.0.0.0","Windows","10.0","https://app.prolific.com/","en-US,en;q=0.9","672c8a3b9fb83ab9c5f02fd2","6877631c9844ddd5501205fc","6889d9c5f0f4e162a312abd9","3","1","672c8a3b9fb83ab9c5f02fd2","3","1","2025-07-30T08:41:35.976Z","","","","","","","","","","","PrePerfQ","","50","","","","","","","","","","","","","","","","","","","","","","","","","","","","",""
"4085","","<div style=""width:500px;"">
  <p>What best describes how you currently feel?</p>
  </div>","95","html-slider-response","8","249583","0.0-4.0-2.0","254","1","2025-07-30 08:37:33","1f75c3e559b7213887762d5229550c2b","216.120.189.142","Mozilla/5.0 (Windows NT 10.0; Win64; x64) AppleWebKit/537.36 (KHTML, like Gecko) Chrome/138.0.0.0 Safari/537.36","WebKit","Chrome","138.0.0.0","Windows","10.0","https://app.prolific.com/","en-US,en;q=0.9","672c8a3b9fb83ab9c5f02fd2","6877631c9844ddd5501205fc","6889d9c5f0f4e162a312abd9","3","1","672c8a3b9fb83ab9c5f02fd2","3","1","2025-07-30T08:41:40.063Z","","","","","","","","","","","PreMotivationQ","","50","","","","","","","","","","","","","","","","","","","","","","","","","","","","",""
"","","","","ctl-task-cpt","9","298327","0.0-5.0-0.0","254","1","2025-07-30 08:37:33","1f75c3e559b7213887762d5229550c2b","216.120.189.142","Mozilla/5.0 (Windows NT 10.0; Win64; x64) AppleWebKit/537.36 (KHTML, like Gecko) Chrome/138.0.0.0 Safari/537.36","WebKit","Chrome","138.0.0.0","Windows","10.0","https://app.prolific.com/","en-US,en;q=0.9","672c8a3b9fb83ab9c5f02fd2","6877631c9844ddd5501205fc","6889d9c5f0f4e162a312abd9","3","1","672c8a3b9fb83ab9c5f02fd2","3","1","2025-07-30T08:42:28.807Z","","","","","","","","","","","","","","win-only","0","g1:NW,g2:SE","1","1","0","251832.6","3094.3","8095.8","45733.3","1","4","8","6","2","8","7","7","0","0.05303030303030303","2120.4","3000","95","[""down"",""right""]","{""num_key_presses"":8,""num_perfect"":7,""num_errors"":1,""num_randdir"":0,""num_randdir_good_moves"":0,""num_whilered"":0,""num_whileblue"":1,""num_blue"":5,""num_good_moves"":7}","[294.22232142857143,288.12857142857143,0.2,294.22232142857143,288.12857142857143,101.3,294.22232142857143,288.12857142857143,202,294.22232142857143,288.12857142857143,303.1,294.22232142857143,288.12857142857143,406.1,294.22232142857143,288.12857142857143,506.6,294.22232142857143,288.12857142857143,606.9,294.22232142857143,288.12857142857143,706.9,294.22232142857143,288.12857142857143,811.3,294.22232142857143,273.12857142857143,911.8,294.22232142857143,273.12857142857143,1012.1,294.22232142857143,273.12857142857143,1116.1,311.22232142857143,300.12857142857143,1217.5,329.22232142857143,291.12857142857143,1321.7,354.22232142857143,320.12857142857143,1427,373.22232142857143,355.12857142857143,1531.8,430.22232142857143,412.12857142857143,1636.7,476.22232142857143,450.12857142857143,1736.9,487.22232142857143,475.12857142857143,1836.9,550.2223214285714,518.1285714285714,1937.9,557.2223214285714,540.1285714285714,2042,559.2223214285714,541.1285714285714,2143.8,559.2223214285714,541.1285714285714,2246.2,559.2223214285714,538.1285714285714,2347.4,557.2223214285714,538.1285714285714,2454.4,543.2223214285714,531.1285714285714,2554.8,482.22232142857143,503.12857142857143,2657,430.22232142857143,434.12857142857143,2761.8,408.22232142857143,418.12857142857143,2868.6,398.22232142857143,413.12857142857143,2969,378.22232142857143,407.12857142857143,3071.6,374.22232142857143,406.12857142857143,3172,374.22232142857143,406.12857142857143,3276.7,374.22232142857143,406.12857142857143,3376.9,374.22232142857143,406.12857142857143,3482.9,374.22232142857143,406.12857142857143,3583.7,374.22232142857143,406.12857142857143,3686.8,374.22232142857143,406.12857142857143,3787.2,374.22232142857143,406.12857142857143,3892.1,374.22232142857143,406.12857142857143,3996.4,374.22232142857143,406.12857142857143,4098.6,374.22232142857143,406.12857142857143,4198.7,374.22232142857143,406.12857142857143,4301.2,374.22232142857143,406.12857142857143,4401.6,374.22232142857143,406.12857142857143,4506.4,374.22232142857143,406.12857142857143,4611.6,374.22232142857143,406.12857142857143,4713.1,374.22232142857143,406.12857142857143,4816.5,374.22232142857143,406.12857142857143,4916.8]","[1480.1,1480,1000,0.1,480,""smooth"",""right"",""right"",""good_move"",4654.1,3173.4,2774.1,1480.7,399.3,""smooth"",""right"",""right"",""good_move"",7879.6,3225.2,2679.3,4654.4,545.9,""smooth"",""right"",""right"",""good_move"",11205.6,3325.8,2955.5,7879.8,370.3,""smooth"",""down"",""down"",""good_move"",18697,7490.6,3064.6,15225.1,407.3,""while_blue"",""down"",""left"",""bad_move"",20991.7,2294.1,1847.8,18697.6,446.3,""smooth"",""down"",""down"",""good_move"",30819.4,9827.4,2071.7,28369.9,377.8,""smooth"",""down"",""down"",""good_move"",37547.6,6727.9,2636.5,34564.7,346.4,""smooth"",""right"",""right"",""good_move""]","",""
"3775","","<div style=""width:500px;"">
  <p>What determined the result of this run?</p>
  </div>","60","html-slider-response","10","302104","0.0-5.0-1.0","254","1","2025-07-30 08:37:33","1f75c3e559b7213887762d5229550c2b","216.120.189.142","Mozilla/5.0 (Windows NT 10.0; Win64; x64) AppleWebKit/537.36 (KHTML, like Gecko) Chrome/138.0.0.0 Safari/537.36","WebKit","Chrome","138.0.0.0","Windows","10.0","https://app.prolific.com/","en-US,en;q=0.9","672c8a3b9fb83ab9c5f02fd2","6877631c9844ddd5501205fc","6889d9c5f0f4e162a312abd9","3","1","672c8a3b9fb83ab9c5f02fd2","3","1","2025-07-30T08:42:32.584Z","","","","","","","","","","","AttribQ","","50","","","","","","","","","","","","","","","","","","","","","","","","","","","","",""
"4885","","<div style=""width:500px;"">
  <p>How much control did you have over the ball?</p>
  </div>","78","html-slider-response","11","306991","0.0-5.0-2.0","254","1","2025-07-30 08:37:33","1f75c3e559b7213887762d5229550c2b","216.120.189.142","Mozilla/5.0 (Windows NT 10.0; Win64; x64) AppleWebKit/537.36 (KHTML, like Gecko) Chrome/138.0.0.0 Safari/537.36","WebKit","Chrome","138.0.0.0","Windows","10.0","https://app.prolific.com/","en-US,en;q=0.9","672c8a3b9fb83ab9c5f02fd2","6877631c9844ddd5501205fc","6889d9c5f0f4e162a312abd9","3","1","672c8a3b9fb83ab9c5f02fd2","3","1","2025-07-30T08:42:37.472Z","","","","","","","","","","","ControlQ","","50","","","","","","","","","","","","","","","","","","","","","","","","","","","","",""
"3203","","<div style=""width:500px;"">
  <p>How would you describe your current emotional state?</p>
  </div>","0","html-slider-response","12","310196","0.0-5.0-3.0","254","1","2025-07-30 08:37:33","1f75c3e559b7213887762d5229550c2b","216.120.189.142","Mozilla/5.0 (Windows NT 10.0; Win64; x64) AppleWebKit/537.36 (KHTML, like Gecko) Chrome/138.0.0.0 Safari/537.36","WebKit","Chrome","138.0.0.0","Windows","10.0","https://app.prolific.com/","en-US,en;q=0.9","672c8a3b9fb83ab9c5f02fd2","6877631c9844ddd5501205fc","6889d9c5f0f4e162a312abd9","3","1","672c8a3b9fb83ab9c5f02fd2","3","1","2025-07-30T08:42:40.676Z","","","","","","","","","","","StressQ","","50","","","","","","","","","","","","","","","","","","","","","","","","","","","","",""
"3732","","<div style=""width:500px;"">
  <p>What best describes how you currently feel?</p>
  </div>","100","html-slider-response","13","313929","0.0-5.0-4.0","254","1","2025-07-30 08:37:33","1f75c3e559b7213887762d5229550c2b","216.120.189.142","Mozilla/5.0 (Windows NT 10.0; Win64; x64) AppleWebKit/537.36 (KHTML, like Gecko) Chrome/138.0.0.0 Safari/537.36","WebKit","Chrome","138.0.0.0","Windows","10.0","https://app.prolific.com/","en-US,en;q=0.9","672c8a3b9fb83ab9c5f02fd2","6877631c9844ddd5501205fc","6889d9c5f0f4e162a312abd9","3","1","672c8a3b9fb83ab9c5f02fd2","3","1","2025-07-30T08:42:44.409Z","","","","","","","","","","","MotivationQ","","50","","","","","","","","","","","","","","","","","","","","","","","","","","","","",""
"","","","","ctl-task-cpt","14","344497","0.0-5.0-0.1","254","1","2025-07-30 08:37:33","1f75c3e559b7213887762d5229550c2b","216.120.189.142","Mozilla/5.0 (Windows NT 10.0; Win64; x64) AppleWebKit/537.36 (KHTML, like Gecko) Chrome/138.0.0.0 Safari/537.36","WebKit","Chrome","138.0.0.0","Windows","10.0","https://app.prolific.com/","en-US,en;q=0.9","672c8a3b9fb83ab9c5f02fd2","6877631c9844ddd5501205fc","6889d9c5f0f4e162a312abd9","3","1","672c8a3b9fb83ab9c5f02fd2","3","1","2025-07-30T08:43:14.978Z","","","","","","","","","","","","","","win-only","2","g1:SE,g2:NW","0.9","2","0","316177.1","5052.4","10056.5","27561.8","1","4","4","6","2","4","4","11","7","0.08333333333333333","1321.7","3000","365","[""left"",""up""]","{""num_key_presses"":6,""num_perfect"":5,""num_errors"":0,""num_randdir"":1,""num_randdir_good_moves"":1,""num_whilered"":0,""num_whileblue"":0,""num_blue"":0,""num_good_moves"":6}","[297.22232142857143,291.12857142857143,0.3,297.22232142857143,291.12857142857143,104.4,297.22232142857143,291.12857142857143,204.8,297.22232142857143,291.12857142857143,310,297.22232142857143,291.12857142857143,414.1,301.22232142857143,285.12857142857143,520.8,280.22232142857143,243.12857142857143,624,224.22232142857143,144.12857142857143,729.1,145.22232142857143,35.128571428571426,835.2,134.22232142857143,26.128571428571426,936.2,119.22232142857143,33.128571428571426,1039.9,74.22232142857143,46.128571428571426,1143.8,66.22232142857143,46.128571428571426,1243.9,66.22232142857143,47.128571428571426,1350,66.22232142857143,47.128571428571426,1451.2,71.22232142857143,52.128571428571426,1554,115.22232142857143,109.12857142857143,1658.3,143.22232142857143,167.12857142857143,1758.9,187.22232142857143,256.12857142857143,1864.1,264.22232142857143,358.12857142857143,1970.5,392.22232142857143,368.12857142857143,2074.8,456.22232142857143,386.12857142857143,2178,458.22232142857143,386.12857142857143,2280,458.22232142857143,386.12857142857143,2383.3,458.22232142857143,386.12857142857143,2484.7,458.22232142857143,386.12857142857143,2588.9,458.22232142857143,386.12857142857143,2693.7,458.22232142857143,386.12857142857143,2799.3,458.22232142857143,386.12857142857143,2903,458.22232142857143,386.12857142857143,3003.6,458.22232142857143,386.12857142857143,3109,458.22232142857143,386.12857142857143,3213.7,458.22232142857143,386.12857142857143,3314.1,458.22232142857143,386.12857142857143,3420.1,458.22232142857143,386.12857142857143,3523.3,458.22232142857143,386.12857142857143,3623.9,458.22232142857143,386.12857142857143,3729.6,458.22232142857143,386.12857142857143,3830.1,458.22232142857143,386.12857142857143,3934.7,458.22232142857143,386.12857142857143,4038.4,458.22232142857143,386.12857142857143,4140.2,458.22232142857143,386.12857142857143,4244.9,458.22232142857143,386.12857142857143,4349.1,458.22232142857143,386.12857142857143,4453.3,458.22232142857143,386.12857142857143,4559.6,458.22232142857143,386.12857142857143,4664.2,458.22232142857143,386.12857142857143,4768.3,458.22232142857143,386.12857142857143,4868.7,458.22232142857143,386.12857142857143,4969.5]","[1575.3,1575.3,1000,0,575.3,""smooth"",""up"",""up"",""good_move"",4458.5,2882.7,2540.6,1575.8,342.1,""smooth"",""up"",""up"",""good_move"",7940.7,3482,3114,4458.8,368,""smooth"",""up"",""up"",""good_move"",11469.3,3528.2,2971,7941.1,557.2,""oops"",""left"",""left"",""good_move"",14195.5,2725.8,2382.9,11469.7,342.9,""smooth"",""left"",""left"",""good_move"",17409,3213.2,2714.5,14195.8,498.7,""smooth"",""left"",""left"",""good_move""]","",""
"3374","","<div style=""width:500px;"">
  <p>What determined the result of this run?</p>
  </div>","54","html-slider-response","15","347873","0.0-5.0-1.1","254","1","2025-07-30 08:37:33","1f75c3e559b7213887762d5229550c2b","216.120.189.142","Mozilla/5.0 (Windows NT 10.0; Win64; x64) AppleWebKit/537.36 (KHTML, like Gecko) Chrome/138.0.0.0 Safari/537.36","WebKit","Chrome","138.0.0.0","Windows","10.0","https://app.prolific.com/","en-US,en;q=0.9","672c8a3b9fb83ab9c5f02fd2","6877631c9844ddd5501205fc","6889d9c5f0f4e162a312abd9","3","1","672c8a3b9fb83ab9c5f02fd2","3","1","2025-07-30T08:43:18.354Z","","","","","","","","","","","AttribQ","","50","","","","","","","","","","","","","","","","","","","","","","","","","","","","",""
"3226","","<div style=""width:500px;"">
  <p>How much control did you have over the ball?</p>
  </div>","87","html-slider-response","16","351103","0.0-5.0-2.1","254","1","2025-07-30 08:37:33","1f75c3e559b7213887762d5229550c2b","216.120.189.142","Mozilla/5.0 (Windows NT 10.0; Win64; x64) AppleWebKit/537.36 (KHTML, like Gecko) Chrome/138.0.0.0 Safari/537.36","WebKit","Chrome","138.0.0.0","Windows","10.0","https://app.prolific.com/","en-US,en;q=0.9","672c8a3b9fb83ab9c5f02fd2","6877631c9844ddd5501205fc","6889d9c5f0f4e162a312abd9","3","1","672c8a3b9fb83ab9c5f02fd2","3","1","2025-07-30T08:43:21.584Z","","","","","","","","","","","ControlQ","","50","","","","","","","","","","","","","","","","","","","","","","","","","","","","",""
"3534","","<div style=""width:500px;"">
  <p>How would you describe your current emotional state?</p>
  </div>","0","html-slider-response","17","354639","0.0-5.0-3.1","254","1","2025-07-30 08:37:33","1f75c3e559b7213887762d5229550c2b","216.120.189.142","Mozilla/5.0 (Windows NT 10.0; Win64; x64) AppleWebKit/537.36 (KHTML, like Gecko) Chrome/138.0.0.0 Safari/537.36","WebKit","Chrome","138.0.0.0","Windows","10.0","https://app.prolific.com/","en-US,en;q=0.9","672c8a3b9fb83ab9c5f02fd2","6877631c9844ddd5501205fc","6889d9c5f0f4e162a312abd9","3","1","672c8a3b9fb83ab9c5f02fd2","3","1","2025-07-30T08:43:25.119Z","","","","","","","","","","","StressQ","","50","","","","","","","","","","","","","","","","","","","","","","","","","","","","",""
"3775","","<div style=""width:500px;"">
  <p>What best describes how you currently feel?</p>
  </div>","100","html-slider-response","18","358416","0.0-5.0-4.1","254","1","2025-07-30 08:37:33","1f75c3e559b7213887762d5229550c2b","216.120.189.142","Mozilla/5.0 (Windows NT 10.0; Win64; x64) AppleWebKit/537.36 (KHTML, like Gecko) Chrome/138.0.0.0 Safari/537.36","WebKit","Chrome","138.0.0.0","Windows","10.0","https://app.prolific.com/","en-US,en;q=0.9","672c8a3b9fb83ab9c5f02fd2","6877631c9844ddd5501205fc","6889d9c5f0f4e162a312abd9","3","1","672c8a3b9fb83ab9c5f02fd2","3","1","2025-07-30T08:43:28.897Z","","","","","","","","","","","MotivationQ","","50","","","","","","","","","","","","","","","","","","","","","","","","","","","","",""
"","","","","ctl-task-cpt","19","386088","0.0-5.0-0.2","254","1","2025-07-30 08:37:33","1f75c3e559b7213887762d5229550c2b","216.120.189.142","Mozilla/5.0 (Windows NT 10.0; Win64; x64) AppleWebKit/537.36 (KHTML, like Gecko) Chrome/138.0.0.0 Safari/537.36","WebKit","Chrome","138.0.0.0","Windows","10.0","https://app.prolific.com/","en-US,en;q=0.9","672c8a3b9fb83ab9c5f02fd2","6877631c9844ddd5501205fc","6889d9c5f0f4e162a312abd9","3","1","672c8a3b9fb83ab9c5f02fd2","3","1","2025-07-30T08:43:56.568Z","","","","","","","","","","","","","","win-only","0","g1:NW,g2:SE","0.8","3","0","360666.4","2933.7","7936.9","24646.1","1","4","4","6","2","4","4","15","11","0.11363636363636363","1485.3","3000","620","[""down"",""right""]","{""num_key_presses"":6,""num_perfect"":5,""num_errors"":0,""num_randdir"":1,""num_randdir_good_moves"":1,""num_whilered"":0,""num_whileblue"":0,""num_blue"":0,""num_good_moves"":6}","[296.22232142857143,298.12857142857143,0.3,296.22232142857143,298.12857142857143,100.8,296.22232142857143,298.12857142857143,202.3,296.22232142857143,298.12857142857143,307.4,296.22232142857143,298.12857142857143,407.5,296.22232142857143,298.12857142857143,507.5,277.22232142857143,295.12857142857143,613.1,215.22232142857143,280.12857142857143,716.3,283.22232142857143,299.12857142857143,817.4,382.22232142857143,373.12857142857143,918.4,430.22232142857143,478.12857142857143,1022.4,471.22232142857143,552.1285714285714,1131.9,517.2223214285714,576.1285714285714,1232.4,543.2223214285714,570.1285714285714,1337.2,546.2223214285714,560.1285714285714,1438.1,546.2223214285714,560.1285714285714,1547.6,545.2223214285714,558.1285714285714,1649.9,520.2223214285714,538.1285714285714,1751.8,455.22232142857143,474.12857142857143,1853.6,399.22232142857143,448.12857142857143,1958.5,385.22232142857143,431.12857142857143,2062.5,370.22232142857143,422.12857142857143,2164.2,370.22232142857143,422.12857142857143,2266.8,370.22232142857143,422.12857142857143,2367.5,370.22232142857143,422.12857142857143,2472.4,370.22232142857143,422.12857142857143,2580.4,370.22232142857143,422.12857142857143,2682.6,370.22232142857143,422.12857142857143,2782.7,370.22232142857143,422.12857142857143,2887.8,370.22232142857143,422.12857142857143,2996,370.22232142857143,422.12857142857143,3098.3,370.22232142857143,422.12857142857143,3202.7,370.22232142857143,422.12857142857143,3310,370.22232142857143,422.12857142857143,3414.2,370.22232142857143,422.12857142857143,3516.9,370.22232142857143,422.12857142857143,3617.7,370.22232142857143,422.12857142857143,3717.7,370.22232142857143,422.12857142857143,3826.5,370.22232142857143,422.12857142857143,3927.4,370.22232142857143,422.12857142857143,4028.1,370.22232142857143,422.12857142857143,4132.2,370.22232142857143,422.12857142857143,4238.3,370.22232142857143,422.12857142857143,4338.6,370.22232142857143,422.12857142857143,4444.5,370.22232142857143,422.12857142857143,4547.9,370.22232142857143,422.12857142857143,4656.4,370.22232142857143,422.12857142857143,4757.9,370.22232142857143,422.12857142857143,4864,370.22232142857143,422.12857142857143,4968.5]","[1445.9,1445.9,1000,0,445.9,""smooth"",""right"",""right"",""good_move"",4525.1,3078.6,2675.6,1446.6,403,""smooth"",""right"",""right"",""good_move"",7472.9,2947,2542.2,4525.9,404.8,""oops"",""right"",""right"",""good_move"",10044.1,2569.4,2172.3,7474.7,397.1,""smooth"",""down"",""down"",""good_move"",13249,3204,2835.9,10045,368.1,""smooth"",""down"",""down"",""good_move"",16607.5,3358.2,2861.2,13249.3,497,""smooth"",""down"",""down"",""good_move""]","",""
"3065","","<div style=""width:500px;"">
  <p>What determined the result of this run?</p>
  </div>","50","html-slider-response","20","389154","0.0-5.0-1.2","254","1","2025-07-30 08:37:33","1f75c3e559b7213887762d5229550c2b","216.120.189.142","Mozilla/5.0 (Windows NT 10.0; Win64; x64) AppleWebKit/537.36 (KHTML, like Gecko) Chrome/138.0.0.0 Safari/537.36","WebKit","Chrome","138.0.0.0","Windows","10.0","https://app.prolific.com/","en-US,en;q=0.9","672c8a3b9fb83ab9c5f02fd2","6877631c9844ddd5501205fc","6889d9c5f0f4e162a312abd9","3","1","672c8a3b9fb83ab9c5f02fd2","3","1","2025-07-30T08:43:59.634Z","","","","","","","","","","","AttribQ","","50","","","","","","","","","","","","","","","","","","","","","","","","","","","","",""
"2803","","<div style=""width:500px;"">
  <p>How much control did you have over the ball?</p>
  </div>","98","html-slider-response","21","391959","0.0-5.0-2.2","254","1","2025-07-30 08:37:33","1f75c3e559b7213887762d5229550c2b","216.120.189.142","Mozilla/5.0 (Windows NT 10.0; Win64; x64) AppleWebKit/537.36 (KHTML, like Gecko) Chrome/138.0.0.0 Safari/537.36","WebKit","Chrome","138.0.0.0","Windows","10.0","https://app.prolific.com/","en-US,en;q=0.9","672c8a3b9fb83ab9c5f02fd2","6877631c9844ddd5501205fc","6889d9c5f0f4e162a312abd9","3","1","672c8a3b9fb83ab9c5f02fd2","3","1","2025-07-30T08:44:02.439Z","","","","","","","","","","","ControlQ","","50","","","","","","","","","","","","","","","","","","","","","","","","","","","","",""
"2374","","<div style=""width:500px;"">
  <p>How would you describe your current emotional state?</p>
  </div>","0","html-slider-response","22","394335","0.0-5.0-3.2","254","1","2025-07-30 08:37:33","1f75c3e559b7213887762d5229550c2b","216.120.189.142","Mozilla/5.0 (Windows NT 10.0; Win64; x64) AppleWebKit/537.36 (KHTML, like Gecko) Chrome/138.0.0.0 Safari/537.36","WebKit","Chrome","138.0.0.0","Windows","10.0","https://app.prolific.com/","en-US,en;q=0.9","672c8a3b9fb83ab9c5f02fd2","6877631c9844ddd5501205fc","6889d9c5f0f4e162a312abd9","3","1","672c8a3b9fb83ab9c5f02fd2","3","1","2025-07-30T08:44:04.815Z","","","","","","","","","","","StressQ","","50","","","","","","","","","","","","","","","","","","","","","","","","","","","","",""
"3066","","<div style=""width:500px;"">
  <p>What best describes how you currently feel?</p>
  </div>","99","html-slider-response","23","397404","0.0-5.0-4.2","254","1","2025-07-30 08:37:33","1f75c3e559b7213887762d5229550c2b","216.120.189.142","Mozilla/5.0 (Windows NT 10.0; Win64; x64) AppleWebKit/537.36 (KHTML, like Gecko) Chrome/138.0.0.0 Safari/537.36","WebKit","Chrome","138.0.0.0","Windows","10.0","https://app.prolific.com/","en-US,en;q=0.9","672c8a3b9fb83ab9c5f02fd2","6877631c9844ddd5501205fc","6889d9c5f0f4e162a312abd9","3","1","672c8a3b9fb83ab9c5f02fd2","3","1","2025-07-30T08:44:07.884Z","","","","","","","","","","","MotivationQ","","50","","","","","","","","","","","","","","","","","","","","","","","","","","","","",""
"","","","","ctl-task-cpt","24","434562","0.0-5.0-0.3","254","1","2025-07-30 08:37:33","1f75c3e559b7213887762d5229550c2b","216.120.189.142","Mozilla/5.0 (Windows NT 10.0; Win64; x64) AppleWebKit/537.36 (KHTML, like Gecko) Chrome/138.0.0.0 Safari/537.36","WebKit","Chrome","138.0.0.0","Windows","10.0","https://app.prolific.com/","en-US,en;q=0.9","672c8a3b9fb83ab9c5f02fd2","6877631c9844ddd5501205fc","6889d9c5f0f4e162a312abd9","3","1","672c8a3b9fb83ab9c5f02fd2","3","1","2025-07-30T08:44:45.042Z","","","","","","","","","","","","","","win-only","0","g1:NW,g2:SE","0.7","4","0","399653.9","1986.5","6995.6","34127.7","1","4","8","6","2","-8","-8","7","15","0.05303030303030303","1373.2","3000","-2410","[""down"",""right""]","{""num_key_presses"":8,""num_perfect"":6,""num_errors"":0,""num_randdir"":2,""num_randdir_good_moves"":0,""num_whilered"":0,""num_whileblue"":0,""num_blue"":1,""num_good_moves"":6}","[297.22232142857143,301.12857142857143,0.4,297.22232142857143,301.12857142857143,101.4,297.22232142857143,301.12857142857143,207.1,297.22232142857143,301.12857142857143,309.5,297.22232142857143,301.12857142857143,421.4,297.22232142857143,301.12857142857143,524.3,297.22232142857143,301.12857142857143,636.9,343.22232142857143,363.12857142857143,737.4,517.2223214285714,468.12857142857143,838.5,599.2223214285714,518.1285714285714,939.1,599.2223214285714,531.1285714285714,1039.3,595.2223214285714,540.1285714285714,1139.7,588.2223214285714,540.1285714285714,1256.5,584.2223214285714,540.1285714285714,1365.3,583.2223214285714,540.1285714285714,1469,580.2223214285714,539.1285714285714,1575.2,571.2223214285714,538.1285714285714,1677.7,537.2223214285714,532.1285714285714,1780.4,443.22232142857143,502.12857142857143,1892.8,360.22232142857143,438.12857142857143,2000.6,360.22232142857143,436.12857142857143,2104.5,360.22232142857143,435.12857142857143,2216.1,360.22232142857143,435.12857142857143,2319.8,360.22232142857143,435.12857142857143,2420.1,360.22232142857143,435.12857142857143,2524.4,360.22232142857143,435.12857142857143,2630.1,360.22232142857143,435.12857142857143,2734.5,360.22232142857143,435.12857142857143,2834.6,360.22232142857143,435.12857142857143,2939.9,360.22232142857143,435.12857142857143,3053,360.22232142857143,435.12857142857143,3154.1,360.22232142857143,435.12857142857143,3254.2,360.22232142857143,435.12857142857143,3354.7,360.22232142857143,435.12857142857143,3455.4,360.22232142857143,435.12857142857143,3573.9,360.22232142857143,435.12857142857143,3679.1,360.22232142857143,435.12857142857143,3780.6,360.22232142857143,435.12857142857143,3883,360.22232142857143,435.12857142857143,3983.8,360.22232142857143,435.12857142857143,4085,360.22232142857143,435.12857142857143,4189,360.22232142857143,435.12857142857143,4295.8,360.22232142857143,435.12857142857143,4399.2,360.22232142857143,435.12857142857143,4499.5,360.22232142857143,435.12857142857143,4604.2,360.22232142857143,435.12857142857143,4708.6,360.22232142857143,435.12857142857143,4809.1,360.22232142857143,435.12857142857143,4909.6]","[1381.2,1381.2,1000,0,381.2,""smooth"",""right"",""right"",""good_move"",7067.6,5685.9,2112.3,4603.5,351.8,""smooth"",""right"",""right"",""good_move"",10401.9,3333.9,2760.7,7068,573.2,""smooth"",""down"",""down"",""good_move"",12835.7,2433.4,2026.4,10402.3,407,""oops"",""down"",""up"",""bad_move"",16109.1,3270.7,2889,12838.4,381.7,""oops"",""right"",""up"",""bad_move"",18502.3,2392.9,1731.3,16109.4,661.6,""smooth"",""right"",""right"",""good_move"",21067.3,2564.7,2194.1,18502.6,370.6,""smooth"",""down"",""down"",""good_move"",23989,2920.2,2584.4,21068.8,335.8,""smooth"",""down"",""down"",""good_move""]","",""
"2716","","<div style=""width:500px;"">
  <p>What determined the result of this run?</p>
  </div>","50","html-slider-response","25","437279","0.0-5.0-1.3","254","1","2025-07-30 08:37:33","1f75c3e559b7213887762d5229550c2b","216.120.189.142","Mozilla/5.0 (Windows NT 10.0; Win64; x64) AppleWebKit/537.36 (KHTML, like Gecko) Chrome/138.0.0.0 Safari/537.36","WebKit","Chrome","138.0.0.0","Windows","10.0","https://app.prolific.com/","en-US,en;q=0.9","672c8a3b9fb83ab9c5f02fd2","6877631c9844ddd5501205fc","6889d9c5f0f4e162a312abd9","3","1","672c8a3b9fb83ab9c5f02fd2","3","1","2025-07-30T08:44:47.759Z","","","","","","","","","","","AttribQ","","50","","","","","","","","","","","","","","","","","","","","","","","","","","","","",""
"3337","","<div style=""width:500px;"">
  <p>How much control did you have over the ball?</p>
  </div>","50","html-slider-response","26","440619","0.0-5.0-2.3","254","1","2025-07-30 08:37:33","1f75c3e559b7213887762d5229550c2b","216.120.189.142","Mozilla/5.0 (Windows NT 10.0; Win64; x64) AppleWebKit/537.36 (KHTML, like Gecko) Chrome/138.0.0.0 Safari/537.36","WebKit","Chrome","138.0.0.0","Windows","10.0","https://app.prolific.com/","en-US,en;q=0.9","672c8a3b9fb83ab9c5f02fd2","6877631c9844ddd5501205fc","6889d9c5f0f4e162a312abd9","3","1","672c8a3b9fb83ab9c5f02fd2","3","1","2025-07-30T08:44:51.099Z","","","","","","","","","","","ControlQ","","50","","","","","","","","","","","","","","","","","","","","","","","","","","","","",""
"4250","","<div style=""width:500px;"">
  <p>How would you describe your current emotional state?</p>
  </div>","0","html-slider-response","27","444871","0.0-5.0-3.3","254","1","2025-07-30 08:37:33","1f75c3e559b7213887762d5229550c2b","216.120.189.142","Mozilla/5.0 (Windows NT 10.0; Win64; x64) AppleWebKit/537.36 (KHTML, like Gecko) Chrome/138.0.0.0 Safari/537.36","WebKit","Chrome","138.0.0.0","Windows","10.0","https://app.prolific.com/","en-US,en;q=0.9","672c8a3b9fb83ab9c5f02fd2","6877631c9844ddd5501205fc","6889d9c5f0f4e162a312abd9","3","1","672c8a3b9fb83ab9c5f02fd2","3","1","2025-07-30T08:44:55.351Z","","","","","","","","","","","StressQ","","50","","","","","","","","","","","","","","","","","","","","","","","","","","","","",""
"2166","","<div style=""width:500px;"">
  <p>What best describes how you currently feel?</p>
  </div>","100","html-slider-response","28","447039","0.0-5.0-4.3","254","1","2025-07-30 08:37:33","1f75c3e559b7213887762d5229550c2b","216.120.189.142","Mozilla/5.0 (Windows NT 10.0; Win64; x64) AppleWebKit/537.36 (KHTML, like Gecko) Chrome/138.0.0.0 Safari/537.36","WebKit","Chrome","138.0.0.0","Windows","10.0","https://app.prolific.com/","en-US,en;q=0.9","672c8a3b9fb83ab9c5f02fd2","6877631c9844ddd5501205fc","6889d9c5f0f4e162a312abd9","3","1","672c8a3b9fb83ab9c5f02fd2","3","1","2025-07-30T08:44:57.519Z","","","","","","","","","","","MotivationQ","","50","","","","","","","","","","","","","","","","","","","","","","","","","","","","",""
"","","","","ctl-task-cpt","29","475547","0.0-5.0-0.4","254","1","2025-07-30 08:37:33","1f75c3e559b7213887762d5229550c2b","216.120.189.142","Mozilla/5.0 (Windows NT 10.0; Win64; x64) AppleWebKit/537.36 (KHTML, like Gecko) Chrome/138.0.0.0 Safari/537.36","WebKit","Chrome","138.0.0.0","Windows","10.0","https://app.prolific.com/","en-US,en;q=0.9","672c8a3b9fb83ab9c5f02fd2","6877631c9844ddd5501205fc","6889d9c5f0f4e162a312abd9","3","1","672c8a3b9fb83ab9c5f02fd2","3","1","2025-07-30T08:45:26.027Z","","","","","","","","","","","","","","win-only","1","g1:NE,g2:SW","0.6","5","0","449288","1088.6","6092.2","25496.9","1","4","4","6","2","4","4","11","7","0.08333333333333333","1024.3","3000","905","[""down"",""left""]","{""num_key_presses"":8,""num_perfect"":5,""num_errors"":0,""num_randdir"":3,""num_randdir_good_moves"":2,""num_whilered"":0,""num_whileblue"":0,""num_blue"":0,""num_good_moves"":7}","[298.22232142857143,300.12857142857143,1,298.22232142857143,300.12857142857143,106.3,298.22232142857143,300.12857142857143,207.7,298.22232142857143,300.12857142857143,313.6,298.22232142857143,300.12857142857143,418.1,231.22232142857143,338.12857142857143,519.5,135.22232142857143,444.12857142857143,624,104.22232142857143,492.12857142857143,736.8,89.22232142857143,498.12857142857143,838.9,69.22232142857143,519.1285714285714,942.4,68.22232142857143,520.1285714285714,1057.1,68.22232142857143,520.1285714285714,1157.2,85.22232142857143,515.1285714285714,1264.7,111.22232142857143,523.1285714285714,1366.3,130.22232142857143,538.1285714285714,1470.8,132.22232142857143,540.1285714285714,1573.1,132.22232142857143,540.1285714285714,1680,132.22232142857143,540.1285714285714,1783.7,132.22232142857143,540.1285714285714,1884.9,132.22232142857143,540.1285714285714,1987.5,132.22232142857143,540.1285714285714,2094.8,132.22232142857143,540.1285714285714,2198.5,132.22232142857143,540.1285714285714,2298.7,132.22232142857143,540.1285714285714,2402.1,132.22232142857143,540.1285714285714,2502.5,132.22232142857143,540.1285714285714,2608.2,132.22232142857143,540.1285714285714,2709.4,132.22232142857143,540.1285714285714,2816.1,132.22232142857143,540.1285714285714,2917.9,132.22232142857143,540.1285714285714,3024,132.22232142857143,540.1285714285714,3134.7,132.22232142857143,540.1285714285714,3237.7,132.22232142857143,540.1285714285714,3349.5,132.22232142857143,540.1285714285714,3452.5,132.22232142857143,540.1285714285714,3564.2,132.22232142857143,540.1285714285714,3664.6,132.22232142857143,540.1285714285714,3768.4,132.22232142857143,540.1285714285714,3873.2,132.22232142857143,540.1285714285714,3973.4,132.22232142857143,540.1285714285714,4074,132.22232142857143,540.1285714285714,4179.5,132.22232142857143,540.1285714285714,4282.7,132.22232142857143,540.1285714285714,4382.7,132.22232142857143,540.1285714285714,4488.4,132.22232142857143,540.1285714285714,4594.2,132.22232142857143,540.1285714285714,4694.6,132.22232142857143,540.1285714285714,4797.3,132.22232142857143,540.1285714285714,4904.2]","[1457.5,1457.5,1000,0,457.5,""oops"",""down"",""left"",""good_move"",4422.1,2964.2,2629.5,1458,334.7,""oops"",""down"",""right"",""bad_move"",6945.5,2522.5,2166.8,4423.1,355.6,""oops"",""down"",""left"",""good_move"",8907.4,1961.5,1623.9,6945.9,337.6,""smooth"",""down"",""down"",""good_move"",11869.4,2961.5,2674,8907.9,287.5,""smooth"",""down"",""down"",""good_move"",14396.5,2526.8,2184.9,11869.7,341.9,""smooth"",""down"",""down"",""good_move"",16775.3,2378.5,2006.8,14396.8,371.7,""smooth"",""left"",""left"",""good_move"",19300.1,2524.4,2216.5,16775.7,307.9,""smooth"",""left"",""left"",""good_move""]","",""
"4031","","<div style=""width:500px;"">
  <p>What determined the result of this run?</p>
  </div>","50","html-slider-response","30","479579","0.0-5.0-1.4","254","1","2025-07-30 08:37:33","1f75c3e559b7213887762d5229550c2b","216.120.189.142","Mozilla/5.0 (Windows NT 10.0; Win64; x64) AppleWebKit/537.36 (KHTML, like Gecko) Chrome/138.0.0.0 Safari/537.36","WebKit","Chrome","138.0.0.0","Windows","10.0","https://app.prolific.com/","en-US,en;q=0.9","672c8a3b9fb83ab9c5f02fd2","6877631c9844ddd5501205fc","6889d9c5f0f4e162a312abd9","3","1","672c8a3b9fb83ab9c5f02fd2","3","1","2025-07-30T08:45:30.059Z","","","","","","","","","","","AttribQ","","50","","","","","","","","","","","","","","","","","","","","","","","","","","","","",""
"4366","","<div style=""width:500px;"">
  <p>How much control did you have over the ball?</p>
  </div>","50","html-slider-response","31","483948","0.0-5.0-2.4","254","1","2025-07-30 08:37:33","1f75c3e559b7213887762d5229550c2b","216.120.189.142","Mozilla/5.0 (Windows NT 10.0; Win64; x64) AppleWebKit/537.36 (KHTML, like Gecko) Chrome/138.0.0.0 Safari/537.36","WebKit","Chrome","138.0.0.0","Windows","10.0","https://app.prolific.com/","en-US,en;q=0.9","672c8a3b9fb83ab9c5f02fd2","6877631c9844ddd5501205fc","6889d9c5f0f4e162a312abd9","3","1","672c8a3b9fb83ab9c5f02fd2","3","1","2025-07-30T08:45:34.428Z","","","","","","","","","","","ControlQ","","50","","","","","","","","","","","","","","","","","","","","","","","","","","","","",""
"3016","","<div style=""width:500px;"">
  <p>How would you describe your current emotional state?</p>
  </div>","1","html-slider-response","32","486967","0.0-5.0-3.4","254","1","2025-07-30 08:37:33","1f75c3e559b7213887762d5229550c2b","216.120.189.142","Mozilla/5.0 (Windows NT 10.0; Win64; x64) AppleWebKit/537.36 (KHTML, like Gecko) Chrome/138.0.0.0 Safari/537.36","WebKit","Chrome","138.0.0.0","Windows","10.0","https://app.prolific.com/","en-US,en;q=0.9","672c8a3b9fb83ab9c5f02fd2","6877631c9844ddd5501205fc","6889d9c5f0f4e162a312abd9","3","1","672c8a3b9fb83ab9c5f02fd2","3","1","2025-07-30T08:45:37.447Z","","","","","","","","","","","StressQ","","50","","","","","","","","","","","","","","","","","","","","","","","","","","","","",""
"2585","","<div style=""width:500px;"">
  <p>What best describes how you currently feel?</p>
  </div>","100","html-slider-response","33","489553","0.0-5.0-4.4","254","1","2025-07-30 08:37:33","1f75c3e559b7213887762d5229550c2b","216.120.189.142","Mozilla/5.0 (Windows NT 10.0; Win64; x64) AppleWebKit/537.36 (KHTML, like Gecko) Chrome/138.0.0.0 Safari/537.36","WebKit","Chrome","138.0.0.0","Windows","10.0","https://app.prolific.com/","en-US,en;q=0.9","672c8a3b9fb83ab9c5f02fd2","6877631c9844ddd5501205fc","6889d9c5f0f4e162a312abd9","3","1","672c8a3b9fb83ab9c5f02fd2","3","1","2025-07-30T08:45:40.034Z","","","","","","","","","","","MotivationQ","","50","","","","","","","","","","","","","","","","","","","","","","","","","","","","",""
"","","","","ctl-task-cpt","34","536503","0.0-5.0-0.5","254","1","2025-07-30 08:37:33","1f75c3e559b7213887762d5229550c2b","216.120.189.142","Mozilla/5.0 (Windows NT 10.0; Win64; x64) AppleWebKit/537.36 (KHTML, like Gecko) Chrome/138.0.0.0 Safari/537.36","WebKit","Chrome","138.0.0.0","Windows","10.0","https://app.prolific.com/","en-US,en;q=0.9","672c8a3b9fb83ab9c5f02fd2","6877631c9844ddd5501205fc","6889d9c5f0f4e162a312abd9","3","1","672c8a3b9fb83ab9c5f02fd2","3","1","2025-07-30T08:46:26.983Z","","","","","","","","","","","","","","win-only","0","g1:NW,g2:SE","0.5","6","0","491804","1523.5","6533.9","43921.9","1","4","8","6","2","8","7","18","11","0.13636363636363635","1183.3","3000","715","[""down"",""right""]","{""num_key_presses"":10,""num_perfect"":5,""num_errors"":1,""num_randdir"":4,""num_randdir_good_moves"":2,""num_whilered"":0,""num_whileblue"":1,""num_blue"":4,""num_good_moves"":8}","[304.22232142857143,295.12857142857143,0.2,304.22232142857143,295.12857142857143,102.7,304.22232142857143,295.12857142857143,208.2,304.22232142857143,295.12857142857143,311.4,304.22232142857143,295.12857142857143,421.7,310.22232142857143,298.12857142857143,523.7,424.22232142857143,385.12857142857143,631.6,495.22232142857143,475.12857142857143,738.9,492.22232142857143,493.12857142857143,847.8,499.22232142857143,505.12857142857143,948.9,509.22232142857143,512.1285714285714,1049.6,517.2223214285714,515.1285714285714,1152.4,518.2223214285714,515.1285714285714,1253.7,518.2223214285714,515.1285714285714,1368.7,518.2223214285714,512.1285714285714,1472.1,517.2223214285714,512.1285714285714,1574.7,515.2223214285714,512.1285714285714,1680.1,515.2223214285714,512.1285714285714,1781.2,515.2223214285714,512.1285714285714,1883.9,515.2223214285714,512.1285714285714,1984,515.2223214285714,512.1285714285714,2094.5,515.2223214285714,512.1285714285714,2196.2,515.2223214285714,512.1285714285714,2297.3,515.2223214285714,512.1285714285714,2402.4,515.2223214285714,512.1285714285714,2514.1,515.2223214285714,512.1285714285714,2616.6,515.2223214285714,512.1285714285714,2717.3,515.2223214285714,512.1285714285714,2818.7,515.2223214285714,512.1285714285714,2931.3,515.2223214285714,512.1285714285714,3040.4,515.2223214285714,512.1285714285714,3144.4,515.2223214285714,512.1285714285714,3244.6,515.2223214285714,512.1285714285714,3346.3,515.2223214285714,512.1285714285714,3448,515.2223214285714,512.1285714285714,3549.5,515.2223214285714,512.1285714285714,3655.5,515.2223214285714,512.1285714285714,3759.4,515.2223214285714,512.1285714285714,3864.7,515.2223214285714,512.1285714285714,3975,515.2223214285714,512.1285714285714,4078.1,515.2223214285714,512.1285714285714,4181.9,515.2223214285714,512.1285714285714,4283,515.2223214285714,512.1285714285714,4388.4,515.2223214285714,512.1285714285714,4490.7,515.2223214285714,512.1285714285714,4593.9,515.2223214285714,512.1285714285714,4694.5,515.2223214285714,512.1285714285714,4801.1,515.2223214285714,512.1285714285714,4913.7]","[1433.7,1433.8,1000,0,433.8,""smooth"",""right"",""right"",""good_move"",3909.5,2475.2,2147,1434.3,328.2,""smooth"",""right"",""right"",""good_move"",6645.4,2735.6,2417.5,3909.8,318.1,""oops"",""down"",""down"",""good_move"",9680.9,3033.4,2667.2,6647.5,366.2,""while_blue"",""down"",""right"",""good_move"",12494.6,2813.3,2400.5,9681.3,412.8,""oops"",""down"",""down"",""good_move"",18283.6,5788.6,2013.3,15917,353.3,""oops"",""down"",""left"",""bad_move"",20988.4,2703.7,2295.2,18284.7,408.5,""oops"",""down"",""left"",""bad_move"",27539.7,6550.7,2558.5,24589.1,392.1,""smooth"",""down"",""down"",""good_move"",30607.8,3067.3,2716.1,27540.6,351.2,""smooth"",""right"",""right"",""good_move"",37274.9,6666.1,2817.2,34095.3,362.4,""smooth"",""right"",""right"",""good_move""]","",""
"2235","","<div style=""width:500px;"">
  <p>What determined the result of this run?</p>
  </div>","50","html-slider-response","35","538740","0.0-5.0-1.5","254","1","2025-07-30 08:37:33","1f75c3e559b7213887762d5229550c2b","216.120.189.142","Mozilla/5.0 (Windows NT 10.0; Win64; x64) AppleWebKit/537.36 (KHTML, like Gecko) Chrome/138.0.0.0 Safari/537.36","WebKit","Chrome","138.0.0.0","Windows","10.0","https://app.prolific.com/","en-US,en;q=0.9","672c8a3b9fb83ab9c5f02fd2","6877631c9844ddd5501205fc","6889d9c5f0f4e162a312abd9","3","1","672c8a3b9fb83ab9c5f02fd2","3","1","2025-07-30T08:46:29.220Z","","","","","","","","","","","AttribQ","","50","","","","","","","","","","","","","","","","","","","","","","","","","","","","",""
"3412","","<div style=""width:500px;"">
  <p>How much control did you have over the ball?</p>
  </div>","55","html-slider-response","36","542154","0.0-5.0-2.5","254","1","2025-07-30 08:37:33","1f75c3e559b7213887762d5229550c2b","216.120.189.142","Mozilla/5.0 (Windows NT 10.0; Win64; x64) AppleWebKit/537.36 (KHTML, like Gecko) Chrome/138.0.0.0 Safari/537.36","WebKit","Chrome","138.0.0.0","Windows","10.0","https://app.prolific.com/","en-US,en;q=0.9","672c8a3b9fb83ab9c5f02fd2","6877631c9844ddd5501205fc","6889d9c5f0f4e162a312abd9","3","1","672c8a3b9fb83ab9c5f02fd2","3","1","2025-07-30T08:46:32.635Z","","","","","","","","","","","ControlQ","","50","","","","","","","","","","","","","","","","","","","","","","","","","","","","",""
"2555","","<div style=""width:500px;"">
  <p>How would you describe your current emotional state?</p>
  </div>","2","html-slider-response","37","544713","0.0-5.0-3.5","254","1","2025-07-30 08:37:33","1f75c3e559b7213887762d5229550c2b","216.120.189.142","Mozilla/5.0 (Windows NT 10.0; Win64; x64) AppleWebKit/537.36 (KHTML, like Gecko) Chrome/138.0.0.0 Safari/537.36","WebKit","Chrome","138.0.0.0","Windows","10.0","https://app.prolific.com/","en-US,en;q=0.9","672c8a3b9fb83ab9c5f02fd2","6877631c9844ddd5501205fc","6889d9c5f0f4e162a312abd9","3","1","672c8a3b9fb83ab9c5f02fd2","3","1","2025-07-30T08:46:35.193Z","","","","","","","","","","","StressQ","","50","","","","","","","","","","","","","","","","","","","","","","","","","","","","",""
"1814","","<div style=""width:500px;"">
  <p>What best describes how you currently feel?</p>
  </div>","99","html-slider-response","38","546530","0.0-5.0-4.5","254","1","2025-07-30 08:37:33","1f75c3e559b7213887762d5229550c2b","216.120.189.142","Mozilla/5.0 (Windows NT 10.0; Win64; x64) AppleWebKit/537.36 (KHTML, like Gecko) Chrome/138.0.0.0 Safari/537.36","WebKit","Chrome","138.0.0.0","Windows","10.0","https://app.prolific.com/","en-US,en;q=0.9","672c8a3b9fb83ab9c5f02fd2","6877631c9844ddd5501205fc","6889d9c5f0f4e162a312abd9","3","1","672c8a3b9fb83ab9c5f02fd2","3","1","2025-07-30T08:46:37.010Z","","","","","","","","","","","MotivationQ","","50","","","","","","","","","","","","","","","","","","","","","","","","","","","","",""
"","","","","ctl-task-cpt","39","578941","0.0-5.0-0.6","254","1","2025-07-30 08:37:33","1f75c3e559b7213887762d5229550c2b","216.120.189.142","Mozilla/5.0 (Windows NT 10.0; Win64; x64) AppleWebKit/537.36 (KHTML, like Gecko) Chrome/138.0.0.0 Safari/537.36","WebKit","Chrome","138.0.0.0","Windows","10.0","https://app.prolific.com/","en-US,en;q=0.9","672c8a3b9fb83ab9c5f02fd2","6877631c9844ddd5501205fc","6889d9c5f0f4e162a312abd9","3","1","672c8a3b9fb83ab9c5f02fd2","3","1","2025-07-30T08:47:09.421Z","","","","","","","","","","","","","","win-only","1","g1:NE,g2:SW","0.4","7","0","548780.9","2173","7176.7","29391.2","1","4","8","6","2","8","8","26","18","0.19696969696969696","1208.1","3000","1110","[""down"",""left""]","{""num_key_presses"":6,""num_perfect"":4,""num_errors"":0,""num_randdir"":2,""num_randdir_good_moves"":2,""num_whilered"":0,""num_whileblue"":0,""num_blue"":2,""num_good_moves"":6}","[295.22232142857143,295.12857142857143,2,295.22232142857143,295.12857142857143,106.3,295.22232142857143,295.12857142857143,210,295.22232142857143,295.12857142857143,314.8,295.22232142857143,295.12857142857143,429,295.22232142857143,295.12857142857143,532.8,237.22232142857143,345.12857142857143,639.7,135.22232142857143,437.12857142857143,756.2,90.22232142857143,483.12857142857143,872.4,42.222321428571426,506.12857142857143,973.7,24.222321428571426,524.1285714285714,1078.4,23.222321428571426,527.1285714285714,1178.7,23.222321428571426,527.1285714285714,1302.8,29.222321428571426,521.1285714285714,1404.1,49.222321428571426,509.12857142857143,1512.3,105.22232142857143,490.12857142857143,1613.3,332.22232142857143,443.12857142857143,1723.9,495.22232142857143,403.12857142857143,1825.8,509.22232142857143,399.12857142857143,1931.6,515.2223214285714,397.12857142857143,2031.8,518.2223214285714,396.12857142857143,2143.4,518.2223214285714,396.12857142857143,2243.7,518.2223214285714,396.12857142857143,2345.9,518.2223214285714,396.12857142857143,2462.6,518.2223214285714,396.12857142857143,2566.2,518.2223214285714,396.12857142857143,2674.4,518.2223214285714,396.12857142857143,2786.7,518.2223214285714,396.12857142857143,2893.8,518.2223214285714,396.12857142857143,2993.8,518.2223214285714,396.12857142857143,3112.9,518.2223214285714,396.12857142857143,3218.3,518.2223214285714,396.12857142857143,3320.7,518.2223214285714,396.12857142857143,3422.5,518.2223214285714,396.12857142857143,3522.5,518.2223214285714,396.12857142857143,3624.1,518.2223214285714,396.12857142857143,3725.8,518.2223214285714,396.12857142857143,3836.2,518.2223214285714,396.12857142857143,3937,518.2223214285714,396.12857142857143,4038.9,518.2223214285714,396.12857142857143,4139.5,518.2223214285714,396.12857142857143,4244.1,518.2223214285714,396.12857142857143,4356.3,518.2223214285714,396.12857142857143,4458.3,518.2223214285714,396.12857142857143,4568.6,518.2223214285714,396.12857142857143,4676.6,518.2223214285714,396.12857142857143,4778.4,518.2223214285714,396.12857142857143,4879.4,518.2223214285714,396.12857142857143,4982.1]","[1476.5,1476.6,1000,0.1,476.5,""smooth"",""down"",""down"",""good_move"",4178.7,2701.3,2305.5,1477.5,395.7,""oops"",""down"",""down"",""good_move"",10323,6142.5,2111.4,7783.2,428.4,""smooth"",""down"",""down"",""good_move"",12784.7,2461.5,1985.9,10323.2,475.6,""oops"",""left"",""left"",""good_move"",19439.1,6653.3,2085.2,16919.5,434.4,""smooth"",""left"",""left"",""good_move"",22083.8,2644.2,2119.6,19439.6,524.6,""smooth"",""left"",""left"",""good_move""]","",""
"2661","","<div style=""width:500px;"">
  <p>What determined the result of this run?</p>
  </div>","69","html-slider-response","40","581604","0.0-5.0-1.6","254","1","2025-07-30 08:37:33","1f75c3e559b7213887762d5229550c2b","216.120.189.142","Mozilla/5.0 (Windows NT 10.0; Win64; x64) AppleWebKit/537.36 (KHTML, like Gecko) Chrome/138.0.0.0 Safari/537.36","WebKit","Chrome","138.0.0.0","Windows","10.0","https://app.prolific.com/","en-US,en;q=0.9","672c8a3b9fb83ab9c5f02fd2","6877631c9844ddd5501205fc","6889d9c5f0f4e162a312abd9","3","1","672c8a3b9fb83ab9c5f02fd2","3","1","2025-07-30T08:47:12.084Z","","","","","","","","","","","AttribQ","","50","","","","","","","","","","","","","","","","","","","","","","","","","","","","",""
"2228","","<div style=""width:500px;"">
  <p>How much control did you have over the ball?</p>
  </div>","85","html-slider-response","41","583835","0.0-5.0-2.6","254","1","2025-07-30 08:37:33","1f75c3e559b7213887762d5229550c2b","216.120.189.142","Mozilla/5.0 (Windows NT 10.0; Win64; x64) AppleWebKit/537.36 (KHTML, like Gecko) Chrome/138.0.0.0 Safari/537.36","WebKit","Chrome","138.0.0.0","Windows","10.0","https://app.prolific.com/","en-US,en;q=0.9","672c8a3b9fb83ab9c5f02fd2","6877631c9844ddd5501205fc","6889d9c5f0f4e162a312abd9","3","1","672c8a3b9fb83ab9c5f02fd2","3","1","2025-07-30T08:47:14.315Z","","","","","","","","","","","ControlQ","","50","","","","","","","","","","","","","","","","","","","","","","","","","","","","",""
"3234","","<div style=""width:500px;"">
  <p>How would you describe your current emotional state?</p>
  </div>","2","html-slider-response","42","587071","0.0-5.0-3.6","254","1","2025-07-30 08:37:33","1f75c3e559b7213887762d5229550c2b","216.120.189.142","Mozilla/5.0 (Windows NT 10.0; Win64; x64) AppleWebKit/537.36 (KHTML, like Gecko) Chrome/138.0.0.0 Safari/537.36","WebKit","Chrome","138.0.0.0","Windows","10.0","https://app.prolific.com/","en-US,en;q=0.9","672c8a3b9fb83ab9c5f02fd2","6877631c9844ddd5501205fc","6889d9c5f0f4e162a312abd9","3","1","672c8a3b9fb83ab9c5f02fd2","3","1","2025-07-30T08:47:17.551Z","","","","","","","","","","","StressQ","","50","","","","","","","","","","","","","","","","","","","","","","","","","","","","",""
"1912","","<div style=""width:500px;"">
  <p>What best describes how you currently feel?</p>
  </div>","100","html-slider-response","43","588986","0.0-5.0-4.6","254","1","2025-07-30 08:37:33","1f75c3e559b7213887762d5229550c2b","216.120.189.142","Mozilla/5.0 (Windows NT 10.0; Win64; x64) AppleWebKit/537.36 (KHTML, like Gecko) Chrome/138.0.0.0 Safari/537.36","WebKit","Chrome","138.0.0.0","Windows","10.0","https://app.prolific.com/","en-US,en;q=0.9","672c8a3b9fb83ab9c5f02fd2","6877631c9844ddd5501205fc","6889d9c5f0f4e162a312abd9","3","1","672c8a3b9fb83ab9c5f02fd2","3","1","2025-07-30T08:47:19.467Z","","","","","","","","","","","MotivationQ","","50","","","","","","","","","","","","","","","","","","","","","","","","","","","","",""
"","","","","ctl-task-cpt","44","624248","0.0-5.0-0.7","254","1","2025-07-30 08:37:33","1f75c3e559b7213887762d5229550c2b","216.120.189.142","Mozilla/5.0 (Windows NT 10.0; Win64; x64) AppleWebKit/537.36 (KHTML, like Gecko) Chrome/138.0.0.0 Safari/537.36","WebKit","Chrome","138.0.0.0","Windows","10.0","https://app.prolific.com/","en-US,en;q=0.9","672c8a3b9fb83ab9c5f02fd2","6877631c9844ddd5501205fc","6889d9c5f0f4e162a312abd9","3","1","672c8a3b9fb83ab9c5f02fd2","3","1","2025-07-30T08:47:54.728Z","","","","","","","","","","","","","","win-only","3","g1:SW,g2:NE","0.3","8","0","591238","2288.8","7293.3","32233.3","1","4","4","6","2","4","4","30","26","0.22727272727272727","1448.7","3000","770","[""up"",""right""]","{""num_key_presses"":8,""num_perfect"":2,""num_errors"":0,""num_randdir"":6,""num_randdir_good_moves"":5,""num_whilered"":0,""num_whileblue"":0,""num_blue"":1,""num_good_moves"":7}","[292.22232142857143,301.12857142857143,0.3,292.22232142857143,301.12857142857143,107,292.22232142857143,301.12857142857143,208.1,292.22232142857143,301.12857142857143,316.7,292.22232142857143,301.12857142857143,418.7,292.22232142857143,301.12857142857143,523.2,292.22232142857143,304.12857142857143,629.4,318.22232142857143,291.12857142857143,735.4,439.22232142857143,184.12857142857143,842.3,474.22232142857143,153.12857142857143,946.6,484.22232142857143,147.12857142857143,1051,513.2223214285714,113.12857142857143,1153.7,528.2223214285714,85.12857142857143,1256.7,536.2223214285714,63.128571428571426,1366.5,536.2223214285714,63.128571428571426,1468.1,536.2223214285714,63.128571428571426,1585.7,538.2223214285714,80.12857142857143,1697.8,542.2223214285714,235.12857142857143,1802.3,526.2223214285714,366.12857142857143,1908.6,526.2223214285714,371.12857142857143,2021,526.2223214285714,371.12857142857143,2129.3,526.2223214285714,371.12857142857143,2234.2,526.2223214285714,371.12857142857143,2338,526.2223214285714,371.12857142857143,2449.2,526.2223214285714,371.12857142857143,2557,526.2223214285714,371.12857142857143,2662.2,526.2223214285714,371.12857142857143,2764.9,525.2223214285714,373.12857142857143,2866.6,512.2223214285714,405.12857142857143,2969.3,495.22232142857143,437.12857142857143,3072.5,495.22232142857143,437.12857142857143,3184,495.22232142857143,437.12857142857143,3289.4,495.22232142857143,437.12857142857143,3396.3,495.22232142857143,437.12857142857143,3500.3,495.22232142857143,437.12857142857143,3604.1,495.22232142857143,437.12857142857143,3711.3,495.22232142857143,437.12857142857143,3818,495.22232142857143,437.12857142857143,3933.3,495.22232142857143,437.12857142857143,4034.6,495.22232142857143,437.12857142857143,4139.5,495.22232142857143,437.12857142857143,4254.8,495.22232142857143,437.12857142857143,4356.8,495.22232142857143,437.12857142857143,4458.9,495.22232142857143,437.12857142857143,4560.7,495.22232142857143,437.12857142857143,4664.1,495.22232142857143,437.12857142857143,4766.4,495.22232142857143,437.12857142857143,4874.9,495.22232142857143,437.12857142857143,4977.8]","[1525.1,1525.1,1000,0,525.1,""oops"",""right"",""up"",""good_move"",4742.6,3216.8,2810.9,1525.9,405.8,""oops"",""right"",""right"",""good_move"",11677.2,6933.7,2985.6,8329.7,362,""oops"",""right"",""down"",""bad_move"",13867,2188.7,1336.9,11678.3,851.8,""oops"",""right"",""right"",""good_move"",16862.4,2994.3,2632.8,13869.5,360.1,""oops"",""right"",""up"",""good_move"",20567.7,3704.7,3321.7,16863,383,""oops"",""right"",""up"",""good_move"",23275.1,2706.6,2319,20568.6,387.6,""smooth"",""right"",""right"",""good_move"",24792.1,1516.3,1050.5,23275.8,465.8,""smooth"",""up"",""up"",""good_move""]","",""
"3424","","<div style=""width:500px;"">
  <p>What determined the result of this run?</p>
  </div>","50","html-slider-response","45","627674","0.0-5.0-1.7","254","1","2025-07-30 08:37:33","1f75c3e559b7213887762d5229550c2b","216.120.189.142","Mozilla/5.0 (Windows NT 10.0; Win64; x64) AppleWebKit/537.36 (KHTML, like Gecko) Chrome/138.0.0.0 Safari/537.36","WebKit","Chrome","138.0.0.0","Windows","10.0","https://app.prolific.com/","en-US,en;q=0.9","672c8a3b9fb83ab9c5f02fd2","6877631c9844ddd5501205fc","6889d9c5f0f4e162a312abd9","3","1","672c8a3b9fb83ab9c5f02fd2","3","1","2025-07-30T08:47:58.154Z","","","","","","","","","","","AttribQ","","50","","","","","","","","","","","","","","","","","","","","","","","","","","","","",""
"3364","","<div style=""width:500px;"">
  <p>How much control did you have over the ball?</p>
  </div>","50","html-slider-response","46","631041","0.0-5.0-2.7","254","1","2025-07-30 08:37:33","1f75c3e559b7213887762d5229550c2b","216.120.189.142","Mozilla/5.0 (Windows NT 10.0; Win64; x64) AppleWebKit/537.36 (KHTML, like Gecko) Chrome/138.0.0.0 Safari/537.36","WebKit","Chrome","138.0.0.0","Windows","10.0","https://app.prolific.com/","en-US,en;q=0.9","672c8a3b9fb83ab9c5f02fd2","6877631c9844ddd5501205fc","6889d9c5f0f4e162a312abd9","3","1","672c8a3b9fb83ab9c5f02fd2","3","1","2025-07-30T08:48:01.522Z","","","","","","","","","","","ControlQ","","50","","","","","","","","","","","","","","","","","","","","","","","","","","","","",""
"2875","","<div style=""width:500px;"">
  <p>How would you describe your current emotional state?</p>
  </div>","0","html-slider-response","47","633921","0.0-5.0-3.7","254","1","2025-07-30 08:37:33","1f75c3e559b7213887762d5229550c2b","216.120.189.142","Mozilla/5.0 (Windows NT 10.0; Win64; x64) AppleWebKit/537.36 (KHTML, like Gecko) Chrome/138.0.0.0 Safari/537.36","WebKit","Chrome","138.0.0.0","Windows","10.0","https://app.prolific.com/","en-US,en;q=0.9","672c8a3b9fb83ab9c5f02fd2","6877631c9844ddd5501205fc","6889d9c5f0f4e162a312abd9","3","1","672c8a3b9fb83ab9c5f02fd2","3","1","2025-07-30T08:48:04.401Z","","","","","","","","","","","StressQ","","50","","","","","","","","","","","","","","","","","","","","","","","","","","","","",""
"2961","","<div style=""width:500px;"">
  <p>What best describes how you currently feel?</p>
  </div>","98","html-slider-response","48","636884","0.0-5.0-4.7","254","1","2025-07-30 08:37:33","1f75c3e559b7213887762d5229550c2b","216.120.189.142","Mozilla/5.0 (Windows NT 10.0; Win64; x64) AppleWebKit/537.36 (KHTML, like Gecko) Chrome/138.0.0.0 Safari/537.36","WebKit","Chrome","138.0.0.0","Windows","10.0","https://app.prolific.com/","en-US,en;q=0.9","672c8a3b9fb83ab9c5f02fd2","6877631c9844ddd5501205fc","6889d9c5f0f4e162a312abd9","3","1","672c8a3b9fb83ab9c5f02fd2","3","1","2025-07-30T08:48:07.364Z","","","","","","","","","","","MotivationQ","","50","","","","","","","","","","","","","","","","","","","","","","","","","","","","",""
"","","","","ctl-task-cpt","49","699779","0.0-5.0-0.8","254","1","2025-07-30 08:37:33","1f75c3e559b7213887762d5229550c2b","216.120.189.142","Mozilla/5.0 (Windows NT 10.0; Win64; x64) AppleWebKit/537.36 (KHTML, like Gecko) Chrome/138.0.0.0 Safari/537.36","WebKit","Chrome","138.0.0.0","Windows","10.0","https://app.prolific.com/","en-US,en;q=0.9","672c8a3b9fb83ab9c5f02fd2","6877631c9844ddd5501205fc","6889d9c5f0f4e162a312abd9","3","1","672c8a3b9fb83ab9c5f02fd2","3","1","2025-07-30T08:49:10.259Z","","","","","","","","","","","","","","win-only","3","g1:SW,g2:NE","0.2","9","0","639134.7","4591.4","9595.8","59869","1","4","8","6","2","-8","-8","22","30","0.16666666666666666","1353.5","3000","-960","[""up"",""right""]","{""num_key_presses"":15,""num_perfect"":3,""num_errors"":0,""num_randdir"":12,""num_randdir_good_moves"":6,""num_whilered"":0,""num_whileblue"":0,""num_blue"":2,""num_good_moves"":9}","[296.22232142857143,290.12857142857143,0.4,296.22232142857143,290.12857142857143,106.3,296.22232142857143,290.12857142857143,208.2,296.22232142857143,290.12857142857143,311.8,296.22232142857143,290.12857142857143,439.2,296.22232142857143,290.12857142857143,547.9,296.22232142857143,290.12857142857143,658,324.22232142857143,271.12857142857143,762.3,415.22232142857143,201.12857142857143,872.3,461.22232142857143,131.12857142857143,976.8,480.22232142857143,114.12857142857143,1078.2,531.2223214285714,58.128571428571426,1186.2,531.2223214285714,58.128571428571426,1291.7,531.2223214285714,58.128571428571426,1408.1,531.2223214285714,58.128571428571426,1510,535.2223214285714,71.12857142857143,1612.1,549.2223214285714,120.12857142857143,1718.7,527.2223214285714,277.12857142857143,1835.1,489.22232142857143,403.12857142857143,1938.8,484.22232142857143,431.12857142857143,2040.2,476.22232142857143,447.12857142857143,2146.5,473.22232142857143,450.12857142857143,2261.4,473.22232142857143,450.12857142857143,2378.2,473.22232142857143,450.12857142857143,2478.8,473.22232142857143,450.12857142857143,2580.2,473.22232142857143,450.12857142857143,2682.1,473.22232142857143,450.12857142857143,2790.4,473.22232142857143,450.12857142857143,2894.2,473.22232142857143,450.12857142857143,3000.6,473.22232142857143,450.12857142857143,3108,473.22232142857143,450.12857142857143,3213.7,473.22232142857143,450.12857142857143,3319.9,473.22232142857143,450.12857142857143,3421.4,473.22232142857143,450.12857142857143,3524.2,473.22232142857143,450.12857142857143,3630.4,473.22232142857143,450.12857142857143,3733.9,473.22232142857143,450.12857142857143,3849.9,473.22232142857143,450.12857142857143,3965.4,473.22232142857143,450.12857142857143,4075,473.22232142857143,450.12857142857143,4184,473.22232142857143,450.12857142857143,4296,473.22232142857143,450.12857142857143,4398.4,473.22232142857143,450.12857142857143,4506.8,473.22232142857143,450.12857142857143,4611.4,473.22232142857143,450.12857142857143,4711.9,473.22232142857143,450.12857142857143,4813.4,473.22232142857143,450.12857142857143,4914.9]","[1588.7,1588.7,1000,0,588.7,""oops"",""right"",""up"",""good_move"",5358.5,3768.9,3452,1589.6,316.9,""smooth"",""right"",""right"",""good_move"",8335.9,2975.9,2634.7,5360,341.2,""oops"",""right"",""up"",""good_move"",10731,2394.8,1981.4,8336.2,413.4,""smooth"",""right"",""right"",""good_move"",13471.2,2739.4,2335.7,10731.9,403.6,""oops"",""right"",""right"",""good_move"",15981.9,2509.7,2148.9,13472.3,360.7,""oops"",""up"",""down"",""bad_move"",18213.6,2230.4,1807.9,15983.2,422.5,""oops"",""up"",""left"",""bad_move"",20267.7,2053.3,1703.1,18214.6,350.1,""oops"",""up"",""up"",""good_move"",22801.6,2532.9,2147.9,20268.7,385,""oops"",""up"",""left"",""bad_move"",29235.7,6431.9,2469.1,26411.3,355.3,""oops"",""up"",""left"",""bad_move"",31988.6,2752.6,2361.9,29236,390.7,""smooth"",""up"",""up"",""good_move"",34927.4,2938.5,2548.6,31988.9,389.9,""oops"",""right"",""down"",""bad_move"",38142.3,3212.3,2830.2,34930,382.1,""oops"",""right"",""up"",""good_move"",41493.9,3351.3,3012.9,38142.6,338.4,""oops"",""right"",""right"",""good_move"",43768.5,2273.4,1713.4,41495.1,560,""oops"",""right"",""down"",""bad_move""]","",""
"2434","","<div style=""width:500px;"">
  <p>What determined the result of this run?</p>
  </div>","50","html-slider-response","50","702216","0.0-5.0-1.8","254","1","2025-07-30 08:37:33","1f75c3e559b7213887762d5229550c2b","216.120.189.142","Mozilla/5.0 (Windows NT 10.0; Win64; x64) AppleWebKit/537.36 (KHTML, like Gecko) Chrome/138.0.0.0 Safari/537.36","WebKit","Chrome","138.0.0.0","Windows","10.0","https://app.prolific.com/","en-US,en;q=0.9","672c8a3b9fb83ab9c5f02fd2","6877631c9844ddd5501205fc","6889d9c5f0f4e162a312abd9","3","1","672c8a3b9fb83ab9c5f02fd2","3","1","2025-07-30T08:49:12.697Z","","","","","","","","","","","AttribQ","","50","","","","","","","","","","","","","","","","","","","","","","","","","","","","",""
"1980","","<div style=""width:500px;"">
  <p>How much control did you have over the ball?</p>
  </div>","50","html-slider-response","51","704199","0.0-5.0-2.8","254","1","2025-07-30 08:37:33","1f75c3e559b7213887762d5229550c2b","216.120.189.142","Mozilla/5.0 (Windows NT 10.0; Win64; x64) AppleWebKit/537.36 (KHTML, like Gecko) Chrome/138.0.0.0 Safari/537.36","WebKit","Chrome","138.0.0.0","Windows","10.0","https://app.prolific.com/","en-US,en;q=0.9","672c8a3b9fb83ab9c5f02fd2","6877631c9844ddd5501205fc","6889d9c5f0f4e162a312abd9","3","1","672c8a3b9fb83ab9c5f02fd2","3","1","2025-07-30T08:49:14.679Z","","","","","","","","","","","ControlQ","","50","","","","","","","","","","","","","","","","","","","","","","","","","","","","",""
"2444","","<div style=""width:500px;"">
  <p>How would you describe your current emotional state?</p>
  </div>","3","html-slider-response","52","706646","0.0-5.0-3.8","254","1","2025-07-30 08:37:33","1f75c3e559b7213887762d5229550c2b","216.120.189.142","Mozilla/5.0 (Windows NT 10.0; Win64; x64) AppleWebKit/537.36 (KHTML, like Gecko) Chrome/138.0.0.0 Safari/537.36","WebKit","Chrome","138.0.0.0","Windows","10.0","https://app.prolific.com/","en-US,en;q=0.9","672c8a3b9fb83ab9c5f02fd2","6877631c9844ddd5501205fc","6889d9c5f0f4e162a312abd9","3","1","672c8a3b9fb83ab9c5f02fd2","3","1","2025-07-30T08:49:17.127Z","","","","","","","","","","","StressQ","","50","","","","","","","","","","","","","","","","","","","","","","","","","","","","",""
"2233","","<div style=""width:500px;"">
  <p>What best describes how you currently feel?</p>
  </div>","100","html-slider-response","53","708882","0.0-5.0-4.8","254","1","2025-07-30 08:37:33","1f75c3e559b7213887762d5229550c2b","216.120.189.142","Mozilla/5.0 (Windows NT 10.0; Win64; x64) AppleWebKit/537.36 (KHTML, like Gecko) Chrome/138.0.0.0 Safari/537.36","WebKit","Chrome","138.0.0.0","Windows","10.0","https://app.prolific.com/","en-US,en;q=0.9","672c8a3b9fb83ab9c5f02fd2","6877631c9844ddd5501205fc","6889d9c5f0f4e162a312abd9","3","1","672c8a3b9fb83ab9c5f02fd2","3","1","2025-07-30T08:49:19.362Z","","","","","","","","","","","MotivationQ","","50","","","","","","","","","","","","","","","","","","","","","","","","","","","","",""
"","","","","ctl-task-cpt","54","773665","0.0-5.0-0.9","254","1","2025-07-30 08:37:33","1f75c3e559b7213887762d5229550c2b","216.120.189.142","Mozilla/5.0 (Windows NT 10.0; Win64; x64) AppleWebKit/537.36 (KHTML, like Gecko) Chrome/138.0.0.0 Safari/537.36","WebKit","Chrome","138.0.0.0","Windows","10.0","https://app.prolific.com/","en-US,en;q=0.9","672c8a3b9fb83ab9c5f02fd2","6877631c9844ddd5501205fc","6889d9c5f0f4e162a312abd9","3","1","672c8a3b9fb83ab9c5f02fd2","3","1","2025-07-30T08:50:24.145Z","","","","","","","","","","","","","","win-only","1","g1:NE,g2:SW","0.4","10","0","711135.7","2648.7","7671.8","61748","1","4","4","6","2","4","4","26","22","0.19696969696969696","1261.7","3000","1535","[""down"",""left""]","{""num_key_presses"":12,""num_perfect"":5,""num_errors"":0,""num_randdir"":7,""num_randdir_good_moves"":4,""num_whilered"":0,""num_whileblue"":0,""num_blue"":5,""num_good_moves"":9}","[302.22232142857143,291.12857142857143,0.3,302.22232142857143,291.12857142857143,103.8,302.22232142857143,291.12857142857143,228.7,302.22232142857143,291.12857142857143,341.1,302.22232142857143,291.12857142857143,460.1,281.22232142857143,299.12857142857143,579.6,104.22232142857143,387.12857142857143,682.6,47.222321428571426,436.12857142857143,805.6,41.222321428571426,475.12857142857143,929.3,40.222321428571426,487.12857142857143,1037.2,40.222321428571426,512.1285714285714,1151.1,41.222321428571426,516.1285714285714,1263.9,42.222321428571426,516.1285714285714,1376.7,44.222321428571426,509.12857142857143,1501.6,53.222321428571426,507.12857142857143,1619,54.222321428571426,507.12857142857143,1738.8,54.222321428571426,507.12857142857143,1858.4,54.222321428571426,507.12857142857143,1977.3,54.222321428571426,507.12857142857143,2086.7,54.222321428571426,507.12857142857143,2187.5,54.222321428571426,507.12857142857143,2302.4,54.222321428571426,507.12857142857143,2424.3,54.222321428571426,507.12857142857143,2536.5,54.222321428571426,507.12857142857143,2656.2,54.222321428571426,507.12857142857143,2774.4,54.222321428571426,507.12857142857143,2886.6,54.222321428571426,507.12857142857143,2986.6,54.222321428571426,507.12857142857143,3106.6,54.222321428571426,507.12857142857143,3224.1,54.222321428571426,507.12857142857143,3347.2,54.222321428571426,507.12857142857143,3465.2,54.222321428571426,507.12857142857143,3579.8,54.222321428571426,507.12857142857143,3695.6,54.222321428571426,507.12857142857143,3814,54.222321428571426,507.12857142857143,3947.2,54.222321428571426,507.12857142857143,4068.3,54.222321428571426,507.12857142857143,4172.8,54.222321428571426,507.12857142857143,4297.6,54.222321428571426,507.12857142857143,4418.4,54.222321428571426,507.12857142857143,4534.5,54.222321428571426,507.12857142857143,4634.9,54.222321428571426,507.12857142857143,4754.1,54.222321428571426,507.12857142857143,4869.8,54.222321428571426,507.12857142857143,4971.7]","[1460.6,1460.6,1000,0,460.6,""smooth"",""down"",""down"",""good_move"",10837.8,9376.8,2376.2,8039.8,421.8,""smooth"",""down"",""down"",""good_move"",13205.1,2367,1870,10838.1,497,""smooth"",""down"",""down"",""good_move"",15918.9,2713.2,2279.2,13205.7,434,""smooth"",""left"",""left"",""good_move"",20725.1,4805.7,3297.7,15919.4,1508,""oops"",""left"",""right"",""bad_move"",26912.7,6187.1,2237.5,24241.9,433.3,""oops"",""left"",""right"",""bad_move"",29808.4,2895.1,2432.6,26913.3,462.5,""oops"",""left"",""up"",""bad_move"",38281.7,8472.8,2521.7,35346.8,413.2,""oops"",""left"",""left"",""good_move"",40900.5,2618,2097.8,38282.6,520.2,""oops"",""left"",""left"",""good_move"",47287.1,6386.1,2483.9,44422,381.3,""oops"",""left"",""left"",""good_move"",50735,3447,3023.8,47288,423.2,""oops"",""left"",""down"",""good_move"",53838.4,3103,2624.6,50735.5,478.3,""smooth"",""left"",""left"",""good_move""]","",""
"2869","","<div style=""width:500px;"">
  <p>What determined the result of this run?</p>
  </div>","50","html-slider-response","55","776538","0.0-5.0-1.9","254","1","2025-07-30 08:37:33","1f75c3e559b7213887762d5229550c2b","216.120.189.142","Mozilla/5.0 (Windows NT 10.0; Win64; x64) AppleWebKit/537.36 (KHTML, like Gecko) Chrome/138.0.0.0 Safari/537.36","WebKit","Chrome","138.0.0.0","Windows","10.0","https://app.prolific.com/","en-US,en;q=0.9","672c8a3b9fb83ab9c5f02fd2","6877631c9844ddd5501205fc","6889d9c5f0f4e162a312abd9","3","1","672c8a3b9fb83ab9c5f02fd2","3","1","2025-07-30T08:50:27.018Z","","","","","","","","","","","AttribQ","","50","","","","","","","","","","","","","","","","","","","","","","","","","","","","",""
"3180","","<div style=""width:500px;"">
  <p>How much control did you have over the ball?</p>
  </div>","50","html-slider-response","56","779723","0.0-5.0-2.9","254","1","2025-07-30 08:37:33","1f75c3e559b7213887762d5229550c2b","216.120.189.142","Mozilla/5.0 (Windows NT 10.0; Win64; x64) AppleWebKit/537.36 (KHTML, like Gecko) Chrome/138.0.0.0 Safari/537.36","WebKit","Chrome","138.0.0.0","Windows","10.0","https://app.prolific.com/","en-US,en;q=0.9","672c8a3b9fb83ab9c5f02fd2","6877631c9844ddd5501205fc","6889d9c5f0f4e162a312abd9","3","1","672c8a3b9fb83ab9c5f02fd2","3","1","2025-07-30T08:50:30.204Z","","","","","","","","","","","ControlQ","","50","","","","","","","","","","","","","","","","","","","","","","","","","","","","",""
"2708","","<div style=""width:500px;"">
  <p>How would you describe your current emotional state?</p>
  </div>","0","html-slider-response","57","782435","0.0-5.0-3.9","254","1","2025-07-30 08:37:33","1f75c3e559b7213887762d5229550c2b","216.120.189.142","Mozilla/5.0 (Windows NT 10.0; Win64; x64) AppleWebKit/537.36 (KHTML, like Gecko) Chrome/138.0.0.0 Safari/537.36","WebKit","Chrome","138.0.0.0","Windows","10.0","https://app.prolific.com/","en-US,en;q=0.9","672c8a3b9fb83ab9c5f02fd2","6877631c9844ddd5501205fc","6889d9c5f0f4e162a312abd9","3","1","672c8a3b9fb83ab9c5f02fd2","3","1","2025-07-30T08:50:32.915Z","","","","","","","","","","","StressQ","","50","","","","","","","","","","","","","","","","","","","","","","","","","","","","",""
"2379","","<div style=""width:500px;"">
  <p>What best describes how you currently feel?</p>
  </div>","100","html-slider-response","58","784816","0.0-5.0-4.9","254","1","2025-07-30 08:37:33","1f75c3e559b7213887762d5229550c2b","216.120.189.142","Mozilla/5.0 (Windows NT 10.0; Win64; x64) AppleWebKit/537.36 (KHTML, like Gecko) Chrome/138.0.0.0 Safari/537.36","WebKit","Chrome","138.0.0.0","Windows","10.0","https://app.prolific.com/","en-US,en;q=0.9","672c8a3b9fb83ab9c5f02fd2","6877631c9844ddd5501205fc","6889d9c5f0f4e162a312abd9","3","1","672c8a3b9fb83ab9c5f02fd2","3","1","2025-07-30T08:50:35.296Z","","","","","","","","","","","MotivationQ","","50","","","","","","","","","","","","","","","","","","","","","","","","","","","","",""
"","","","","ctl-task-cpt","59","824784","0.0-5.0-0.10","254","1","2025-07-30 08:37:33","1f75c3e559b7213887762d5229550c2b","216.120.189.142","Mozilla/5.0 (Windows NT 10.0; Win64; x64) AppleWebKit/537.36 (KHTML, like Gecko) Chrome/138.0.0.0 Safari/537.36","WebKit","Chrome","138.0.0.0","Windows","10.0","https://app.prolific.com/","en-US,en;q=0.9","672c8a3b9fb83ab9c5f02fd2","6877631c9844ddd5501205fc","6889d9c5f0f4e162a312abd9","3","1","672c8a3b9fb83ab9c5f02fd2","3","1","2025-07-30T08:51:15.264Z","","","","","","","","","","","","","","win-only","0","g1:NW,g2:SE","0.5","11","0","787065.2","2392","7392.8","36936.1","1","4","8","6","2","8","8","34","26","0.25757575757575757","1533.9","3000","2040","[""down"",""right""]","{""num_key_presses"":8,""num_perfect"":4,""num_errors"":0,""num_randdir"":4,""num_randdir_good_moves"":3,""num_whilered"":0,""num_whileblue"":0,""num_blue"":2,""num_good_moves"":7}","[299.22232142857143,293.12857142857143,0.3,299.22232142857143,293.12857142857143,101.8,299.22232142857143,293.12857142857143,203.3,299.22232142857143,293.12857142857143,314.8,299.22232142857143,293.12857142857143,424,301.22232142857143,300.12857142857143,529.5,362.22232142857143,375.12857142857143,632.9,411.22232142857143,436.12857142857143,741.6,423.22232142857143,451.12857142857143,868.4,448.22232142857143,460.12857142857143,971.5,473.22232142857143,489.12857142857143,1080.3,491.22232142857143,508.12857142857143,1189.4,507.22232142857143,518.1285714285714,1303.3,533.2223214285714,521.1285714285714,1412.3,537.2223214285714,522.1285714285714,1517.2,537.2223214285714,521.1285714285714,1635.6,537.2223214285714,521.1285714285714,1738.1,524.2223214285714,517.1285714285714,1844.2,492.22232142857143,476.12857142857143,1949.6,425.22232142857143,419.12857142857143,2057.4,385.22232142857143,337.12857142857143,2165.2,378.22232142857143,333.12857142857143,2273.4,383.22232142857143,332.12857142857143,2377.5,403.22232142857143,332.12857142857143,2486.8,411.22232142857143,331.12857142857143,2588.9,428.22232142857143,328.12857142857143,2698.4,468.22232142857143,318.12857142857143,2809.2,497.22232142857143,314.12857142857143,2914.2,500.22232142857143,314.12857142857143,3017.8,500.22232142857143,314.12857142857143,3126.9,500.22232142857143,314.12857142857143,3233.6,500.22232142857143,314.12857142857143,3342.3,500.22232142857143,314.12857142857143,3446,500.22232142857143,314.12857142857143,3550.6,500.22232142857143,314.12857142857143,3658.6,500.22232142857143,314.12857142857143,3768.6,500.22232142857143,314.12857142857143,3872.1,500.22232142857143,314.12857142857143,3973.3,500.22232142857143,314.12857142857143,4073.5,500.22232142857143,314.12857142857143,4178.2,500.22232142857143,314.12857142857143,4280.3,500.22232142857143,314.12857142857143,4399.9,500.22232142857143,314.12857142857143,4502.7,500.22232142857143,314.12857142857143,4610.4,500.22232142857143,314.12857142857143,4717.1,500.22232142857143,314.12857142857143,4821,500.22232142857143,314.12857142857143,4921.1]","[1468.1,1468.1,1000,0,468.1,""smooth"",""right"",""right"",""good_move"",11029.6,9560.1,2611.5,8048.6,369.5,""smooth"",""right"",""right"",""good_move"",13908.8,2878.7,2411.8,11030.1,466.9,""smooth"",""right"",""right"",""good_move"",17050.8,3141.2,2414.5,13909.6,726.7,""oops"",""down"",""left"",""bad_move"",20769.2,3717.5,2816.8,17051.8,900.6,""smooth"",""down"",""down"",""good_move"",23591.5,2821.8,2332.9,20769.7,488.9,""oops"",""down"",""down"",""good_move"",25902.1,2309.8,1765.7,23592.3,544.2,""oops"",""down"",""down"",""good_move"",29055.8,3153.2,2726.5,25902.7,426.6,""oops"",""right"",""right"",""good_move""]","",""
"4726","","<div style=""width:500px;"">
  <p>What determined the result of this run?</p>
  </div>","50","html-slider-response","60","829512","0.0-5.0-1.10","254","1","2025-07-30 08:37:33","1f75c3e559b7213887762d5229550c2b","216.120.189.142","Mozilla/5.0 (Windows NT 10.0; Win64; x64) AppleWebKit/537.36 (KHTML, like Gecko) Chrome/138.0.0.0 Safari/537.36","WebKit","Chrome","138.0.0.0","Windows","10.0","https://app.prolific.com/","en-US,en;q=0.9","672c8a3b9fb83ab9c5f02fd2","6877631c9844ddd5501205fc","6889d9c5f0f4e162a312abd9","3","1","672c8a3b9fb83ab9c5f02fd2","3","1","2025-07-30T08:51:19.993Z","","","","","","","","","","","AttribQ","","50","","","","","","","","","","","","","","","","","","","","","","","","","","","","",""
"5819","","<div style=""width:500px;"">
  <p>How much control did you have over the ball?</p>
  </div>","71","html-slider-response","61","835335","0.0-5.0-2.10","254","1","2025-07-30 08:37:33","1f75c3e559b7213887762d5229550c2b","216.120.189.142","Mozilla/5.0 (Windows NT 10.0; Win64; x64) AppleWebKit/537.36 (KHTML, like Gecko) Chrome/138.0.0.0 Safari/537.36","WebKit","Chrome","138.0.0.0","Windows","10.0","https://app.prolific.com/","en-US,en;q=0.9","672c8a3b9fb83ab9c5f02fd2","6877631c9844ddd5501205fc","6889d9c5f0f4e162a312abd9","3","1","672c8a3b9fb83ab9c5f02fd2","3","1","2025-07-30T08:51:25.816Z","","","","","","","","","","","ControlQ","","50","","","","","","","","","","","","","","","","","","","","","","","","","","","","",""
"2805","","<div style=""width:500px;"">
  <p>How would you describe your current emotional state?</p>
  </div>","0","html-slider-response","62","838145","0.0-5.0-3.10","254","1","2025-07-30 08:37:33","1f75c3e559b7213887762d5229550c2b","216.120.189.142","Mozilla/5.0 (Windows NT 10.0; Win64; x64) AppleWebKit/537.36 (KHTML, like Gecko) Chrome/138.0.0.0 Safari/537.36","WebKit","Chrome","138.0.0.0","Windows","10.0","https://app.prolific.com/","en-US,en;q=0.9","672c8a3b9fb83ab9c5f02fd2","6877631c9844ddd5501205fc","6889d9c5f0f4e162a312abd9","3","1","672c8a3b9fb83ab9c5f02fd2","3","1","2025-07-30T08:51:28.625Z","","","","","","","","","","","StressQ","","50","","","","","","","","","","","","","","","","","","","","","","","","","","","","",""
"2985","","<div style=""width:500px;"">
  <p>What best describes how you currently feel?</p>
  </div>","99","html-slider-response","63","841136","0.0-5.0-4.10","254","1","2025-07-30 08:37:33","1f75c3e559b7213887762d5229550c2b","216.120.189.142","Mozilla/5.0 (Windows NT 10.0; Win64; x64) AppleWebKit/537.36 (KHTML, like Gecko) Chrome/138.0.0.0 Safari/537.36","WebKit","Chrome","138.0.0.0","Windows","10.0","https://app.prolific.com/","en-US,en;q=0.9","672c8a3b9fb83ab9c5f02fd2","6877631c9844ddd5501205fc","6889d9c5f0f4e162a312abd9","3","1","672c8a3b9fb83ab9c5f02fd2","3","1","2025-07-30T08:51:31.616Z","","","","","","","","","","","MotivationQ","","50","","","","","","","","","","","","","","","","","","","","","","","","","","","","",""
"","","","","ctl-task-cpt","64","880499","0.0-5.0-0.11","254","1","2025-07-30 08:37:33","1f75c3e559b7213887762d5229550c2b","216.120.189.142","Mozilla/5.0 (Windows NT 10.0; Win64; x64) AppleWebKit/537.36 (KHTML, like Gecko) Chrome/138.0.0.0 Safari/537.36","WebKit","Chrome","138.0.0.0","Windows","10.0","https://app.prolific.com/","en-US,en;q=0.9","672c8a3b9fb83ab9c5f02fd2","6877631c9844ddd5501205fc","6889d9c5f0f4e162a312abd9","3","1","672c8a3b9fb83ab9c5f02fd2","3","1","2025-07-30T08:52:10.980Z","","","","","","","","","","","","","","win-only","1","g1:NE,g2:SW","0.6","12","0","843386.7","1292","6295.5","36331.2","1","4","4","6","2","4","4","38","34","0.2878787878787879","1357.1","3000","2165","[""down"",""left""]","{""num_key_presses"":8,""num_perfect"":4,""num_errors"":0,""num_randdir"":4,""num_randdir_good_moves"":3,""num_whilered"":0,""num_whileblue"":0,""num_blue"":0,""num_good_moves"":7}","[295.22232142857143,289.12857142857143,0.3,295.22232142857143,289.12857142857143,130,295.22232142857143,289.12857142857143,258.5,295.22232142857143,289.12857142857143,388,295.22232142857143,289.12857142857143,510.6,295.22232142857143,293.12857142857143,637.3,143.22232142857143,447.12857142857143,770.8,41.222321428571426,530.1285714285714,871.6,8.222321428571426,561.1285714285714,972,8.222321428571426,562.1285714285714,1096.8,11.222321428571426,560.1285714285714,1199,12.222321428571426,556.1285714285714,1334.2,13.222321428571426,555.1285714285714,1448.1,13.222321428571426,555.1285714285714,1549.5,31.222321428571426,549.1285714285714,1678.3,73.22232142857143,541.1285714285714,1805.6,74.22232142857143,541.1285714285714,1928.7,74.22232142857143,541.1285714285714,2044.8,74.22232142857143,541.1285714285714,2166.6,74.22232142857143,541.1285714285714,2299.9,74.22232142857143,541.1285714285714,2420.5,74.22232142857143,541.1285714285714,2520.9,74.22232142857143,541.1285714285714,2641.7,74.22232142857143,541.1285714285714,2762.8,74.22232142857143,541.1285714285714,2892,74.22232142857143,541.1285714285714,3017.1,74.22232142857143,541.1285714285714,3144,74.22232142857143,541.1285714285714,3269.2,74.22232142857143,541.1285714285714,3394.4,74.22232142857143,541.1285714285714,3520.5,74.22232142857143,541.1285714285714,3647.2,74.22232142857143,541.1285714285714,3771.5,74.22232142857143,541.1285714285714,3897,74.22232142857143,541.1285714285714,4020.9,74.22232142857143,541.1285714285714,4140.8,74.22232142857143,541.1285714285714,4267.1,74.22232142857143,541.1285714285714,4398.1,74.22232142857143,541.1285714285714,4532,74.22232142857143,541.1285714285714,4658.2,74.22232142857143,541.1285714285714,4779.3,74.22232142857143,541.1285714285714,4905.3]","[1541.8,1541.8,1000,0,541.9,""smooth"",""down"",""down"",""good_move"",3788.9,2246.1,1780.2,1542.8,465.9,""smooth"",""down"",""down"",""good_move"",6620.2,2830.7,2338.2,3789.5,492.5,""oops"",""down"",""left"",""good_move"",13583.3,6962.6,2335.6,6620.7,4627,""oops"",""down"",""down"",""good_move"",17100.4,3516.7,2995.9,13583.7,520.8,""smooth"",""left"",""left"",""good_move"",23196.3,6095.5,2391.8,17100.8,3703.7,""oops"",""left"",""up"",""bad_move"",26702.2,3505.1,3079.2,23197.1,425.9,""oops"",""left"",""down"",""good_move"",29794.7,3091.9,2642.2,26702.8,449.7,""smooth"",""left"",""left"",""good_move""]","",""
"3084","","<div style=""width:500px;"">
  <p>What determined the result of this run?</p>
  </div>","50","html-slider-response","65","883586","0.0-5.0-1.11","254","1","2025-07-30 08:37:33","1f75c3e559b7213887762d5229550c2b","216.120.189.142","Mozilla/5.0 (Windows NT 10.0; Win64; x64) AppleWebKit/537.36 (KHTML, like Gecko) Chrome/138.0.0.0 Safari/537.36","WebKit","Chrome","138.0.0.0","Windows","10.0","https://app.prolific.com/","en-US,en;q=0.9","672c8a3b9fb83ab9c5f02fd2","6877631c9844ddd5501205fc","6889d9c5f0f4e162a312abd9","3","1","672c8a3b9fb83ab9c5f02fd2","3","1","2025-07-30T08:52:14.067Z","","","","","","","","","","","AttribQ","","50","","","","","","","","","","","","","","","","","","","","","","","","","","","","",""
"3849","","<div style=""width:500px;"">
  <p>How much control did you have over the ball?</p>
  </div>","74","html-slider-response","66","887439","0.0-5.0-2.11","254","1","2025-07-30 08:37:33","1f75c3e559b7213887762d5229550c2b","216.120.189.142","Mozilla/5.0 (Windows NT 10.0; Win64; x64) AppleWebKit/537.36 (KHTML, like Gecko) Chrome/138.0.0.0 Safari/537.36","WebKit","Chrome","138.0.0.0","Windows","10.0","https://app.prolific.com/","en-US,en;q=0.9","672c8a3b9fb83ab9c5f02fd2","6877631c9844ddd5501205fc","6889d9c5f0f4e162a312abd9","3","1","672c8a3b9fb83ab9c5f02fd2","3","1","2025-07-30T08:52:17.920Z","","","","","","","","","","","ControlQ","","50","","","","","","","","","","","","","","","","","","","","","","","","","","","","",""
"3143","","<div style=""width:500px;"">
  <p>How would you describe your current emotional state?</p>
  </div>","0","html-slider-response","67","890585","0.0-5.0-3.11","254","1","2025-07-30 08:37:33","1f75c3e559b7213887762d5229550c2b","216.120.189.142","Mozilla/5.0 (Windows NT 10.0; Win64; x64) AppleWebKit/537.36 (KHTML, like Gecko) Chrome/138.0.0.0 Safari/537.36","WebKit","Chrome","138.0.0.0","Windows","10.0","https://app.prolific.com/","en-US,en;q=0.9","672c8a3b9fb83ab9c5f02fd2","6877631c9844ddd5501205fc","6889d9c5f0f4e162a312abd9","3","1","672c8a3b9fb83ab9c5f02fd2","3","1","2025-07-30T08:52:21.065Z","","","","","","","","","","","StressQ","","50","","","","","","","","","","","","","","","","","","","","","","","","","","","","",""
"3028","","<div style=""width:500px;"">
  <p>What best describes how you currently feel?</p>
  </div>","99","html-slider-response","68","893617","0.0-5.0-4.11","254","1","2025-07-30 08:37:33","1f75c3e559b7213887762d5229550c2b","216.120.189.142","Mozilla/5.0 (Windows NT 10.0; Win64; x64) AppleWebKit/537.36 (KHTML, like Gecko) Chrome/138.0.0.0 Safari/537.36","WebKit","Chrome","138.0.0.0","Windows","10.0","https://app.prolific.com/","en-US,en;q=0.9","672c8a3b9fb83ab9c5f02fd2","6877631c9844ddd5501205fc","6889d9c5f0f4e162a312abd9","3","1","672c8a3b9fb83ab9c5f02fd2","3","1","2025-07-30T08:52:24.097Z","","","","","","","","","","","MotivationQ","","50","","","","","","","","","","","","","","","","","","","","","","","","","","","","",""
"","","","","ctl-task-cpt","69","934465","0.0-5.0-0.12","254","1","2025-07-30 08:37:33","1f75c3e559b7213887762d5229550c2b","216.120.189.142","Mozilla/5.0 (Windows NT 10.0; Win64; x64) AppleWebKit/537.36 (KHTML, like Gecko) Chrome/138.0.0.0 Safari/537.36","WebKit","Chrome","138.0.0.0","Windows","10.0","https://app.prolific.com/","en-US,en;q=0.9","672c8a3b9fb83ab9c5f02fd2","6877631c9844ddd5501205fc","6889d9c5f0f4e162a312abd9","3","1","672c8a3b9fb83ab9c5f02fd2","3","1","2025-07-30T08:53:04.945Z","","","","","","","","","","","","","","win-only","2","g1:SE,g2:NW","0.7","13","0","895869.2","1796.1","6803.3","37817.2","1","4","8","6","2","8","7","45","38","0.3409090909090909","1150.5","3000","1750","[""left"",""up""]","{""num_key_presses"":10,""num_perfect"":7,""num_errors"":1,""num_randdir"":2,""num_randdir_good_moves"":1,""num_whilered"":0,""num_whileblue"":1,""num_blue"":1,""num_good_moves"":8}","[297.22232142857143,292.12857142857143,0.4,297.22232142857143,292.12857142857143,100.6,297.22232142857143,292.12857142857143,205.3,297.22232142857143,292.12857142857143,311.2,297.22232142857143,292.12857142857143,411.8,297.22232142857143,292.12857142857143,512.8,278.22232142857143,272.12857142857143,624.7,68.22232142857143,146.12857142857143,735.3,31.222321428571426,84.12857142857143,837.5,27.222321428571426,72.12857142857143,937.7,38.222321428571426,72.12857142857143,1047.2,38.222321428571426,72.12857142857143,1155.3,39.222321428571426,72.12857142857143,1266.5,41.222321428571426,79.12857142857143,1372.1,104.22232142857143,128.12857142857143,1479.1,284.22232142857143,260.12857142857143,1592.3,351.22232142857143,288.12857142857143,1697.9,366.22232142857143,280.12857142857143,1798,411.22232142857143,268.12857142857143,1904.1,452.22232142857143,263.12857142857143,2014.1,468.22232142857143,266.12857142857143,2122.3,473.22232142857143,272.12857142857143,2231.2,476.22232142857143,276.12857142857143,2331.4,476.22232142857143,276.12857142857143,2433.9,476.22232142857143,276.12857142857143,2540.5,476.22232142857143,276.12857142857143,2651,476.22232142857143,276.12857142857143,2753.3,476.22232142857143,276.12857142857143,2860.8,476.22232142857143,276.12857142857143,2970.7,476.22232142857143,276.12857142857143,3072.5,476.22232142857143,276.12857142857143,3175.9,476.22232142857143,276.12857142857143,3288.3,476.22232142857143,276.12857142857143,3398.5,476.22232142857143,276.12857142857143,3501.9,476.22232142857143,276.12857142857143,3608.4,476.22232142857143,276.12857142857143,3718.2,476.22232142857143,276.12857142857143,3830.5,476.22232142857143,276.12857142857143,3945.1,476.22232142857143,276.12857142857143,4053.2,476.22232142857143,276.12857142857143,4167.9,476.22232142857143,276.12857142857143,4275.1,476.22232142857143,276.12857142857143,4385.9,476.22232142857143,276.12857142857143,4488.8,476.22232142857143,276.12857142857143,4594.9,476.22232142857143,276.12857142857143,4702.1,476.22232142857143,276.12857142857143,4816,476.22232142857143,276.12857142857143,4919.5]","[1758.7,1758.7,1000,0,758.7,""oops"",""up"",""left"",""good_move"",5194.2,3434.7,2085.8,1759.5,1348.9,""oops"",""up"",""right"",""bad_move"",8302.3,3106.4,2630.6,5195.9,475.8,""smooth"",""up"",""up"",""good_move"",12278.4,3975.2,2561.3,8303.2,1413.9,""smooth"",""up"",""up"",""good_move"",16183.5,3904.2,1580.4,12279.3,2323.8,""smooth"",""up"",""up"",""good_move"",19363.2,3179,2810.2,16184.2,368.8,""smooth"",""left"",""left"",""good_move"",22318.3,2954.2,2581.5,19364.1,372.7,""smooth"",""left"",""left"",""good_move"",25191,2871.7,2459.9,22319.4,411.7,""while_blue"",""left"",""right"",""bad_move"",27789.6,2598,2168.4,25191.6,429.6,""smooth"",""left"",""left"",""good_move"",30795.8,3005.6,2578,27790.2,427.7,""smooth"",""left"",""left"",""good_move""]","",""
"6477","","<div style=""width:500px;"">
  <p>What determined the result of this run?</p>
  </div>","50","html-slider-response","70","940945","0.0-5.0-1.12","254","1","2025-07-30 08:37:33","1f75c3e559b7213887762d5229550c2b","216.120.189.142","Mozilla/5.0 (Windows NT 10.0; Win64; x64) AppleWebKit/537.36 (KHTML, like Gecko) Chrome/138.0.0.0 Safari/537.36","WebKit","Chrome","138.0.0.0","Windows","10.0","https://app.prolific.com/","en-US,en;q=0.9","672c8a3b9fb83ab9c5f02fd2","6877631c9844ddd5501205fc","6889d9c5f0f4e162a312abd9","3","1","672c8a3b9fb83ab9c5f02fd2","3","1","2025-07-30T08:53:11.425Z","","","","","","","","","","","AttribQ","","50","","","","","","","","","","","","","","","","","","","","","","","","","","","","",""
"3165","","<div style=""width:500px;"">
  <p>How much control did you have over the ball?</p>
  </div>","50","html-slider-response","71","944113","0.0-5.0-2.12","254","1","2025-07-30 08:37:33","1f75c3e559b7213887762d5229550c2b","216.120.189.142","Mozilla/5.0 (Windows NT 10.0; Win64; x64) AppleWebKit/537.36 (KHTML, like Gecko) Chrome/138.0.0.0 Safari/537.36","WebKit","Chrome","138.0.0.0","Windows","10.0","https://app.prolific.com/","en-US,en;q=0.9","672c8a3b9fb83ab9c5f02fd2","6877631c9844ddd5501205fc","6889d9c5f0f4e162a312abd9","3","1","672c8a3b9fb83ab9c5f02fd2","3","1","2025-07-30T08:53:14.593Z","","","","","","","","","","","ControlQ","","50","","","","","","","","","","","","","","","","","","","","","","","","","","","","",""
"2693","","<div style=""width:500px;"">
  <p>How would you describe your current emotional state?</p>
  </div>","1","html-slider-response","72","946808","0.0-5.0-3.12","254","1","2025-07-30 08:37:33","1f75c3e559b7213887762d5229550c2b","216.120.189.142","Mozilla/5.0 (Windows NT 10.0; Win64; x64) AppleWebKit/537.36 (KHTML, like Gecko) Chrome/138.0.0.0 Safari/537.36","WebKit","Chrome","138.0.0.0","Windows","10.0","https://app.prolific.com/","en-US,en;q=0.9","672c8a3b9fb83ab9c5f02fd2","6877631c9844ddd5501205fc","6889d9c5f0f4e162a312abd9","3","1","672c8a3b9fb83ab9c5f02fd2","3","1","2025-07-30T08:53:17.288Z","","","","","","","","","","","StressQ","","50","","","","","","","","","","","","","","","","","","","","","","","","","","","","",""
"2847","","<div style=""width:500px;"">
  <p>What best describes how you currently feel?</p>
  </div>","100","html-slider-response","73","949657","0.0-5.0-4.12","254","1","2025-07-30 08:37:33","1f75c3e559b7213887762d5229550c2b","216.120.189.142","Mozilla/5.0 (Windows NT 10.0; Win64; x64) AppleWebKit/537.36 (KHTML, like Gecko) Chrome/138.0.0.0 Safari/537.36","WebKit","Chrome","138.0.0.0","Windows","10.0","https://app.prolific.com/","en-US,en;q=0.9","672c8a3b9fb83ab9c5f02fd2","6877631c9844ddd5501205fc","6889d9c5f0f4e162a312abd9","3","1","672c8a3b9fb83ab9c5f02fd2","3","1","2025-07-30T08:53:20.138Z","","","","","","","","","","","MotivationQ","","50","","","","","","","","","","","","","","","","","","","","","","","","","","","","",""
"","","","","ctl-task-cpt","74","986307","0.0-5.0-0.13","254","1","2025-07-30 08:37:33","1f75c3e559b7213887762d5229550c2b","216.120.189.142","Mozilla/5.0 (Windows NT 10.0; Win64; x64) AppleWebKit/537.36 (KHTML, like Gecko) Chrome/138.0.0.0 Safari/537.36","WebKit","Chrome","138.0.0.0","Windows","10.0","https://app.prolific.com/","en-US,en;q=0.9","672c8a3b9fb83ab9c5f02fd2","6877631c9844ddd5501205fc","6889d9c5f0f4e162a312abd9","3","1","672c8a3b9fb83ab9c5f02fd2","3","1","2025-07-30T08:53:56.787Z","","","","","","","","","","","","","","win-only","3","g1:SW,g2:NE","0.8","14","0","951907.9","1945.8","6948.3","33607.8","1","4","4","6","2","4","4","49","45","0.3712121212121212","1544.1","3000","2345","[""up"",""right""]","{""num_key_presses"":6,""num_perfect"":6,""num_errors"":0,""num_randdir"":0,""num_randdir_good_moves"":0,""num_whilered"":0,""num_whileblue"":0,""num_blue"":2,""num_good_moves"":6}","[296.22232142857143,288.12857142857143,0.3,296.22232142857143,288.12857142857143,109.9,296.22232142857143,288.12857142857143,212.2,296.22232142857143,288.12857142857143,328.5,296.22232142857143,288.12857142857143,446.8,292.22232142857143,296.12857142857143,551.5,275.22232142857143,329.12857142857143,660.5,298.22232142857143,301.12857142857143,770,331.22232142857143,251.12857142857143,884.4,365.22232142857143,164.12857142857143,986.7,435.22232142857143,87.12857142857143,1089.7,532.2223214285714,90.12857142857143,1203.1,553.2223214285714,97.12857142857143,1314.6,552.2223214285714,93.12857142857143,1424.5,549.2223214285714,90.12857142857143,1533.2,549.2223214285714,90.12857142857143,1640.2,549.2223214285714,90.12857142857143,1745.7,546.2223214285714,105.12857142857143,1855,497.22232142857143,213.12857142857143,1971.4,406.22232142857143,325.12857142857143,2071.7,375.22232142857143,350.12857142857143,2175,385.22232142857143,350.12857142857143,2283,416.22232142857143,368.12857142857143,2399.6,420.22232142857143,374.12857142857143,2502.9,420.22232142857143,374.12857142857143,2610.1,420.22232142857143,374.12857142857143,2714.7,420.22232142857143,374.12857142857143,2829,420.22232142857143,374.12857142857143,2947.4,420.22232142857143,374.12857142857143,3066.9,420.22232142857143,374.12857142857143,3175.6,420.22232142857143,374.12857142857143,3285.6,420.22232142857143,374.12857142857143,3399.1,420.22232142857143,374.12857142857143,3516.4,420.22232142857143,374.12857142857143,3626.1,420.22232142857143,374.12857142857143,3732.4,420.22232142857143,374.12857142857143,3833.5,420.22232142857143,374.12857142857143,3939.7,420.22232142857143,374.12857142857143,4048.5,420.22232142857143,374.12857142857143,4156.7,420.22232142857143,374.12857142857143,4264,420.22232142857143,374.12857142857143,4377.9,420.22232142857143,374.12857142857143,4487.1,420.22232142857143,374.12857142857143,4591,420.22232142857143,374.12857142857143,4693.6,420.22232142857143,374.12857142857143,4798.7,420.22232142857143,374.12857142857143,4900.3]","[5371,5371,2937.6,2012.6,420.8,""smooth"",""right"",""right"",""good_move"",8562.9,3190.9,2774.5,5372,416.4,""smooth"",""right"",""right"",""good_move"",11846.9,3283.4,2870.9,8563.6,412.4,""smooth"",""right"",""right"",""good_move"",17424,5576.5,1411.4,15547,465.6,""smooth"",""up"",""up"",""good_move"",21638.1,4213.4,2417.4,17424.7,1796,""smooth"",""up"",""up"",""good_move"",26211.6,4573.3,2613.7,21638.3,1959.6,""smooth"",""up"",""up"",""good_move""]","",""
"3314","","<div style=""width:500px;"">
  <p>What determined the result of this run?</p>
  </div>","50","html-slider-response","75","989624","0.0-5.0-1.13","254","1","2025-07-30 08:37:33","1f75c3e559b7213887762d5229550c2b","216.120.189.142","Mozilla/5.0 (Windows NT 10.0; Win64; x64) AppleWebKit/537.36 (KHTML, like Gecko) Chrome/138.0.0.0 Safari/537.36","WebKit","Chrome","138.0.0.0","Windows","10.0","https://app.prolific.com/","en-US,en;q=0.9","672c8a3b9fb83ab9c5f02fd2","6877631c9844ddd5501205fc","6889d9c5f0f4e162a312abd9","3","1","672c8a3b9fb83ab9c5f02fd2","3","1","2025-07-30T08:54:00.104Z","","","","","","","","","","","AttribQ","","50","","","","","","","","","","","","","","","","","","","","","","","","","","","","",""
"3920","","<div style=""width:500px;"">
  <p>How much control did you have over the ball?</p>
