"rt","response_timestamp","stimulus","response","trial_type","trial_index","time_elapsed","internal_node_id","run_id","condition","recorded_at","source_code_version","ip","user_agent","device","browser","browser_version","platform","platform_version","referer","accept_language","PROLIFIC_PID","STUDY_ID","SESSION_ID","WEEK","BATCH","prolific_id","week","batch","realtime","success","responses","item_order","radio_event_ids","radio_event_times","key_event_times","mouse_event_times","straightlining","zigzagging","honeypot","eventType","view_history","slider_start","which_type","canvas_config","goals_layout","control_level","trial_number","tutorial_trial_number","trial_start_time","phase1_start_time","phase2_start_time","phase3_start_time","goal_1_value","goal_1_distance","goal_2_value","goal_2_distance","goal_selected","outcome","outcome_total","participant_final_score","participant_initial_score","participant_final_score_prop","goal_choice_rt","allocated_time","allocated_time_remaining","goal_direction","counts","mouse_movements","key_presses","question_order","question_id"
"20633","1753275141495","<p style='font-size:40px;line-height:1.25'><strong>Welcome to the experiment!</strong></p><p style='font-size:1.1em;line-height:1.25'>Thank you for participanting in our experiment again! You will be asked to play the Dysfunctional Ball Game again. We will briefly recap the rules before we start.</p><p style='font-size:1.1em;line-height:1.25'>Press <strong>Next</strong> to continue.</p>","0","custom-html-button-response","0","20634","0.0-0.0","218","1","2025-07-23 12:52:00","1f75c3e559b7213887762d5229550c2b","62.19.163.61","Mozilla/5.0 (Windows NT 10.0; Win64; x64) AppleWebKit/537.36 (KHTML, like Gecko) Chrome/138.0.0.0 Safari/537.36","WebKit","Chrome","138.0.0.0","Windows","10.0","https://app.prolific.com/","it-IT,it;q=0.9,en-US;q=0.8,en;q=0.7","672f7b856c1ce6995a666bc6","683dba2a8a9dda3513610c04","6880da5cdabf9eb550e90680","3","0","672f7b856c1ce6995a666bc6","3","0","2025-07-23T12:52:21.496Z","","","","","","","","","","","","","","","","","","","","","","","","","","","","","","","","","","","","","","","","","",""
"4769","","","","fullscreen","1","26412","0.0-1.0","218","1","2025-07-23 12:52:00","1f75c3e559b7213887762d5229550c2b","62.19.163.61","Mozilla/5.0 (Windows NT 10.0; Win64; x64) AppleWebKit/537.36 (KHTML, like Gecko) Chrome/138.0.0.0 Safari/537.36","WebKit","Chrome","138.0.0.0","Windows","10.0","https://app.prolific.com/","it-IT,it;q=0.9,en-US;q=0.8,en;q=0.7","672f7b856c1ce6995a666bc6","683dba2a8a9dda3513610c04","6880da5cdabf9eb550e90680","3","0","672f7b856c1ce6995a666bc6","3","0","","true","","","","","","","","","","","","","","","","","","","","","","","","","","","","","","","","","","","","","","","","",""
"2855","1753275150131","<p style='font-size:1.1em;line-height:1.25'>In the following, we will ask you a few questions relating to your feelings in the last 24 hours.<br></p><p style='font-size:1.1em;line-height:1.25'>Press the <strong>Next</strong> button to continue.</p>","0","custom-html-button-response","2","29270","0.0-2.0-0.0","218","1","2025-07-23 12:52:00","1f75c3e559b7213887762d5229550c2b","62.19.163.61","Mozilla/5.0 (Windows NT 10.0; Win64; x64) AppleWebKit/537.36 (KHTML, like Gecko) Chrome/138.0.0.0 Safari/537.36","WebKit","Chrome","138.0.0.0","Windows","10.0","https://app.prolific.com/","it-IT,it;q=0.9,en-US;q=0.8,en;q=0.7","672f7b856c1ce6995a666bc6","683dba2a8a9dda3513610c04","6880da5cdabf9eb550e90680","3","0","672f7b856c1ce6995a666bc6","3","0","2025-07-23T12:52:30.132Z","","","","","","","","","","","","","","","","","","","","","","","","","","","","","","","","","","","","","","","","","",""
"53067.700000047684","","","","survey-template","3","82343","0.0-2.0-1.0","218","1","2025-07-23 12:52:00","1f75c3e559b7213887762d5229550c2b","62.19.163.61","Mozilla/5.0 (Windows NT 10.0; Win64; x64) AppleWebKit/537.36 (KHTML, like Gecko) Chrome/138.0.0.0 Safari/537.36","WebKit","Chrome","138.0.0.0","Windows","10.0","https://app.prolific.com/","it-IT,it;q=0.9,en-US;q=0.8,en;q=0.7","672f7b856c1ce6995a666bc6","683dba2a8a9dda3513610c04","6880da5cdabf9eb550e90680","3","0","672f7b856c1ce6995a666bc6","3","0","2025-07-23T12:53:23.205Z","","{""Q01"":""1"",""Q02"":""0"",""Q03"":""0"",""Q04"":""1"",""Q05"":""1"",""Q06"":""1"",""Q07"":""2"",""Q08"":""2"",""Q09"":""0"",""Q10"":""0"",""Q11"":""2"",""Q12"":""0"",""Q13"":""5"",""Q14"":""0"",""Q15"":""0"",""Q16"":""3"",""Q17"":""2"",""Q18"":""0"",""Q19"":""0"",""Q20"":""0"",""Q21"":""1"",""Q22"":""1""}","[0,1,2,3,4,5,6,7,8,9,10,11,12,13,14,15,16,17,18,19,20,21]","[""Q01"",""Q02"",""Q03"",""Q04"",""Q05"",""Q06"",""Q07"",""Q08"",""Q09"",""Q10"",""Q11"",""Q12"",""Q13"",""Q14"",""Q15"",""Q16"",""Q17"",""Q18"",""Q19"",""Q20"",""Q21"",""Q22""]","[6754,8672.800000190735,9692.800000190735,10814.400000095367,13471.200000047684,15009.700000047684,17274.300000190735,18768.900000095367,21152.5,22101.300000190735,23723.400000095367,26834.200000047684,28046.5,29495.60000014305,35989.300000190735,37826,40930.90000009537,42343,44993.800000190735,46029.700000047684,49696.5,52041.800000190735]","[]","[0.10000014305114746,6754,8672.800000190735,9692.800000190735,10814.400000095367,13471.200000047684,15009.700000047684,17274.300000190735,18768.900000095367,21152.5,22101.300000190735,23723.400000095367,25984,26834.200000047684,28046.5,29495.60000014305,35989.300000190735,37826,40930.90000009537,42343,43458.90000009537,44993.800000190735,46029.700000047684,49696.5,52041.800000190735,53061.300000190735]","0.45454545454545453","0.3333333333333333","0","drsp","","","","","","","","","","","","","","","","","","","","","","","","","","","","","","",""
"13586.200000047684","","","","survey-template","4","95931","0.0-2.0-2.0","218","1","2025-07-23 12:52:00","1f75c3e559b7213887762d5229550c2b","62.19.163.61","Mozilla/5.0 (Windows NT 10.0; Win64; x64) AppleWebKit/537.36 (KHTML, like Gecko) Chrome/138.0.0.0 Safari/537.36","WebKit","Chrome","138.0.0.0","Windows","10.0","https://app.prolific.com/","it-IT,it;q=0.9,en-US;q=0.8,en;q=0.7","672f7b856c1ce6995a666bc6","683dba2a8a9dda3513610c04","6880da5cdabf9eb550e90680","3","0","672f7b856c1ce6995a666bc6","3","0","2025-07-23T12:53:36.793Z","","{""Q01"":""2"",""Q02"":""3"",""Q03"":""0""}","[0,1,2]","[""Q01"",""Q02"",""Q03""]","[6118.300000190735,9965.800000190735,12499.200000047684]","[]","[6118.300000190735,9965.800000190735,12499.200000047684,13584.900000095367]","0.6666666666666666","0","0","stress","","","","","","","","","","","","","","","","","","","","","","","","","","","","","","",""
"25887","","","","instructions","5","121819","0.0-3.0-0.0","218","1","2025-07-23 12:52:00","1f75c3e559b7213887762d5229550c2b","62.19.163.61","Mozilla/5.0 (Windows NT 10.0; Win64; x64) AppleWebKit/537.36 (KHTML, like Gecko) Chrome/138.0.0.0 Safari/537.36","WebKit","Chrome","138.0.0.0","Windows","10.0","https://app.prolific.com/","it-IT,it;q=0.9,en-US;q=0.8,en;q=0.7","672f7b856c1ce6995a666bc6","683dba2a8a9dda3513610c04","6880da5cdabf9eb550e90680","3","0","672f7b856c1ce6995a666bc6","3","0","","","","","","","","","","","","","[{""page_index"":0,""viewing_time"":25887}]","","","","","","","","","","","","","","","","","","","","","","","","","","","","","",""
"2996","","<p>Before you start with this game please answer the following three questions yourself. </p>
  <p>Through this game, we measure several aspects of your cognitive performance, such as reaction times, multi-tasking capabilities </p>
  <p>and the ability to assess the situation you are in.</p>
  <p></p>
  <p><b>How good do you usually are in such tasks?</b></p>","58","html-slider-response","6","124818","0.0-4.0-0.0","218","1","2025-07-23 12:52:00","1f75c3e559b7213887762d5229550c2b","62.19.163.61","Mozilla/5.0 (Windows NT 10.0; Win64; x64) AppleWebKit/537.36 (KHTML, like Gecko) Chrome/138.0.0.0 Safari/537.36","WebKit","Chrome","138.0.0.0","Windows","10.0","https://app.prolific.com/","it-IT,it;q=0.9,en-US;q=0.8,en;q=0.7","672f7b856c1ce6995a666bc6","683dba2a8a9dda3513610c04","6880da5cdabf9eb550e90680","3","0","672f7b856c1ce6995a666bc6","3","0","2025-07-23T12:54:05.680Z","","","","","","","","","","","PreSkillQ","","50","","","","","","","","","","","","","","","","","","","","","","","","","","","","",""
"2636","","<div style=""width:500px;"">
  <p>How well do you think you will perform in this task compared to other participants?</p>
  </div>","57","html-slider-response","7","127455","0.0-4.0-1.0","218","1","2025-07-23 12:52:00","1f75c3e559b7213887762d5229550c2b","62.19.163.61","Mozilla/5.0 (Windows NT 10.0; Win64; x64) AppleWebKit/537.36 (KHTML, like Gecko) Chrome/138.0.0.0 Safari/537.36","WebKit","Chrome","138.0.0.0","Windows","10.0","https://app.prolific.com/","it-IT,it;q=0.9,en-US;q=0.8,en;q=0.7","672f7b856c1ce6995a666bc6","683dba2a8a9dda3513610c04","6880da5cdabf9eb550e90680","3","0","672f7b856c1ce6995a666bc6","3","0","2025-07-23T12:54:08.317Z","","","","","","","","","","","PrePerfQ","","50","","","","","","","","","","","","","","","","","","","","","","","","","","","","",""
"2876","","<div style=""width:500px;"">
  <p>What best describes how you currently feel?</p>
  </div>","56","html-slider-response","8","130333","0.0-4.0-2.0","218","1","2025-07-23 12:52:00","1f75c3e559b7213887762d5229550c2b","62.19.163.61","Mozilla/5.0 (Windows NT 10.0; Win64; x64) AppleWebKit/537.36 (KHTML, like Gecko) Chrome/138.0.0.0 Safari/537.36","WebKit","Chrome","138.0.0.0","Windows","10.0","https://app.prolific.com/","it-IT,it;q=0.9,en-US;q=0.8,en;q=0.7","672f7b856c1ce6995a666bc6","683dba2a8a9dda3513610c04","6880da5cdabf9eb550e90680","3","0","672f7b856c1ce6995a666bc6","3","0","2025-07-23T12:54:11.195Z","","","","","","","","","","","PreMotivationQ","","50","","","","","","","","","","","","","","","","","","","","","","","","","","","","",""
"","","","","ctl-task-cpt","9","172263","0.0-5.0-0.0","218","1","2025-07-23 12:52:00","1f75c3e559b7213887762d5229550c2b","62.19.163.61","Mozilla/5.0 (Windows NT 10.0; Win64; x64) AppleWebKit/537.36 (KHTML, like Gecko) Chrome/138.0.0.0 Safari/537.36","WebKit","Chrome","138.0.0.0","Windows","10.0","https://app.prolific.com/","it-IT,it;q=0.9,en-US;q=0.8,en;q=0.7","672f7b856c1ce6995a666bc6","683dba2a8a9dda3513610c04","6880da5cdabf9eb550e90680","3","0","672f7b856c1ce6995a666bc6","3","0","2025-07-23T12:54:53.125Z","","","","","","","","","","","","","","win-only","1","g1:NE,g2:SW","1","1","0","132631.5","1196.8","6197.5","38920","1","4","4","6","2","4","4","4","0","0.030303030303030304","1122.2","3000","830","[""down"",""left""]","{""num_key_presses"":6,""num_perfect"":6,""num_errors"":0,""num_randdir"":0,""num_randdir_good_moves"":0,""num_whilered"":0,""num_whileblue"":0,""num_blue"":4,""num_good_moves"":6}","[416.5714133126395,416.57142761775424,0.2,416.5714133126395,416.57142761775424,103.8,416.5714133126395,416.57142761775424,205,416.5714133126395,416.57142761775424,308.6,416.5714133126395,416.57142761775424,409.6,416.5714133126395,416.57142761775424,510.6,416.5714133126395,416.57142761775424,613.7,95.3214133126395,671.5714276177542,713.9,61.57141331263951,691.5714276177542,814.4,44.07141331263951,731.5714276177542,920.6,36.57141331263951,771.5714276177542,1020.8,36.57141331263951,771.5714276177542,1121.9,36.57141331263951,771.5714276177542,1225,36.57141331263951,771.5714276177542,1329.9,36.57141331263951,771.5714276177542,1433.6,36.57141331263951,771.5714276177542,1534.8,-83.4285866873605,701.5714276177542,1640.2,-305.9285866873605,624.0714276177542,1744.5,-305.9285866873605,624.0714276177542,1850.4,-305.9285866873605,624.0714276177542,1955.3,-305.9285866873605,624.0714276177542,2058.7,-305.9285866873605,624.0714276177542,2160.1,-305.9285866873605,624.0714276177542,2260.2,-305.9285866873605,624.0714276177542,2364.9,-305.9285866873605,624.0714276177542,2464.9,-305.9285866873605,624.0714276177542,2569.8,-305.9285866873605,624.0714276177542,2674.6,-305.9285866873605,624.0714276177542,2780.5,-305.9285866873605,624.0714276177542,2884.7,-305.9285866873605,624.0714276177542,2989.5,-305.9285866873605,624.0714276177542,3089.6,-305.9285866873605,624.0714276177542,3190.2,-305.9285866873605,624.0714276177542,3294.3,-305.9285866873605,624.0714276177542,3399,-305.9285866873605,624.0714276177542,3500,-305.9285866873605,624.0714276177542,3603.8,-305.9285866873605,624.0714276177542,3709.3,-305.9285866873605,624.0714276177542,3809.4,-305.9285866873605,624.0714276177542,3909.6,-305.9285866873605,624.0714276177542,4010.1,-305.9285866873605,624.0714276177542,4114,-305.9285866873605,624.0714276177542,4214,-305.9285866873605,624.0714276177542,4319.4,-305.9285866873605,624.0714276177542,4424.1,-305.9285866873605,624.0714276177542,4530.4,-305.9285866873605,624.0714276177542,4634.4,-305.9285866873605,624.0714276177542,4740,-305.9285866873605,624.0714276177542,4844.3,-305.9285866873605,624.0714276177542,4945.2]","[5090.8,5090.9,2789.7,2008.9,292.3,""smooth"",""down"",""down"",""good_move"",7619.5,2528.3,2005.3,5091.3,523,""smooth"",""left"",""left"",""good_move"",10697.3,3077.3,2770.1,7620,307.2,""smooth"",""left"",""left"",""good_move"",21814.7,11117.4,2953.4,18539.1,322.2,""smooth"",""down"",""down"",""good_move"",25435,3620.2,3196.3,21814.8,423.9,""smooth"",""down"",""down"",""good_move"",32630.9,7195.7,3100.3,29203.5,327.1,""smooth"",""left"",""left"",""good_move""]","",""
"3576","","<div style=""width:500px;"">
  <p>What determined the result of this run?</p>
  </div>","81","html-slider-response","10","175840","0.0-5.0-1.0","218","1","2025-07-23 12:52:00","1f75c3e559b7213887762d5229550c2b","62.19.163.61","Mozilla/5.0 (Windows NT 10.0; Win64; x64) AppleWebKit/537.36 (KHTML, like Gecko) Chrome/138.0.0.0 Safari/537.36","WebKit","Chrome","138.0.0.0","Windows","10.0","https://app.prolific.com/","it-IT,it;q=0.9,en-US;q=0.8,en;q=0.7","672f7b856c1ce6995a666bc6","683dba2a8a9dda3513610c04","6880da5cdabf9eb550e90680","3","0","672f7b856c1ce6995a666bc6","3","0","2025-07-23T12:54:56.702Z","","","","","","","","","","","AttribQ","","50","","","","","","","","","","","","","","","","","","","","","","","","","","","","",""
"2873","","<div style=""width:500px;"">
  <p>How much control did you have over the ball?</p>
  </div>","88","html-slider-response","11","178714","0.0-5.0-2.0","218","1","2025-07-23 12:52:00","1f75c3e559b7213887762d5229550c2b","62.19.163.61","Mozilla/5.0 (Windows NT 10.0; Win64; x64) AppleWebKit/537.36 (KHTML, like Gecko) Chrome/138.0.0.0 Safari/537.36","WebKit","Chrome","138.0.0.0","Windows","10.0","https://app.prolific.com/","it-IT,it;q=0.9,en-US;q=0.8,en;q=0.7","672f7b856c1ce6995a666bc6","683dba2a8a9dda3513610c04","6880da5cdabf9eb550e90680","3","0","672f7b856c1ce6995a666bc6","3","0","2025-07-23T12:54:59.576Z","","","","","","","","","","","ControlQ","","50","","","","","","","","","","","","","","","","","","","","","","","","","","","","",""
"5109","","<div style=""width:500px;"">
  <p>How would you describe your current emotional state?</p>
  </div>","24","html-slider-response","12","183825","0.0-5.0-3.0","218","1","2025-07-23 12:52:00","1f75c3e559b7213887762d5229550c2b","62.19.163.61","Mozilla/5.0 (Windows NT 10.0; Win64; x64) AppleWebKit/537.36 (KHTML, like Gecko) Chrome/138.0.0.0 Safari/537.36","WebKit","Chrome","138.0.0.0","Windows","10.0","https://app.prolific.com/","it-IT,it;q=0.9,en-US;q=0.8,en;q=0.7","672f7b856c1ce6995a666bc6","683dba2a8a9dda3513610c04","6880da5cdabf9eb550e90680","3","0","672f7b856c1ce6995a666bc6","3","0","2025-07-23T12:55:04.687Z","","","","","","","","","","","StressQ","","50","","","","","","","","","","","","","","","","","","","","","","","","","","","","",""
"2813","","<div style=""width:500px;"">
  <p>What best describes how you currently feel?</p>
  </div>","77","html-slider-response","13","186640","0.0-5.0-4.0","218","1","2025-07-23 12:52:00","1f75c3e559b7213887762d5229550c2b","62.19.163.61","Mozilla/5.0 (Windows NT 10.0; Win64; x64) AppleWebKit/537.36 (KHTML, like Gecko) Chrome/138.0.0.0 Safari/537.36","WebKit","Chrome","138.0.0.0","Windows","10.0","https://app.prolific.com/","it-IT,it;q=0.9,en-US;q=0.8,en;q=0.7","672f7b856c1ce6995a666bc6","683dba2a8a9dda3513610c04","6880da5cdabf9eb550e90680","3","0","672f7b856c1ce6995a666bc6","3","0","2025-07-23T12:55:07.502Z","","","","","","","","","","","MotivationQ","","50","","","","","","","","","","","","","","","","","","","","","","","","","","","","",""
"","","","","ctl-task-cpt","14","221093","0.0-5.0-0.1","218","1","2025-07-23 12:52:00","1f75c3e559b7213887762d5229550c2b","62.19.163.61","Mozilla/5.0 (Windows NT 10.0; Win64; x64) AppleWebKit/537.36 (KHTML, like Gecko) Chrome/138.0.0.0 Safari/537.36","WebKit","Chrome","138.0.0.0","Windows","10.0","https://app.prolific.com/","it-IT,it;q=0.9,en-US;q=0.8,en;q=0.7","672f7b856c1ce6995a666bc6","683dba2a8a9dda3513610c04","6880da5cdabf9eb550e90680","3","0","672f7b856c1ce6995a666bc6","3","0","2025-07-23T12:55:41.956Z","","","","","","","","","","","","","","win-only","3","g1:SW,g2:NE","0.9","2","0","188936.2","1111.7","6117.1","31446.5","1","4","8","6","2","8","8","12","4","0.09090909090909091","1241.1","3000","170","[""up"",""right""]","{""num_key_presses"":8,""num_perfect"":7,""num_errors"":0,""num_randdir"":1,""num_randdir_good_moves"":0,""num_whilered"":0,""num_whileblue"":0,""num_blue"":1,""num_good_moves"":7}","[421.5714133126395,422.82142761775424,0.1,421.5714133126395,422.82142761775424,104.8,421.5714133126395,422.82142761775424,208.9,421.5714133126395,422.82142761775424,309.8,421.5714133126395,422.82142761775424,414.6,421.5714133126395,422.82142761775424,519.2,421.5714133126395,422.82142761775424,623.6,421.5714133126395,422.82142761775424,724.2,685.3214133126395,127.82142761775425,829.2,699.0714133126395,117.82142761775425,929.2,726.5714133126395,116.57142761775425,1029.3,761.5714133126395,106.57142761775425,1133.9,761.5714133126395,106.57142761775425,1234,761.5714133126395,106.57142761775425,1334.1,761.5714133126395,106.57142761775425,1435.4,761.5714133126395,106.57142761775425,1539,761.5714133126395,106.57142761775425,1639,947.8214133126395,266.57142761775424,1744.2,970.3214133126395,327.82142761775424,1844.3,970.3214133126395,327.82142761775424,1949.2,970.3214133126395,327.82142761775424,2049.3,970.3214133126395,327.82142761775424,2149.8,970.3214133126395,327.82142761775424,2255,970.3214133126395,327.82142761775424,2359.9,970.3214133126395,327.82142761775424,2459.9,970.3214133126395,327.82142761775424,2564.3,970.3214133126395,327.82142761775424,2664.3,970.3214133126395,327.82142761775424,2765,970.3214133126395,327.82142761775424,2869.7,970.3214133126395,327.82142761775424,2969.9,970.3214133126395,327.82142761775424,3074.1,970.3214133126395,327.82142761775424,3174.2,970.3214133126395,327.82142761775424,3274.9,970.3214133126395,327.82142761775424,3379.3,970.3214133126395,327.82142761775424,3479.4,970.3214133126395,327.82142761775424,3584.5,970.3214133126395,327.82142761775424,3688.9,970.3214133126395,327.82142761775424,3789.7,970.3214133126395,327.82142761775424,3894.2,970.3214133126395,327.82142761775424,3994.9,970.3214133126395,327.82142761775424,4099.4,970.3214133126395,327.82142761775424,4204.1,970.3214133126395,327.82142761775424,4309.5,970.3214133126395,327.82142761775424,4413.9,970.3214133126395,327.82142761775424,4514.3,970.3214133126395,327.82142761775424,4615,970.3214133126395,327.82142761775424,4719.6,970.3214133126395,327.82142761775424,4825.3,970.3214133126395,327.82142761775424,4928.6]","[1421.1,1421.1,1000,0,421.1,""smooth"",""right"",""right"",""good_move"",4621.2,3199.4,2886,1421.8,313.4,""smooth"",""up"",""up"",""good_move"",7427.5,2805.7,2507.1,4621.8,298.6,""smooth"",""up"",""up"",""good_move"",10037.5,2609.7,2278.2,7427.8,331.5,""smooth"",""right"",""right"",""good_move"",16435.4,6397.7,2981.7,13108.2,345.5,""oops"",""right"",""down"",""bad_move"",19898.6,3462.6,3129.4,16436,333.2,""smooth"",""right"",""right"",""good_move"",22765.3,2866.4,2529.6,19898.9,336.8,""smooth"",""up"",""up"",""good_move"",25239.2,2473.7,1984.1,22765.5,489.6,""smooth"",""up"",""up"",""good_move""]","",""
"5205","","<div style=""width:500px;"">
  <p>What determined the result of this run?</p>
  </div>","82","html-slider-response","15","226300","0.0-5.0-1.1","218","1","2025-07-23 12:52:00","1f75c3e559b7213887762d5229550c2b","62.19.163.61","Mozilla/5.0 (Windows NT 10.0; Win64; x64) AppleWebKit/537.36 (KHTML, like Gecko) Chrome/138.0.0.0 Safari/537.36","WebKit","Chrome","138.0.0.0","Windows","10.0","https://app.prolific.com/","it-IT,it;q=0.9,en-US;q=0.8,en;q=0.7","672f7b856c1ce6995a666bc6","683dba2a8a9dda3513610c04","6880da5cdabf9eb550e90680","3","0","672f7b856c1ce6995a666bc6","3","0","2025-07-23T12:55:47.162Z","","","","","","","","","","","AttribQ","","50","","","","","","","","","","","","","","","","","","","","","","","","","","","","",""
"6609","","<div style=""width:500px;"">
  <p>How much control did you have over the ball?</p>
  </div>","71","html-slider-response","16","232911","0.0-5.0-2.1","218","1","2025-07-23 12:52:00","1f75c3e559b7213887762d5229550c2b","62.19.163.61","Mozilla/5.0 (Windows NT 10.0; Win64; x64) AppleWebKit/537.36 (KHTML, like Gecko) Chrome/138.0.0.0 Safari/537.36","WebKit","Chrome","138.0.0.0","Windows","10.0","https://app.prolific.com/","it-IT,it;q=0.9,en-US;q=0.8,en;q=0.7","672f7b856c1ce6995a666bc6","683dba2a8a9dda3513610c04","6880da5cdabf9eb550e90680","3","0","672f7b856c1ce6995a666bc6","3","0","2025-07-23T12:55:53.773Z","","","","","","","","","","","ControlQ","","50","","","","","","","","","","","","","","","","","","","","","","","","","","","","",""
"5266","","<div style=""width:500px;"">
  <p>How would you describe your current emotional state?</p>
  </div>","24","html-slider-response","17","238179","0.0-5.0-3.1","218","1","2025-07-23 12:52:00","1f75c3e559b7213887762d5229550c2b","62.19.163.61","Mozilla/5.0 (Windows NT 10.0; Win64; x64) AppleWebKit/537.36 (KHTML, like Gecko) Chrome/138.0.0.0 Safari/537.36","WebKit","Chrome","138.0.0.0","Windows","10.0","https://app.prolific.com/","it-IT,it;q=0.9,en-US;q=0.8,en;q=0.7","672f7b856c1ce6995a666bc6","683dba2a8a9dda3513610c04","6880da5cdabf9eb550e90680","3","0","672f7b856c1ce6995a666bc6","3","0","2025-07-23T12:55:59.041Z","","","","","","","","","","","StressQ","","50","","","","","","","","","","","","","","","","","","","","","","","","","","","","",""
"1980","","<div style=""width:500px;"">
  <p>What best describes how you currently feel?</p>
  </div>","78","html-slider-response","18","240160","0.0-5.0-4.1","218","1","2025-07-23 12:52:00","1f75c3e559b7213887762d5229550c2b","62.19.163.61","Mozilla/5.0 (Windows NT 10.0; Win64; x64) AppleWebKit/537.36 (KHTML, like Gecko) Chrome/138.0.0.0 Safari/537.36","WebKit","Chrome","138.0.0.0","Windows","10.0","https://app.prolific.com/","it-IT,it;q=0.9,en-US;q=0.8,en;q=0.7","672f7b856c1ce6995a666bc6","683dba2a8a9dda3513610c04","6880da5cdabf9eb550e90680","3","0","672f7b856c1ce6995a666bc6","3","0","2025-07-23T12:56:01.022Z","","","","","","","","","","","MotivationQ","","50","","","","","","","","","","","","","","","","","","","","","","","","","","","","",""
"","","","","ctl-task-cpt","19","269558","0.0-5.0-0.2","218","1","2025-07-23 12:52:00","1f75c3e559b7213887762d5229550c2b","62.19.163.61","Mozilla/5.0 (Windows NT 10.0; Win64; x64) AppleWebKit/537.36 (KHTML, like Gecko) Chrome/138.0.0.0 Safari/537.36","WebKit","Chrome","138.0.0.0","Windows","10.0","https://app.prolific.com/","it-IT,it;q=0.9,en-US;q=0.8,en;q=0.7","672f7b856c1ce6995a666bc6","683dba2a8a9dda3513610c04","6880da5cdabf9eb550e90680","3","0","672f7b856c1ce6995a666bc6","3","0","2025-07-23T12:56:30.421Z","","","","","","","","","","","","","","win-only","0","g1:NW,g2:SE","0.8","3","0","242456.4","1230.2","6231.2","26391.9","1","4","8","6","2","8","8","20","12","0.15151515151515152","1233.5","3000","920","[""down"",""right""]","{""num_key_presses"":6,""num_perfect"":5,""num_errors"":0,""num_randdir"":1,""num_randdir_good_moves"":1,""num_whilered"":0,""num_whileblue"":0,""num_blue"":1,""num_good_moves"":6}","[420.3214133126395,412.82142761775424,0.2,420.3214133126395,412.82142761775424,101.7,420.3214133126395,412.82142761775424,206,420.3214133126395,412.82142761775424,306,420.3214133126395,412.82142761775424,406.1,420.3214133126395,412.82142761775424,511.2,420.3214133126395,412.82142761775424,616.2,619.0714133126395,594.0714276177542,716.3,686.5714133126395,676.5714276177542,816.6,700.3214133126395,696.5714276177542,920.8,711.5714133126395,735.3214276177542,1020.8,725.3214133126395,741.5714276177542,1122.4,725.3214133126395,741.5714276177542,1226.5,725.3214133126395,741.5714276177542,1326.6,725.3214133126395,741.5714276177542,1430.3,725.3214133126395,741.5714276177542,1532.1,725.3214133126395,741.5714276177542,1636.3,919.0714133126395,591.5714276177542,1740.6,947.8214133126395,574.0714276177542,1840.8,947.8214133126395,574.0714276177542,1946.6,947.8214133126395,574.0714276177542,2051.5,947.8214133126395,574.0714276177542,2156.4,947.8214133126395,574.0714276177542,2261.6,947.8214133126395,574.0714276177542,2366.5,947.8214133126395,574.0714276177542,2470.5,947.8214133126395,574.0714276177542,2571.3,947.8214133126395,574.0714276177542,2671.4,947.8214133126395,574.0714276177542,2775.3,947.8214133126395,574.0714276177542,2875.4,947.8214133126395,574.0714276177542,2975.6,947.8214133126395,574.0714276177542,3075.6,947.8214133126395,574.0714276177542,3176,947.8214133126395,574.0714276177542,3280.5,947.8214133126395,574.0714276177542,3380.5,947.8214133126395,574.0714276177542,3481.1,947.8214133126395,574.0714276177542,3585.4,947.8214133126395,574.0714276177542,3685.6,947.8214133126395,574.0714276177542,3786.1,947.8214133126395,574.0714276177542,3886.3,947.8214133126395,574.0714276177542,3986.3,947.8214133126395,574.0714276177542,4086.3,947.8214133126395,574.0714276177542,4191.4,947.8214133126395,574.0714276177542,4291.5,947.8214133126395,574.0714276177542,4395.4,947.8214133126395,574.0714276177542,4495.8,947.8214133126395,574.0714276177542,4601.2,947.8214133126395,574.0714276177542,4705.6,947.8214133126395,574.0714276177542,4806.2,947.8214133126395,574.0714276177542,4906.9]","[1369.5,1369.5,1000,0,369.5,""smooth"",""down"",""down"",""good_move"",5002.8,3633,3291,1369.8,342,""smooth"",""right"",""right"",""good_move"",11297.3,6293.8,3033.8,8016,247.5,""smooth"",""down"",""down"",""good_move"",13972.4,2674.9,2163.8,11297.5,511.1,""smooth"",""right"",""right"",""good_move"",16804.4,2831.6,2522.1,13972.8,309.5,""smooth"",""right"",""right"",""good_move"",20075.2,3270.6,2929,16804.6,341.6,""oops"",""down"",""down"",""good_move""]","",""
"2043","","<div style=""width:500px;"">
  <p>What determined the result of this run?</p>
  </div>","96","html-slider-response","20","271603","0.0-5.0-1.2","218","1","2025-07-23 12:52:00","1f75c3e559b7213887762d5229550c2b","62.19.163.61","Mozilla/5.0 (Windows NT 10.0; Win64; x64) AppleWebKit/537.36 (KHTML, like Gecko) Chrome/138.0.0.0 Safari/537.36","WebKit","Chrome","138.0.0.0","Windows","10.0","https://app.prolific.com/","it-IT,it;q=0.9,en-US;q=0.8,en;q=0.7","672f7b856c1ce6995a666bc6","683dba2a8a9dda3513610c04","6880da5cdabf9eb550e90680","3","0","672f7b856c1ce6995a666bc6","3","0","2025-07-23T12:56:32.465Z","","","","","","","","","","","AttribQ","","50","","","","","","","","","","","","","","","","","","","","","","","","","","","","",""
"3634","","<div style=""width:500px;"">
  <p>How much control did you have over the ball?</p>
  </div>","96","html-slider-response","21","275237","0.0-5.0-2.2","218","1","2025-07-23 12:52:00","1f75c3e559b7213887762d5229550c2b","62.19.163.61","Mozilla/5.0 (Windows NT 10.0; Win64; x64) AppleWebKit/537.36 (KHTML, like Gecko) Chrome/138.0.0.0 Safari/537.36","WebKit","Chrome","138.0.0.0","Windows","10.0","https://app.prolific.com/","it-IT,it;q=0.9,en-US;q=0.8,en;q=0.7","672f7b856c1ce6995a666bc6","683dba2a8a9dda3513610c04","6880da5cdabf9eb550e90680","3","0","672f7b856c1ce6995a666bc6","3","0","2025-07-23T12:56:36.100Z","","","","","","","","","","","ControlQ","","50","","","","","","","","","","","","","","","","","","","","","","","","","","","","",""
"3750","","<div style=""width:500px;"">
  <p>How would you describe your current emotional state?</p>
  </div>","19","html-slider-response","22","278989","0.0-5.0-3.2","218","1","2025-07-23 12:52:00","1f75c3e559b7213887762d5229550c2b","62.19.163.61","Mozilla/5.0 (Windows NT 10.0; Win64; x64) AppleWebKit/537.36 (KHTML, like Gecko) Chrome/138.0.0.0 Safari/537.36","WebKit","Chrome","138.0.0.0","Windows","10.0","https://app.prolific.com/","it-IT,it;q=0.9,en-US;q=0.8,en;q=0.7","672f7b856c1ce6995a666bc6","683dba2a8a9dda3513610c04","6880da5cdabf9eb550e90680","3","0","672f7b856c1ce6995a666bc6","3","0","2025-07-23T12:56:39.851Z","","","","","","","","","","","StressQ","","50","","","","","","","","","","","","","","","","","","","","","","","","","","","","",""
"2724","","<div style=""width:500px;"">
  <p>What best describes how you currently feel?</p>
  </div>","90","html-slider-response","23","281713","0.0-5.0-4.2","218","1","2025-07-23 12:52:00","1f75c3e559b7213887762d5229550c2b","62.19.163.61","Mozilla/5.0 (Windows NT 10.0; Win64; x64) AppleWebKit/537.36 (KHTML, like Gecko) Chrome/138.0.0.0 Safari/537.36","WebKit","Chrome","138.0.0.0","Windows","10.0","https://app.prolific.com/","it-IT,it;q=0.9,en-US;q=0.8,en;q=0.7","672f7b856c1ce6995a666bc6","683dba2a8a9dda3513610c04","6880da5cdabf9eb550e90680","3","0","672f7b856c1ce6995a666bc6","3","0","2025-07-23T12:56:42.575Z","","","","","","","","","","","MotivationQ","","50","","","","","","","","","","","","","","","","","","","","","","","","","","","","",""
"","","","","ctl-task-cpt","24","324347","0.0-5.0-0.3","218","1","2025-07-23 12:52:00","1f75c3e559b7213887762d5229550c2b","62.19.163.61","Mozilla/5.0 (Windows NT 10.0; Win64; x64) AppleWebKit/537.36 (KHTML, like Gecko) Chrome/138.0.0.0 Safari/537.36","WebKit","Chrome","138.0.0.0","Windows","10.0","https://app.prolific.com/","it-IT,it;q=0.9,en-US;q=0.8,en;q=0.7","672f7b856c1ce6995a666bc6","683dba2a8a9dda3513610c04","6880da5cdabf9eb550e90680","3","0","672f7b856c1ce6995a666bc6","3","0","2025-07-23T12:57:25.209Z","","","","","","","","","","","","","","win-only","3","g1:SW,g2:NE","0.7","4","0","284010.8","1035.7","6041.3","39616.2","1","4","4","6","2","4","4","24","20","0.18181818181818182","1181.8","3000","730","[""up"",""right""]","{""num_key_presses"":8,""num_perfect"":5,""num_errors"":0,""num_randdir"":3,""num_randdir_good_moves"":2,""num_whilered"":0,""num_whileblue"":0,""num_blue"":3,""num_good_moves"":7}","[414.0714133126395,416.57142761775424,0.1,414.0714133126395,416.57142761775424,100,414.0714133126395,416.57142761775424,200.4,414.0714133126395,416.57142761775424,305.3,414.0714133126395,416.57142761775424,405.5,414.0714133126395,416.57142761775424,510.4,414.0714133126395,416.57142761775424,615.3,594.0714133126395,251.57142761775424,720.6,659.0714133126395,186.57142761775424,825.8,682.8214133126395,126.57142761775425,926.4,769.0714133126395,70.32142761775425,1030.5,777.8214133126395,66.57142761775425,1130.5,777.8214133126395,66.57142761775425,1234.8,777.8214133126395,66.57142761775425,1335.6,777.8214133126395,66.57142761775425,1435.6,777.8214133126395,66.57142761775425,1540.4,887.8214133126395,137.82142761775424,1644.8,910.3214133126395,160.32142761775424,1744.9,910.3214133126395,160.32142761775424,1846.3,910.3214133126395,160.32142761775424,1950.5,910.3214133126395,160.32142761775424,2055.5,910.3214133126395,160.32142761775424,2159.6,910.3214133126395,160.32142761775424,2261.4,910.3214133126395,160.32142761775424,2365.4,910.3214133126395,160.32142761775424,2470.8,910.3214133126395,160.32142761775424,2574.9,910.3214133126395,160.32142761775424,2680.3,910.3214133126395,160.32142761775424,2780.6,910.3214133126395,160.32142761775424,2885.1,910.3214133126395,160.32142761775424,2985.4,910.3214133126395,160.32142761775424,3089.9,910.3214133126395,160.32142761775424,3189.9,910.3214133126395,160.32142761775424,3291.3,910.3214133126395,160.32142761775424,3395.7,910.3214133126395,160.32142761775424,3499.9,910.3214133126395,160.32142761775424,3600.6,910.3214133126395,160.32142761775424,3704.9,910.3214133126395,160.32142761775424,3805.2,910.3214133126395,160.32142761775424,3905.8,910.3214133126395,160.32142761775424,4010.5,910.3214133126395,160.32142761775424,4115.1,910.3214133126395,160.32142761775424,4215.1,910.3214133126395,160.32142761775424,4315.3,910.3214133126395,160.32142761775424,4419.9,910.3214133126395,160.32142761775424,4525.1,910.3214133126395,160.32142761775424,4630.4,910.3214133126395,160.32142761775424,4735.6,910.3214133126395,160.32142761775424,4835.7,910.3214133126395,160.32142761775424,4935.9]","[1268.8,1268.8,1000,0,268.8,""oops"",""up"",""up"",""good_move"",4303,3033.9,2751.9,1269.1,282,""oops"",""right"",""down"",""bad_move"",8209.4,3906.1,3619.6,4303.3,286.5,""smooth"",""right"",""right"",""good_move"",14445.3,6235.2,2950.2,11189.8,305.3,""oops"",""right"",""up"",""good_move"",17394.1,2948.6,2641.4,14445.5,307.2,""smooth"",""right"",""right"",""good_move"",27921.9,10527.6,3541.9,24129.5,250.5,""smooth"",""up"",""up"",""good_move"",30438.7,2516.4,2173.8,27922.3,342.6,""smooth"",""up"",""up"",""good_move"",33488.1,3049.2,2776.9,30438.9,272.3,""smooth"",""right"",""right"",""good_move""]","",""
"3491","","<div style=""width:500px;"">
  <p>What determined the result of this run?</p>
  </div>","76","html-slider-response","25","327839","0.0-5.0-1.3","218","1","2025-07-23 12:52:00","1f75c3e559b7213887762d5229550c2b","62.19.163.61","Mozilla/5.0 (Windows NT 10.0; Win64; x64) AppleWebKit/537.36 (KHTML, like Gecko) Chrome/138.0.0.0 Safari/537.36","WebKit","Chrome","138.0.0.0","Windows","10.0","https://app.prolific.com/","it-IT,it;q=0.9,en-US;q=0.8,en;q=0.7","672f7b856c1ce6995a666bc6","683dba2a8a9dda3513610c04","6880da5cdabf9eb550e90680","3","0","672f7b856c1ce6995a666bc6","3","0","2025-07-23T12:57:28.702Z","","","","","","","","","","","AttribQ","","50","","","","","","","","","","","","","","","","","","","","","","","","","","","","",""
"2930","","<div style=""width:500px;"">
  <p>How much control did you have over the ball?</p>
  </div>","81","html-slider-response","26","330771","0.0-5.0-2.3","218","1","2025-07-23 12:52:00","1f75c3e559b7213887762d5229550c2b","62.19.163.61","Mozilla/5.0 (Windows NT 10.0; Win64; x64) AppleWebKit/537.36 (KHTML, like Gecko) Chrome/138.0.0.0 Safari/537.36","WebKit","Chrome","138.0.0.0","Windows","10.0","https://app.prolific.com/","it-IT,it;q=0.9,en-US;q=0.8,en;q=0.7","672f7b856c1ce6995a666bc6","683dba2a8a9dda3513610c04","6880da5cdabf9eb550e90680","3","0","672f7b856c1ce6995a666bc6","3","0","2025-07-23T12:57:31.633Z","","","","","","","","","","","ControlQ","","50","","","","","","","","","","","","","","","","","","","","","","","","","","","","",""
"3103","","<div style=""width:500px;"">
  <p>How would you describe your current emotional state?</p>
  </div>","22","html-slider-response","27","333875","0.0-5.0-3.3","218","1","2025-07-23 12:52:00","1f75c3e559b7213887762d5229550c2b","62.19.163.61","Mozilla/5.0 (Windows NT 10.0; Win64; x64) AppleWebKit/537.36 (KHTML, like Gecko) Chrome/138.0.0.0 Safari/537.36","WebKit","Chrome","138.0.0.0","Windows","10.0","https://app.prolific.com/","it-IT,it;q=0.9,en-US;q=0.8,en;q=0.7","672f7b856c1ce6995a666bc6","683dba2a8a9dda3513610c04","6880da5cdabf9eb550e90680","3","0","672f7b856c1ce6995a666bc6","3","0","2025-07-23T12:57:34.737Z","","","","","","","","","","","StressQ","","50","","","","","","","","","","","","","","","","","","","","","","","","","","","","",""
"2029","","<div style=""width:500px;"">
  <p>What best describes how you currently feel?</p>
  </div>","90","html-slider-response","28","335905","0.0-5.0-4.3","218","1","2025-07-23 12:52:00","1f75c3e559b7213887762d5229550c2b","62.19.163.61","Mozilla/5.0 (Windows NT 10.0; Win64; x64) AppleWebKit/537.36 (KHTML, like Gecko) Chrome/138.0.0.0 Safari/537.36","WebKit","Chrome","138.0.0.0","Windows","10.0","https://app.prolific.com/","it-IT,it;q=0.9,en-US;q=0.8,en;q=0.7","672f7b856c1ce6995a666bc6","683dba2a8a9dda3513610c04","6880da5cdabf9eb550e90680","3","0","672f7b856c1ce6995a666bc6","3","0","2025-07-23T12:57:36.767Z","","","","","","","","","","","MotivationQ","","50","","","","","","","","","","","","","","","","","","","","","","","","","","","","",""
"","","","","ctl-task-cpt","29","371743","0.0-5.0-0.4","218","1","2025-07-23 12:52:00","1f75c3e559b7213887762d5229550c2b","62.19.163.61","Mozilla/5.0 (Windows NT 10.0; Win64; x64) AppleWebKit/537.36 (KHTML, like Gecko) Chrome/138.0.0.0 Safari/537.36","WebKit","Chrome","138.0.0.0","Windows","10.0","https://app.prolific.com/","it-IT,it;q=0.9,en-US;q=0.8,en;q=0.7","672f7b856c1ce6995a666bc6","683dba2a8a9dda3513610c04","6880da5cdabf9eb550e90680","3","0","672f7b856c1ce6995a666bc6","3","0","2025-07-23T12:58:12.605Z","","","","","","","","","","","","","","win-only","1","g1:NE,g2:SW","0.6","5","0","338202","1276.3","6281.3","32821","1","4","4","6","2","-4","-5","19","24","0.14393939393939395","1263.5","3000","-3010","[""down"",""left""]","{""num_key_presses"":9,""num_perfect"":4,""num_errors"":1,""num_randdir"":4,""num_randdir_good_moves"":1,""num_whilered"":0,""num_whileblue"":1,""num_blue"":1,""num_good_moves"":4}","[420.3214133126395,410.32142761775424,0.2,420.3214133126395,410.32142761775424,104.3,420.3214133126395,410.32142761775424,205.5,420.3214133126395,410.32142761775424,310,420.3214133126395,410.32142761775424,415.9,420.3214133126395,410.32142761775424,519.8,420.3214133126395,410.32142761775424,624.3,335.3214133126395,475.32142761775424,729.1,129.0714133126395,641.5714276177542,829.1,129.0714133126395,642.8214276177542,935.5,77.8214133126395,741.5714276177542,1039.1,76.5714133126395,744.0714276177542,1139.3,76.5714133126395,744.0714276177542,1244.5,76.5714133126395,744.0714276177542,1349,76.5714133126395,744.0714276177542,1449.5,76.5714133126395,744.0714276177542,1554.7,-242.1785866873605,671.5714276177542,1659.1,-294.6785866873605,661.5714276177542,1759.8,-294.6785866873605,661.5714276177542,1859.8,-294.6785866873605,661.5714276177542,1960.7,-294.6785866873605,661.5714276177542,2064.6,-294.6785866873605,661.5714276177542,2165.9,-294.6785866873605,661.5714276177542,2269.5,-294.6785866873605,661.5714276177542,2374.8,-294.6785866873605,661.5714276177542,2475.5,-294.6785866873605,661.5714276177542,2579.1,-294.6785866873605,661.5714276177542,2679.9,-294.6785866873605,661.5714276177542,2784.4,-294.6785866873605,661.5714276177542,2886.2,-294.6785866873605,661.5714276177542,2989.1,-294.6785866873605,661.5714276177542,3089.4,-294.6785866873605,661.5714276177542,3194.3,-294.6785866873605,661.5714276177542,3294.8,-294.6785866873605,661.5714276177542,3398.8,-294.6785866873605,661.5714276177542,3499.7,-294.6785866873605,661.5714276177542,3605.3,-294.6785866873605,661.5714276177542,3705.3,-294.6785866873605,661.5714276177542,3810,-294.6785866873605,661.5714276177542,3910,-294.6785866873605,661.5714276177542,4014.3,-294.6785866873605,661.5714276177542,4119.7,-294.6785866873605,661.5714276177542,4224.1,-294.6785866873605,661.5714276177542,4325.7,-294.6785866873605,661.5714276177542,4429.5,-294.6785866873605,661.5714276177542,4535,-294.6785866873605,661.5714276177542,4639.9,-294.6785866873605,661.5714276177542,4745.5,-294.6785866873605,661.5714276177542,4849.3,-294.6785866873605,661.5714276177542,4953.8]","[1280.4,1280.4,1000,0,280.4,""smooth"",""down"",""down"",""good_move"",4757.5,3476.7,3205.2,1280.8,271.5,""smooth"",""left"",""left"",""good_move"",7689.4,2931.4,2657.1,4758,274.3,""oops"",""left"",""up"",""bad_move"",10586.1,2896.5,2613.5,7689.6,283,""oops"",""down"",""right"",""bad_move"",13202.7,2616.4,1635.3,10586.3,981.1,""smooth"",""up"",""up"",""bad_move"",15796,2593,2323.7,13203,269.3,""oops"",""down"",""down"",""good_move"",18381.1,2584.1,2332.1,15797,252,""while_blue"",""down"",""right"",""bad_move"",20913.8,2532.4,2226.9,18381.4,305.5,""smooth"",""down"",""down"",""good_move"",24193,3278.5,3017.2,20914.5,261.3,""oops"",""down"",""up"",""bad_move""]","",""
"3757","","<div style=""width:500px;"">
  <p>What determined the result of this run?</p>
  </div>","72","html-slider-response","30","375501","0.0-5.0-1.4","218","1","2025-07-23 12:52:00","1f75c3e559b7213887762d5229550c2b","62.19.163.61","Mozilla/5.0 (Windows NT 10.0; Win64; x64) AppleWebKit/537.36 (KHTML, like Gecko) Chrome/138.0.0.0 Safari/537.36","WebKit","Chrome","138.0.0.0","Windows","10.0","https://app.prolific.com/","it-IT,it;q=0.9,en-US;q=0.8,en;q=0.7","672f7b856c1ce6995a666bc6","683dba2a8a9dda3513610c04","6880da5cdabf9eb550e90680","3","0","672f7b856c1ce6995a666bc6","3","0","2025-07-23T12:58:16.363Z","","","","","","","","","","","AttribQ","","50","","","","","","","","","","","","","","","","","","","","","","","","","","","","",""
"2533","","<div style=""width:500px;"">
  <p>How much control did you have over the ball?</p>
  </div>","23","html-slider-response","31","378035","0.0-5.0-2.4","218","1","2025-07-23 12:52:00","1f75c3e559b7213887762d5229550c2b","62.19.163.61","Mozilla/5.0 (Windows NT 10.0; Win64; x64) AppleWebKit/537.36 (KHTML, like Gecko) Chrome/138.0.0.0 Safari/537.36","WebKit","Chrome","138.0.0.0","Windows","10.0","https://app.prolific.com/","it-IT,it;q=0.9,en-US;q=0.8,en;q=0.7","672f7b856c1ce6995a666bc6","683dba2a8a9dda3513610c04","6880da5cdabf9eb550e90680","3","0","672f7b856c1ce6995a666bc6","3","0","2025-07-23T12:58:18.897Z","","","","","","","","","","","ControlQ","","50","","","","","","","","","","","","","","","","","","","","","","","","","","","","",""
"5336","","<div style=""width:500px;"">
  <p>How would you describe your current emotional state?</p>
  </div>","29","html-slider-response","32","383372","0.0-5.0-3.4","218","1","2025-07-23 12:52:00","1f75c3e559b7213887762d5229550c2b","62.19.163.61","Mozilla/5.0 (Windows NT 10.0; Win64; x64) AppleWebKit/537.36 (KHTML, like Gecko) Chrome/138.0.0.0 Safari/537.36","WebKit","Chrome","138.0.0.0","Windows","10.0","https://app.prolific.com/","it-IT,it;q=0.9,en-US;q=0.8,en;q=0.7","672f7b856c1ce6995a666bc6","683dba2a8a9dda3513610c04","6880da5cdabf9eb550e90680","3","0","672f7b856c1ce6995a666bc6","3","0","2025-07-23T12:58:24.234Z","","","","","","","","","","","StressQ","","50","","","","","","","","","","","","","","","","","","","","","","","","","","","","",""
"4052","","<div style=""width:500px;"">
  <p>What best describes how you currently feel?</p>
  </div>","76","html-slider-response","33","387426","0.0-5.0-4.4","218","1","2025-07-23 12:52:00","1f75c3e559b7213887762d5229550c2b","62.19.163.61","Mozilla/5.0 (Windows NT 10.0; Win64; x64) AppleWebKit/537.36 (KHTML, like Gecko) Chrome/138.0.0.0 Safari/537.36","WebKit","Chrome","138.0.0.0","Windows","10.0","https://app.prolific.com/","it-IT,it;q=0.9,en-US;q=0.8,en;q=0.7","672f7b856c1ce6995a666bc6","683dba2a8a9dda3513610c04","6880da5cdabf9eb550e90680","3","0","672f7b856c1ce6995a666bc6","3","0","2025-07-23T12:58:28.288Z","","","","","","","","","","","MotivationQ","","50","","","","","","","","","","","","","","","","","","","","","","","","","","","","",""
"","","","","ctl-task-cpt","34","412928","0.0-5.0-0.5","218","1","2025-07-23 12:52:00","1f75c3e559b7213887762d5229550c2b","62.19.163.61","Mozilla/5.0 (Windows NT 10.0; Win64; x64) AppleWebKit/537.36 (KHTML, like Gecko) Chrome/138.0.0.0 Safari/537.36","WebKit","Chrome","138.0.0.0","Windows","10.0","https://app.prolific.com/","it-IT,it;q=0.9,en-US;q=0.8,en;q=0.7","672f7b856c1ce6995a666bc6","683dba2a8a9dda3513610c04","6880da5cdabf9eb550e90680","3","0","672f7b856c1ce6995a666bc6","3","0","2025-07-23T12:58:53.791Z","","","","","","","","","","","","","","win-only","0","g1:NW,g2:SE","0.5","6","0","389722.8","1392.8","6396.9","22486.4","1","4","8","6","2","8","6","25","19","0.1893939393939394","988.8","3000","1670","[""down"",""right""]","{""num_key_presses"":7,""num_perfect"":5,""num_errors"":2,""num_randdir"":0,""num_randdir_good_moves"":0,""num_whilered"":0,""num_whileblue"":1,""num_blue"":1,""num_good_moves"":6}","[411.5714133126395,426.57142761775424,0.2,411.5714133126395,426.57142761775424,102.9,411.5714133126395,426.57142761775424,207.5,411.5714133126395,426.57142761775424,308.7,411.5714133126395,426.57142761775424,413.2,411.5714133126395,426.57142761775424,517.3,652.8214133126395,632.8214276177542,618,702.8214133126395,706.5714276177542,718.8,726.5714133126395,732.8214276177542,822.5,731.5714133126395,741.5714276177542,923.6,731.5714133126395,741.5714276177542,1028.3,731.5714133126395,741.5714276177542,1132.6,731.5714133126395,741.5714276177542,1238.7,840.3214133126395,687.8214276177542,1342.9,885.3214133126395,661.5714276177542,1444.2,885.3214133126395,661.5714276177542,1548.3,885.3214133126395,661.5714276177542,1652.9,885.3214133126395,661.5714276177542,1757.5,885.3214133126395,661.5714276177542,1859.2,885.3214133126395,661.5714276177542,1963.2,885.3214133126395,661.5714276177542,2063.3,885.3214133126395,661.5714276177542,2163.5,885.3214133126395,661.5714276177542,2268.5,885.3214133126395,661.5714276177542,2373.8,885.3214133126395,661.5714276177542,2479,885.3214133126395,661.5714276177542,2582.9,885.3214133126395,661.5714276177542,2683.4,885.3214133126395,661.5714276177542,2783.8,885.3214133126395,661.5714276177542,2888.4,885.3214133126395,661.5714276177542,2992.8,885.3214133126395,661.5714276177542,3093.6,885.3214133126395,661.5714276177542,3194.1,885.3214133126395,661.5714276177542,3299.3,885.3214133126395,661.5714276177542,3402.6,885.3214133126395,661.5714276177542,3502.9,885.3214133126395,661.5714276177542,3604.3,885.3214133126395,661.5714276177542,3707.7,885.3214133126395,661.5714276177542,3807.8,885.3214133126395,661.5714276177542,3909.6,885.3214133126395,661.5714276177542,4012.9,885.3214133126395,661.5714276177542,4113.8,885.3214133126395,661.5714276177542,4217.7,885.3214133126395,661.5714276177542,4318.8,885.3214133126395,661.5714276177542,4422.9,885.3214133126395,661.5714276177542,4523.1,885.3214133126395,661.5714276177542,4623.4,885.3214133126395,661.5714276177542,4729,885.3214133126395,661.5714276177542,4833.3,885.3214133126395,661.5714276177542,4937.4]","[1253,1253,1000,0,253,""smooth"",""down"",""down"",""good_move"",3735.8,2482.8,2148.3,1253.1,334.5,""smooth"",""right"",""right"",""good_move"",5773.3,2037.3,1802.6,3736,234.7,""smooth"",""down"",""down"",""good_move"",9290.6,3517.2,3257.1,5773.5,260.1,""smooth"",""down"",""down"",""good_move"",9330.9,40.1,1463.4,9290.8,-1423.3,""error"",""-"",""-"",""no_move"",13209.2,3878.1,2602.7,10334.3,272.2,""smooth"",""right"",""right"",""good_move"",16003.3,2793.7,2519.3,13209.6,274.4,""while_blue"",""right"",""right"",""good_move""]","",""
"3218","","<div style=""width:500px;"">
  <p>What determined the result of this run?</p>
  </div>","83","html-slider-response","35","416149","0.0-5.0-1.5","218","1","2025-07-23 12:52:00","1f75c3e559b7213887762d5229550c2b","62.19.163.61","Mozilla/5.0 (Windows NT 10.0; Win64; x64) AppleWebKit/537.36 (KHTML, like Gecko) Chrome/138.0.0.0 Safari/537.36","WebKit","Chrome","138.0.0.0","Windows","10.0","https://app.prolific.com/","it-IT,it;q=0.9,en-US;q=0.8,en;q=0.7","672f7b856c1ce6995a666bc6","683dba2a8a9dda3513610c04","6880da5cdabf9eb550e90680","3","0","672f7b856c1ce6995a666bc6","3","0","2025-07-23T12:58:57.011Z","","","","","","","","","","","AttribQ","","50","","","","","","","","","","","","","","","","","","","","","","","","","","","","",""
"4989","","<div style=""width:500px;"">
  <p>How much control did you have over the ball?</p>
  </div>","87","html-slider-response","36","421140","0.0-5.0-2.5","218","1","2025-07-23 12:52:00","1f75c3e559b7213887762d5229550c2b","62.19.163.61","Mozilla/5.0 (Windows NT 10.0; Win64; x64) AppleWebKit/537.36 (KHTML, like Gecko) Chrome/138.0.0.0 Safari/537.36","WebKit","Chrome","138.0.0.0","Windows","10.0","https://app.prolific.com/","it-IT,it;q=0.9,en-US;q=0.8,en;q=0.7","672f7b856c1ce6995a666bc6","683dba2a8a9dda3513610c04","6880da5cdabf9eb550e90680","3","0","672f7b856c1ce6995a666bc6","3","0","2025-07-23T12:59:02.002Z","","","","","","","","","","","ControlQ","","50","","","","","","","","","","","","","","","","","","","","","","","","","","","","",""
"3120","","<div style=""width:500px;"">
  <p>How would you describe your current emotional state?</p>
  </div>","20","html-slider-response","37","424262","0.0-5.0-3.5","218","1","2025-07-23 12:52:00","1f75c3e559b7213887762d5229550c2b","62.19.163.61","Mozilla/5.0 (Windows NT 10.0; Win64; x64) AppleWebKit/537.36 (KHTML, like Gecko) Chrome/138.0.0.0 Safari/537.36","WebKit","Chrome","138.0.0.0","Windows","10.0","https://app.prolific.com/","it-IT,it;q=0.9,en-US;q=0.8,en;q=0.7","672f7b856c1ce6995a666bc6","683dba2a8a9dda3513610c04","6880da5cdabf9eb550e90680","3","0","672f7b856c1ce6995a666bc6","3","0","2025-07-23T12:59:05.124Z","","","","","","","","","","","StressQ","","50","","","","","","","","","","","","","","","","","","","","","","","","","","","","",""
"2473","","<div style=""width:500px;"">
  <p>What best describes how you currently feel?</p>
  </div>","87","html-slider-response","38","426736","0.0-5.0-4.5","218","1","2025-07-23 12:52:00","1f75c3e559b7213887762d5229550c2b","62.19.163.61","Mozilla/5.0 (Windows NT 10.0; Win64; x64) AppleWebKit/537.36 (KHTML, like Gecko) Chrome/138.0.0.0 Safari/537.36","WebKit","Chrome","138.0.0.0","Windows","10.0","https://app.prolific.com/","it-IT,it;q=0.9,en-US;q=0.8,en;q=0.7","672f7b856c1ce6995a666bc6","683dba2a8a9dda3513610c04","6880da5cdabf9eb550e90680","3","0","672f7b856c1ce6995a666bc6","3","0","2025-07-23T12:59:07.598Z","","","","","","","","","","","MotivationQ","","50","","","","","","","","","","","","","","","","","","","","","","","","","","","","",""
"","","","","ctl-task-cpt","39","473956","0.0-5.0-0.6","218","1","2025-07-23 12:52:00","1f75c3e559b7213887762d5229550c2b","62.19.163.61","Mozilla/5.0 (Windows NT 10.0; Win64; x64) AppleWebKit/537.36 (KHTML, like Gecko) Chrome/138.0.0.0 Safari/537.36","WebKit","Chrome","138.0.0.0","Windows","10.0","https://app.prolific.com/","it-IT,it;q=0.9,en-US;q=0.8,en;q=0.7","672f7b856c1ce6995a666bc6","683dba2a8a9dda3513610c04","6880da5cdabf9eb550e90680","3","0","672f7b856c1ce6995a666bc6","3","0","2025-07-23T12:59:54.818Z","","","","","","","","","","","","","","win-only","2","g1:SE,g2:NW","0.4","7","0","429033","1124.6","6125.9","44200.8","1","4","8","6","2","-8","-9","16","25","0.12121212121212122","1153.2","3000","-3000","[""left"",""up""]","{""num_key_presses"":12,""num_perfect"":4,""num_errors"":1,""num_randdir"":6,""num_randdir_good_moves"":1,""num_whilered"":1,""num_whileblue"":0,""num_blue"":2,""num_good_moves"":3}","[416.5714133126395,416.57142761775424,0.2,416.5714133126395,416.57142761775424,101.8,416.5714133126395,416.57142761775424,207.2,416.5714133126395,416.57142761775424,316.8,416.5714133126395,416.57142761775424,416.8,416.5714133126395,416.57142761775424,522,416.5714133126395,416.57142761775424,626.4,282.8214133126395,301.57142761775424,726.5,56.57141331263951,41.57142761775425,827.6,57.82141331263951,40.32142761775425,930.8,61.57141331263951,44.07142761775425,1032.1,61.57141331263951,44.07142761775425,1136.2,61.57141331263951,44.07142761775425,1236.6,61.57141331263951,44.07142761775425,1340.8,61.57141331263951,44.07142761775425,1442.5,-85.9285866873605,85.32142761775425,1545.9,-132.1785866873605,104.07142761775425,1646.5,-132.1785866873605,104.07142761775425,1752,-132.1785866873605,104.07142761775425,1852.5,-132.1785866873605,104.07142761775425,1956.4,-132.1785866873605,104.07142761775425,2060.8,-132.1785866873605,104.07142761775425,2161.1,-132.1785866873605,104.07142761775425,2266.5,-132.1785866873605,104.07142761775425,2371.1,-132.1785866873605,104.07142761775425,2472.7,-132.1785866873605,104.07142761775425,2576.6,-132.1785866873605,104.07142761775425,2677.7,-132.1785866873605,104.07142761775425,2782.5,-132.1785866873605,104.07142761775425,2885.9,-132.1785866873605,104.07142761775425,2986,-132.1785866873605,104.07142761775425,3086.4,-132.1785866873605,104.07142761775425,3192.4,-132.1785866873605,104.07142761775425,3296.1,-132.1785866873605,104.07142761775425,3396.2,-132.1785866873605,104.07142761775425,3496.7,-132.1785866873605,104.07142761775425,3601.7,-132.1785866873605,104.07142761775425,3701.9,-132.1785866873605,104.07142761775425,3806.9,-132.1785866873605,104.07142761775425,3907.3,-132.1785866873605,104.07142761775425,4011.1,-132.1785866873605,104.07142761775425,4111.8,-132.1785866873605,104.07142761775425,4212.8,-132.1785866873605,104.07142761775425,4312.9,-132.1785866873605,104.07142761775425,4415.7,-132.1785866873605,104.07142761775425,4515.8,-132.1785866873605,104.07142761775425,4615.9,-132.1785866873605,104.07142761775425,4716.4,-132.1785866873605,104.07142761775425,4817,-132.1785866873605,104.07142761775425,4922.8]","[4415.6,4415.6,2154.9,2009.3,251.4,""oops"",""left"",""down"",""bad_move"",10827.1,6411.3,2726.2,7855.2,245.7,""smooth"",""left"",""left"",""good_move"",13854.1,3026.7,2754.7,10827.4,272,""smooth"",""left"",""left"",""good_move"",16100.2,2245.9,1914.6,13854.3,331.3,""oops"",""up"",""right"",""bad_move"",18552.6,2452,2165.9,16100.6,286.1,""oops"",""up"",""right"",""bad_move"",21961.1,3408.2,2815.8,18553,592.4,""smooth"",""right"",""right"",""bad_move"",24691.8,2730.3,2478.9,21961.5,251.4,""oops"",""up"",""right"",""bad_move"",27024.2,2332.1,2054.2,24692.2,277.9,""oops"",""up"",""down"",""bad_move"",30001.2,2976.6,2753.2,27024.6,223.4,""oops"",""down"",""up"",""good_move"",32492.7,2491,3044.1,30001.7,-553.1,""error"",""-"",""-"",""no_move"",32761.7,268.7,3044.1,30001.7,-284.1,""while_red"",""-"",""-"",""no_move"",35950.9,3457.9,2199.9,33494.9,256.1,""smooth"",""down"",""down"",""bad_move""]","",""
"3917","","<div style=""width:500px;"">
  <p>What determined the result of this run?</p>
  </div>","77","html-slider-response","40","477874","0.0-5.0-1.6","218","1","2025-07-23 12:52:00","1f75c3e559b7213887762d5229550c2b","62.19.163.61","Mozilla/5.0 (Windows NT 10.0; Win64; x64) AppleWebKit/537.36 (KHTML, like Gecko) Chrome/138.0.0.0 Safari/537.36","WebKit","Chrome","138.0.0.0","Windows","10.0","https://app.prolific.com/","it-IT,it;q=0.9,en-US;q=0.8,en;q=0.7","672f7b856c1ce6995a666bc6","683dba2a8a9dda3513610c04","6880da5cdabf9eb550e90680","3","0","672f7b856c1ce6995a666bc6","3","0","2025-07-23T12:59:58.736Z","","","","","","","","","","","AttribQ","","50","","","","","","","","","","","","","","","","","","","","","","","","","","","","",""
"4097","","<div style=""width:500px;"">
  <p>How much control did you have over the ball?</p>
  </div>","24","html-slider-response","41","481972","0.0-5.0-2.6","218","1","2025-07-23 12:52:00","1f75c3e559b7213887762d5229550c2b","62.19.163.61","Mozilla/5.0 (Windows NT 10.0; Win64; x64) AppleWebKit/537.36 (KHTML, like Gecko) Chrome/138.0.0.0 Safari/537.36","WebKit","Chrome","138.0.0.0","Windows","10.0","https://app.prolific.com/","it-IT,it;q=0.9,en-US;q=0.8,en;q=0.7","672f7b856c1ce6995a666bc6","683dba2a8a9dda3513610c04","6880da5cdabf9eb550e90680","3","0","672f7b856c1ce6995a666bc6","3","0","2025-07-23T13:00:02.834Z","","","","","","","","","","","ControlQ","","50","","","","","","","","","","","","","","","","","","","","","","","","","","","","",""
"4673","","<div style=""width:500px;"">
  <p>How would you describe your current emotional state?</p>
  </div>","24","html-slider-response","42","486647","0.0-5.0-3.6","218","1","2025-07-23 12:52:00","1f75c3e559b7213887762d5229550c2b","62.19.163.61","Mozilla/5.0 (Windows NT 10.0; Win64; x64) AppleWebKit/537.36 (KHTML, like Gecko) Chrome/138.0.0.0 Safari/537.36","WebKit","Chrome","138.0.0.0","Windows","10.0","https://app.prolific.com/","it-IT,it;q=0.9,en-US;q=0.8,en;q=0.7","672f7b856c1ce6995a666bc6","683dba2a8a9dda3513610c04","6880da5cdabf9eb550e90680","3","0","672f7b856c1ce6995a666bc6","3","0","2025-07-23T13:00:07.509Z","","","","","","","","","","","StressQ","","50","","","","","","","","","","","","","","","","","","","","","","","","","","","","",""
"3482","","<div style=""width:500px;"">
  <p>What best describes how you currently feel?</p>
  </div>","92","html-slider-response","43","490131","0.0-5.0-4.6","218","1","2025-07-23 12:52:00","1f75c3e559b7213887762d5229550c2b","62.19.163.61","Mozilla/5.0 (Windows NT 10.0; Win64; x64) AppleWebKit/537.36 (KHTML, like Gecko) Chrome/138.0.0.0 Safari/537.36","WebKit","Chrome","138.0.0.0","Windows","10.0","https://app.prolific.com/","it-IT,it;q=0.9,en-US;q=0.8,en;q=0.7","672f7b856c1ce6995a666bc6","683dba2a8a9dda3513610c04","6880da5cdabf9eb550e90680","3","0","672f7b856c1ce6995a666bc6","3","0","2025-07-23T13:00:10.993Z","","","","","","","","","","","MotivationQ","","50","","","","","","","","","","","","","","","","","","","","","","","","","","","","",""
"","","","","ctl-task-cpt","44","533999","0.0-5.0-0.7","218","1","2025-07-23 12:52:00","1f75c3e559b7213887762d5229550c2b","62.19.163.61","Mozilla/5.0 (Windows NT 10.0; Win64; x64) AppleWebKit/537.36 (KHTML, like Gecko) Chrome/138.0.0.0 Safari/537.36","WebKit","Chrome","138.0.0.0","Windows","10.0","https://app.prolific.com/","it-IT,it;q=0.9,en-US;q=0.8,en;q=0.7","672f7b856c1ce6995a666bc6","683dba2a8a9dda3513610c04","6880da5cdabf9eb550e90680","3","0","672f7b856c1ce6995a666bc6","3","0","2025-07-23T13:00:54.861Z","","","","","","","","","","","","","","win-only","1","g1:NE,g2:SW","0.3","8","0","492427.7","1150.5","6150.8","40850.1","1","4","4","6","2","-4","-5","11","16","0.08333333333333333","1077.7","3000","-3005","[""down"",""left""]","{""num_key_presses"":12,""num_perfect"":3,""num_errors"":1,""num_randdir"":8,""num_randdir_good_moves"":4,""num_whilered"":0,""num_whileblue"":1,""num_blue"":1,""num_good_moves"":7}","[417.8214133126395,414.07142761775424,0.1,417.8214133126395,414.07142761775424,100,417.8214133126395,414.07142761775424,200.5,417.8214133126395,414.07142761775424,305.6,417.8214133126395,414.07142761775424,405.6,417.8214133126395,414.07142761775424,510.5,246.5714133126395,595.3214276177542,616.8,165.3214133126395,662.8214276177542,720.8,131.5714133126395,692.8214276177542,826.2,85.3214133126395,726.5714276177542,930.7,84.0714133126395,726.5714276177542,1035.5,84.0714133126395,726.5714276177542,1139.7,84.0714133126395,726.5714276177542,1240.8,84.0714133126395,726.5714276177542,1344.8,17.821413312639507,712.8214276177542,1444.8,-339.6785866873605,639.0714276177542,1544.8,-340.9285866873605,637.8214276177542,1646,-340.9285866873605,637.8214276177542,1750.8,-340.9285866873605,637.8214276177542,1855.8,-340.9285866873605,637.8214276177542,1959.9,-340.9285866873605,637.8214276177542,2064.9,-340.9285866873605,637.8214276177542,2165.3,-340.9285866873605,637.8214276177542,2265.6,-340.9285866873605,637.8214276177542,2366,-340.9285866873605,637.8214276177542,2470.7,-340.9285866873605,637.8214276177542,2575.4,-340.9285866873605,637.8214276177542,2676.6,-340.9285866873605,637.8214276177542,2780.1,-340.9285866873605,637.8214276177542,2880.1,-340.9285866873605,637.8214276177542,2985.2,-340.9285866873605,637.8214276177542,3085.3,-340.9285866873605,637.8214276177542,3185.5,-340.9285866873605,637.8214276177542,3285.7,-340.9285866873605,637.8214276177542,3390.3,-340.9285866873605,637.8214276177542,3490.8,-340.9285866873605,637.8214276177542,3591.2,-340.9285866873605,637.8214276177542,3694.8,-340.9285866873605,637.8214276177542,3795.4,-340.9285866873605,637.8214276177542,3900.5,-340.9285866873605,637.8214276177542,4000.5,-340.9285866873605,637.8214276177542,4105.1,-340.9285866873605,637.8214276177542,4210.3,-340.9285866873605,637.8214276177542,4310.8,-340.9285866873605,637.8214276177542,4415.1,-340.9285866873605,637.8214276177542,4515.6,-340.9285866873605,637.8214276177542,4620.1,-340.9285866873605,637.8214276177542,4724.7,-340.9285866873605,637.8214276177542,4825.6,-340.9285866873605,637.8214276177542,4930.3]","[1308.3,1308.3,1000,0,308.3,""smooth"",""down"",""down"",""good_move"",4591.2,3282.5,3002.9,1308.8,279.5,""oops"",""down"",""left"",""good_move"",7169,2577.2,2284.8,4591.9,292.4,""oops"",""down"",""right"",""bad_move"",10487.2,3317.5,3060.4,7169.7,257.1,""oops"",""down"",""up"",""bad_move"",13226.8,2739.2,2443.9,10487.6,295.3,""smooth"",""up"",""up"",""bad_move"",15623.5,2396.6,2149.7,13226.9,246.9,""oops"",""left"",""up"",""bad_move"",17973.8,2350.2,2107.8,15623.6,242.4,""smooth"",""left"",""left"",""good_move"",21318.7,3344.7,3107.9,17974,236.8,""oops"",""left"",""right"",""bad_move"",24026.8,2707.5,2426.5,21319.3,281,""while_blue"",""down"",""left"",""good_move"",27304.6,3277.1,3015.2,24027.5,261.9,""oops"",""left"",""down"",""good_move"",30081.7,2776.6,2516.4,27305.2,260.2,""oops"",""left"",""left"",""good_move"",32583.9,2501.7,2266.4,30082.2,235.3,""oops"",""left"",""down"",""good_move""]","",""
"8790","","<div style=""width:500px;"">
  <p>What determined the result of this run?</p>
  </div>","67","html-slider-response","45","542790","0.0-5.0-1.7","218","1","2025-07-23 12:52:00","1f75c3e559b7213887762d5229550c2b","62.19.163.61","Mozilla/5.0 (Windows NT 10.0; Win64; x64) AppleWebKit/537.36 (KHTML, like Gecko) Chrome/138.0.0.0 Safari/537.36","WebKit","Chrome","138.0.0.0","Windows","10.0","https://app.prolific.com/","it-IT,it;q=0.9,en-US;q=0.8,en;q=0.7","672f7b856c1ce6995a666bc6","683dba2a8a9dda3513610c04","6880da5cdabf9eb550e90680","3","0","672f7b856c1ce6995a666bc6","3","0","2025-07-23T13:01:03.652Z","","","","","","","","","","","AttribQ","","50","","","","","","","","","","","","","","","","","","","","","","","","","","","","",""
"4563","","<div style=""width:500px;"">
  <p>How much control did you have over the ball?</p>
  </div>","40","html-slider-response","46","547355","0.0-5.0-2.7","218","1","2025-07-23 12:52:00","1f75c3e559b7213887762d5229550c2b","62.19.163.61","Mozilla/5.0 (Windows NT 10.0; Win64; x64) AppleWebKit/537.36 (KHTML, like Gecko) Chrome/138.0.0.0 Safari/537.36","WebKit","Chrome","138.0.0.0","Windows","10.0","https://app.prolific.com/","it-IT,it;q=0.9,en-US;q=0.8,en;q=0.7","672f7b856c1ce6995a666bc6","683dba2a8a9dda3513610c04","6880da5cdabf9eb550e90680","3","0","672f7b856c1ce6995a666bc6","3","0","2025-07-23T13:01:08.217Z","","","","","","","","","","","ControlQ","","50","","","","","","","","","","","","","","","","","","","","","","","","","","","","",""
"4110","","<div style=""width:500px;"">
  <p>How would you describe your current emotional state?</p>
  </div>","44","html-slider-response","47","551467","0.0-5.0-3.7","218","1","2025-07-23 12:52:00","1f75c3e559b7213887762d5229550c2b","62.19.163.61","Mozilla/5.0 (Windows NT 10.0; Win64; x64) AppleWebKit/537.36 (KHTML, like Gecko) Chrome/138.0.0.0 Safari/537.36","WebKit","Chrome","138.0.0.0","Windows","10.0","https://app.prolific.com/","it-IT,it;q=0.9,en-US;q=0.8,en;q=0.7","672f7b856c1ce6995a666bc6","683dba2a8a9dda3513610c04","6880da5cdabf9eb550e90680","3","0","672f7b856c1ce6995a666bc6","3","0","2025-07-23T13:01:12.329Z","","","","","","","","","","","StressQ","","50","","","","","","","","","","","","","","","","","","","","","","","","","","","","",""
"2186","","<div style=""width:500px;"">
  <p>What best describes how you currently feel?</p>
  </div>","93","html-slider-response","48","553654","0.0-5.0-4.7","218","1","2025-07-23 12:52:00","1f75c3e559b7213887762d5229550c2b","62.19.163.61","Mozilla/5.0 (Windows NT 10.0; Win64; x64) AppleWebKit/537.36 (KHTML, like Gecko) Chrome/138.0.0.0 Safari/537.36","WebKit","Chrome","138.0.0.0","Windows","10.0","https://app.prolific.com/","it-IT,it;q=0.9,en-US;q=0.8,en;q=0.7","672f7b856c1ce6995a666bc6","683dba2a8a9dda3513610c04","6880da5cdabf9eb550e90680","3","0","672f7b856c1ce6995a666bc6","3","0","2025-07-23T13:01:14.517Z","","","","","","","","","","","MotivationQ","","50","","","","","","","","","","","","","","","","","","","","","","","","","","","","",""
"","","","","ctl-task-cpt","49","602354","0.0-5.0-0.8","218","1","2025-07-23 12:52:00","1f75c3e559b7213887762d5229550c2b","62.19.163.61","Mozilla/5.0 (Windows NT 10.0; Win64; x64) AppleWebKit/537.36 (KHTML, like Gecko) Chrome/138.0.0.0 Safari/537.36","WebKit","Chrome","138.0.0.0","Windows","10.0","https://app.prolific.com/","it-IT,it;q=0.9,en-US;q=0.8,en;q=0.7","672f7b856c1ce6995a666bc6","683dba2a8a9dda3513610c04","6880da5cdabf9eb550e90680","3","0","672f7b856c1ce6995a666bc6","3","0","2025-07-23T13:02:03.216Z","","","","","","","","","","","","","","win-only","2","g1:SE,g2:NW","0.2","9","0","555952.2","1159.3","6163.2","45680.9","1","4","4","6","2","-4","-6","5","11","0.03787878787878788","944.6","3000","-3010","[""left"",""up""]","{""num_key_presses"":11,""num_perfect"":2,""num_errors"":2,""num_randdir"":7,""num_randdir_good_moves"":2,""num_whilered"":0,""num_whileblue"":0,""num_blue"":2,""num_good_moves"":4}","[415.3214133126395,411.57142761775424,0.2,415.3214133126395,411.57142761775424,103.2,415.3214133126395,411.57142761775424,206.7,415.3214133126395,411.57142761775424,311.4,415.3214133126395,411.57142761775424,411.4,415.3214133126395,411.57142761775424,513.6,84.0714133126395,52.82142761775425,615.9,72.8214133126395,40.32142761775425,719.4,72.8214133126395,40.32142761775425,819.5,72.8214133126395,40.32142761775425,922.8,72.8214133126395,40.32142761775425,1027.3,72.8214133126395,40.32142761775425,1131.3,72.8214133126395,40.32142761775425,1231.5,-218.4285866873605,167.82142761775424,1332.2,-364.6785866873605,207.82142761775424,1432.5,-364.6785866873605,207.82142761775424,1536.6,-364.6785866873605,207.82142761775424,1636.9,-364.6785866873605,207.82142761775424,1742.3,-364.6785866873605,207.82142761775424,1847.2,-364.6785866873605,207.82142761775424,1948.5,-364.6785866873605,207.82142761775424,2051.7,-364.6785866873605,207.82142761775424,2157.4,-364.6785866873605,207.82142761775424,2257.8,-364.6785866873605,207.82142761775424,2360.9,-364.6785866873605,207.82142761775424,2461,-364.6785866873605,207.82142761775424,2562.3,-364.6785866873605,207.82142761775424,2667.6,-364.6785866873605,207.82142761775424,2773,-364.6785866873605,207.82142761775424,2877.4,-364.6785866873605,207.82142761775424,2982.4,-364.6785866873605,207.82142761775424,3086.3,-364.6785866873605,207.82142761775424,3187.2,-364.6785866873605,207.82142761775424,3287.3,-364.6785866873605,207.82142761775424,3392.5,-364.6785866873605,207.82142761775424,3496.6,-364.6785866873605,207.82142761775424,3597.6,-364.6785866873605,207.82142761775424,3701.7,-364.6785866873605,207.82142761775424,3802.2,-364.6785866873605,207.82142761775424,3902.4,-364.6785866873605,207.82142761775424,4002.4,-364.6785866873605,207.82142761775424,4102.4,-364.6785866873605,207.82142761775424,4206.4,-364.6785866873605,207.82142761775424,4307.3,-364.6785866873605,207.82142761775424,4412.2,-364.6785866873605,207.82142761775424,4516.9,-364.6785866873605,207.82142761775424,4622.6,-364.6785866873605,207.82142761775424,4727.9,-364.6785866873605,207.82142761775424,4831.7,-364.6785866873605,207.82142761775424,4932.2]","[1302.4,1302.4,1000,0,302.4,""oops"",""up"",""up"",""good_move"",8054.2,6750.6,2976.7,4817,260.5,""oops"",""up"",""right"",""bad_move"",10866.6,2811.5,2542.2,8055.1,269.3,""smooth"",""left"",""left"",""good_move"",13621.9,2755,2493.1,10867,261.8,""oops"",""left"",""left"",""good_move"",16671.5,3049.3,2782.6,13622.2,266.7,""smooth"",""left"",""left"",""good_move"",24195.5,7523.8,3211.5,20522.8,461.3,""oops"",""down"",""down"",""bad_move"",27377,3180.7,2917.4,24196.3,263.3,""oops"",""left"",""down"",""bad_move"",30035.8,2658.5,2411.1,27377.3,247.4,""oops"",""up"",""down"",""bad_move"",33073.9,3037.7,2460.6,30036.2,577.1,""oops"",""down"",""right"",""bad_move"",34610.8,1536.6,2789.6,33074.2,-1253,""error"",""-"",""-"",""no_move"",35935.7,1324.5,3441.6,35612.7,-3118.6,""error"",""-"",""-"",""no_move""]","",""
"4396","","<div style=""width:500px;"">
  <p>What determined the result of this run?</p>
  </div>","60","html-slider-response","50","606752","0.0-5.0-1.8","218","1","2025-07-23 12:52:00","1f75c3e559b7213887762d5229550c2b","62.19.163.61","Mozilla/5.0 (Windows NT 10.0; Win64; x64) AppleWebKit/537.36 (KHTML, like Gecko) Chrome/138.0.0.0 Safari/537.36","WebKit","Chrome","138.0.0.0","Windows","10.0","https://app.prolific.com/","it-IT,it;q=0.9,en-US;q=0.8,en;q=0.7","672f7b856c1ce6995a666bc6","683dba2a8a9dda3513610c04","6880da5cdabf9eb550e90680","3","0","672f7b856c1ce6995a666bc6","3","0","2025-07-23T13:02:07.614Z","","","","","","","","","","","AttribQ","","50","","","","","","","","","","","","","","","","","","","","","","","","","","","","",""
"3372","","<div style=""width:500px;"">
  <p>How much control did you have over the ball?</p>
  </div>","41","html-slider-response","51","610125","0.0-5.0-2.8","218","1","2025-07-23 12:52:00","1f75c3e559b7213887762d5229550c2b","62.19.163.61","Mozilla/5.0 (Windows NT 10.0; Win64; x64) AppleWebKit/537.36 (KHTML, like Gecko) Chrome/138.0.0.0 Safari/537.36","WebKit","Chrome","138.0.0.0","Windows","10.0","https://app.prolific.com/","it-IT,it;q=0.9,en-US;q=0.8,en;q=0.7","672f7b856c1ce6995a666bc6","683dba2a8a9dda3513610c04","6880da5cdabf9eb550e90680","3","0","672f7b856c1ce6995a666bc6","3","0","2025-07-23T13:02:10.987Z","","","","","","","","","","","ControlQ","","50","","","","","","","","","","","","","","","","","","","","","","","","","","","","",""
"4667","","<div style=""width:500px;"">
  <p>How would you describe your current emotional state?</p>
  </div>","59","html-slider-response","52","614794","0.0-5.0-3.8","218","1","2025-07-23 12:52:00","1f75c3e559b7213887762d5229550c2b","62.19.163.61","Mozilla/5.0 (Windows NT 10.0; Win64; x64) AppleWebKit/537.36 (KHTML, like Gecko) Chrome/138.0.0.0 Safari/537.36","WebKit","Chrome","138.0.0.0","Windows","10.0","https://app.prolific.com/","it-IT,it;q=0.9,en-US;q=0.8,en;q=0.7","672f7b856c1ce6995a666bc6","683dba2a8a9dda3513610c04","6880da5cdabf9eb550e90680","3","0","672f7b856c1ce6995a666bc6","3","0","2025-07-23T13:02:15.656Z","","","","","","","","","","","StressQ","","50","","","","","","","","","","","","","","","","","","","","","","","","","","","","",""
"2879","","<div style=""width:500px;"">
  <p>What best describes how you currently feel?</p>
  </div>","93","html-slider-response","53","617675","0.0-5.0-4.8","218","1","2025-07-23 12:52:00","1f75c3e559b7213887762d5229550c2b","62.19.163.61","Mozilla/5.0 (Windows NT 10.0; Win64; x64) AppleWebKit/537.36 (KHTML, like Gecko) Chrome/138.0.0.0 Safari/537.36","WebKit","Chrome","138.0.0.0","Windows","10.0","https://app.prolific.com/","it-IT,it;q=0.9,en-US;q=0.8,en;q=0.7","672f7b856c1ce6995a666bc6","683dba2a8a9dda3513610c04","6880da5cdabf9eb550e90680","3","0","672f7b856c1ce6995a666bc6","3","0","2025-07-23T13:02:18.537Z","","","","","","","","","","","MotivationQ","","50","","","","","","","","","","","","","","","","","","","","","","","","","","","","",""
"","","","","ctl-task-cpt","54","656195","0.0-5.0-0.9","218","1","2025-07-23 12:52:00","1f75c3e559b7213887762d5229550c2b","62.19.163.61","Mozilla/5.0 (Windows NT 10.0; Win64; x64) AppleWebKit/537.36 (KHTML, like Gecko) Chrome/138.0.0.0 Safari/537.36","WebKit","Chrome","138.0.0.0","Windows","10.0","https://app.prolific.com/","it-IT,it;q=0.9,en-US;q=0.8,en;q=0.7","672f7b856c1ce6995a666bc6","683dba2a8a9dda3513610c04","6880da5cdabf9eb550e90680","3","0","672f7b856c1ce6995a666bc6","3","0","2025-07-23T13:02:57.057Z","","","","","","","","","","","","","","win-only","0","g1:NW,g2:SE","0.4","10","0","619972.7","967.5","5972.4","35501.4","1","4","8","6","2","8","7","12","5","0.09090909090909091","1167.4","3000","505","[""down"",""right""]","{""num_key_presses"":10,""num_perfect"":4,""num_errors"":1,""num_randdir"":5,""num_randdir_good_moves"":4,""num_whilered"":0,""num_whileblue"":1,""num_blue"":2,""num_good_moves"":8}","[416.5714133126395,411.57142761775424,0.3,416.5714133126395,411.57142761775424,102.7,416.5714133126395,411.57142761775424,202.8,416.5714133126395,411.57142761775424,303.9,416.5714133126395,411.57142761775424,406.3,416.5714133126395,411.57142761775424,509.8,624.0714133126395,550.3214276177542,611.6,657.8214133126395,625.3214276177542,713.3,657.8214133126395,625.3214276177542,814.8,729.0714133126395,701.5714276177542,918.4,746.5714133126395,720.3214276177542,1019,746.5714133126395,720.3214276177542,1119.3,746.5714133126395,720.3214276177542,1223.1,746.5714133126395,720.3214276177542,1329.2,746.5714133126395,720.3214276177542,1432.7,822.8214133126395,661.5714276177542,1533.2,931.5714133126395,562.8214276177542,1633.5,931.5714133126395,562.8214276177542,1735.2,931.5714133126395,562.8214276177542,1838,931.5714133126395,562.8214276177542,1939.2,931.5714133126395,562.8214276177542,2043,931.5714133126395,562.8214276177542,2143.2,931.5714133126395,562.8214276177542,2244.4,931.5714133126395,562.8214276177542,2348.2,931.5714133126395,562.8214276177542,2448.6,931.5714133126395,562.8214276177542,2555.3,931.5714133126395,562.8214276177542,2657.9,931.5714133126395,562.8214276177542,2758.6,931.5714133126395,562.8214276177542,2862.8,931.5714133126395,562.8214276177542,2965.8,931.5714133126395,562.8214276177542,3067.8,931.5714133126395,562.8214276177542,3169.1,931.5714133126395,562.8214276177542,3273.4,931.5714133126395,562.8214276177542,3377.8,931.5714133126395,562.8214276177542,3483.1,931.5714133126395,562.8214276177542,3588.6,931.5714133126395,562.8214276177542,3688.9,931.5714133126395,562.8214276177542,3794.1,931.5714133126395,562.8214276177542,3899.3,931.5714133126395,562.8214276177542,4003.6,931.5714133126395,562.8214276177542,4107.7,931.5714133126395,562.8214276177542,4208.8,931.5714133126395,562.8214276177542,4312.7,931.5714133126395,562.8214276177542,4413,931.5714133126395,562.8214276177542,4513.6,931.5714133126395,562.8214276177542,4613.6,931.5714133126395,562.8214276177542,4713.9,931.5714133126395,562.8214276177542,4818.5,931.5714133126395,562.8214276177542,4922.8]","[1304.7,1304.7,1000,0,304.7,""smooth"",""down"",""down"",""good_move"",4495,3190,2907,1305,283,""smooth"",""right"",""right"",""good_move"",7236,2740.6,2455.5,4495.4,285.1,""smooth"",""right"",""right"",""good_move"",9606.9,2370.1,2116.2,7236.8,253.9,""oops"",""right"",""up"",""bad_move"",12246.5,2639.4,2355.1,9607.1,284.3,""oops"",""down"",""down"",""good_move"",15651.8,3405.1,3167.8,12246.7,237.3,""oops"",""down"",""right"",""good_move"",17773.8,2121.7,1831.3,15652.1,290.4,""while_blue"",""down"",""up"",""bad_move"",24301.9,6527.6,2905,21058.5,338.4,""oops"",""down"",""down"",""good_move"",26881.5,2579,2279.7,24302.5,299.3,""oops"",""down"",""down"",""good_move"",29434.4,2552.7,2277.3,26881.7,275.4,""smooth"",""down"",""down"",""good_move""]","",""
"7320","","<div style=""width:500px;"">
  <p>What determined the result of this run?</p>
  </div>","77","html-slider-response","55","663516","0.0-5.0-1.9","218","1","2025-07-23 12:52:00","1f75c3e559b7213887762d5229550c2b","62.19.163.61","Mozilla/5.0 (Windows NT 10.0; Win64; x64) AppleWebKit/537.36 (KHTML, like Gecko) Chrome/138.0.0.0 Safari/537.36","WebKit","Chrome","138.0.0.0","Windows","10.0","https://app.prolific.com/","it-IT,it;q=0.9,en-US;q=0.8,en;q=0.7","672f7b856c1ce6995a666bc6","683dba2a8a9dda3513610c04","6880da5cdabf9eb550e90680","3","0","672f7b856c1ce6995a666bc6","3","0","2025-07-23T13:03:04.378Z","","","","","","","","","","","AttribQ","","50","","","","","","","","","","","","","","","","","","","","","","","","","","","","",""
"4741","","<div style=""width:500px;"">
  <p>How much control did you have over the ball?</p>
  </div>","78","html-slider-response","56","668258","0.0-5.0-2.9","218","1","2025-07-23 12:52:00","1f75c3e559b7213887762d5229550c2b","62.19.163.61","Mozilla/5.0 (Windows NT 10.0; Win64; x64) AppleWebKit/537.36 (KHTML, like Gecko) Chrome/138.0.0.0 Safari/537.36","WebKit","Chrome","138.0.0.0","Windows","10.0","https://app.prolific.com/","it-IT,it;q=0.9,en-US;q=0.8,en;q=0.7","672f7b856c1ce6995a666bc6","683dba2a8a9dda3513610c04","6880da5cdabf9eb550e90680","3","0","672f7b856c1ce6995a666bc6","3","0","2025-07-23T13:03:09.120Z","","","","","","","","","","","ControlQ","","50","","","","","","","","","","","","","","","","","","","","","","","","","","","","",""
"3514","","<div style=""width:500px;"">
  <p>How would you describe your current emotional state?</p>
  </div>","59","html-slider-response","57","671772","0.0-5.0-3.9","218","1","2025-07-23 12:52:00","1f75c3e559b7213887762d5229550c2b","62.19.163.61","Mozilla/5.0 (Windows NT 10.0; Win64; x64) AppleWebKit/537.36 (KHTML, like Gecko) Chrome/138.0.0.0 Safari/537.36","WebKit","Chrome","138.0.0.0","Windows","10.0","https://app.prolific.com/","it-IT,it;q=0.9,en-US;q=0.8,en;q=0.7","672f7b856c1ce6995a666bc6","683dba2a8a9dda3513610c04","6880da5cdabf9eb550e90680","3","0","672f7b856c1ce6995a666bc6","3","0","2025-07-23T13:03:12.635Z","","","","","","","","","","","StressQ","","50","","","","","","","","","","","","","","","","","","","","","","","","","","","","",""
"3799","","<div style=""width:500px;"">
  <p>What best describes how you currently feel?</p>
  </div>","94","html-slider-response","58","675574","0.0-5.0-4.9","218","1","2025-07-23 12:52:00","1f75c3e559b7213887762d5229550c2b","62.19.163.61","Mozilla/5.0 (Windows NT 10.0; Win64; x64) AppleWebKit/537.36 (KHTML, like Gecko) Chrome/138.0.0.0 Safari/537.36","WebKit","Chrome","138.0.0.0","Windows","10.0","https://app.prolific.com/","it-IT,it;q=0.9,en-US;q=0.8,en;q=0.7","672f7b856c1ce6995a666bc6","683dba2a8a9dda3513610c04","6880da5cdabf9eb550e90680","3","0","672f7b856c1ce6995a666bc6","3","0","2025-07-23T13:03:16.436Z","","","","","","","","","","","MotivationQ","","50","","","","","","","","","","","","","","","","","","","","","","","","","","","","",""
"","","","","ctl-task-cpt","59","726239","0.0-5.0-0.10","218","1","2025-07-23 12:52:00","1f75c3e559b7213887762d5229550c2b","62.19.163.61","Mozilla/5.0 (Windows NT 10.0; Win64; x64) AppleWebKit/537.36 (KHTML, like Gecko) Chrome/138.0.0.0 Safari/537.36","WebKit","Chrome","138.0.0.0","Windows","10.0","https://app.prolific.com/","it-IT,it;q=0.9,en-US;q=0.8,en;q=0.7","672f7b856c1ce6995a666bc6","683dba2a8a9dda3513610c04","6880da5cdabf9eb550e90680","3","0","672f7b856c1ce6995a666bc6","3","0","2025-07-23T13:04:07.101Z","","","","","","","","","","","","","","win-only","2","g1:SE,g2:NW","0.5","11","0","677872.1","1563.9","6565.4","47646.4","1","4","8","6","2","-8","-9","3","12","0.022727272727272728","1106.5","3000","-2990","[""left"",""up""]","{""num_key_presses"":12,""num_perfect"":5,""num_errors"":1,""num_randdir"":6,""num_randdir_good_moves"":3,""num_whilered"":0,""num_whileblue"":1,""num_blue"":3,""num_good_moves"":8}","[417.8214133126395,415.32142761775424,0.2,417.8214133126395,415.32142761775424,102.8,417.8214133126395,415.32142761775424,202.8,417.8214133126395,415.32142761775424,304,417.8214133126395,415.32142761775424,407.8,417.8214133126395,415.32142761775424,511.3,181.5714133126395,215.32142761775424,612.7,170.3214133126395,196.57142761775424,717.3,161.5714133126395,176.57142761775424,818.2,96.5714133126395,130.32142761775424,922.9,92.8214133126395,121.57142761775425,1027.7,92.8214133126395,121.57142761775425,1128.1,92.8214133126395,121.57142761775425,1232.1,92.8214133126395,121.57142761775425,1336.8,92.8214133126395,121.57142761775425,1438,-185.9285866873605,109.07142761775425,1541.5,-185.9285866873605,109.07142761775425,1642.4,-185.9285866873605,109.07142761775425,1743.2,-185.9285866873605,109.07142761775425,1847.3,-185.9285866873605,109.07142761775425,1951.5,-185.9285866873605,109.07142761775425,2051.5,-185.9285866873605,109.07142761775425,2152.6,-185.9285866873605,109.07142761775425,2256.6,-185.9285866873605,109.07142761775425,2357.2,-185.9285866873605,109.07142761775425,2457.5,-185.9285866873605,109.07142761775425,2558.3,-185.9285866873605,109.07142761775425,2662.6,-185.9285866873605,109.07142761775425,2766.5,-185.9285866873605,109.07142761775425,2867.6,-185.9285866873605,109.07142761775425,2972.4,-185.9285866873605,109.07142761775425,3072.7,-185.9285866873605,109.07142761775425,3176.6,-185.9285866873605,109.07142761775425,3276.9,-185.9285866873605,109.07142761775425,3377.2,-185.9285866873605,109.07142761775425,3478,-185.9285866873605,109.07142761775425,3583.3,-185.9285866873605,109.07142761775425,3686.6,-185.9285866873605,109.07142761775425,3787.3,-185.9285866873605,109.07142761775425,3892,-185.9285866873605,109.07142761775425,3992.4,-185.9285866873605,109.07142761775425,4092.9,-185.9285866873605,109.07142761775425,4193,-185.9285866873605,109.07142761775425,4297.3,-185.9285866873605,109.07142761775425,4398.5,-185.9285866873605,109.07142761775425,4501.9,-185.9285866873605,109.07142761775425,4607.3,-185.9285866873605,109.07142761775425,4707.3,-185.9285866873605,109.07142761775425,4808,-185.9285866873605,109.07142761775425,4912.2]","[1329.9,1329.9,1000,0,329.9,""smooth"",""up"",""up"",""good_move"",4304.5,2974,2729,1330.5,245,""oops"",""left"",""right"",""bad_move"",7295.7,2990.8,2733.1,4304.9,257.7,""smooth"",""right"",""right"",""bad_move"",9919.1,2622.5,2363.9,7296.6,258.6,""smooth"",""up"",""up"",""good_move"",12826.4,2907.1,2628.8,9919.3,278.3,""oops"",""up"",""up"",""good_move"",19360.4,6533.8,2239.6,16835.2,285.7,""oops"",""left"",""left"",""good_move"",24926.1,5565.3,2019.4,22645.4,261.4,""smooth"",""left"",""left"",""good_move"",27884.3,2957.5,2701.6,24926.8,255.9,""oops"",""left"",""down"",""bad_move"",30822.2,2937.6,2664.4,27884.6,273.2,""smooth"",""left"",""left"",""good_move"",33183,2360.4,2103.9,30822.6,256.5,""while_blue"",""left"",""up"",""good_move"",36350.5,3167,2903.7,33183.5,263.3,""oops"",""left"",""down"",""bad_move"",38449,2098.2,1781,36350.8,317.2,""oops"",""up"",""left"",""good_move""]","",""
"3579","","<div style=""width:500px;"">
  <p>What determined the result of this run?</p>
  </div>","69","html-slider-response","60","729820","0.0-5.0-1.10","218","1","2025-07-23 12:52:00","1f75c3e559b7213887762d5229550c2b","62.19.163.61","Mozilla/5.0 (Windows NT 10.0; Win64; x64) AppleWebKit/537.36 (KHTML, like Gecko) Chrome/138.0.0.0 Safari/537.36","WebKit","Chrome","138.0.0.0","Windows","10.0","https://app.prolific.com/","it-IT,it;q=0.9,en-US;q=0.8,en;q=0.7","672f7b856c1ce6995a666bc6","683dba2a8a9dda3513610c04","6880da5cdabf9eb550e90680","3","0","672f7b856c1ce6995a666bc6","3","0","2025-07-23T13:04:10.682Z","","","","","","","","","","","AttribQ","","50","","","","","","","","","","","","","","","","","","","","","","","","","","","","",""
"2498","","<div style=""width:500px;"">
  <p>How much control did you have over the ball?</p>
  </div>","29","html-slider-response","61","732319","0.0-5.0-2.10","218","1","2025-07-23 12:52:00","1f75c3e559b7213887762d5229550c2b","62.19.163.61","Mozilla/5.0 (Windows NT 10.0; Win64; x64) AppleWebKit/537.36 (KHTML, like Gecko) Chrome/138.0.0.0 Safari/537.36","WebKit","Chrome","138.0.0.0","Windows","10.0","https://app.prolific.com/","it-IT,it;q=0.9,en-US;q=0.8,en;q=0.7","672f7b856c1ce6995a666bc6","683dba2a8a9dda3513610c04","6880da5cdabf9eb550e90680","3","0","672f7b856c1ce6995a666bc6","3","0","2025-07-23T13:04:13.181Z","","","","","","","","","","","ControlQ","","50","","","","","","","","","","","","","","","","","","","","","","","","","","","","",""
"3083","","<div style=""width:500px;"">
  <p>How would you describe your current emotional state?</p>
  </div>","65","html-slider-response","62","735404","0.0-5.0-3.10","218","1","2025-07-23 12:52:00","1f75c3e559b7213887762d5229550c2b","62.19.163.61","Mozilla/5.0 (Windows NT 10.0; Win64; x64) AppleWebKit/537.36 (KHTML, like Gecko) Chrome/138.0.0.0 Safari/537.36","WebKit","Chrome","138.0.0.0","Windows","10.0","https://app.prolific.com/","it-IT,it;q=0.9,en-US;q=0.8,en;q=0.7","672f7b856c1ce6995a666bc6","683dba2a8a9dda3513610c04","6880da5cdabf9eb550e90680","3","0","672f7b856c1ce6995a666bc6","3","0","2025-07-23T13:04:16.266Z","","","","","","","","","","","StressQ","","50","","","","","","","","","","","","","","","","","","","","","","","","","","","","",""
"6741","","<div style=""width:500px;"">
  <p>What best describes how you currently feel?</p>
  </div>","88","html-slider-response","63","742147","0.0-5.0-4.10","218","1","2025-07-23 12:52:00","1f75c3e559b7213887762d5229550c2b","62.19.163.61","Mozilla/5.0 (Windows NT 10.0; Win64; x64) AppleWebKit/537.36 (KHTML, like Gecko) Chrome/138.0.0.0 Safari/537.36","WebKit","Chrome","138.0.0.0","Windows","10.0","https://app.prolific.com/","it-IT,it;q=0.9,en-US;q=0.8,en;q=0.7","672f7b856c1ce6995a666bc6","683dba2a8a9dda3513610c04","6880da5cdabf9eb550e90680","3","0","672f7b856c1ce6995a666bc6","3","0","2025-07-23T13:04:23.009Z","","","","","","","","","","","MotivationQ","","50","","","","","","","","","","","","","","","","","","","","","","","","","","","","",""
"","","","","ctl-task-cpt","64","771878","0.0-5.0-0.11","218","1","2025-07-23 12:52:00","1f75c3e559b7213887762d5229550c2b","62.19.163.61","Mozilla/5.0 (Windows NT 10.0; Win64; x64) AppleWebKit/537.36 (KHTML, like Gecko) Chrome/138.0.0.0 Safari/537.36","WebKit","Chrome","138.0.0.0","Windows","10.0","https://app.prolific.com/","it-IT,it;q=0.9,en-US;q=0.8,en;q=0.7","672f7b856c1ce6995a666bc6","683dba2a8a9dda3513610c04","6880da5cdabf9eb550e90680","3","0","672f7b856c1ce6995a666bc6","3","0","2025-07-23T13:04:52.740Z","","","","","","","","","","","","","","win-only","3","g1:SW,g2:NE","0.6","12","0","744445","2273.7","7276.5","26710.5","1","4","4","6","2","4","3","6","3","0.045454545454545456","1041.7","3000","1595","[""up"",""right""]","{""num_key_presses"":6,""num_perfect"":4,""num_errors"":1,""num_randdir"":1,""num_randdir_good_moves"":1,""num_whilered"":0,""num_whileblue"":1,""num_blue"":2,""num_good_moves"":6}","[421.5714133126395,405.32142761775424,0.3,421.5714133126395,405.32142761775424,102.6,421.5714133126395,405.32142761775424,208.1,421.5714133126395,405.32142761775424,313.1,421.5714133126395,405.32142761775424,417.8,421.5714133126395,405.32142761775424,518.1,624.0714133126395,160.32142761775424,621.9,671.5714133126395,131.57142761775424,723.1,681.5714133126395,126.57142761775425,823.6,767.8214133126395,71.57142761775425,926.7,767.8214133126395,71.57142761775425,1027.5,767.8214133126395,71.57142761775425,1132.3,767.8214133126395,71.57142761775425,1237.7,767.8214133126395,71.57142761775425,1342.8,887.8214133126395,154.07142761775424,1443.7,915.3214133126395,179.07142761775424,1549.4,915.3214133126395,179.07142761775424,1653.4,915.3214133126395,179.07142761775424,1757.3,915.3214133126395,179.07142761775424,1857.5,915.3214133126395,179.07142761775424,1958.1,915.3214133126395,179.07142761775424,2062.8,915.3214133126395,179.07142761775424,2168,915.3214133126395,179.07142761775424,2272.2,915.3214133126395,179.07142761775424,2372.5,915.3214133126395,179.07142761775424,2473.1,915.3214133126395,179.07142761775424,2577.3,915.3214133126395,179.07142761775424,2677.4,915.3214133126395,179.07142761775424,2781.9,915.3214133126395,179.07142761775424,2882.8,915.3214133126395,179.07142761775424,2989.2,915.3214133126395,179.07142761775424,3090,915.3214133126395,179.07142761775424,3192.8,915.3214133126395,179.07142761775424,3293.2,915.3214133126395,179.07142761775424,3397,915.3214133126395,179.07142761775424,3497.2,915.3214133126395,179.07142761775424,3598,915.3214133126395,179.07142761775424,3698.4,915.3214133126395,179.07142761775424,3799.1,915.3214133126395,179.07142761775424,3902.4,915.3214133126395,179.07142761775424,4002.4,915.3214133126395,179.07142761775424,4103.2,915.3214133126395,179.07142761775424,4207.4,915.3214133126395,179.07142761775424,4311.8,915.3214133126395,179.07142761775424,4412.2,915.3214133126395,179.07142761775424,4512.5,915.3214133126395,179.07142761775424,4617.3,915.3214133126395,179.07142761775424,4723.2,915.3214133126395,179.07142761775424,4827.5,915.3214133126395,179.07142761775424,4928]","[1341.3,1341.3,1000,0,341.3,""smooth"",""right"",""right"",""good_move"",4285.3,2943.3,2674.4,1342,268.9,""smooth"",""up"",""up"",""good_move"",7224.8,2938.9,2689.2,4285.9,249.7,""while_blue"",""up"",""up"",""good_move"",9692.8,2467.6,2171.4,7225.2,296.2,""oops"",""right"",""right"",""good_move"",13046.7,3353.2,3070.5,9693.5,282.7,""smooth"",""right"",""right"",""good_move"",19345.1,6298.2,2699.3,16389.4,256.4,""smooth"",""up"",""up"",""good_move""]","",""
"3768","","<div style=""width:500px;"">
  <p>What determined the result of this run?</p>
  </div>","88","html-slider-response","65","775649","0.0-5.0-1.11","218","1","2025-07-23 12:52:00","1f75c3e559b7213887762d5229550c2b","62.19.163.61","Mozilla/5.0 (Windows NT 10.0; Win64; x64) AppleWebKit/537.36 (KHTML, like Gecko) Chrome/138.0.0.0 Safari/537.36","WebKit","Chrome","138.0.0.0","Windows","10.0","https://app.prolific.com/","it-IT,it;q=0.9,en-US;q=0.8,en;q=0.7","672f7b856c1ce6995a666bc6","683dba2a8a9dda3513610c04","6880da5cdabf9eb550e90680","3","0","672f7b856c1ce6995a666bc6","3","0","2025-07-23T13:04:56.511Z","","","","","","","","","","","AttribQ","","50","","","","","","","","","","","","","","","","","","","","","","","","","","","","",""
"4947","","<div style=""width:500px;"">
  <p>How much control did you have over the ball?</p>
  </div>","86","html-slider-response","66","780598","0.0-5.0-2.11","218","1","2025-07-23 12:52:00","1f75c3e559b7213887762d5229550c2b","62.19.163.61","Mozilla/5.0 (Windows NT 10.0; Win64; x64) AppleWebKit/537.36 (KHTML, like Gecko) Chrome/138.0.0.0 Safari/537.36","WebKit","Chrome","138.0.0.0","Windows","10.0","https://app.prolific.com/","it-IT,it;q=0.9,en-US;q=0.8,en;q=0.7","672f7b856c1ce6995a666bc6","683dba2a8a9dda3513610c04","6880da5cdabf9eb550e90680","3","0","672f7b856c1ce6995a666bc6","3","0","2025-07-23T13:05:01.460Z","","","","","","","","","","","ControlQ","","50","","","","","","","","","","","","","","","","","","","","","","","","","","","","",""
"11154","","<div style=""width:500px;"">
  <p>How would you describe your current emotional state?</p>
  </div>","70","html-slider-response","67","791754","0.0-5.0-3.11","218","1","2025-07-23 12:52:00","1f75c3e559b7213887762d5229550c2b","62.19.163.61","Mozilla/5.0 (Windows NT 10.0; Win64; x64) AppleWebKit/537.36 (KHTML, like Gecko) Chrome/138.0.0.0 Safari/537.36","WebKit","Chrome","138.0.0.0","Windows","10.0","https://app.prolific.com/","it-IT,it;q=0.9,en-US;q=0.8,en;q=0.7","672f7b856c1ce6995a666bc6","683dba2a8a9dda3513610c04","6880da5cdabf9eb550e90680","3","0","672f7b856c1ce6995a666bc6","3","0","2025-07-23T13:05:12.616Z","","","","","","","","","","","StressQ","","50","","","","","","","","","","","","","","","","","","","","","","","","","","","","",""
"3588","","<div style=""width:500px;"">
  <p>What best describes how you currently feel?</p>
  </div>","68","html-slider-response","68","795344","0.0-5.0-4.11","218","1","2025-07-23 12:52:00","1f75c3e559b7213887762d5229550c2b","62.19.163.61","Mozilla/5.0 (Windows NT 10.0; Win64; x64) AppleWebKit/537.36 (KHTML, like Gecko) Chrome/138.0.0.0 Safari/537.36","WebKit","Chrome","138.0.0.0","Windows","10.0","https://app.prolific.com/","it-IT,it;q=0.9,en-US;q=0.8,en;q=0.7","672f7b856c1ce6995a666bc6","683dba2a8a9dda3513610c04","6880da5cdabf9eb550e90680","3","0","672f7b856c1ce6995a666bc6","3","0","2025-07-23T13:05:16.207Z","","","","","","","","","","","MotivationQ","","50","","","","","","","","","","","","","","","","","","","","","","","","","","","","",""
"","","","","ctl-task-cpt","69","841919","0.0-5.0-0.12","218","1","2025-07-23 12:52:00","1f75c3e559b7213887762d5229550c2b","62.19.163.61","Mozilla/5.0 (Windows NT 10.0; Win64; x64) AppleWebKit/537.36 (KHTML, like Gecko) Chrome/138.0.0.0 Safari/537.36","WebKit","Chrome","138.0.0.0","Windows","10.0","https://app.prolific.com/","it-IT,it;q=0.9,en-US;q=0.8,en;q=0.7","672f7b856c1ce6995a666bc6","683dba2a8a9dda3513610c04","6880da5cdabf9eb550e90680","3","0","672f7b856c1ce6995a666bc6","3","0","2025-07-23T13:06:02.781Z","","","","","","","","","","","","","","win-only","2","g1:SE,g2:NW","0.7","13","0","797642.5","1976.4","6987.5","43553.4","1","4","8","6","2","-8","-10","0","6","0","883","3000","-2935","[""left"",""up""]","{""num_key_presses"":13,""num_perfect"":8,""num_errors"":2,""num_randdir"":3,""num_randdir_good_moves"":2,""num_whilered"":0,""num_whileblue"":1,""num_blue"":1,""num_good_moves"":8}","[416.5714133126395,415.32142761775424,0.2,416.5714133126395,415.32142761775424,105.2,416.5714133126395,415.32142761775424,205.7,416.5714133126395,415.32142761775424,312,416.5714133126395,415.32142761775424,417.1,241.5714133126395,306.57142761775424,519.4,77.8214133126395,45.32142761775425,622.3,77.8214133126395,44.07142761775425,725.9,77.8214133126395,44.07142761775425,827.9,77.8214133126395,44.07142761775425,931.3,77.8214133126395,44.07142761775425,1034.4,77.8214133126395,44.07142761775425,1137.9,77.8214133126395,44.07142761775425,1241.3,730.3214133126395,279.07142761775424,1341.5,924.0714133126395,317.82142761775424,1445.4,1041.5714133126396,319.07142761775424,1549.5,1041.5714133126396,319.07142761775424,1651.7,1041.5714133126396,319.07142761775424,1756.5,1041.5714133126396,319.07142761775424,1859.5,1041.5714133126396,319.07142761775424,1961.7,1041.5714133126396,319.07142761775424,2065.3,1041.5714133126396,319.07142761775424,2171.6,1041.5714133126396,319.07142761775424,2284.6,1041.5714133126396,319.07142761775424,2386.2,1041.5714133126396,319.07142761775424,2491.8,1041.5714133126396,319.07142761775424,2595.3,1041.5714133126396,319.07142761775424,2702.1,1041.5714133126396,319.07142761775424,2804.5,1041.5714133126396,319.07142761775424,2904.7,1041.5714133126396,319.07142761775424,3005.6,1041.5714133126396,319.07142761775424,3106.8,1041.5714133126396,319.07142761775424,3208.8,1041.5714133126396,319.07142761775424,3310.8,1041.5714133126396,319.07142761775424,3410.9,1041.5714133126396,319.07142761775424,3514.9,1041.5714133126396,319.07142761775424,3617.6,1041.5714133126396,319.07142761775424,3722,1041.5714133126396,319.07142761775424,3825.6,1041.5714133126396,319.07142761775424,3930.5,1041.5714133126396,319.07142761775424,4030.6,1041.5714133126396,319.07142761775424,4134,1041.5714133126396,319.07142761775424,4236.1,1041.5714133126396,319.07142761775424,4340.9,1041.5714133126396,319.07142761775424,4444,1041.5714133126396,319.07142761775424,4546.3,1041.5714133126396,319.07142761775424,4647,1041.5714133126396,319.07142761775424,4750.5,1041.5714133126396,319.07142761775424,4855.4,1041.5714133126396,319.07142761775424,4960.5]","[1286.2,1286.2,1000,0,286.2,""smooth"",""left"",""left"",""good_move"",3634.2,2347.6,2080.4,1286.6,267.2,""smooth"",""up"",""up"",""good_move"",6410.8,2776,2528.2,3634.8,247.8,""smooth"",""left"",""left"",""good_move"",8743.9,2332.4,2082.3,6411.6,250.1,""oops"",""up"",""left"",""good_move"",11451.8,2707.2,2423.9,8744.6,283.3,""while_blue"",""left"",""down"",""bad_move"",14380.8,2927.9,2655.8,11453,272.1,""smooth"",""right"",""right"",""bad_move"",17405.6,3024.2,2745.9,14381.5,278.2,""smooth"",""up"",""up"",""good_move"",20960.7,3554.8,3258.2,17405.9,296.6,""smooth"",""up"",""up"",""good_move"",23954.5,2993.3,2727,20961.2,266.3,""oops"",""up"",""up"",""good_move"",27204.5,3249.8,2953.9,23954.8,295.9,""oops"",""left"",""right"",""bad_move"",30116.9,2911.8,2612.5,27205.1,299.3,""smooth"",""left"",""left"",""good_move"",32344.8,2227.3,1951.4,30117.5,275.9,""smooth"",""right"",""right"",""bad_move"",32952.8,607.1,3818.7,32345.7,-3211.6,""error"",""-"",""-"",""no_move""]","",""
"4292","","<div style=""width:500px;"">
  <p>What determined the result of this run?</p>
  </div>","73","html-slider-response","70","846213","0.0-5.0-1.12","218","1","2025-07-23 12:52:00","1f75c3e559b7213887762d5229550c2b","62.19.163.61","Mozilla/5.0 (Windows NT 10.0; Win64; x64) AppleWebKit/537.36 (KHTML, like Gecko) Chrome/138.0.0.0 Safari/537.36","WebKit","Chrome","138.0.0.0","Windows","10.0","https://app.prolific.com/","it-IT,it;q=0.9,en-US;q=0.8,en;q=0.7","672f7b856c1ce6995a666bc6","683dba2a8a9dda3513610c04","6880da5cdabf9eb550e90680","3","0","672f7b856c1ce6995a666bc6","3","0","2025-07-23T13:06:07.075Z","","","","","","","","","","","AttribQ","","50","","","","","","","","","","","","","","","","","","","","","","","","","","","","",""
"5340","","<div style=""width:500px;"">
  <p>How much control did you have over the ball?</p>
  </div>","35","html-slider-response","71","851554","0.0-5.0-2.12","218","1","2025-07-23 12:52:00","1f75c3e559b7213887762d5229550c2b","62.19.163.61","Mozilla/5.0 (Windows NT 10.0; Win64; x64) AppleWebKit/537.36 (KHTML, like Gecko) Chrome/138.0.0.0 Safari/537.36","WebKit","Chrome","138.0.0.0","Windows","10.0","https://app.prolific.com/","it-IT,it;q=0.9,en-US;q=0.8,en;q=0.7","672f7b856c1ce6995a666bc6","683dba2a8a9dda3513610c04","6880da5cdabf9eb550e90680","3","0","672f7b856c1ce6995a666bc6","3","0","2025-07-23T13:06:12.416Z","","","","","","","","","","","ControlQ","","50","","","","","","","","","","","","","","","","","","","","","","","","","","","","",""
"4976","","<div style=""width:500px;"">
  <p>How would you describe your current emotional state?</p>
  </div>","60","html-slider-response","72","856532","0.0-5.0-3.12","218","1","2025-07-23 12:52:00","1f75c3e559b7213887762d5229550c2b","62.19.163.61","Mozilla/5.0 (Windows NT 10.0; Win64; x64) AppleWebKit/537.36 (KHTML, like Gecko) Chrome/138.0.0.0 Safari/537.36","WebKit","Chrome","138.0.0.0","Windows","10.0","https://app.prolific.com/","it-IT,it;q=0.9,en-US;q=0.8,en;q=0.7","672f7b856c1ce6995a666bc6","683dba2a8a9dda3513610c04","6880da5cdabf9eb550e90680","3","0","672f7b856c1ce6995a666bc6","3","0","2025-07-23T13:06:17.394Z","","","","","","","","","","","StressQ","","50","","","","","","","","","","","","","","","","","","","","","","","","","","","","",""
"3746","","<div style=""width:500px;"">
  <p>What best describes how you currently feel?</p>
  </div>","84","html-slider-response","73","860280","0.0-5.0-4.12","218","1","2025-07-23 12:52:00","1f75c3e559b7213887762d5229550c2b","62.19.163.61","Mozilla/5.0 (Windows NT 10.0; Win64; x64) AppleWebKit/537.36 (KHTML, like Gecko) Chrome/138.0.0.0 Safari/537.36","WebKit","Chrome","138.0.0.0","Windows","10.0","https://app.prolific.com/","it-IT,it;q=0.9,en-US;q=0.8,en;q=0.7","672f7b856c1ce6995a666bc6","683dba2a8a9dda3513610c04","6880da5cdabf9eb550e90680","3","0","672f7b856c1ce6995a666bc6","3","0","2025-07-23T13:06:21.142Z","","","","","","","","","","","MotivationQ","","50","","","","","","","","","","","","","","","","","","","","","","","","","","","","",""
