"rt","response_timestamp","stimulus","response","trial_type","trial_index","time_elapsed","internal_node_id","run_id","condition","recorded_at","source_code_version","ip","user_agent","device","browser","browser_version","platform","platform_version","referer","accept_language","PROLIFIC_PID","STUDY_ID","SESSION_ID","WEEK","BATCH","prolific_id","week","batch","realtime","success","responses","item_order","radio_event_ids","radio_event_times","key_event_times","mouse_event_times","straightlining","zigzagging","honeypot","eventType","view_history","slider_start","which_type","canvas_config","goals_layout","control_level","trial_number","tutorial_trial_number","trial_start_time","phase1_start_time","phase2_start_time","phase3_start_time","goal_1_value","goal_1_distance","goal_2_value","goal_2_distance","goal_selected","outcome","outcome_total","participant_final_score","participant_initial_score","participant_final_score_prop","goal_choice_rt","allocated_time","allocated_time_remaining","goal_direction","counts","mouse_movements","key_presses","question_order","question_id"
"11921","1753866649324","<p style='font-size:40px;line-height:1.25'><strong>Welcome to the experiment!</strong></p><p style='font-size:1.1em;line-height:1.25'>Thank you for participanting in our experiment again! You will be asked to play the Dysfunctional Ball Game again. We will briefly recap the rules before we start.</p><p style='font-size:1.1em;line-height:1.25'>Press <strong>Next</strong> to continue.</p>","0","custom-html-button-response","0","11923","0.0-0.0","281","1","2025-07-30 09:10:35","1f75c3e559b7213887762d5229550c2b","41.113.229.167","Mozilla/5.0 (Windows NT 10.0; Win64; x64) AppleWebKit/537.36 (KHTML, like Gecko) Chrome/138.0.0.0 Safari/537.36","WebKit","Chrome","138.0.0.0","Windows","10.0","https://app.prolific.com/","en-US,en;q=0.9","6612e7f231d13a67b8e758cc","6877631c9844ddd5501205fc","6889e150fa636cc257e782f5","3","1","6612e7f231d13a67b8e758cc","3","1","2025-07-30T09:10:49.325Z","","","","","","","","","","","","","","","","","","","","","","","","","","","","","","","","","","","","","","","","","",""
"7769","","","","fullscreen","1","20699","0.0-1.0","281","1","2025-07-30 09:10:35","1f75c3e559b7213887762d5229550c2b","41.113.229.167","Mozilla/5.0 (Windows NT 10.0; Win64; x64) AppleWebKit/537.36 (KHTML, like Gecko) Chrome/138.0.0.0 Safari/537.36","WebKit","Chrome","138.0.0.0","Windows","10.0","https://app.prolific.com/","en-US,en;q=0.9","6612e7f231d13a67b8e758cc","6877631c9844ddd5501205fc","6889e150fa636cc257e782f5","3","1","6612e7f231d13a67b8e758cc","3","1","","true","","","","","","","","","","","","","","","","","","","","","","","","","","","","","","","","","","","","","","","","",""
"4763","1753866662866","<p style='font-size:1.1em;line-height:1.25'>In the following, we will ask you a few questions relating to your feelings in the last 24 hours.<br></p><p style='font-size:1.1em;line-height:1.25'>Press the <strong>Next</strong> button to continue.</p>","0","custom-html-button-response","2","25464","0.0-2.0-0.0","281","1","2025-07-30 09:10:35","1f75c3e559b7213887762d5229550c2b","41.113.229.167","Mozilla/5.0 (Windows NT 10.0; Win64; x64) AppleWebKit/537.36 (KHTML, like Gecko) Chrome/138.0.0.0 Safari/537.36","WebKit","Chrome","138.0.0.0","Windows","10.0","https://app.prolific.com/","en-US,en;q=0.9","6612e7f231d13a67b8e758cc","6877631c9844ddd5501205fc","6889e150fa636cc257e782f5","3","1","6612e7f231d13a67b8e758cc","3","1","2025-07-30T09:11:02.866Z","","","","","","","","","","","","","","","","","","","","","","","","","","","","","","","","","","","","","","","","","",""
"176373.5","","","","survey-template","3","201843","0.0-2.0-1.0","281","1","2025-07-30 09:10:35","1f75c3e559b7213887762d5229550c2b","41.113.229.167","Mozilla/5.0 (Windows NT 10.0; Win64; x64) AppleWebKit/537.36 (KHTML, like Gecko) Chrome/138.0.0.0 Safari/537.36","WebKit","Chrome","138.0.0.0","Windows","10.0","https://app.prolific.com/","en-US,en;q=0.9","6612e7f231d13a67b8e758cc","6877631c9844ddd5501205fc","6889e150fa636cc257e782f5","3","1","6612e7f231d13a67b8e758cc","3","1","2025-07-30T09:13:59.245Z","","{""Q01"":""4"",""Q02"":""2"",""Q03"":""0"",""Q04"":""2"",""Q05"":""5"",""Q06"":""4"",""Q07"":""4"",""Q08"":""4"",""Q09"":""5"",""Q10"":""5"",""Q11"":""5"",""Q12"":""4"",""Q13"":""5"",""Q14"":""5"",""Q15"":""5"",""Q16"":""0"",""Q17"":""3"",""Q18"":""1"",""Q19"":""5"",""Q20"":""5"",""Q21"":""5"",""Q22"":""5""}","[0,1,2,3,4,5,6,7,8,9,10,11,12,13,14,15,16,17,18,19,20,21]","[""Q01"",""Q02"",""Q02"",""Q02"",""Q03"",""Q04"",""Q05"",""Q06"",""Q07"",""Q08"",""Q09"",""Q09"",""Q10"",""Q11"",""Q12"",""Q13"",""Q14"",""Q15"",""Q16"",""Q17"",""Q18"",""Q19"",""Q20"",""Q21"",""Q22""]","[9457.699999999953,12271.399999999907,14802.899999999907,30802.5,35441.29999999993,39333.89999999991,44516.39999999991,52532.5,55083.19999999995,58279.09999999998,62785.89999999991,64580.29999999993,79177,82816.5,92756.29999999993,95145.5,130094.19999999995,133401,141344.69999999995,143864.69999999995,148551.79999999993,164534.69999999995,168707.3999999999,170441.09999999998,174895.79999999993]","[]","[0.09999999997671694,9457.699999999953,12271.399999999907,14802.899999999907,30802.5,35441.29999999993,39333.89999999991,44516.39999999991,52532.5,55083.19999999995,58279.09999999998,62785.89999999991,64580.29999999993,78149,79177,81748,82816.5,92756.29999999993,95145.5,130094.19999999995,133401,138723.8999999999,139993.8999999999,141344.69999999995,143864.69999999995,148551.79999999993,164534.69999999995,168707.3999999999,170441.09999999998,174895.79999999993,176367.5]","0.5","0.23809523809523808","0","drsp","","","","","","","","","","","","","","","","","","","","","","","","","","","","","","",""
"24669.600000000093","","","","survey-template","4","226514","0.0-2.0-2.0","281","1","2025-07-30 09:10:35","1f75c3e559b7213887762d5229550c2b","41.113.229.167","Mozilla/5.0 (Windows NT 10.0; Win64; x64) AppleWebKit/537.36 (KHTML, like Gecko) Chrome/138.0.0.0 Safari/537.36","WebKit","Chrome","138.0.0.0","Windows","10.0","https://app.prolific.com/","en-US,en;q=0.9","6612e7f231d13a67b8e758cc","6877631c9844ddd5501205fc","6889e150fa636cc257e782f5","3","1","6612e7f231d13a67b8e758cc","3","1","2025-07-30T09:14:23.916Z","","{""Q01"":""2"",""Q02"":""5"",""Q03"":""4""}","[0,1,2]","[""Q01"",""Q01"",""Q02"",""Q03""]","[7245.600000000093,8596.20000000007,18340.5,23308.300000000047]","[]","[7245.600000000093,8596.20000000007,18340.5,23308.300000000047,24668.5]","0.3333333333333333","0","0","stress","","","","","","","","","","","","","","","","","","","","","","","","","","","","","","",""
"77785","","","","instructions","5","304300","0.0-3.0-0.0","281","1","2025-07-30 09:10:35","1f75c3e559b7213887762d5229550c2b","41.113.229.167","Mozilla/5.0 (Windows NT 10.0; Win64; x64) AppleWebKit/537.36 (KHTML, like Gecko) Chrome/138.0.0.0 Safari/537.36","WebKit","Chrome","138.0.0.0","Windows","10.0","https://app.prolific.com/","en-US,en;q=0.9","6612e7f231d13a67b8e758cc","6877631c9844ddd5501205fc","6889e150fa636cc257e782f5","3","1","6612e7f231d13a67b8e758cc","3","1","","","","","","","","","","","","","[{""page_index"":0,""viewing_time"":77785}]","","","","","","","","","","","","","","","","","","","","","","","","","","","","","",""
"12402","","<p>Before you start with this game please answer the following three questions yourself. </p>
  <p>Through this game, we measure several aspects of your cognitive performance, such as reaction times, multi-tasking capabilities </p>
  <p>and the ability to assess the situation you are in.</p>
  <p></p>
  <p><b>How good do you usually are in such tasks?</b></p>","100","html-slider-response","6","316704","0.0-4.0-0.0","281","1","2025-07-30 09:10:35","1f75c3e559b7213887762d5229550c2b","41.113.229.167","Mozilla/5.0 (Windows NT 10.0; Win64; x64) AppleWebKit/537.36 (KHTML, like Gecko) Chrome/138.0.0.0 Safari/537.36","WebKit","Chrome","138.0.0.0","Windows","10.0","https://app.prolific.com/","en-US,en;q=0.9","6612e7f231d13a67b8e758cc","6877631c9844ddd5501205fc","6889e150fa636cc257e782f5","3","1","6612e7f231d13a67b8e758cc","3","1","2025-07-30T09:15:54.106Z","","","","","","","","","","","PreSkillQ","","50","","","","","","","","","","","","","","","","","","","","","","","","","","","","",""
"4524","","<div style=""width:500px;"">
  <p>How well do you think you will perform in this task compared to other participants?</p>
  </div>","100","html-slider-response","7","321229","0.0-4.0-1.0","281","1","2025-07-30 09:10:35","1f75c3e559b7213887762d5229550c2b","41.113.229.167","Mozilla/5.0 (Windows NT 10.0; Win64; x64) AppleWebKit/537.36 (KHTML, like Gecko) Chrome/138.0.0.0 Safari/537.36","WebKit","Chrome","138.0.0.0","Windows","10.0","https://app.prolific.com/","en-US,en;q=0.9","6612e7f231d13a67b8e758cc","6877631c9844ddd5501205fc","6889e150fa636cc257e782f5","3","1","6612e7f231d13a67b8e758cc","3","1","2025-07-30T09:15:58.631Z","","","","","","","","","","","PrePerfQ","","50","","","","","","","","","","","","","","","","","","","","","","","","","","","","",""
"5894","","<div style=""width:500px;"">
  <p>What best describes how you currently feel?</p>
  </div>","36","html-slider-response","8","327124","0.0-4.0-2.0","281","1","2025-07-30 09:10:35","1f75c3e559b7213887762d5229550c2b","41.113.229.167","Mozilla/5.0 (Windows NT 10.0; Win64; x64) AppleWebKit/537.36 (KHTML, like Gecko) Chrome/138.0.0.0 Safari/537.36","WebKit","Chrome","138.0.0.0","Windows","10.0","https://app.prolific.com/","en-US,en;q=0.9","6612e7f231d13a67b8e758cc","6877631c9844ddd5501205fc","6889e150fa636cc257e782f5","3","1","6612e7f231d13a67b8e758cc","3","1","2025-07-30T09:16:04.526Z","","","","","","","","","","","PreMotivationQ","","50","","","","","","","","","","","","","","","","","","","","","","","","","","","","",""
"","","","","ctl-task-cpt","9","360293","0.0-5.0-0.0","281","1","2025-07-30 09:10:35","1f75c3e559b7213887762d5229550c2b","41.113.229.167","Mozilla/5.0 (Windows NT 10.0; Win64; x64) AppleWebKit/537.36 (KHTML, like Gecko) Chrome/138.0.0.0 Safari/537.36","WebKit","Chrome","138.0.0.0","Windows","10.0","https://app.prolific.com/","en-US,en;q=0.9","6612e7f231d13a67b8e758cc","6877631c9844ddd5501205fc","6889e150fa636cc257e782f5","3","1","6612e7f231d13a67b8e758cc","3","1","2025-07-30T09:16:37.695Z","","","","","","","","","","","","","","win-only","1","g1:NE,g2:SW","1","1","0","329746.6","1894.5","6896.5","30159","1","4","4","6","2","4","4","4","0","0.030303030303030304","2216","3000","570","[""down"",""left""]","{""num_key_presses"":6,""num_perfect"":6,""num_errors"":0,""num_randdir"":0,""num_randdir_good_moves"":0,""num_whilered"":0,""num_whileblue"":0,""num_blue"":2,""num_good_moves"":6}","[300.22232142857143,299.12857142857143,0.2,300.22232142857143,299.12857142857143,102.1,300.22232142857143,299.12857142857143,206.9,300.22232142857143,299.12857142857143,306.9,300.22232142857143,299.12857142857143,407,300.22232142857143,299.12857142857143,511.9,300.22232142857143,299.12857142857143,616.8,300.22232142857143,299.12857142857143,716.9,300.22232142857143,299.12857142857143,816.9,300.22232142857143,299.12857142857143,921.2,300.22232142857143,299.12857142857143,1021.3,281.22232142857143,307.12857142857143,1123.9,147.22232142857143,430.12857142857143,1226.8,104.22232142857143,475.12857142857143,1327.4,103.22232142857143,475.12857142857143,1431.7,97.22232142857143,477.12857142857143,1536.7,85.22232142857143,490.12857142857143,1637.2,80.22232142857143,502.12857142857143,1741.5,76.22232142857143,517.1285714285714,1841.7,71.22232142857143,540.1285714285714,1948.3,71.22232142857143,540.1285714285714,2052.6,71.22232142857143,540.1285714285714,2156.9,71.22232142857143,540.1285714285714,2257.2,71.22232142857143,540.1285714285714,2361.4,71.22232142857143,540.1285714285714,2466.5,71.22232142857143,540.1285714285714,2567.7,71.22232142857143,540.1285714285714,2671.1,71.22232142857143,540.1285714285714,2772.3,71.22232142857143,540.1285714285714,2876.5,71.22232142857143,540.1285714285714,2977.1,71.22232142857143,540.1285714285714,3081.1,71.22232142857143,540.1285714285714,3181.5,71.22232142857143,540.1285714285714,3281.7,71.22232142857143,540.1285714285714,3387.7,71.22232142857143,540.1285714285714,3491.8,71.22232142857143,540.1285714285714,3592.1,71.22232142857143,540.1285714285714,3697.2,71.22232142857143,540.1285714285714,3803,71.22232142857143,540.1285714285714,3908.1,71.22232142857143,540.1285714285714,4011.7,71.22232142857143,540.1285714285714,4115.9,71.22232142857143,540.1285714285714,4216.5,71.22232142857143,540.1285714285714,4317.8,71.22232142857143,540.1285714285714,4422.5,71.22232142857143,540.1285714285714,4527.2,71.22232142857143,540.1285714285714,4631.9,71.22232142857143,540.1285714285714,4731.9,71.22232142857143,540.1285714285714,4836.3,71.22232142857143,540.1285714285714,4941.7]","[1594.1,1594,1000,0.1,594,""smooth"",""down"",""down"",""good_move"",4795.3,3200.7,2802.6,1594.7,398,""smooth"",""down"",""down"",""good_move"",7602.3,2806.7,2426.9,4795.6,379.8,""smooth"",""down"",""down"",""good_move"",13821.4,6218.5,2601.9,10754.7,464.8,""smooth"",""left"",""left"",""good_move"",20088.3,6266.6,2476.8,17218.9,392.6,""smooth"",""left"",""left"",""good_move"",23168.6,3080.1,2521.2,20088.5,559,""smooth"",""left"",""left"",""good_move""]","",""
"7577","","<div style=""width:500px;"">
  <p>What determined the result of this run?</p>
  </div>","99","html-slider-response","10","367873","0.0-5.0-1.0","281","1","2025-07-30 09:10:35","1f75c3e559b7213887762d5229550c2b","41.113.229.167","Mozilla/5.0 (Windows NT 10.0; Win64; x64) AppleWebKit/537.36 (KHTML, like Gecko) Chrome/138.0.0.0 Safari/537.36","WebKit","Chrome","138.0.0.0","Windows","10.0","https://app.prolific.com/","en-US,en;q=0.9","6612e7f231d13a67b8e758cc","6877631c9844ddd5501205fc","6889e150fa636cc257e782f5","3","1","6612e7f231d13a67b8e758cc","3","1","2025-07-30T09:16:45.275Z","","","","","","","","","","","AttribQ","","50","","","","","","","","","","","","","","","","","","","","","","","","","","","","",""
"6104","","<div style=""width:500px;"">
  <p>How much control did you have over the ball?</p>
  </div>","100","html-slider-response","11","373978","0.0-5.0-2.0","281","1","2025-07-30 09:10:35","1f75c3e559b7213887762d5229550c2b","41.113.229.167","Mozilla/5.0 (Windows NT 10.0; Win64; x64) AppleWebKit/537.36 (KHTML, like Gecko) Chrome/138.0.0.0 Safari/537.36","WebKit","Chrome","138.0.0.0","Windows","10.0","https://app.prolific.com/","en-US,en;q=0.9","6612e7f231d13a67b8e758cc","6877631c9844ddd5501205fc","6889e150fa636cc257e782f5","3","1","6612e7f231d13a67b8e758cc","3","1","2025-07-30T09:16:51.380Z","","","","","","","","","","","ControlQ","","50","","","","","","","","","","","","","","","","","","","","","","","","","","","","",""
"7917","","<div style=""width:500px;"">
  <p>How would you describe your current emotional state?</p>
  </div>","39","html-slider-response","12","381896","0.0-5.0-3.0","281","1","2025-07-30 09:10:35","1f75c3e559b7213887762d5229550c2b","41.113.229.167","Mozilla/5.0 (Windows NT 10.0; Win64; x64) AppleWebKit/537.36 (KHTML, like Gecko) Chrome/138.0.0.0 Safari/537.36","WebKit","Chrome","138.0.0.0","Windows","10.0","https://app.prolific.com/","en-US,en;q=0.9","6612e7f231d13a67b8e758cc","6877631c9844ddd5501205fc","6889e150fa636cc257e782f5","3","1","6612e7f231d13a67b8e758cc","3","1","2025-07-30T09:16:59.298Z","","","","","","","","","","","StressQ","","50","","","","","","","","","","","","","","","","","","","","","","","","","","","","",""
"5135","","<div style=""width:500px;"">
  <p>What best describes how you currently feel?</p>
  </div>","100","html-slider-response","13","387032","0.0-5.0-4.0","281","1","2025-07-30 09:10:35","1f75c3e559b7213887762d5229550c2b","41.113.229.167","Mozilla/5.0 (Windows NT 10.0; Win64; x64) AppleWebKit/537.36 (KHTML, like Gecko) Chrome/138.0.0.0 Safari/537.36","WebKit","Chrome","138.0.0.0","Windows","10.0","https://app.prolific.com/","en-US,en;q=0.9","6612e7f231d13a67b8e758cc","6877631c9844ddd5501205fc","6889e150fa636cc257e782f5","3","1","6612e7f231d13a67b8e758cc","3","1","2025-07-30T09:17:04.434Z","","","","","","","","","","","MotivationQ","","50","","","","","","","","","","","","","","","","","","","","","","","","","","","","",""
"","","","","ctl-task-cpt","14","434257","0.0-5.0-0.1","281","1","2025-07-30 09:10:35","1f75c3e559b7213887762d5229550c2b","41.113.229.167","Mozilla/5.0 (Windows NT 10.0; Win64; x64) AppleWebKit/537.36 (KHTML, like Gecko) Chrome/138.0.0.0 Safari/537.36","WebKit","Chrome","138.0.0.0","Windows","10.0","https://app.prolific.com/","en-US,en;q=0.9","6612e7f231d13a67b8e758cc","6877631c9844ddd5501205fc","6889e150fa636cc257e782f5","3","1","6612e7f231d13a67b8e758cc","3","1","2025-07-30T09:17:51.659Z","","","","","","","","","","","","","","win-only","3","g1:SW,g2:NE","0.9","2","0","389653.2","1812.3","6815.8","44206.5","1","4","8","6","2","8","8","12","4","0.09090909090909091","1652.2","3000","150","[""up"",""right""]","{""num_key_presses"":8,""num_perfect"":7,""num_errors"":0,""num_randdir"":1,""num_randdir_good_moves"":0,""num_whilered"":0,""num_whileblue"":0,""num_blue"":4,""num_good_moves"":7}","[302.22232142857143,295.12857142857143,0.4,302.22232142857143,295.12857142857143,103.3,302.22232142857143,295.12857142857143,214.5,302.22232142857143,295.12857142857143,315,302.22232142857143,295.12857142857143,416.8,302.22232142857143,295.12857142857143,517,302.22232142857143,295.12857142857143,619,302.22232142857143,295.12857142857143,719.1,302.22232142857143,295.12857142857143,819.8,302.22232142857143,295.12857142857143,923.9,369.22232142857143,229.12857142857143,1031.4,522.2223214285714,104.12857142857143,1132.7,562.2223214285714,61.128571428571426,1234,570.2223214285714,54.128571428571426,1340,570.2223214285714,54.128571428571426,1444.7,570.2223214285714,54.128571428571426,1544.7,570.2223214285714,54.128571428571426,1645,570.2223214285714,54.128571428571426,1750.2,570.2223214285714,54.128571428571426,1854.3,570.2223214285714,54.128571428571426,1958.4,570.2223214285714,54.128571428571426,2058.4,570.2223214285714,54.128571428571426,2164.4,570.2223214285714,54.128571428571426,2266.6,570.2223214285714,54.128571428571426,2369.6,570.2223214285714,54.128571428571426,2473.4,570.2223214285714,54.128571428571426,2573.7,570.2223214285714,54.128571428571426,2682.4,570.2223214285714,54.128571428571426,2783.5,570.2223214285714,54.128571428571426,2884,570.2223214285714,54.128571428571426,2984.2,570.2223214285714,54.128571428571426,3089.2,570.2223214285714,54.128571428571426,3197.9,570.2223214285714,54.128571428571426,3298.1,570.2223214285714,54.128571428571426,3399.2,570.2223214285714,54.128571428571426,3504.1,570.2223214285714,54.128571428571426,3614.2,570.2223214285714,54.128571428571426,3719,570.2223214285714,54.128571428571426,3823.1,570.2223214285714,54.128571428571426,3924.1,570.2223214285714,54.128571428571426,4024.4,570.2223214285714,54.128571428571426,4132.3,570.2223214285714,54.128571428571426,4232.9,570.2223214285714,54.128571428571426,4333.3,570.2223214285714,54.128571428571426,4433.6,570.2223214285714,54.128571428571426,4533.7,570.2223214285714,54.128571428571426,4633.7,570.2223214285714,54.128571428571426,4733.8,570.2223214285714,54.128571428571426,4834,570.2223214285714,54.128571428571426,4939.5]","[4903.5,4903.5,2552.2,2004.7,346.6,""smooth"",""up"",""up"",""good_move"",11778.1,6874.1,2475.9,8962.8,339.5,""smooth"",""up"",""up"",""good_move"",15080,3301.6,2881.1,11778.4,420.5,""smooth"",""up"",""up"",""good_move"",18130.5,3050.1,2648.6,15080.5,401.5,""oops"",""right"",""left"",""bad_move"",20947.5,2815.7,2394.3,18131.8,421.4,""smooth"",""right"",""right"",""good_move"",24336.2,3388.2,3046.4,20948,341.8,""smooth"",""right"",""right"",""good_move"",30669.3,6332.1,2589.8,27655.9,423.6,""smooth"",""right"",""right"",""good_move"",37294.5,6625,2744.4,34199.7,350.4,""smooth"",""right"",""right"",""good_move""]","",""
"5195","","<div style=""width:500px;"">
  <p>What determined the result of this run?</p>
  </div>","100","html-slider-response","15","439454","0.0-5.0-1.1","281","1","2025-07-30 09:10:35","1f75c3e559b7213887762d5229550c2b","41.113.229.167","Mozilla/5.0 (Windows NT 10.0; Win64; x64) AppleWebKit/537.36 (KHTML, like Gecko) Chrome/138.0.0.0 Safari/537.36","WebKit","Chrome","138.0.0.0","Windows","10.0","https://app.prolific.com/","en-US,en;q=0.9","6612e7f231d13a67b8e758cc","6877631c9844ddd5501205fc","6889e150fa636cc257e782f5","3","1","6612e7f231d13a67b8e758cc","3","1","2025-07-30T09:17:56.856Z","","","","","","","","","","","AttribQ","","50","","","","","","","","","","","","","","","","","","","","","","","","","","","","",""
"5962","","<div style=""width:500px;"">
  <p>How much control did you have over the ball?</p>
  </div>","79","html-slider-response","16","445418","0.0-5.0-2.1","281","1","2025-07-30 09:10:35","1f75c3e559b7213887762d5229550c2b","41.113.229.167","Mozilla/5.0 (Windows NT 10.0; Win64; x64) AppleWebKit/537.36 (KHTML, like Gecko) Chrome/138.0.0.0 Safari/537.36","WebKit","Chrome","138.0.0.0","Windows","10.0","https://app.prolific.com/","en-US,en;q=0.9","6612e7f231d13a67b8e758cc","6877631c9844ddd5501205fc","6889e150fa636cc257e782f5","3","1","6612e7f231d13a67b8e758cc","3","1","2025-07-30T09:18:02.820Z","","","","","","","","","","","ControlQ","","50","","","","","","","","","","","","","","","","","","","","","","","","","","","","",""
"4369","","<div style=""width:500px;"">
  <p>How would you describe your current emotional state?</p>
  </div>","34","html-slider-response","17","449788","0.0-5.0-3.1","281","1","2025-07-30 09:10:35","1f75c3e559b7213887762d5229550c2b","41.113.229.167","Mozilla/5.0 (Windows NT 10.0; Win64; x64) AppleWebKit/537.36 (KHTML, like Gecko) Chrome/138.0.0.0 Safari/537.36","WebKit","Chrome","138.0.0.0","Windows","10.0","https://app.prolific.com/","en-US,en;q=0.9","6612e7f231d13a67b8e758cc","6877631c9844ddd5501205fc","6889e150fa636cc257e782f5","3","1","6612e7f231d13a67b8e758cc","3","1","2025-07-30T09:18:07.190Z","","","","","","","","","","","StressQ","","50","","","","","","","","","","","","","","","","","","","","","","","","","","","","",""
"5062","","<div style=""width:500px;"">
  <p>What best describes how you currently feel?</p>
  </div>","100","html-slider-response","18","454852","0.0-5.0-4.1","281","1","2025-07-30 09:10:35","1f75c3e559b7213887762d5229550c2b","41.113.229.167","Mozilla/5.0 (Windows NT 10.0; Win64; x64) AppleWebKit/537.36 (KHTML, like Gecko) Chrome/138.0.0.0 Safari/537.36","WebKit","Chrome","138.0.0.0","Windows","10.0","https://app.prolific.com/","en-US,en;q=0.9","6612e7f231d13a67b8e758cc","6877631c9844ddd5501205fc","6889e150fa636cc257e782f5","3","1","6612e7f231d13a67b8e758cc","3","1","2025-07-30T09:18:12.254Z","","","","","","","","","","","MotivationQ","","50","","","","","","","","","","","","","","","","","","","","","","","","","","","","",""
"","","","","ctl-task-cpt","19","494493","0.0-5.0-0.2","281","1","2025-07-30 09:10:35","1f75c3e559b7213887762d5229550c2b","41.113.229.167","Mozilla/5.0 (Windows NT 10.0; Win64; x64) AppleWebKit/537.36 (KHTML, like Gecko) Chrome/138.0.0.0 Safari/537.36","WebKit","Chrome","138.0.0.0","Windows","10.0","https://app.prolific.com/","en-US,en;q=0.9","6612e7f231d13a67b8e758cc","6877631c9844ddd5501205fc","6889e150fa636cc257e782f5","3","1","6612e7f231d13a67b8e758cc","3","1","2025-07-30T09:18:51.895Z","","","","","","","","","","","","","","win-only","0","g1:NW,g2:SE","0.8","3","0","457474","3211.1","8215.7","36621.4","1","4","8","6","2","-8","-9","3","12","0.022727272727272728","1400.8","3000","-2860","[""down"",""right""]","{""num_key_presses"":7,""num_perfect"":4,""num_errors"":1,""num_randdir"":2,""num_randdir_good_moves"":1,""num_whilered"":0,""num_whileblue"":1,""num_blue"":3,""num_good_moves"":5}","[297.22232142857143,297.12857142857143,1,297.22232142857143,297.12857142857143,106.2,297.22232142857143,297.12857142857143,210.8,297.22232142857143,297.12857142857143,312.2,297.22232142857143,297.12857142857143,414.3,297.22232142857143,297.12857142857143,514.4,297.22232142857143,297.12857142857143,614.8,297.22232142857143,297.12857142857143,714.8,399.22232142857143,316.12857142857143,820.6,572.2223214285714,492.12857142857143,927.8,577.2223214285714,519.1285714285714,1029.7,573.2223214285714,524.1285714285714,1131.7,567.2223214285714,528.1285714285714,1234.9,567.2223214285714,528.1285714285714,1335.4,567.2223214285714,528.1285714285714,1440.5,567.2223214285714,528.1285714285714,1544.3,567.2223214285714,528.1285714285714,1645.2,567.2223214285714,528.1285714285714,1749.6,567.2223214285714,528.1285714285714,1850.5,567.2223214285714,528.1285714285714,1955.9,567.2223214285714,528.1285714285714,2064,567.2223214285714,528.1285714285714,2164.3,567.2223214285714,528.1285714285714,2264.4,567.2223214285714,528.1285714285714,2370.1,567.2223214285714,528.1285714285714,2477.3,567.2223214285714,528.1285714285714,2577.6,567.2223214285714,528.1285714285714,2679.9,567.2223214285714,528.1285714285714,2784.3,567.2223214285714,528.1285714285714,2884.9,567.2223214285714,528.1285714285714,2993.5,567.2223214285714,528.1285714285714,3095.3,567.2223214285714,528.1285714285714,3200,567.2223214285714,528.1285714285714,3304.4,567.2223214285714,528.1285714285714,3405.1,567.2223214285714,528.1285714285714,3509.6,567.2223214285714,528.1285714285714,3611.1,567.2223214285714,528.1285714285714,3714.4,567.2223214285714,528.1285714285714,3815.1,567.2223214285714,528.1285714285714,3916,567.2223214285714,528.1285714285714,4020.3,567.2223214285714,528.1285714285714,4126,567.2223214285714,528.1285714285714,4226.2,567.2223214285714,528.1285714285714,4328.2,567.2223214285714,528.1285714285714,4430.9,567.2223214285714,528.1285714285714,4534.5,567.2223214285714,528.1285714285714,4634.8,567.2223214285714,528.1285714285714,4739.8,567.2223214285714,528.1285714285714,4847.8,567.2223214285714,528.1285714285714,4949.4]","[1504.6,1504.7,1000,0,504.7,""smooth"",""down"",""down"",""good_move"",11498.4,9992.8,3039.8,8105.5,353.1,""smooth"",""right"",""right"",""good_move"",14240.7,2741.8,2260.6,11499,481.1,""oops"",""right"",""left"",""bad_move"",17763.7,3522,3095.9,14241.7,426.1,""smooth"",""right"",""right"",""good_move"",20758.7,2994.8,2332.5,17763.9,662.3,""smooth"",""down"",""down"",""good_move"",22963.5,2204,1820.9,20759.5,383.1,""oops"",""down"",""right"",""good_move"",25437.1,2473.4,2077.4,22963.8,396,""while_blue"",""down"",""left"",""bad_move""]","",""
"6559","","<div style=""width:500px;"">
  <p>What determined the result of this run?</p>
  </div>","41","html-slider-response","20","501054","0.0-5.0-1.2","281","1","2025-07-30 09:10:35","1f75c3e559b7213887762d5229550c2b","41.113.229.167","Mozilla/5.0 (Windows NT 10.0; Win64; x64) AppleWebKit/537.36 (KHTML, like Gecko) Chrome/138.0.0.0 Safari/537.36","WebKit","Chrome","138.0.0.0","Windows","10.0","https://app.prolific.com/","en-US,en;q=0.9","6612e7f231d13a67b8e758cc","6877631c9844ddd5501205fc","6889e150fa636cc257e782f5","3","1","6612e7f231d13a67b8e758cc","3","1","2025-07-30T09:18:58.456Z","","","","","","","","","","","AttribQ","","50","","","","","","","","","","","","","","","","","","","","","","","","","","","","",""
"5586","","<div style=""width:500px;"">
  <p>How much control did you have over the ball?</p>
  </div>","5","html-slider-response","21","506640","0.0-5.0-2.2","281","1","2025-07-30 09:10:35","1f75c3e559b7213887762d5229550c2b","41.113.229.167","Mozilla/5.0 (Windows NT 10.0; Win64; x64) AppleWebKit/537.36 (KHTML, like Gecko) Chrome/138.0.0.0 Safari/537.36","WebKit","Chrome","138.0.0.0","Windows","10.0","https://app.prolific.com/","en-US,en;q=0.9","6612e7f231d13a67b8e758cc","6877631c9844ddd5501205fc","6889e150fa636cc257e782f5","3","1","6612e7f231d13a67b8e758cc","3","1","2025-07-30T09:19:04.043Z","","","","","","","","","","","ControlQ","","50","","","","","","","","","","","","","","","","","","","","","","","","","","","","",""
"2958","","<div style=""width:500px;"">
  <p>How would you describe your current emotional state?</p>
  </div>","27","html-slider-response","22","509600","0.0-5.0-3.2","281","1","2025-07-30 09:10:35","1f75c3e559b7213887762d5229550c2b","41.113.229.167","Mozilla/5.0 (Windows NT 10.0; Win64; x64) AppleWebKit/537.36 (KHTML, like Gecko) Chrome/138.0.0.0 Safari/537.36","WebKit","Chrome","138.0.0.0","Windows","10.0","https://app.prolific.com/","en-US,en;q=0.9","6612e7f231d13a67b8e758cc","6877631c9844ddd5501205fc","6889e150fa636cc257e782f5","3","1","6612e7f231d13a67b8e758cc","3","1","2025-07-30T09:19:07.002Z","","","","","","","","","","","StressQ","","50","","","","","","","","","","","","","","","","","","","","","","","","","","","","",""
"3358","","<div style=""width:500px;"">
  <p>What best describes how you currently feel?</p>
  </div>","100","html-slider-response","23","512961","0.0-5.0-4.2","281","1","2025-07-30 09:10:35","1f75c3e559b7213887762d5229550c2b","41.113.229.167","Mozilla/5.0 (Windows NT 10.0; Win64; x64) AppleWebKit/537.36 (KHTML, like Gecko) Chrome/138.0.0.0 Safari/537.36","WebKit","Chrome","138.0.0.0","Windows","10.0","https://app.prolific.com/","en-US,en;q=0.9","6612e7f231d13a67b8e758cc","6877631c9844ddd5501205fc","6889e150fa636cc257e782f5","3","1","6612e7f231d13a67b8e758cc","3","1","2025-07-30T09:19:10.363Z","","","","","","","","","","","MotivationQ","","50","","","","","","","","","","","","","","","","","","","","","","","","","","","","",""
"","","","","ctl-task-cpt","24","546064","0.0-5.0-0.3","281","1","2025-07-30 09:10:35","1f75c3e559b7213887762d5229550c2b","41.113.229.167","Mozilla/5.0 (Windows NT 10.0; Win64; x64) AppleWebKit/537.36 (KHTML, like Gecko) Chrome/138.0.0.0 Safari/537.36","WebKit","Chrome","138.0.0.0","Windows","10.0","https://app.prolific.com/","en-US,en;q=0.9","6612e7f231d13a67b8e758cc","6877631c9844ddd5501205fc","6889e150fa636cc257e782f5","3","1","6612e7f231d13a67b8e758cc","3","1","2025-07-30T09:19:43.466Z","","","","","","","","","","","","","","win-only","0","g1:NW,g2:SE","0.7","4","0","515582.8","1660.6","6668.6","30095.3","1","4","4","6","2","4","4","7","3","0.05303030303030303","1590.8","3000","1030","[""down"",""right""]","{""num_key_presses"":6,""num_perfect"":5,""num_errors"":0,""num_randdir"":1,""num_randdir_good_moves"":1,""num_whilered"":0,""num_whileblue"":0,""num_blue"":2,""num_good_moves"":6}","[295.22232142857143,293.12857142857143,0.3,295.22232142857143,293.12857142857143,107.1,295.22232142857143,293.12857142857143,209.6,295.22232142857143,293.12857142857143,310.8,295.22232142857143,293.12857142857143,426.3,295.22232142857143,293.12857142857143,540.7,295.22232142857143,293.12857142857143,644.8,295.22232142857143,293.12857142857143,744.9,394.22232142857143,323.12857142857143,856.8,522.2223214285714,414.12857142857143,958.1,532.2223214285714,467.12857142857143,1060.9,526.2223214285714,497.12857142857143,1161.7,522.2223214285714,521.1285714285714,1272.5,522.2223214285714,521.1285714285714,1376,522.2223214285714,521.1285714285714,1480.7,522.2223214285714,521.1285714285714,1580.8,522.2223214285714,521.1285714285714,1691.5,522.2223214285714,521.1285714285714,1795.1,522.2223214285714,521.1285714285714,1895.6,522.2223214285714,521.1285714285714,1995.6,522.2223214285714,521.1285714285714,2104.8,522.2223214285714,521.1285714285714,2205.3,522.2223214285714,521.1285714285714,2307.2,522.2223214285714,521.1285714285714,2410.4,522.2223214285714,521.1285714285714,2524.2,522.2223214285714,521.1285714285714,2624.7,522.2223214285714,521.1285714285714,2725.4,522.2223214285714,521.1285714285714,2830,522.2223214285714,521.1285714285714,2939.7,522.2223214285714,521.1285714285714,3040.6,522.2223214285714,521.1285714285714,3146.3,522.2223214285714,521.1285714285714,3256.9,522.2223214285714,521.1285714285714,3360.9,522.2223214285714,521.1285714285714,3465.7,522.2223214285714,521.1285714285714,3566.3,522.2223214285714,521.1285714285714,3670.6,522.2223214285714,521.1285714285714,3771.2,522.2223214285714,521.1285714285714,3873.9,522.2223214285714,521.1285714285714,3975.3,522.2223214285714,521.1285714285714,4075.7,522.2223214285714,521.1285714285714,4175.8,522.2223214285714,521.1285714285714,4280,522.2223214285714,521.1285714285714,4390.5,522.2223214285714,521.1285714285714,4494.9,522.2223214285714,521.1285714285714,4595,522.2223214285714,521.1285714285714,4700.2,522.2223214285714,521.1285714285714,4800.4,522.2223214285714,521.1285714285714,4902.6]","[1498.1,1498.1,1000,0,498.1,""smooth"",""down"",""down"",""good_move"",8234.2,6735.4,2341.1,5318.2,574.9,""smooth"",""down"",""down"",""good_move"",13480.7,5246,2166.7,10888.1,425.9,""oops"",""down"",""down"",""good_move"",16615.6,3134.5,2738.8,13481.1,395.7,""smooth"",""right"",""right"",""good_move"",19470.3,2854.1,2498.8,16616.2,355.3,""smooth"",""right"",""right"",""good_move"",23316.2,3845.6,3502.4,19470.6,343.2,""smooth"",""right"",""right"",""good_move""]","",""
"4172","","<div style=""width:500px;"">
  <p>What determined the result of this run?</p>
  </div>","84","html-slider-response","25","550237","0.0-5.0-1.3","281","1","2025-07-30 09:10:35","1f75c3e559b7213887762d5229550c2b","41.113.229.167","Mozilla/5.0 (Windows NT 10.0; Win64; x64) AppleWebKit/537.36 (KHTML, like Gecko) Chrome/138.0.0.0 Safari/537.36","WebKit","Chrome","138.0.0.0","Windows","10.0","https://app.prolific.com/","en-US,en;q=0.9","6612e7f231d13a67b8e758cc","6877631c9844ddd5501205fc","6889e150fa636cc257e782f5","3","1","6612e7f231d13a67b8e758cc","3","1","2025-07-30T09:19:47.639Z","","","","","","","","","","","AttribQ","","50","","","","","","","","","","","","","","","","","","","","","","","","","","","","",""
"5885","","<div style=""width:500px;"">
  <p>How much control did you have over the ball?</p>
  </div>","70","html-slider-response","26","556125","0.0-5.0-2.3","281","1","2025-07-30 09:10:35","1f75c3e559b7213887762d5229550c2b","41.113.229.167","Mozilla/5.0 (Windows NT 10.0; Win64; x64) AppleWebKit/537.36 (KHTML, like Gecko) Chrome/138.0.0.0 Safari/537.36","WebKit","Chrome","138.0.0.0","Windows","10.0","https://app.prolific.com/","en-US,en;q=0.9","6612e7f231d13a67b8e758cc","6877631c9844ddd5501205fc","6889e150fa636cc257e782f5","3","1","6612e7f231d13a67b8e758cc","3","1","2025-07-30T09:19:53.527Z","","","","","","","","","","","ControlQ","","50","","","","","","","","","","","","","","","","","","","","","","","","","","","","",""
"5431","","<div style=""width:500px;"">
  <p>How would you describe your current emotional state?</p>
  </div>","29","html-slider-response","27","561558","0.0-5.0-3.3","281","1","2025-07-30 09:10:35","1f75c3e559b7213887762d5229550c2b","41.113.229.167","Mozilla/5.0 (Windows NT 10.0; Win64; x64) AppleWebKit/537.36 (KHTML, like Gecko) Chrome/138.0.0.0 Safari/537.36","WebKit","Chrome","138.0.0.0","Windows","10.0","https://app.prolific.com/","en-US,en;q=0.9","6612e7f231d13a67b8e758cc","6877631c9844ddd5501205fc","6889e150fa636cc257e782f5","3","1","6612e7f231d13a67b8e758cc","3","1","2025-07-30T09:19:58.960Z","","","","","","","","","","","StressQ","","50","","","","","","","","","","","","","","","","","","","","","","","","","","","","",""
"3672","","<div style=""width:500px;"">
  <p>What best describes how you currently feel?</p>
  </div>","99","html-slider-response","28","565231","0.0-5.0-4.3","281","1","2025-07-30 09:10:35","1f75c3e559b7213887762d5229550c2b","41.113.229.167","Mozilla/5.0 (Windows NT 10.0; Win64; x64) AppleWebKit/537.36 (KHTML, like Gecko) Chrome/138.0.0.0 Safari/537.36","WebKit","Chrome","138.0.0.0","Windows","10.0","https://app.prolific.com/","en-US,en;q=0.9","6612e7f231d13a67b8e758cc","6877631c9844ddd5501205fc","6889e150fa636cc257e782f5","3","1","6612e7f231d13a67b8e758cc","3","1","2025-07-30T09:20:02.633Z","","","","","","","","","","","MotivationQ","","50","","","","","","","","","","","","","","","","","","","","","","","","","","","","",""
"","","","","ctl-task-cpt","29","615379","0.0-5.0-0.4","281","1","2025-07-30 09:10:35","1f75c3e559b7213887762d5229550c2b","41.113.229.167","Mozilla/5.0 (Windows NT 10.0; Win64; x64) AppleWebKit/537.36 (KHTML, like Gecko) Chrome/138.0.0.0 Safari/537.36","WebKit","Chrome","138.0.0.0","Windows","10.0","https://app.prolific.com/","en-US,en;q=0.9","6612e7f231d13a67b8e758cc","6877631c9844ddd5501205fc","6889e150fa636cc257e782f5","3","1","6612e7f231d13a67b8e758cc","3","1","2025-07-30T09:20:52.782Z","","","","","","","","","","","","","","win-only","0","g1:NW,g2:SE","0.6","5","0","567855.3","1356.1","6357.9","47127.3","1","4","8","6","2","8","6","13","7","0.09848484848484848","1761.8","3000","70","[""down"",""right""]","{""num_key_presses"":12,""num_perfect"":6,""num_errors"":2,""num_randdir"":4,""num_randdir_good_moves"":2,""num_whilered"":0,""num_whileblue"":2,""num_blue"":4,""num_good_moves"":9}","[298.22232142857143,298.12857142857143,0.7,298.22232142857143,298.12857142857143,100.5,298.22232142857143,298.12857142857143,206.9,298.22232142857143,298.12857142857143,310,298.22232142857143,298.12857142857143,415.9,298.22232142857143,298.12857142857143,525,298.22232142857143,298.12857142857143,625.3,298.22232142857143,298.12857142857143,739,311.22232142857143,302.12857142857143,840.8,416.22232142857143,372.12857142857143,944.8,469.22232142857143,427.12857142857143,1051.5,491.22232142857143,461.12857142857143,1156.7,540.2223214285714,511.12857142857143,1260.1,564.2223214285714,559.1285714285714,1361.5,564.2223214285714,566.1285714285714,1478.3,564.2223214285714,566.1285714285714,1590.4,564.2223214285714,566.1285714285714,1691.3,564.2223214285714,566.1285714285714,1793.1,564.2223214285714,566.1285714285714,1894.9,564.2223214285714,566.1285714285714,2005.5,564.2223214285714,566.1285714285714,2106.1,564.2223214285714,566.1285714285714,2206.1,564.2223214285714,566.1285714285714,2309.7,564.2223214285714,566.1285714285714,2410.5,564.2223214285714,566.1285714285714,2515.2,564.2223214285714,566.1285714285714,2623.2,564.2223214285714,566.1285714285714,2725.8,564.2223214285714,566.1285714285714,2839.6,564.2223214285714,566.1285714285714,2941.3,564.2223214285714,566.1285714285714,3041.4,564.2223214285714,566.1285714285714,3145.2,564.2223214285714,566.1285714285714,3254.4,564.2223214285714,566.1285714285714,3354.8,564.2223214285714,566.1285714285714,3456.7,564.2223214285714,566.1285714285714,3559.8,564.2223214285714,566.1285714285714,3674.1,564.2223214285714,566.1285714285714,3775.1,564.2223214285714,566.1285714285714,3875.7,564.2223214285714,566.1285714285714,3976,564.2223214285714,566.1285714285714,4090.1,564.2223214285714,566.1285714285714,4194.7,564.2223214285714,566.1285714285714,4295.2,564.2223214285714,566.1285714285714,4401.1,564.2223214285714,566.1285714285714,4506.1,564.2223214285714,566.1285714285714,4610.2,564.2223214285714,566.1285714285714,4714.5,564.2223214285714,566.1285714285714,4814.9,564.2223214285714,566.1285714285714,4925.4]","[1456.9,1457,1000,0,457,""oops"",""down"",""up"",""bad_move"",4324.4,2867.1,2473.7,1457.3,393.4,""smooth"",""right"",""right"",""good_move"",7354.7,3029.4,2668.7,4325.3,360.7,""smooth"",""right"",""right"",""good_move"",10686.9,3331.7,2962.9,7355.2,368.8,""while_blue"",""right"",""down"",""good_move"",13601.6,2914.2,2480.6,10687.5,433.6,""oops"",""right"",""down"",""good_move"",16671.3,3069.4,2636.4,13601.9,433,""while_blue"",""right"",""up"",""bad_move"",19737.2,3065.2,2653.2,16672,412,""oops"",""right"",""up"",""bad_move"",25762.9,6025.4,2420.7,22923.2,419,""smooth"",""right"",""right"",""good_move"",32435.1,6671.8,2923.3,29093.3,418.5,""oops"",""down"",""down"",""good_move"",35504,3068.2,2598.7,32435.9,469.5,""smooth"",""down"",""down"",""good_move"",38085.6,2580.5,2181,35505.1,399.5,""smooth"",""down"",""down"",""good_move"",40647.4,2561.4,2258.9,38086,302.5,""smooth"",""down"",""down"",""good_move""]","",""
"4128","","<div style=""width:500px;"">
  <p>What determined the result of this run?</p>
  </div>","68","html-slider-response","30","619510","0.0-5.0-1.4","281","1","2025-07-30 09:10:35","1f75c3e559b7213887762d5229550c2b","41.113.229.167","Mozilla/5.0 (Windows NT 10.0; Win64; x64) AppleWebKit/537.36 (KHTML, like Gecko) Chrome/138.0.0.0 Safari/537.36","WebKit","Chrome","138.0.0.0","Windows","10.0","https://app.prolific.com/","en-US,en;q=0.9","6612e7f231d13a67b8e758cc","6877631c9844ddd5501205fc","6889e150fa636cc257e782f5","3","1","6612e7f231d13a67b8e758cc","3","1","2025-07-30T09:20:56.912Z","","","","","","","","","","","AttribQ","","50","","","","","","","","","","","","","","","","","","","","","","","","","","","","",""
"3423","","<div style=""width:500px;"">
  <p>How much control did you have over the ball?</p>
  </div>","46","html-slider-response","31","622933","0.0-5.0-2.4","281","1","2025-07-30 09:10:35","1f75c3e559b7213887762d5229550c2b","41.113.229.167","Mozilla/5.0 (Windows NT 10.0; Win64; x64) AppleWebKit/537.36 (KHTML, like Gecko) Chrome/138.0.0.0 Safari/537.36","WebKit","Chrome","138.0.0.0","Windows","10.0","https://app.prolific.com/","en-US,en;q=0.9","6612e7f231d13a67b8e758cc","6877631c9844ddd5501205fc","6889e150fa636cc257e782f5","3","1","6612e7f231d13a67b8e758cc","3","1","2025-07-30T09:21:00.335Z","","","","","","","","","","","ControlQ","","50","","","","","","","","","","","","","","","","","","","","","","","","","","","","",""
"2798","","<div style=""width:500px;"">
  <p>How would you describe your current emotional state?</p>
  </div>","55","html-slider-response","32","625734","0.0-5.0-3.4","281","1","2025-07-30 09:10:35","1f75c3e559b7213887762d5229550c2b","41.113.229.167","Mozilla/5.0 (Windows NT 10.0; Win64; x64) AppleWebKit/537.36 (KHTML, like Gecko) Chrome/138.0.0.0 Safari/537.36","WebKit","Chrome","138.0.0.0","Windows","10.0","https://app.prolific.com/","en-US,en;q=0.9","6612e7f231d13a67b8e758cc","6877631c9844ddd5501205fc","6889e150fa636cc257e782f5","3","1","6612e7f231d13a67b8e758cc","3","1","2025-07-30T09:21:03.136Z","","","","","","","","","","","StressQ","","50","","","","","","","","","","","","","","","","","","","","","","","","","","","","",""
"3025","","<div style=""width:500px;"">
  <p>What best describes how you currently feel?</p>
  </div>","100","html-slider-response","33","628761","0.0-5.0-4.4","281","1","2025-07-30 09:10:35","1f75c3e559b7213887762d5229550c2b","41.113.229.167","Mozilla/5.0 (Windows NT 10.0; Win64; x64) AppleWebKit/537.36 (KHTML, like Gecko) Chrome/138.0.0.0 Safari/537.36","WebKit","Chrome","138.0.0.0","Windows","10.0","https://app.prolific.com/","en-US,en;q=0.9","6612e7f231d13a67b8e758cc","6877631c9844ddd5501205fc","6889e150fa636cc257e782f5","3","1","6612e7f231d13a67b8e758cc","3","1","2025-07-30T09:21:06.164Z","","","","","","","","","","","MotivationQ","","50","","","","","","","","","","","","","","","","","","","","","","","","","","","","",""
"","","","","ctl-task-cpt","34","674348","0.0-5.0-0.5","281","1","2025-07-30 09:10:35","1f75c3e559b7213887762d5229550c2b","41.113.229.167","Mozilla/5.0 (Windows NT 10.0; Win64; x64) AppleWebKit/537.36 (KHTML, like Gecko) Chrome/138.0.0.0 Safari/537.36","WebKit","Chrome","138.0.0.0","Windows","10.0","https://app.prolific.com/","en-US,en;q=0.9","6612e7f231d13a67b8e758cc","6877631c9844ddd5501205fc","6889e150fa636cc257e782f5","3","1","6612e7f231d13a67b8e758cc","3","1","2025-07-30T09:21:51.750Z","","","","","","","","","","","","","","win-only","3","g1:SW,g2:NE","0.5","6","0","631385.3","1386.3","6392.1","42550","1","4","4","6","2","-4","-4","9","13","0.06818181818181818","1176.2","3000","-2085","[""up"",""right""]","{""num_key_presses"":10,""num_perfect"":5,""num_errors"":0,""num_randdir"":5,""num_randdir_good_moves"":2,""num_whilered"":0,""num_whileblue"":0,""num_blue"":2,""num_good_moves"":7}","[300.22232142857143,296.12857142857143,0.3,300.22232142857143,296.12857142857143,100.1,300.22232142857143,296.12857142857143,214.2,300.22232142857143,296.12857142857143,314.2,300.22232142857143,296.12857142857143,414.5,300.22232142857143,296.12857142857143,521.4,473.22232142857143,132.12857142857143,627.5,525.2223214285714,89.12857142857143,730.5,528.2223214285714,83.12857142857143,830.6,528.2223214285714,81.12857142857143,948.6,528.2223214285714,81.12857142857143,1049.1,528.2223214285714,81.12857142857143,1151,528.2223214285714,81.12857142857143,1255.8,528.2223214285714,81.12857142857143,1360,528.2223214285714,81.12857142857143,1464.5,528.2223214285714,81.12857142857143,1564.8,528.2223214285714,81.12857142857143,1665.8,528.2223214285714,81.12857142857143,1766.2,528.2223214285714,81.12857142857143,1880.5,528.2223214285714,81.12857142857143,1981.6,528.2223214285714,81.12857142857143,2085.2,528.2223214285714,81.12857142857143,2189.9,528.2223214285714,81.12857142857143,2298.3,528.2223214285714,81.12857142857143,2399.2,528.2223214285714,81.12857142857143,2500.1,528.2223214285714,81.12857142857143,2615.6,528.2223214285714,81.12857142857143,2716.2,528.2223214285714,81.12857142857143,2820.5,528.2223214285714,81.12857142857143,2925,528.2223214285714,81.12857142857143,3029.6,528.2223214285714,81.12857142857143,3130.9,528.2223214285714,81.12857142857143,3231.7,528.2223214285714,81.12857142857143,3333.7,528.2223214285714,81.12857142857143,3434.6,528.2223214285714,81.12857142857143,3539.9,528.2223214285714,81.12857142857143,3646.2,528.2223214285714,81.12857142857143,3746.6,528.2223214285714,81.12857142857143,3849.6,528.2223214285714,81.12857142857143,3965.9,528.2223214285714,81.12857142857143,4070,528.2223214285714,81.12857142857143,4171,528.2223214285714,81.12857142857143,4275.4,528.2223214285714,81.12857142857143,4380.8,528.2223214285714,81.12857142857143,4481.3,528.2223214285714,81.12857142857143,4584.7,528.2223214285714,81.12857142857143,4695.1,528.2223214285714,81.12857142857143,4800.1,528.2223214285714,81.12857142857143,4917.3]","[4123.9,4123.9,1648.9,2010,465,""oops"",""up"",""left"",""bad_move"",7329.2,3204.9,2772.6,4124.3,432.3,""smooth"",""up"",""up"",""good_move"",10304.9,2975.1,2554.8,7329.9,420.3,""oops"",""up"",""up"",""good_move"",13812.7,3507.1,3083.7,10305.6,423.4,""smooth"",""up"",""up"",""good_move"",16790.6,2977.7,2572.1,13813,405.5,""smooth"",""right"",""right"",""good_move"",19893,3102.1,2709.7,16791.1,392.3,""oops"",""right"",""right"",""good_move"",22499,2605.6,2190.9,19893.4,414.7,""smooth"",""right"",""right"",""good_move"",25145.8,2646.6,2289.3,22499.2,357.3,""oops"",""right"",""down"",""bad_move"",31742.3,6596.1,2492.3,28878.8,371.2,""smooth"",""right"",""right"",""good_move"",33975.5,2232.9,1779.7,31742.6,453.2,""oops"",""up"",""left"",""bad_move""]","",""
"5358","","<div style=""width:500px;"">
  <p>What determined the result of this run?</p>
  </div>","43","html-slider-response","35","679707","0.0-5.0-1.5","281","1","2025-07-30 09:10:35","1f75c3e559b7213887762d5229550c2b","41.113.229.167","Mozilla/5.0 (Windows NT 10.0; Win64; x64) AppleWebKit/537.36 (KHTML, like Gecko) Chrome/138.0.0.0 Safari/537.36","WebKit","Chrome","138.0.0.0","Windows","10.0","https://app.prolific.com/","en-US,en;q=0.9","6612e7f231d13a67b8e758cc","6877631c9844ddd5501205fc","6889e150fa636cc257e782f5","3","1","6612e7f231d13a67b8e758cc","3","1","2025-07-30T09:21:57.109Z","","","","","","","","","","","AttribQ","","50","","","","","","","","","","","","","","","","","","","","","","","","","","","","",""
"4827","","<div style=""width:500px;"">
  <p>How much control did you have over the ball?</p>
  </div>","14","html-slider-response","36","684537","0.0-5.0-2.5","281","1","2025-07-30 09:10:35","1f75c3e559b7213887762d5229550c2b","41.113.229.167","Mozilla/5.0 (Windows NT 10.0; Win64; x64) AppleWebKit/537.36 (KHTML, like Gecko) Chrome/138.0.0.0 Safari/537.36","WebKit","Chrome","138.0.0.0","Windows","10.0","https://app.prolific.com/","en-US,en;q=0.9","6612e7f231d13a67b8e758cc","6877631c9844ddd5501205fc","6889e150fa636cc257e782f5","3","1","6612e7f231d13a67b8e758cc","3","1","2025-07-30T09:22:01.939Z","","","","","","","","","","","ControlQ","","50","","","","","","","","","","","","","","","","","","","","","","","","","","","","",""
"3941","","<div style=""width:500px;"">
  <p>How would you describe your current emotional state?</p>
  </div>","19","html-slider-response","37","688480","0.0-5.0-3.5","281","1","2025-07-30 09:10:35","1f75c3e559b7213887762d5229550c2b","41.113.229.167","Mozilla/5.0 (Windows NT 10.0; Win64; x64) AppleWebKit/537.36 (KHTML, like Gecko) Chrome/138.0.0.0 Safari/537.36","WebKit","Chrome","138.0.0.0","Windows","10.0","https://app.prolific.com/","en-US,en;q=0.9","6612e7f231d13a67b8e758cc","6877631c9844ddd5501205fc","6889e150fa636cc257e782f5","3","1","6612e7f231d13a67b8e758cc","3","1","2025-07-30T09:22:05.882Z","","","","","","","","","","","StressQ","","50","","","","","","","","","","","","","","","","","","","","","","","","","","","","",""
"2212","","<div style=""width:500px;"">
  <p>What best describes how you currently feel?</p>
  </div>","100","html-slider-response","38","690693","0.0-5.0-4.5","281","1","2025-07-30 09:10:35","1f75c3e559b7213887762d5229550c2b","41.113.229.167","Mozilla/5.0 (Windows NT 10.0; Win64; x64) AppleWebKit/537.36 (KHTML, like Gecko) Chrome/138.0.0.0 Safari/537.36","WebKit","Chrome","138.0.0.0","Windows","10.0","https://app.prolific.com/","en-US,en;q=0.9","6612e7f231d13a67b8e758cc","6877631c9844ddd5501205fc","6889e150fa636cc257e782f5","3","1","6612e7f231d13a67b8e758cc","3","1","2025-07-30T09:22:08.096Z","","","","","","","","","","","MotivationQ","","50","","","","","","","","","","","","","","","","","","","","","","","","","","","","",""
"","","","","ctl-task-cpt","39","741536","0.0-5.0-0.6","281","1","2025-07-30 09:10:35","1f75c3e559b7213887762d5229550c2b","41.113.229.167","Mozilla/5.0 (Windows NT 10.0; Win64; x64) AppleWebKit/537.36 (KHTML, like Gecko) Chrome/138.0.0.0 Safari/537.36","WebKit","Chrome","138.0.0.0","Windows","10.0","https://app.prolific.com/","en-US,en;q=0.9","6612e7f231d13a67b8e758cc","6877631c9844ddd5501205fc","6889e150fa636cc257e782f5","3","1","6612e7f231d13a67b8e758cc","3","1","2025-07-30T09:22:58.938Z","","","","","","","","","","","","","","win-only","0","g1:NW,g2:SE","0.4","7","0","693317.4","1631.1","6634","47820.7","1","4","8","6","2","-8","-8","1","9","0.007575757575757576","1716.2","3000","-2075","[""down"",""right""]","{""num_key_presses"":9,""num_perfect"":4,""num_errors"":0,""num_randdir"":5,""num_randdir_good_moves"":2,""num_whilered"":0,""num_whileblue"":0,""num_blue"":4,""num_good_moves"":6}","[296.22232142857143,298.12857142857143,0.3,296.22232142857143,298.12857142857143,107.3,296.22232142857143,298.12857142857143,211.7,296.22232142857143,298.12857142857143,315.7,296.22232142857143,298.12857142857143,420.2,296.22232142857143,298.12857142857143,520.9,347.22232142857143,281.12857142857143,621,490.22232142857143,365.12857142857143,722.8,525.2223214285714,447.12857142857143,823,526.2223214285714,450.12857142857143,932.7,526.2223214285714,450.12857142857143,1032.8,526.2223214285714,450.12857142857143,1135.6,531.2223214285714,481.12857142857143,1236,535.2223214285714,515.1285714285714,1337.5,535.2223214285714,529.1285714285714,1440.7,535.2223214285714,531.1285714285714,1543.4,535.2223214285714,531.1285714285714,1648.8,535.2223214285714,531.1285714285714,1756.2,535.2223214285714,531.1285714285714,1856.7,535.2223214285714,531.1285714285714,1962.5,535.2223214285714,531.1285714285714,2063.1,535.2223214285714,531.1285714285714,2165,535.2223214285714,531.1285714285714,2267.9,535.2223214285714,531.1285714285714,2370.1,535.2223214285714,531.1285714285714,2481.6,535.2223214285714,531.1285714285714,2584.5,535.2223214285714,531.1285714285714,2685,535.2223214285714,531.1285714285714,2789.1,535.2223214285714,531.1285714285714,2890,535.2223214285714,531.1285714285714,2995.4,535.2223214285714,531.1285714285714,3095.6,535.2223214285714,531.1285714285714,3195.8,535.2223214285714,531.1285714285714,3295.9,535.2223214285714,531.1285714285714,3400.3,535.2223214285714,531.1285714285714,3500.7,535.2223214285714,531.1285714285714,3600.8,535.2223214285714,531.1285714285714,3701,535.2223214285714,531.1285714285714,3802.9,535.2223214285714,531.1285714285714,3903.1,535.2223214285714,531.1285714285714,4004.6,535.2223214285714,531.1285714285714,4104.8,535.2223214285714,531.1285714285714,4222.3,535.2223214285714,531.1285714285714,4328.7,535.2223214285714,531.1285714285714,4430.1,535.2223214285714,531.1285714285714,4530.7,535.2223214285714,531.1285714285714,4631.7,535.2223214285714,531.1285714285714,4737.5,535.2223214285714,531.1285714285714,4839.5,535.2223214285714,531.1285714285714,4939.5]","[4720,4720,2303.3,2007.8,408.9,""oops"",""down"",""left"",""bad_move"",8329.3,3608.4,3199.2,4720.9,409.2,""smooth"",""down"",""down"",""good_move"",10724.9,2394.9,1964.5,8330,430.4,""smooth"",""down"",""down"",""good_move"",17249.1,6523.4,2366.1,14436.1,446.9,""smooth"",""down"",""down"",""good_move"",27082.6,9833.3,2198.1,24461.2,423.3,""oops"",""right"",""up"",""bad_move"",30084.4,3001.3,2268.4,27083.1,732.9,""oops"",""right"",""down"",""good_move"",32908.6,2823.8,2458.2,30084.8,365.6,""smooth"",""right"",""right"",""good_move"",35466.2,2556.3,2188.2,32909.9,368.1,""oops"",""right"",""right"",""good_move"",38351.5,2884.4,2510,35467.1,374.4,""oops"",""right"",""left"",""bad_move""]","",""
"4820","","<div style=""width:500px;"">
  <p>What determined the result of this run?</p>
  </div>","10","html-slider-response","40","746359","0.0-5.0-1.6","281","1","2025-07-30 09:10:35","1f75c3e559b7213887762d5229550c2b","41.113.229.167","Mozilla/5.0 (Windows NT 10.0; Win64; x64) AppleWebKit/537.36 (KHTML, like Gecko) Chrome/138.0.0.0 Safari/537.36","WebKit","Chrome","138.0.0.0","Windows","10.0","https://app.prolific.com/","en-US,en;q=0.9","6612e7f231d13a67b8e758cc","6877631c9844ddd5501205fc","6889e150fa636cc257e782f5","3","1","6612e7f231d13a67b8e758cc","3","1","2025-07-30T09:23:03.761Z","","","","","","","","","","","AttribQ","","50","","","","","","","","","","","","","","","","","","","","","","","","","","","","",""
"3469","","<div style=""width:500px;"">
  <p>How much control did you have over the ball?</p>
  </div>","0","html-slider-response","41","749830","0.0-5.0-2.6","281","1","2025-07-30 09:10:35","1f75c3e559b7213887762d5229550c2b","41.113.229.167","Mozilla/5.0 (Windows NT 10.0; Win64; x64) AppleWebKit/537.36 (KHTML, like Gecko) Chrome/138.0.0.0 Safari/537.36","WebKit","Chrome","138.0.0.0","Windows","10.0","https://app.prolific.com/","en-US,en;q=0.9","6612e7f231d13a67b8e758cc","6877631c9844ddd5501205fc","6889e150fa636cc257e782f5","3","1","6612e7f231d13a67b8e758cc","3","1","2025-07-30T09:23:07.232Z","","","","","","","","","","","ControlQ","","50","","","","","","","","","","","","","","","","","","","","","","","","","","","","",""
"3378","","<div style=""width:500px;"">
  <p>How would you describe your current emotional state?</p>
  </div>","41","html-slider-response","42","753209","0.0-5.0-3.6","281","1","2025-07-30 09:10:35","1f75c3e559b7213887762d5229550c2b","41.113.229.167","Mozilla/5.0 (Windows NT 10.0; Win64; x64) AppleWebKit/537.36 (KHTML, like Gecko) Chrome/138.0.0.0 Safari/537.36","WebKit","Chrome","138.0.0.0","Windows","10.0","https://app.prolific.com/","en-US,en;q=0.9","6612e7f231d13a67b8e758cc","6877631c9844ddd5501205fc","6889e150fa636cc257e782f5","3","1","6612e7f231d13a67b8e758cc","3","1","2025-07-30T09:23:10.612Z","","","","","","","","","","","StressQ","","50","","","","","","","","","","","","","","","","","","","","","","","","","","","","",""
"2965","","<div style=""width:500px;"">
  <p>What best describes how you currently feel?</p>
  </div>","100","html-slider-response","43","756177","0.0-5.0-4.6","281","1","2025-07-30 09:10:35","1f75c3e559b7213887762d5229550c2b","41.113.229.167","Mozilla/5.0 (Windows NT 10.0; Win64; x64) AppleWebKit/537.36 (KHTML, like Gecko) Chrome/138.0.0.0 Safari/537.36","WebKit","Chrome","138.0.0.0","Windows","10.0","https://app.prolific.com/","en-US,en;q=0.9","6612e7f231d13a67b8e758cc","6877631c9844ddd5501205fc","6889e150fa636cc257e782f5","3","1","6612e7f231d13a67b8e758cc","3","1","2025-07-30T09:23:13.579Z","","","","","","","","","","","MotivationQ","","50","","","","","","","","","","","","","","","","","","","","","","","","","","","","",""
"","","","","ctl-task-cpt","44","795103","0.0-5.0-0.7","281","1","2025-07-30 09:10:35","1f75c3e559b7213887762d5229550c2b","41.113.229.167","Mozilla/5.0 (Windows NT 10.0; Win64; x64) AppleWebKit/537.36 (KHTML, like Gecko) Chrome/138.0.0.0 Safari/537.36","WebKit","Chrome","138.0.0.0","Windows","10.0","https://app.prolific.com/","en-US,en;q=0.9","6612e7f231d13a67b8e758cc","6877631c9844ddd5501205fc","6889e150fa636cc257e782f5","3","1","6612e7f231d13a67b8e758cc","3","1","2025-07-30T09:23:52.505Z","","","","","","","","","","","","","","win-only","3","g1:SW,g2:NE","0.3","8","0","758800.5","2030","7033.7","35902.1","1","4","4","6","2","4","4","5","1","0.03787878787878788","1479.3","3000","800","[""up"",""right""]","{""num_key_presses"":8,""num_perfect"":3,""num_errors"":0,""num_randdir"":5,""num_randdir_good_moves"":4,""num_whilered"":0,""num_whileblue"":0,""num_blue"":2,""num_good_moves"":7}","[289.22232142857143,300.12857142857143,0.9,289.22232142857143,300.12857142857143,102.1,289.22232142857143,300.12857142857143,212.8,289.22232142857143,300.12857142857143,316.4,289.22232142857143,300.12857142857143,417.4,289.22232142857143,300.12857142857143,532,401.22232142857143,176.12857142857143,636.6,531.2223214285714,58.128571428571426,741,571.2223214285714,21.128571428571426,850.3,571.2223214285714,21.128571428571426,958.9,571.2223214285714,21.128571428571426,1066.2,571.2223214285714,21.128571428571426,1171,562.2223214285714,32.128571428571426,1273.4,561.2223214285714,33.128571428571426,1379.6,561.2223214285714,33.128571428571426,1481.7,561.2223214285714,33.128571428571426,1583.1,561.2223214285714,33.128571428571426,1689,561.2223214285714,33.128571428571426,1791.6,561.2223214285714,33.128571428571426,1896,561.2223214285714,33.128571428571426,1997.5,561.2223214285714,33.128571428571426,2103.7,561.2223214285714,33.128571428571426,2208.5,561.2223214285714,33.128571428571426,2313.4,561.2223214285714,33.128571428571426,2418.9,561.2223214285714,33.128571428571426,2519.5,561.2223214285714,33.128571428571426,2624,561.2223214285714,33.128571428571426,2725.7,561.2223214285714,33.128571428571426,2836.3,561.2223214285714,33.128571428571426,2937.9,561.2223214285714,33.128571428571426,3041.7,561.2223214285714,33.128571428571426,3153.8,561.2223214285714,33.128571428571426,3257.8,561.2223214285714,33.128571428571426,3363.6,561.2223214285714,33.128571428571426,3467.1,561.2223214285714,33.128571428571426,3567.1,561.2223214285714,33.128571428571426,3671.7,561.2223214285714,33.128571428571426,3788.2,561.2223214285714,33.128571428571426,3889.9,561.2223214285714,33.128571428571426,3995.5,561.2223214285714,33.128571428571426,4096.8,561.2223214285714,33.128571428571426,4197.4,561.2223214285714,33.128571428571426,4300.5,561.2223214285714,33.128571428571426,4404,561.2223214285714,33.128571428571426,4506.4,561.2223214285714,33.128571428571426,4606.7,561.2223214285714,33.128571428571426,4707,561.2223214285714,33.128571428571426,4808.5,561.2223214285714,33.128571428571426,4925]","[1455.7,1455.7,1000,0,455.8,""smooth"",""up"",""up"",""good_move"",4753.1,3296.1,2891.1,1457.1,404.9,""smooth"",""up"",""up"",""good_move"",10450.2,5696.1,2704.4,7353.9,392,""smooth"",""up"",""up"",""good_move"",13401.8,2951.3,2518.5,10450.5,432.8,""oops"",""right"",""right"",""good_move"",19591,6188.4,2597.9,16569.4,423.7,""oops"",""right"",""right"",""good_move"",22532.8,2940.9,2486,19591.9,455,""oops"",""right"",""left"",""bad_move"",25911.5,3376.4,2639.6,22535.2,736.7,""oops"",""right"",""right"",""good_move"",28726.7,2814.6,2483.8,25912.1,330.9,""oops"",""right"",""right"",""good_move""]","",""
"4698","","<div style=""width:500px;"">
  <p>What determined the result of this run?</p>
  </div>","54","html-slider-response","45","799802","0.0-5.0-1.7","281","1","2025-07-30 09:10:35","1f75c3e559b7213887762d5229550c2b","41.113.229.167","Mozilla/5.0 (Windows NT 10.0; Win64; x64) AppleWebKit/537.36 (KHTML, like Gecko) Chrome/138.0.0.0 Safari/537.36","WebKit","Chrome","138.0.0.0","Windows","10.0","https://app.prolific.com/","en-US,en;q=0.9","6612e7f231d13a67b8e758cc","6877631c9844ddd5501205fc","6889e150fa636cc257e782f5","3","1","6612e7f231d13a67b8e758cc","3","1","2025-07-30T09:23:57.204Z","","","","","","","","","","","AttribQ","","50","","","","","","","","","","","","","","","","","","","","","","","","","","","","",""
"3910","","<div style=""width:500px;"">
  <p>How much control did you have over the ball?</p>
  </div>","11","html-slider-response","46","803714","0.0-5.0-2.7","281","1","2025-07-30 09:10:35","1f75c3e559b7213887762d5229550c2b","41.113.229.167","Mozilla/5.0 (Windows NT 10.0; Win64; x64) AppleWebKit/537.36 (KHTML, like Gecko) Chrome/138.0.0.0 Safari/537.36","WebKit","Chrome","138.0.0.0","Windows","10.0","https://app.prolific.com/","en-US,en;q=0.9","6612e7f231d13a67b8e758cc","6877631c9844ddd5501205fc","6889e150fa636cc257e782f5","3","1","6612e7f231d13a67b8e758cc","3","1","2025-07-30T09:24:01.117Z","","","","","","","","","","","ControlQ","","50","","","","","","","","","","","","","","","","","","","","","","","","","","","","",""
"5892","","<div style=""width:500px;"">
  <p>How would you describe your current emotional state?</p>
  </div>","42","html-slider-response","47","809609","0.0-5.0-3.7","281","1","2025-07-30 09:10:35","1f75c3e559b7213887762d5229550c2b","41.113.229.167","Mozilla/5.0 (Windows NT 10.0; Win64; x64) AppleWebKit/537.36 (KHTML, like Gecko) Chrome/138.0.0.0 Safari/537.36","WebKit","Chrome","138.0.0.0","Windows","10.0","https://app.prolific.com/","en-US,en;q=0.9","6612e7f231d13a67b8e758cc","6877631c9844ddd5501205fc","6889e150fa636cc257e782f5","3","1","6612e7f231d13a67b8e758cc","3","1","2025-07-30T09:24:07.011Z","","","","","","","","","","","StressQ","","50","","","","","","","","","","","","","","","","","","","","","","","","","","","","",""
"2774","","<div style=""width:500px;"">
  <p>What best describes how you currently feel?</p>
  </div>","100","html-slider-response","48","812384","0.0-5.0-4.7","281","1","2025-07-30 09:10:35","1f75c3e559b7213887762d5229550c2b","41.113.229.167","Mozilla/5.0 (Windows NT 10.0; Win64; x64) AppleWebKit/537.36 (KHTML, like Gecko) Chrome/138.0.0.0 Safari/537.36","WebKit","Chrome","138.0.0.0","Windows","10.0","https://app.prolific.com/","en-US,en;q=0.9","6612e7f231d13a67b8e758cc","6877631c9844ddd5501205fc","6889e150fa636cc257e782f5","3","1","6612e7f231d13a67b8e758cc","3","1","2025-07-30T09:24:09.786Z","","","","","","","","","","","MotivationQ","","50","","","","","","","","","","","","","","","","","","","","","","","","","","","","",""
"","","","","ctl-task-cpt","49","874721","0.0-5.0-0.8","281","1","2025-07-30 09:10:35","1f75c3e559b7213887762d5229550c2b","41.113.229.167","Mozilla/5.0 (Windows NT 10.0; Win64; x64) AppleWebKit/537.36 (KHTML, like Gecko) Chrome/138.0.0.0 Safari/537.36","WebKit","Chrome","138.0.0.0","Windows","10.0","https://app.prolific.com/","en-US,en;q=0.9","6612e7f231d13a67b8e758cc","6877631c9844ddd5501205fc","6889e150fa636cc257e782f5","3","1","6612e7f231d13a67b8e758cc","3","1","2025-07-30T09:25:12.124Z","","","","","","","","","","","","","","win-only","3","g1:SW,g2:NE","0.2","9","0","815007.8","10982","15999.3","59312.8","1","4","8","6","2","8","8","13","5","0.09848484848484848","1196.4","3000","85","[""up"",""right""]","{""num_key_presses"":12,""num_perfect"":3,""num_errors"":0,""num_randdir"":9,""num_randdir_good_moves"":6,""num_whilered"":0,""num_whileblue"":0,""num_blue"":3,""num_good_moves"":9}","[296.22232142857143,300.12857142857143,1.5,296.22232142857143,300.12857142857143,107.6,296.22232142857143,300.12857142857143,212.2,296.22232142857143,300.12857142857143,317.7,296.22232142857143,300.12857142857143,422.5,350.22232142857143,245.12857142857143,522.7,474.22232142857143,153.12857142857143,627.6,515.2223214285714,117.12857142857143,737.1,534.2223214285714,68.12857142857143,838.2,544.2223214285714,50.128571428571426,938.5,544.2223214285714,50.128571428571426,1056.5,544.2223214285714,50.128571428571426,1161.1,544.2223214285714,50.128571428571426,1273,544.2223214285714,50.128571428571426,1378.1,544.2223214285714,50.128571428571426,1480.1,544.2223214285714,50.128571428571426,1587.3,544.2223214285714,50.128571428571426,1688.7,544.2223214285714,50.128571428571426,1804.1,544.2223214285714,50.128571428571426,1921.1,544.2223214285714,50.128571428571426,2034.3,544.2223214285714,50.128571428571426,2134.8,544.2223214285714,50.128571428571426,2237.1,544.2223214285714,50.128571428571426,2351.5,544.2223214285714,50.128571428571426,2455.3,544.2223214285714,50.128571428571426,2560.6,544.2223214285714,50.128571428571426,2665.8,544.2223214285714,50.128571428571426,2772.5,544.2223214285714,50.128571428571426,2877.1,544.2223214285714,50.128571428571426,2981.7,544.2223214285714,50.128571428571426,3082.3,544.2223214285714,50.128571428571426,3186.6,544.2223214285714,50.128571428571426,3305.5,544.2223214285714,50.128571428571426,3409.1,544.2223214285714,50.128571428571426,3514.2,544.2223214285714,50.128571428571426,3615.7,544.2223214285714,50.128571428571426,3727.1,544.2223214285714,50.128571428571426,3829.5,544.2223214285714,50.128571428571426,3930.3,544.2223214285714,50.128571428571426,4035,544.2223214285714,50.128571428571426,4136.3,544.2223214285714,50.128571428571426,4238,544.2223214285714,50.128571428571426,4349.1,544.2223214285714,50.128571428571426,4450,544.2223214285714,50.128571428571426,4557.3,544.2223214285714,50.128571428571426,4664.7,544.2223214285714,50.128571428571426,4774.1,544.2223214285714,50.128571428571426,4877.4,544.2223214285714,50.128571428571426,4978.4]","[1456.6,1456.6,1000,0,456.6,""oops"",""up"",""right"",""good_move"",7633.2,6175.7,2253.1,4985.8,394.4,""oops"",""up"",""right"",""good_move"",10335.8,2701.6,1991.5,7634.2,710.1,""oops"",""up"",""up"",""good_move"",13830.6,3494.1,3133.3,10336.5,360.8,""smooth"",""up"",""up"",""good_move"",16857.4,3026.6,2633.1,13830.8,393.5,""oops"",""up"",""down"",""bad_move"",19580.6,2721.9,2322.2,16858.7,399.7,""smooth"",""right"",""right"",""good_move"",25898.1,6316.6,2318.3,23048.7,531.1,""oops"",""up"",""up"",""good_move"",28508.1,2609.3,2178,25898.8,431.3,""oops"",""up"",""left"",""bad_move"",31044.5,2535.1,2158.8,28509.6,376.2,""oops"",""up"",""left"",""bad_move"",37747.6,6702,2821.5,34561.8,364.3,""oops"",""right"",""up"",""good_move"",40408.2,2660,2332.2,37748.2,327.8,""oops"",""right"",""right"",""good_move"",43165.7,2756.1,2424.8,40409.7,331.2,""smooth"",""right"",""right"",""good_move""]","",""
"3708","","<div style=""width:500px;"">
  <p>What determined the result of this run?</p>
  </div>","54","html-slider-response","50","878431","0.0-5.0-1.8","281","1","2025-07-30 09:10:35","1f75c3e559b7213887762d5229550c2b","41.113.229.167","Mozilla/5.0 (Windows NT 10.0; Win64; x64) AppleWebKit/537.36 (KHTML, like Gecko) Chrome/138.0.0.0 Safari/537.36","WebKit","Chrome","138.0.0.0","Windows","10.0","https://app.prolific.com/","en-US,en;q=0.9","6612e7f231d13a67b8e758cc","6877631c9844ddd5501205fc","6889e150fa636cc257e782f5","3","1","6612e7f231d13a67b8e758cc","3","1","2025-07-30T09:25:15.833Z","","","","","","","","","","","AttribQ","","50","","","","","","","","","","","","","","","","","","","","","","","","","","","","",""
"3757","","<div style=""width:500px;"">
  <p>How much control did you have over the ball?</p>
  </div>","16","html-slider-response","51","882191","0.0-5.0-2.8","281","1","2025-07-30 09:10:35","1f75c3e559b7213887762d5229550c2b","41.113.229.167","Mozilla/5.0 (Windows NT 10.0; Win64; x64) AppleWebKit/537.36 (KHTML, like Gecko) Chrome/138.0.0.0 Safari/537.36","WebKit","Chrome","138.0.0.0","Windows","10.0","https://app.prolific.com/","en-US,en;q=0.9","6612e7f231d13a67b8e758cc","6877631c9844ddd5501205fc","6889e150fa636cc257e782f5","3","1","6612e7f231d13a67b8e758cc","3","1","2025-07-30T09:25:19.593Z","","","","","","","","","","","ControlQ","","50","","","","","","","","","","","","","","","","","","","","","","","","","","","","",""
"3005","","<div style=""width:500px;"">
  <p>How would you describe your current emotional state?</p>
  </div>","34","html-slider-response","52","885198","0.0-5.0-3.8","281","1","2025-07-30 09:10:35","1f75c3e559b7213887762d5229550c2b","41.113.229.167","Mozilla/5.0 (Windows NT 10.0; Win64; x64) AppleWebKit/537.36 (KHTML, like Gecko) Chrome/138.0.0.0 Safari/537.36","WebKit","Chrome","138.0.0.0","Windows","10.0","https://app.prolific.com/","en-US,en;q=0.9","6612e7f231d13a67b8e758cc","6877631c9844ddd5501205fc","6889e150fa636cc257e782f5","3","1","6612e7f231d13a67b8e758cc","3","1","2025-07-30T09:25:22.600Z","","","","","","","","","","","StressQ","","50","","","","","","","","","","","","","","","","","","","","","","","","","","","","",""
"7197","","<div style=""width:500px;"">
  <p>What best describes how you currently feel?</p>
  </div>","100","html-slider-response","53","892396","0.0-5.0-4.8","281","1","2025-07-30 09:10:35","1f75c3e559b7213887762d5229550c2b","41.113.229.167","Mozilla/5.0 (Windows NT 10.0; Win64; x64) AppleWebKit/537.36 (KHTML, like Gecko) Chrome/138.0.0.0 Safari/537.36","WebKit","Chrome","138.0.0.0","Windows","10.0","https://app.prolific.com/","en-US,en;q=0.9","6612e7f231d13a67b8e758cc","6877631c9844ddd5501205fc","6889e150fa636cc257e782f5","3","1","6612e7f231d13a67b8e758cc","3","1","2025-07-30T09:25:29.798Z","","","","","","","","","","","MotivationQ","","50","","","","","","","","","","","","","","","","","","","","","","","","","","","","",""
"","","","","ctl-task-cpt","54","953546","0.0-5.0-0.9","281","1","2025-07-30 09:10:35","1f75c3e559b7213887762d5229550c2b","41.113.229.167","Mozilla/5.0 (Windows NT 10.0; Win64; x64) AppleWebKit/537.36 (KHTML, like Gecko) Chrome/138.0.0.0 Safari/537.36","WebKit","Chrome","138.0.0.0","Windows","10.0","https://app.prolific.com/","en-US,en;q=0.9","6612e7f231d13a67b8e758cc","6877631c9844ddd5501205fc","6889e150fa636cc257e782f5","3","1","6612e7f231d13a67b8e758cc","3","1","2025-07-30T09:26:30.949Z","","","","","","","","","","","","","","win-only","3","g1:SW,g2:NE","0.4","10","0","895019.9","9381.5","14385.3","58115.8","1","4","4","6","2","-4","-4","9","13","0.06818181818181818","1227","3000","-1790","[""up"",""right""]","{""num_key_presses"":12,""num_perfect"":5,""num_errors"":0,""num_randdir"":7,""num_randdir_good_moves"":2,""num_whilered"":0,""num_whileblue"":0,""num_blue"":2,""num_good_moves"":7}","[302.22232142857143,296.12857142857143,1,302.22232142857143,296.12857142857143,101.3,302.22232142857143,296.12857142857143,203.6,302.22232142857143,296.12857142857143,312.3,302.22232142857143,296.12857142857143,417.2,302.22232142857143,296.12857142857143,524,499.22232142857143,137.12857142857143,632.4,545.2223214285714,96.12857142857143,734.7,547.2223214285714,91.12857142857143,835.9,540.2223214285714,81.12857142857143,937.8,535.2223214285714,71.12857142857143,1039,535.2223214285714,71.12857142857143,1141.3,535.2223214285714,71.12857142857143,1244.7,535.2223214285714,71.12857142857143,1346.9,535.2223214285714,71.12857142857143,1447.7,535.2223214285714,71.12857142857143,1548.7,535.2223214285714,71.12857142857143,1648.9,535.2223214285714,71.12857142857143,1750.2,535.2223214285714,71.12857142857143,1855.5,535.2223214285714,71.12857142857143,1956.4,535.2223214285714,71.12857142857143,2061.6,535.2223214285714,71.12857142857143,2177.9,535.2223214285714,71.12857142857143,2285.4,535.2223214285714,71.12857142857143,2385.6,535.2223214285714,71.12857142857143,2506.5,535.2223214285714,71.12857142857143,2618.9,535.2223214285714,71.12857142857143,2724.7,535.2223214285714,71.12857142857143,2848.6,535.2223214285714,71.12857142857143,2950,535.2223214285714,71.12857142857143,3052.8,535.2223214285714,71.12857142857143,3156.6,535.2223214285714,71.12857142857143,3262.9,535.2223214285714,71.12857142857143,3362.9,535.2223214285714,71.12857142857143,3474.6,535.2223214285714,71.12857142857143,3580.1,535.2223214285714,71.12857142857143,3683.3,535.2223214285714,71.12857142857143,3791.2,535.2223214285714,71.12857142857143,3894.4,535.2223214285714,71.12857142857143,4015.3,535.2223214285714,71.12857142857143,4121.2,535.2223214285714,71.12857142857143,4226.7,535.2223214285714,71.12857142857143,4327.3,535.2223214285714,71.12857142857143,4435.8,535.2223214285714,71.12857142857143,4538.9,535.2223214285714,71.12857142857143,4643,535.2223214285714,71.12857142857143,4755.5,535.2223214285714,71.12857142857143,4856.9,535.2223214285714,71.12857142857143,4980.6]","[1396,1396,1000,0,396,""smooth"",""up"",""up"",""good_move"",4895.2,3498.1,3101.2,1397.1,396.9,""smooth"",""up"",""up"",""good_move"",7283.5,2387.4,1968.4,4896.1,419,""smooth"",""up"",""up"",""good_move"",9710.3,2426.4,2064.1,7283.9,362.3,""oops"",""right"",""down"",""bad_move"",12544.2,2833.1,2475.2,9711.1,357.9,""smooth"",""right"",""right"",""good_move"",15403.5,2858.2,2516.7,12545.3,341.5,""oops"",""right"",""left"",""bad_move"",23103.1,7698.7,2862.3,19815.3,425.5,""oops"",""up"",""left"",""bad_move"",25919.8,2816.2,2282.3,23103.6,533.9,""oops"",""up"",""right"",""good_move"",28615.5,2694.3,2273.7,25921.2,420.6,""oops"",""up"",""left"",""bad_move"",34760,6143.9,2420,31855,485,""oops"",""up"",""down"",""bad_move"",37922.7,3162.1,2713.7,34760.6,448.4,""oops"",""right"",""right"",""good_move"",40549.5,2625.5,1572.6,37924,1052.9,""smooth"",""right"",""right"",""good_move""]","",""
"28745","","<div style=""width:500px;"">
  <p>What determined the result of this run?</p>
  </div>","56","html-slider-response","55","982293","0.0-5.0-1.9","281","1","2025-07-30 09:10:35","1f75c3e559b7213887762d5229550c2b","41.113.229.167","Mozilla/5.0 (Windows NT 10.0; Win64; x64) AppleWebKit/537.36 (KHTML, like Gecko) Chrome/138.0.0.0 Safari/537.36","WebKit","Chrome","138.0.0.0","Windows","10.0","https://app.prolific.com/","en-US,en;q=0.9","6612e7f231d13a67b8e758cc","6877631c9844ddd5501205fc","6889e150fa636cc257e782f5","3","1","6612e7f231d13a67b8e758cc","3","1","2025-07-30T09:26:59.695Z","","","","","","","","","","","AttribQ","","50","","","","","","","","","","","","","","","","","","","","","","","","","","","","",""
"3097","","<div style=""width:500px;"">
  <p>How much control did you have over the ball?</p>
  </div>","46","html-slider-response","56","985391","0.0-5.0-2.9","281","1","2025-07-30 09:10:35","1f75c3e559b7213887762d5229550c2b","41.113.229.167","Mozilla/5.0 (Windows NT 10.0; Win64; x64) AppleWebKit/537.36 (KHTML, like Gecko) Chrome/138.0.0.0 Safari/537.36","WebKit","Chrome","138.0.0.0","Windows","10.0","https://app.prolific.com/","en-US,en;q=0.9","6612e7f231d13a67b8e758cc","6877631c9844ddd5501205fc","6889e150fa636cc257e782f5","3","1","6612e7f231d13a67b8e758cc","3","1","2025-07-30T09:27:02.794Z","","","","","","","","","","","ControlQ","","50","","","","","","","","","","","","","","","","","","","","","","","","","","","","",""
"5014","","<div style=""width:500px;"">
  <p>How would you describe your current emotional state?</p>
  </div>","25","html-slider-response","57","990407","0.0-5.0-3.9","281","1","2025-07-30 09:10:35","1f75c3e559b7213887762d5229550c2b","41.113.229.167","Mozilla/5.0 (Windows NT 10.0; Win64; x64) AppleWebKit/537.36 (KHTML, like Gecko) Chrome/138.0.0.0 Safari/537.36","WebKit","Chrome","138.0.0.0","Windows","10.0","https://app.prolific.com/","en-US,en;q=0.9","6612e7f231d13a67b8e758cc","6877631c9844ddd5501205fc","6889e150fa636cc257e782f5","3","1","6612e7f231d13a67b8e758cc","3","1","2025-07-30T09:27:07.809Z","","","","","","","","","","","StressQ","","50","","","","","","","","","","","","","","","","","","","","","","","","","","","","",""
"3055","","<div style=""width:500px;"">
  <p>What best describes how you currently feel?</p>
  </div>","100","html-slider-response","58","993463","0.0-5.0-4.9","281","1","2025-07-30 09:10:35","1f75c3e559b7213887762d5229550c2b","41.113.229.167","Mozilla/5.0 (Windows NT 10.0; Win64; x64) AppleWebKit/537.36 (KHTML, like Gecko) Chrome/138.0.0.0 Safari/537.36","WebKit","Chrome","138.0.0.0","Windows","10.0","https://app.prolific.com/","en-US,en;q=0.9","6612e7f231d13a67b8e758cc","6877631c9844ddd5501205fc","6889e150fa636cc257e782f5","3","1","6612e7f231d13a67b8e758cc","3","1","2025-07-30T09:27:10.865Z","","","","","","","","","","","MotivationQ","","50","","","","","","","","","","","","","","","","","","","","","","","","","","","","",""
"","","","","ctl-task-cpt","59","1037674","0.0-5.0-0.10","281","1","2025-07-30 09:10:35","1f75c3e559b7213887762d5229550c2b","41.113.229.167","Mozilla/5.0 (Windows NT 10.0; Win64; x64) AppleWebKit/537.36 (KHTML, like Gecko) Chrome/138.0.0.0 Safari/537.36","WebKit","Chrome","138.0.0.0","Windows","10.0","https://app.prolific.com/","en-US,en;q=0.9","6612e7f231d13a67b8e758cc","6877631c9844ddd5501205fc","6889e150fa636cc257e782f5","3","1","6612e7f231d13a67b8e758cc","3","1","2025-07-30T09:27:55.076Z","","","","","","","","","","","","","","win-only","0","g1:NW,g2:SE","0.5","11","0","996087.5","12544.8","17546.3","41189.3","1","4","4","6","2","4","4","13","9","0.09848484848484848","1578.5","3000","1765","[""down"",""right""]","{""num_key_presses"":6,""num_perfect"":3,""num_errors"":0,""num_randdir"":3,""num_randdir_good_moves"":3,""num_whilered"":0,""num_whileblue"":0,""num_blue"":2,""num_good_moves"":6}","[295.22232142857143,293.12857142857143,0.5,295.22232142857143,293.12857142857143,103.8,295.22232142857143,293.12857142857143,208.5,295.22232142857143,293.12857142857143,310.1,295.22232142857143,293.12857142857143,414.9,295.22232142857143,293.12857142857143,516.4,295.22232142857143,293.12857142857143,622,295.22232142857143,293.12857142857143,727,317.22232142857143,293.12857142857143,833.5,560.2223214285714,386.12857142857143,942.6,591.2223214285714,455.12857142857143,1047.2,578.2223214285714,499.12857142857143,1157.4,550.2223214285714,528.1285714285714,1258.6,533.2223214285714,539.1285714285714,1366.8,533.2223214285714,539.1285714285714,1469,533.2223214285714,539.1285714285714,1569.8,533.2223214285714,539.1285714285714,1679.7,533.2223214285714,539.1285714285714,1786.7,533.2223214285714,539.1285714285714,1887,533.2223214285714,539.1285714285714,1989.1,533.2223214285714,539.1285714285714,2099.8,533.2223214285714,539.1285714285714,2205.6,533.2223214285714,539.1285714285714,2311.7,533.2223214285714,539.1285714285714,2414.5,533.2223214285714,539.1285714285714,2523.3,533.2223214285714,539.1285714285714,2623.9,533.2223214285714,539.1285714285714,2732.5,533.2223214285714,539.1285714285714,2839.2,533.2223214285714,539.1285714285714,2959.2,533.2223214285714,539.1285714285714,3071.6,533.2223214285714,539.1285714285714,3179.9,533.2223214285714,539.1285714285714,3289.1,533.2223214285714,539.1285714285714,3393.7,533.2223214285714,539.1285714285714,3504.5,533.2223214285714,539.1285714285714,3609.6,533.2223214285714,539.1285714285714,3719.3,533.2223214285714,539.1285714285714,3829,533.2223214285714,539.1285714285714,3938.5,533.2223214285714,539.1285714285714,4049.3,533.2223214285714,539.1285714285714,4154.1,533.2223214285714,539.1285714285714,4262.8,533.2223214285714,539.1285714285714,4375.5,533.2223214285714,539.1285714285714,4476.5,533.2223214285714,539.1285714285714,4586.2,533.2223214285714,539.1285714285714,4698.9,533.2223214285714,539.1285714285714,4803,533.2223214285714,539.1285714285714,4909.4]","[8176.2,8176.2,2205.3,5536.7,434.2,""smooth"",""down"",""down"",""good_move"",11035.9,2858.6,2422.9,8177.3,435.7,""smooth"",""down"",""down"",""good_move"",13619.6,2582.9,2162.6,11036.7,420.3,""oops"",""down"",""down"",""good_move"",16458.9,2838.3,2296,13620.6,542.3,""oops"",""right"",""right"",""good_move"",19699.6,3239.8,2812.8,16459.8,427,""oops"",""right"",""right"",""good_move"",23416.5,3716.1,3235.4,19700.4,480.7,""smooth"",""right"",""right"",""good_move""]","",""
"90363","","<div style=""width:500px;"">
  <p>What determined the result of this run?</p>
  </div>","77","html-slider-response","60","1128039","0.0-5.0-1.10","281","1","2025-07-30 09:10:35","1f75c3e559b7213887762d5229550c2b","41.113.229.167","Mozilla/5.0 (Windows NT 10.0; Win64; x64) AppleWebKit/537.36 (KHTML, like Gecko) Chrome/138.0.0.0 Safari/537.36","WebKit","Chrome","138.0.0.0","Windows","10.0","https://app.prolific.com/","en-US,en;q=0.9","6612e7f231d13a67b8e758cc","6877631c9844ddd5501205fc","6889e150fa636cc257e782f5","3","1","6612e7f231d13a67b8e758cc","3","1","2025-07-30T09:29:25.442Z","","","","","","","","","","","AttribQ","","50","","","","","","","","","","","","","","","","","","","","","","","","","","","","",""
"3758","","<div style=""width:500px;"">
  <p>How much control did you have over the ball?</p>
  </div>","46","html-slider-response","61","1131800","0.0-5.0-2.10","281","1","2025-07-30 09:10:35","1f75c3e559b7213887762d5229550c2b","41.113.229.167","Mozilla/5.0 (Windows NT 10.0; Win64; x64) AppleWebKit/537.36 (KHTML, like Gecko) Chrome/138.0.0.0 Safari/537.36","WebKit","Chrome","138.0.0.0","Windows","10.0","https://app.prolific.com/","en-US,en;q=0.9","6612e7f231d13a67b8e758cc","6877631c9844ddd5501205fc","6889e150fa636cc257e782f5","3","1","6612e7f231d13a67b8e758cc","3","1","2025-07-30T09:29:29.202Z","","","","","","","","","","","ControlQ","","50","","","","","","","","","","","","","","","","","","","","","","","","","","","","",""
"3747","","<div style=""width:500px;"">
  <p>How would you describe your current emotional state?</p>
  </div>","32","html-slider-response","62","1135549","0.0-5.0-3.10","281","1","2025-07-30 09:10:35","1f75c3e559b7213887762d5229550c2b","41.113.229.167","Mozilla/5.0 (Windows NT 10.0; Win64; x64) AppleWebKit/537.36 (KHTML, like Gecko) Chrome/138.0.0.0 Safari/537.36","WebKit","Chrome","138.0.0.0","Windows","10.0","https://app.prolific.com/","en-US,en;q=0.9","6612e7f231d13a67b8e758cc","6877631c9844ddd5501205fc","6889e150fa636cc257e782f5","3","1","6612e7f231d13a67b8e758cc","3","1","2025-07-30T09:29:32.951Z","","","","","","","","","","","StressQ","","50","","","","","","","","","","","","","","","","","","","","","","","","","","","","",""
"2910","","<div style=""width:500px;"">
  <p>What best describes how you currently feel?</p>
  </div>","100","html-slider-response","63","1138461","0.0-5.0-4.10","281","1","2025-07-30 09:10:35","1f75c3e559b7213887762d5229550c2b","41.113.229.167","Mozilla/5.0 (Windows NT 10.0; Win64; x64) AppleWebKit/537.36 (KHTML, like Gecko) Chrome/138.0.0.0 Safari/537.36","WebKit","Chrome","138.0.0.0","Windows","10.0","https://app.prolific.com/","en-US,en;q=0.9","6612e7f231d13a67b8e758cc","6877631c9844ddd5501205fc","6889e150fa636cc257e782f5","3","1","6612e7f231d13a67b8e758cc","3","1","2025-07-30T09:29:35.863Z","","","","","","","","","","","MotivationQ","","50","","","","","","","","","","","","","","","","","","","","","","","","","","","","",""
"","","","","ctl-task-cpt","64","1179491","0.0-5.0-0.11","281","1","2025-07-30 09:10:35","1f75c3e559b7213887762d5229550c2b","41.113.229.167","Mozilla/5.0 (Windows NT 10.0; Win64; x64) AppleWebKit/537.36 (KHTML, like Gecko) Chrome/138.0.0.0 Safari/537.36","WebKit","Chrome","138.0.0.0","Windows","10.0","https://app.prolific.com/","en-US,en;q=0.9","6612e7f231d13a67b8e758cc","6877631c9844ddd5501205fc","6889e150fa636cc257e782f5","3","1","6612e7f231d13a67b8e758cc","3","1","2025-07-30T09:30:16.893Z","","","","","","","","","","","","","","win-only","2","g1:SE,g2:NW","0.6","12","0","1141085.1","13230.5","18233.1","38009.2","1","4","8","6","2","8","8","21","13","0.1590909090909091","1448.1","3000","1780","[""left"",""up""]","{""num_key_presses"":6,""num_perfect"":2,""num_errors"":0,""num_randdir"":4,""num_randdir_good_moves"":4,""num_whilered"":0,""num_whileblue"":0,""num_blue"":1,""num_good_moves"":6}","[289.22232142857143,297.12857142857143,0.6,289.22232142857143,297.12857142857143,111.2,289.22232142857143,297.12857142857143,213.3,289.22232142857143,297.12857142857143,327.4,289.22232142857143,297.12857142857143,433.3,289.22232142857143,297.12857142857143,534.6,289.22232142857143,297.12857142857143,646.9,160.22232142857143,196.12857142857143,758.1,123.22232142857143,71.12857142857143,867.5,99.22232142857143,57.128571428571426,978.1,78.22232142857143,56.128571428571426,1078.6,74.22232142857143,57.128571428571426,1183.6,71.22232142857143,58.128571428571426,1298.4,71.22232142857143,58.128571428571426,1421.7,71.22232142857143,58.128571428571426,1528.1,71.22232142857143,58.128571428571426,1663.6,71.22232142857143,58.128571428571426,1773.6,71.22232142857143,58.128571428571426,1874.2,71.22232142857143,58.128571428571426,1979.8,71.22232142857143,58.128571428571426,2098.7,71.22232142857143,58.128571428571426,2205.2,71.22232142857143,58.128571428571426,2306.2,71.22232142857143,58.128571428571426,2422.6,71.22232142857143,58.128571428571426,2529.1,71.22232142857143,58.128571428571426,2634.7,71.22232142857143,58.128571428571426,2739.1,71.22232142857143,58.128571428571426,2843.8,71.22232142857143,58.128571428571426,2946.7,71.22232142857143,58.128571428571426,3051.5,71.22232142857143,58.128571428571426,3161,71.22232142857143,58.128571428571426,3265.5,71.22232142857143,58.128571428571426,3366.5,71.22232142857143,58.128571428571426,3476.9,71.22232142857143,58.128571428571426,3577.1,71.22232142857143,58.128571428571426,3680.3,71.22232142857143,58.128571428571426,3785.7,71.22232142857143,58.128571428571426,3892.2,71.22232142857143,58.128571428571426,3994.1,71.22232142857143,58.128571428571426,4100.3,71.22232142857143,58.128571428571426,4207.8,71.22232142857143,58.128571428571426,4312.1,71.22232142857143,58.128571428571426,4418.5,71.22232142857143,58.128571428571426,4527.4,71.22232142857143,58.128571428571426,4633.5,71.22232142857143,58.128571428571426,4742.4,71.22232142857143,58.128571428571426,4844.8,71.22232142857143,58.128571428571426,4948.3]","[4888.5,4888.6,2451.5,2012.6,424.5,""oops"",""left"",""up"",""good_move"",7694.1,2803.5,1931,4890.6,872.5,""oops"",""left"",""up"",""good_move"",11169,3474.1,2644.3,7694.9,829.8,""smooth"",""left"",""left"",""good_move"",14310.6,3140.5,2686.5,11170.1,454,""oops"",""up"",""left"",""good_move"",16697.5,2385.9,1554.2,14311.6,831.7,""smooth"",""left"",""left"",""good_move"",19511.1,2813.2,2435.3,16697.9,377.9,""oops"",""up"",""up"",""good_move""]","",""
"4975","","<div style=""width:500px;"">
  <p>What determined the result of this run?</p>
  </div>","100","html-slider-response","65","1184468","0.0-5.0-1.11","281","1","2025-07-30 09:10:35","1f75c3e559b7213887762d5229550c2b","41.113.229.167","Mozilla/5.0 (Windows NT 10.0; Win64; x64) AppleWebKit/537.36 (KHTML, like Gecko) Chrome/138.0.0.0 Safari/537.36","WebKit","Chrome","138.0.0.0","Windows","10.0","https://app.prolific.com/","en-US,en;q=0.9","6612e7f231d13a67b8e758cc","6877631c9844ddd5501205fc","6889e150fa636cc257e782f5","3","1","6612e7f231d13a67b8e758cc","3","1","2025-07-30T09:30:21.870Z","","","","","","","","","","","AttribQ","","50","","","","","","","","","","","","","","","","","","","","","","","","","","","","",""
"3977","","<div style=""width:500px;"">
  <p>How much control did you have over the ball?</p>
  </div>","95","html-slider-response","66","1188447","0.0-5.0-2.11","281","1","2025-07-30 09:10:35","1f75c3e559b7213887762d5229550c2b","41.113.229.167","Mozilla/5.0 (Windows NT 10.0; Win64; x64) AppleWebKit/537.36 (KHTML, like Gecko) Chrome/138.0.0.0 Safari/537.36","WebKit","Chrome","138.0.0.0","Windows","10.0","https://app.prolific.com/","en-US,en;q=0.9","6612e7f231d13a67b8e758cc","6877631c9844ddd5501205fc","6889e150fa636cc257e782f5","3","1","6612e7f231d13a67b8e758cc","3","1","2025-07-30T09:30:25.849Z","","","","","","","","","","","ControlQ","","50","","","","","","","","","","","","","","","","","","","","","","","","","","","","",""
"6129","","<div style=""width:500px;"">
  <p>How would you describe your current emotional state?</p>
  </div>","22","html-slider-response","67","1194579","0.0-5.0-3.11","281","1","2025-07-30 09:10:35","1f75c3e559b7213887762d5229550c2b","41.113.229.167","Mozilla/5.0 (Windows NT 10.0; Win64; x64) AppleWebKit/537.36 (KHTML, like Gecko) Chrome/138.0.0.0 Safari/537.36","WebKit","Chrome","138.0.0.0","Windows","10.0","https://app.prolific.com/","en-US,en;q=0.9","6612e7f231d13a67b8e758cc","6877631c9844ddd5501205fc","6889e150fa636cc257e782f5","3","1","6612e7f231d13a67b8e758cc","3","1","2025-07-30T09:30:31.981Z","","","","","","","","","","","StressQ","","50","","","","","","","","","","","","","","","","","","","","","","","","","","","","",""
"3285","","<div style=""width:500px;"">
  <p>What best describes how you currently feel?</p>
  </div>","100","html-slider-response","68","1197866","0.0-5.0-4.11","281","1","2025-07-30 09:10:35","1f75c3e559b7213887762d5229550c2b","41.113.229.167","Mozilla/5.0 (Windows NT 10.0; Win64; x64) AppleWebKit/537.36 (KHTML, like Gecko) Chrome/138.0.0.0 Safari/537.36","WebKit","Chrome","138.0.0.0","Windows","10.0","https://app.prolific.com/","en-US,en;q=0.9","6612e7f231d13a67b8e758cc","6877631c9844ddd5501205fc","6889e150fa636cc257e782f5","3","1","6612e7f231d13a67b8e758cc","3","1","2025-07-30T09:30:35.268Z","","","","","","","","","","","MotivationQ","","50","","","","","","","","","","","","","","","","","","","","","","","","","","","","",""
"","","","","ctl-task-cpt","69","1270373","0.0-5.0-0.12","281","1","2025-07-30 09:10:35","1f75c3e559b7213887762d5229550c2b","41.113.229.167","Mozilla/5.0 (Windows NT 10.0; Win64; x64) AppleWebKit/537.36 (KHTML, like Gecko) Chrome/138.0.0.0 Safari/537.36","WebKit","Chrome","138.0.0.0","Windows","10.0","https://app.prolific.com/","en-US,en;q=0.9","6612e7f231d13a67b8e758cc","6877631c9844ddd5501205fc","6889e150fa636cc257e782f5","3","1","6612e7f231d13a67b8e758cc","3","1","2025-07-30T09:31:47.775Z","","","","","","","","","","","","","","win-only","3","g1:SW,g2:NE","0.7","13","0","1200488.9","13851.9","18861.4","69483.7","1","4","4","6","2","4","3","24","21","0.18181818181818182","1518.4","3000","700","[""up"",""right""]","{""num_key_presses"":15,""num_perfect"":10,""num_errors"":1,""num_randdir"":4,""num_randdir_good_moves"":0,""num_whilered"":0,""num_whileblue"":0,""num_blue"":2,""num_good_moves"":10}","[298.22232142857143,297.12857142857143,1.2,298.22232142857143,297.12857142857143,115,298.22232142857143,297.12857142857143,225.5,298.22232142857143,297.12857142857143,335.8,298.22232142857143,297.12857142857143,446.5,298.22232142857143,297.12857142857143,553,312.22232142857143,277.12857142857143,664.2,616.2223214285714,76.12857142857143,769.7,643.2223214285714,66.12857142857143,886.2,640.2223214285714,67.12857142857143,998.9,604.2223214285714,71.12857142857143,1105.1,582.2223214285714,72.12857142857143,1206,577.2223214285714,73.12857142857143,1307.6,577.2223214285714,73.12857142857143,1421.3,577.2223214285714,73.12857142857143,1524.6,577.2223214285714,73.12857142857143,1625.1,577.2223214285714,73.12857142857143,1740,577.2223214285714,73.12857142857143,1853.1,577.2223214285714,73.12857142857143,1966.9,577.2223214285714,73.12857142857143,2081.1,577.2223214285714,73.12857142857143,2186.5,577.2223214285714,73.12857142857143,2287.4,577.2223214285714,73.12857142857143,2391.6,577.2223214285714,73.12857142857143,2495.7,577.2223214285714,73.12857142857143,2599.8,577.2223214285714,73.12857142857143,2712.2,577.2223214285714,73.12857142857143,2849,577.2223214285714,73.12857142857143,2952.9,577.2223214285714,73.12857142857143,3079.6,577.2223214285714,73.12857142857143,3187.1,577.2223214285714,73.12857142857143,3291.1,577.2223214285714,73.12857142857143,3397.5,577.2223214285714,73.12857142857143,3506.7,577.2223214285714,73.12857142857143,3609,577.2223214285714,73.12857142857143,3713.3,577.2223214285714,73.12857142857143,3844.5,577.2223214285714,73.12857142857143,3952,577.2223214285714,73.12857142857143,4063.1,577.2223214285714,73.12857142857143,4173.9,577.2223214285714,73.12857142857143,4282.8,577.2223214285714,73.12857142857143,4384.3,577.2223214285714,73.12857142857143,4492.1,577.2223214285714,73.12857142857143,4602.3,577.2223214285714,73.12857142857143,4710.2,577.2223214285714,73.12857142857143,4812.7,577.2223214285714,73.12857142857143,4914]","[1735.1,1735.1,1000,0,735.1,""smooth"",""up"",""up"",""good_move"",4486.6,2750.3,2311.6,1736.4,438.6,""smooth"",""right"",""right"",""good_move"",7560.4,3072.7,2557.9,4487.7,514.8,""oops"",""up"",""left"",""bad_move"",10540.1,2978.5,2295.7,7561.7,682.7,""oops"",""up"",""down"",""bad_move"",13279.8,2739.2,2343.9,10540.6,395.3,""smooth"",""right"",""right"",""good_move"",13598.9,317.4,3148.9,13281.5,-2831.5,""error"",""-"",""-"",""no_move"",17997.5,4397.8,3018.9,14605.2,373.4,""smooth"",""right"",""right"",""good_move"",20288.1,2289.9,1805.6,17998.2,484.3,""smooth"",""right"",""right"",""good_move"",23355.3,3066.3,2695.5,20289,370.8,""smooth"",""up"",""up"",""good_move"",31340.9,7983.7,3666.5,27247.8,426.6,""smooth"",""up"",""up"",""good_move"",37742.3,6400.6,2980.1,34356.5,405.7,""oops"",""up"",""down"",""bad_move"",41597.8,3854.8,3451.5,37743,403.3,""oops"",""up"",""left"",""bad_move"",44605.5,3006.7,2508.3,41598.9,498.4,""smooth"",""up"",""up"",""good_move"",47298.3,2692.1,2190.7,44606.2,501.4,""smooth"",""up"",""up"",""good_move"",50316.4,3017.2,2628.5,47299.2,388.7,""smooth"",""right"",""right"",""good_move""]","",""
"103319","","<div style=""width:500px;"">
  <p>What determined the result of this run?</p>
  </div>","40","html-slider-response","70","1373694","0.0-5.0-1.12","281","1","2025-07-30 09:10:35","1f75c3e559b7213887762d5229550c2b","41.113.229.167","Mozilla/5.0 (Windows NT 10.0; Win64; x64) AppleWebKit/537.36 (KHTML, like Gecko) Chrome/138.0.0.0 Safari/537.36","WebKit","Chrome","138.0.0.0","Windows","10.0","https://app.prolific.com/","en-US,en;q=0.9","6612e7f231d13a67b8e758cc","6877631c9844ddd5501205fc","6889e150fa636cc257e782f5","3","1","6612e7f231d13a67b8e758cc","3","1","2025-07-30T09:33:31.096Z","","","","","","","","","","","AttribQ","","50","","","","","","","","","","","","","","","","","","","","","","","","","","","","",""
"3765","","<div style=""width:500px;"">
  <p>How much control did you have over the ball?</p>
  </div>","40","html-slider-response","71","1377462","0.0-5.0-2.12","281","1","2025-07-30 09:10:35","1f75c3e559b7213887762d5229550c2b","41.113.229.167","Mozilla/5.0 (Windows NT 10.0; Win64; x64) AppleWebKit/537.36 (KHTML, like Gecko) Chrome/138.0.0.0 Safari/537.36","WebKit","Chrome","138.0.0.0","Windows","10.0","https://app.prolific.com/","en-US,en;q=0.9","6612e7f231d13a67b8e758cc","6877631c9844ddd5501205fc","6889e150fa636cc257e782f5","3","1","6612e7f231d13a67b8e758cc","3","1","2025-07-30T09:33:34.864Z","","","","","","","","","","","ControlQ","","50","","","","","","","","","","","","","","","","","","","","","","","","","","","","",""
"3376","","<div style=""width:500px;"">
  <p>How would you describe your current emotional state?</p>
  </div>","31","html-slider-response","72","1380839","0.0-5.0-3.12","281","1","2025-07-30 09:10:35","1f75c3e559b7213887762d5229550c2b","41.113.229.167","Mozilla/5.0 (Windows NT 10.0; Win64; x64) AppleWebKit/537.36 (KHTML, like Gecko) Chrome/138.0.0.0 Safari/537.36","WebKit","Chrome","138.0.0.0","Windows","10.0","https://app.prolific.com/","en-US,en;q=0.9","6612e7f231d13a67b8e758cc","6877631c9844ddd5501205fc","6889e150fa636cc257e782f5","3","1","6612e7f231d13a67b8e758cc","3","1","2025-07-30T09:33:38.241Z","","","","","","","","","","","StressQ","","50","","","","","","","","","","","","","","","","","","","","","","","","","","","","",""
"3188","","<div style=""width:500px;"">
  <p>What best describes how you currently feel?</p>
  </div>","100","html-slider-response","73","1384030","0.0-5.0-4.12","281","1","2025-07-30 09:10:35","1f75c3e559b7213887762d5229550c2b","41.113.229.167","Mozilla/5.0 (Windows NT 10.0; Win64; x64) AppleWebKit/537.36 (KHTML, like Gecko) Chrome/138.0.0.0 Safari/537.36","WebKit","Chrome","138.0.0.0","Windows","10.0","https://app.prolific.com/","en-US,en;q=0.9","6612e7f231d13a67b8e758cc","6877631c9844ddd5501205fc","6889e150fa636cc257e782f5","3","1","6612e7f231d13a67b8e758cc","3","1","2025-07-30T09:33:41.432Z","","","","","","","","","","","MotivationQ","","50","","","","","","","","","","","","","","","","","","","","","","","","","","","","",""
"","","","","ctl-task-cpt","74","1421156","0.0-5.0-0.13","281","1","2025-07-30 09:10:35","1f75c3e559b7213887762d5229550c2b","41.113.229.167","Mozilla/5.0 (Windows NT 10.0; Win64; x64) AppleWebKit/537.36 (KHTML, like Gecko) Chrome/138.0.0.0 Safari/537.36","WebKit","Chrome","138.0.0.0","Windows","10.0","https://app.prolific.com/","en-US,en;q=0.9","6612e7f231d13a67b8e758cc","6877631c9844ddd5501205fc","6889e150fa636cc257e782f5","3","1","6612e7f231d13a67b8e758cc","3","1","2025-07-30T09:34:18.559Z","","","","","","","","","","","","","","win-only","3","g1:SW,g2:NE","0.8","14","0","1386653.3","12617.2","17617.7","34097.8","1","4","8","6","2","8","8","32","24","0.24242424242424243","1146.3","3000","2145","[""up"",""right""]","{""num_key_presses"":6,""num_perfect"":6,""num_errors"":0,""num_randdir"":0,""num_randdir_good_moves"":0,""num_whilered"":0,""num_whileblue"":0,""num_blue"":0,""num_good_moves"":6}","[300.22232142857143,294.12857142857143,1,300.22232142857143,294.12857142857143,134.2,300.22232142857143,294.12857142857143,268.9,300.22232142857143,294.12857142857143,380.5,300.22232142857143,294.12857142857143,485.8,425.22232142857143,180.12857142857143,596.4,548.2223214285714,85.12857142857143,704.1,551.2223214285714,66.12857142857143,808.3,555.2223214285714,47.128571428571426,928.5,555.2223214285714,46.128571428571426,1033.1,555.2223214285714,46.128571428571426,1141.7,555.2223214285714,46.128571428571426,1247.2,555.2223214285714,46.128571428571426,1352.9,555.2223214285714,46.128571428571426,1458.6,555.2223214285714,46.128571428571426,1579.1,555.2223214285714,46.128571428571426,1688.8,555.2223214285714,46.128571428571426,1803.8,555.2223214285714,46.128571428571426,1906.3,555.2223214285714,46.128571428571426,2007.1,555.2223214285714,46.128571428571426,2113.8,555.2223214285714,46.128571428571426,2223,555.2223214285714,46.128571428571426,2331.4,555.2223214285714,46.128571428571426,2436.9,555.2223214285714,46.128571428571426,2542.5,555.2223214285714,46.128571428571426,2645.7,555.2223214285714,46.128571428571426,2749.8,555.2223214285714,46.128571428571426,2850.8,555.2223214285714,46.128571428571426,2951,555.2223214285714,46.128571428571426,3063.4,555.2223214285714,46.128571428571426,3166.4,555.2223214285714,46.128571428571426,3271.9,555.2223214285714,46.128571428571426,3376.2,555.2223214285714,46.128571428571426,3485.9,555.2223214285714,46.128571428571426,3593.5,555.2223214285714,46.128571428571426,3699.4,555.2223214285714,46.128571428571426,3807.1,555.2223214285714,46.128571428571426,3913.7,555.2223214285714,46.128571428571426,4024.5,555.2223214285714,46.128571428571426,4130.3,555.2223214285714,46.128571428571426,4235.1,555.2223214285714,46.128571428571426,4345.7,555.2223214285714,46.128571428571426,4460.9,555.2223214285714,46.128571428571426,4567.1,555.2223214285714,46.128571428571426,4678.3,555.2223214285714,46.128571428571426,4779.3,555.2223214285714,46.128571428571426,4892.8]","[1483.2,1483.2,1000,0,483.2,""smooth"",""up"",""up"",""good_move"",4160.8,2676.6,2302.7,1484.2,373.9,""smooth"",""up"",""up"",""good_move"",7247.2,3085.3,2686.3,4162,399,""smooth"",""up"",""up"",""good_move"",9937.3,2689.2,2105.6,7248.1,583.6,""smooth"",""right"",""right"",""good_move"",12910,2971.6,2604.8,9938.4,366.8,""smooth"",""right"",""right"",""good_move"",16281.1,3370.1,2932.9,12911,437.2,""smooth"",""right"",""right"",""good_move""]","",""
"4190","","<div style=""width:500px;"">
  <p>What determined the result of this run?</p>
