"rt","response_timestamp","stimulus","response","trial_type","trial_index","time_elapsed","internal_node_id","run_id","condition","recorded_at","source_code_version","ip","user_agent","device","browser","browser_version","platform","platform_version","referer","accept_language","PROLIFIC_PID","STUDY_ID","SESSION_ID","WEEK","prolific_id","week","realtime","success","responses","item_order","radio_event_ids","radio_event_times","key_event_times","mouse_event_times","straightlining","zigzagging","honeypot","eventType","view_history","slider_start","which_type","canvas_config","goals_layout","control_level","trial_number","tutorial_trial_number","trial_start_time","phase1_start_time","phase2_start_time","phase3_start_time","goal_1_value","goal_1_distance","goal_2_value","goal_2_distance","goal_selected","outcome","outcome_total","participant_final_score","participant_initial_score","participant_final_score_prop","goal_choice_rt","allocated_time","allocated_time_remaining","goal_direction","counts","mouse_movements","key_presses","question_order","question_id"
"6373","1752050430332","<p style='font-size:40px;line-height:1.25'><strong>Welcome to the experiment!</strong></p><p style='font-size:1.1em;line-height:1.25'>Thank you for participanting in our experiment again! You will be asked to play the Dysfunctional Ball Game again. We will briefly recap the rules before we start.</p><p style='font-size:1.1em;line-height:1.25'>Press <strong>Next</strong> to continue.</p>","0","custom-html-button-response","0","6378","0.0-0.0","11","1","2025-07-09 08:40:24","01610cd0009c79a99da7d0a3353eb402","51.36.175.7","Mozilla/5.0 (Windows NT 10.0; Win64; x64) AppleWebKit/537.36 (KHTML, like Gecko) Chrome/137.0.0.0 Safari/537.36","WebKit","Chrome","137.0.0.0","Windows","10.0","https://app.prolific.com/","en-US,en;q=0.9","65f19a1fe38352676f83d5f0","683db7602f5db6a34d12d064","686e2acd3df67b8a16f8f71a","1","65f19a1fe38352676f83d5f0","1","2025-07-09T08:40:30.334Z","","","","","","","","","","","","","","","","","","","","","","","","","","","","","","","","","","","","","","","","","",""
"3206","","","","fullscreen","1","10608","0.0-1.0","11","1","2025-07-09 08:40:24","01610cd0009c79a99da7d0a3353eb402","51.36.175.7","Mozilla/5.0 (Windows NT 10.0; Win64; x64) AppleWebKit/537.36 (KHTML, like Gecko) Chrome/137.0.0.0 Safari/537.36","WebKit","Chrome","137.0.0.0","Windows","10.0","https://app.prolific.com/","en-US,en;q=0.9","65f19a1fe38352676f83d5f0","683db7602f5db6a34d12d064","686e2acd3df67b8a16f8f71a","1","65f19a1fe38352676f83d5f0","1","","true","","","","","","","","","","","","","","","","","","","","","","","","","","","","","","","","","","","","","","","","",""
"1346","1752050435912","<p style='font-size:1.1em;line-height:1.25'>In the following, we will ask you a few questions relating to your feelings in the last 24 hours.<br></p><p style='font-size:1.1em;line-height:1.25'>Press the <strong>Next</strong> button to continue.</p>","0","custom-html-button-response","2","11956","0.0-2.0-0.0","11","1","2025-07-09 08:40:24","01610cd0009c79a99da7d0a3353eb402","51.36.175.7","Mozilla/5.0 (Windows NT 10.0; Win64; x64) AppleWebKit/537.36 (KHTML, like Gecko) Chrome/137.0.0.0 Safari/537.36","WebKit","Chrome","137.0.0.0","Windows","10.0","https://app.prolific.com/","en-US,en;q=0.9","65f19a1fe38352676f83d5f0","683db7602f5db6a34d12d064","686e2acd3df67b8a16f8f71a","1","65f19a1fe38352676f83d5f0","1","2025-07-09T08:40:35.913Z","","","","","","","","","","","","","","","","","","","","","","","","","","","","","","","","","","","","","","","","","",""
"66373.1000000001","","","","survey-template","3","78336","0.0-2.0-1.0","11","1","2025-07-09 08:40:24","01610cd0009c79a99da7d0a3353eb402","51.36.175.7","Mozilla/5.0 (Windows NT 10.0; Win64; x64) AppleWebKit/537.36 (KHTML, like Gecko) Chrome/137.0.0.0 Safari/537.36","WebKit","Chrome","137.0.0.0","Windows","10.0","https://app.prolific.com/","en-US,en;q=0.9","65f19a1fe38352676f83d5f0","683db7602f5db6a34d12d064","686e2acd3df67b8a16f8f71a","1","65f19a1fe38352676f83d5f0","1","2025-07-09T08:41:42.292Z","","{""Q01"":""4"",""Q02"":""4"",""Q03"":""4"",""Q04"":""3"",""Q05"":""5"",""Q06"":""4"",""Q07"":""4"",""Q08"":""5"",""Q09"":""5"",""Q10"":""4"",""Q11"":""4"",""Q12"":""0"",""Q13"":""5"",""Q14"":""0"",""Q15"":""0"",""Q16"":""5"",""Q17"":""5"",""Q18"":""5"",""Q19"":""5"",""Q20"":""5"",""Q21"":""4"",""Q22"":""4""}","[0,1,2,3,4,5,6,7,8,9,10,11,12,13,14,15,16,17,18,19,20,21]","[""Q01"",""Q02"",""Q03"",""Q04"",""Q05"",""Q06"",""Q07"",""Q08"",""Q09"",""Q10"",""Q11"",""Q12"",""Q13"",""Q14"",""Q15"",""Q16"",""Q17"",""Q18"",""Q19"",""Q20"",""Q20"",""Q21"",""Q22""]","[3017.5,6119,8746.200000000186,9778.600000000093,11527.80000000028,15875.900000000373,17684.30000000028,21387.700000000186,22904.700000000186,24547.80000000028,28471.400000000373,31160.5,32640.80000000028,34625.60000000009,40516.5,44937.200000000186,46263.5,47604.200000000186,50418.700000000186,56372.700000000186,57637.30000000028,59976,63069.30000000028]","[]","[0.10000000009313226,3017.5,5294.200000000186,6119,7906.4000000003725,8746.200000000186,9778.600000000093,11527.80000000028,15875.900000000373,17684.30000000028,20234.30000000028,21387.700000000186,22904.700000000186,24547.80000000028,28471.400000000373,31160.5,32640.80000000028,34625.60000000009,40516.5,44937.200000000186,46263.5,47604.200000000186,50418.700000000186,56372.700000000186,57637.30000000028,59976,63069.30000000028,66357.30000000028]","0.4090909090909091","0.38095238095238093","0","drsp","","","","","","","","","","","","","","","","","","","","","","","","","","","","","","",""
"12167.100000000093","","","","survey-template","4","90506","0.0-2.0-2.0","11","1","2025-07-09 08:40:24","01610cd0009c79a99da7d0a3353eb402","51.36.175.7","Mozilla/5.0 (Windows NT 10.0; Win64; x64) AppleWebKit/537.36 (KHTML, like Gecko) Chrome/137.0.0.0 Safari/537.36","WebKit","Chrome","137.0.0.0","Windows","10.0","https://app.prolific.com/","en-US,en;q=0.9","65f19a1fe38352676f83d5f0","683db7602f5db6a34d12d064","686e2acd3df67b8a16f8f71a","1","65f19a1fe38352676f83d5f0","1","2025-07-09T08:41:54.462Z","","{""Q01"":""4"",""Q02"":""5"",""Q03"":""4""}","[0,1,2]","[""Q01"",""Q02"",""Q03""]","[4361.200000000186,8883.100000000093,10854.899999999907]","[]","[4361.200000000186,8183.399999999907,8883.100000000093,10854.899999999907,12165.200000000186]","0.6666666666666666","0","0","stress","","","","","","","","","","","","","","","","","","","","","","","","","","","","","","",""
"14841","","","","instructions","5","105348","0.0-3.0-0.0","11","1","2025-07-09 08:40:24","01610cd0009c79a99da7d0a3353eb402","51.36.175.7","Mozilla/5.0 (Windows NT 10.0; Win64; x64) AppleWebKit/537.36 (KHTML, like Gecko) Chrome/137.0.0.0 Safari/537.36","WebKit","Chrome","137.0.0.0","Windows","10.0","https://app.prolific.com/","en-US,en;q=0.9","65f19a1fe38352676f83d5f0","683db7602f5db6a34d12d064","686e2acd3df67b8a16f8f71a","1","65f19a1fe38352676f83d5f0","1","","","","","","","","","","","","","[{""page_index"":0,""viewing_time"":14840}]","","","","","","","","","","","","","","","","","","","","","","","","","","","","","",""
"6277","","<p>Before you start with this game please answer the following three questions yourself. </p>
  <p>Through this game, we measure several aspects of your cognitive performance, such as reaction times, multi-tasking capabilities </p>
  <p>and the ability to assess the situation you are in.</p>
  <p></p>
  <p><b>How good do you usually are in such tasks?</b></p>","55","html-slider-response","6","111628","0.0-4.0-0.0","11","1","2025-07-09 08:40:24","01610cd0009c79a99da7d0a3353eb402","51.36.175.7","Mozilla/5.0 (Windows NT 10.0; Win64; x64) AppleWebKit/537.36 (KHTML, like Gecko) Chrome/137.0.0.0 Safari/537.36","WebKit","Chrome","137.0.0.0","Windows","10.0","https://app.prolific.com/","en-US,en;q=0.9","65f19a1fe38352676f83d5f0","683db7602f5db6a34d12d064","686e2acd3df67b8a16f8f71a","1","65f19a1fe38352676f83d5f0","1","2025-07-09T08:42:15.584Z","","","","","","","","","","","PreSkillQ","","50","","","","","","","","","","","","","","","","","","","","","","","","","","","","",""
"7858","","<div style=""width:500px;"">
  <p>How well do you think you will perform in this task compared to other participants?</p>
  </div>","50","html-slider-response","7","119489","0.0-4.0-1.0","11","1","2025-07-09 08:40:24","01610cd0009c79a99da7d0a3353eb402","51.36.175.7","Mozilla/5.0 (Windows NT 10.0; Win64; x64) AppleWebKit/537.36 (KHTML, like Gecko) Chrome/137.0.0.0 Safari/537.36","WebKit","Chrome","137.0.0.0","Windows","10.0","https://app.prolific.com/","en-US,en;q=0.9","65f19a1fe38352676f83d5f0","683db7602f5db6a34d12d064","686e2acd3df67b8a16f8f71a","1","65f19a1fe38352676f83d5f0","1","2025-07-09T08:42:23.445Z","","","","","","","","","","","PrePerfQ","","50","","","","","","","","","","","","","","","","","","","","","","","","","","","","",""
"5521","","<div style=""width:500px;"">
  <p>What best describes how you currently feel?</p>
  </div>","45","html-slider-response","8","125012","0.0-4.0-2.0","11","1","2025-07-09 08:40:24","01610cd0009c79a99da7d0a3353eb402","51.36.175.7","Mozilla/5.0 (Windows NT 10.0; Win64; x64) AppleWebKit/537.36 (KHTML, like Gecko) Chrome/137.0.0.0 Safari/537.36","WebKit","Chrome","137.0.0.0","Windows","10.0","https://app.prolific.com/","en-US,en;q=0.9","65f19a1fe38352676f83d5f0","683db7602f5db6a34d12d064","686e2acd3df67b8a16f8f71a","1","65f19a1fe38352676f83d5f0","1","2025-07-09T08:42:28.968Z","","","","","","","","","","","PreMotivationQ","","50","","","","","","","","","","","","","","","","","","","","","","","","","","","","",""
"","","","","ctl-task-cpt","9","148730","0.0-5.0-0.0","11","1","2025-07-09 08:40:24","01610cd0009c79a99da7d0a3353eb402","51.36.175.7","Mozilla/5.0 (Windows NT 10.0; Win64; x64) AppleWebKit/537.36 (KHTML, like Gecko) Chrome/137.0.0.0 Safari/537.36","WebKit","Chrome","137.0.0.0","Windows","10.0","https://app.prolific.com/","en-US,en;q=0.9","65f19a1fe38352676f83d5f0","683db7602f5db6a34d12d064","686e2acd3df67b8a16f8f71a","1","65f19a1fe38352676f83d5f0","1","2025-07-09T08:42:52.686Z","","","","","","","","","","","","","","win-only","3","g1:SW,g2:NE","1","1","0","128168.6","3864.6","8867.3","20710.5","1","4","4","6","1","1","1","1","0","0.007575757575757576","1626.8","3000","905","[""down"",""left""]","{""num_key_presses"":4,""num_perfect"":4,""num_errors"":0,""num_randdir"":0,""num_randdir_good_moves"":0,""num_whilered"":0,""num_whileblue"":0,""num_blue"":0,""num_good_moves"":4}","[417.8214133126395,421.57142761775424,0.5,417.8214133126395,421.57142761775424,102.5,417.8214133126395,421.57142761775424,206.1,417.8214133126395,421.57142761775424,306.1,417.8214133126395,421.57142761775424,406.6,417.8214133126395,421.57142761775424,507,426.5714133126395,406.57142761775424,610.9,505.3214133126395,301.57142761775424,712,546.5714133126395,219.07142761775424,816.1,522.8214133126395,221.57142761775424,916.8,161.5714133126395,554.0714276177542,1017.4,-5.928586687360493,765.3214276177542,1121.3,4.071413312639507,770.3214276177542,1221.6,45.32141331263951,759.0714276177542,1326.5,61.57141331263951,741.5714276177542,1431.2,62.82141331263951,741.5714276177542,1534.7,62.82141331263951,741.5714276177542,1636.7,62.82141331263951,741.5714276177542,1743.8,62.82141331263951,741.5714276177542,1849.7,62.82141331263951,741.5714276177542,1951.3,62.82141331263951,741.5714276177542,2056.4,62.82141331263951,741.5714276177542,2157.9,-108.4285866873605,715.3214276177542,2261.3,-144.6785866873605,715.3214276177542,2366.9,-144.6785866873605,715.3214276177542,2471.4,-144.6785866873605,715.3214276177542,2576.5,-144.6785866873605,715.3214276177542,2677.3,-144.6785866873605,715.3214276177542,2782.5,-144.6785866873605,715.3214276177542,2886.2,-144.6785866873605,715.3214276177542,2987,-144.6785866873605,715.3214276177542,3086.9,-144.6785866873605,715.3214276177542,3192.4,-144.6785866873605,715.3214276177542,3296,-144.6785866873605,715.3214276177542,3396.2,-144.6785866873605,715.3214276177542,3496.7,-144.6785866873605,715.3214276177542,3602.8,-144.6785866873605,715.3214276177542,3707,-144.6785866873605,715.3214276177542,3811.9,-144.6785866873605,715.3214276177542,3916.7,-144.6785866873605,715.3214276177542,4021.9,-144.6785866873605,715.3214276177542,4126.8,-144.6785866873605,715.3214276177542,4231.4,-144.6785866873605,715.3214276177542,4332.3,-144.6785866873605,715.3214276177542,4435.9,-144.6785866873605,715.3214276177542,4536.4,-144.6785866873605,715.3214276177542,4641.6,-144.6785866873605,715.3214276177542,4746.3,-144.6785866873605,715.3214276177542,4846.4,-144.6785866873605,715.3214276177542,4946.4]","[1498.3,1498.3,1000,0,498.3,""smooth"",""left"",""left"",""good_move"",5498,3999.2,3368.2,1498.8,631,""smooth"",""down"",""down"",""good_move"",8926,3427.5,2838.7,5498.6,588.8,""smooth"",""down"",""down"",""good_move"",11741.3,2814.9,2369.7,8926.4,445.2,""smooth"",""left"",""left"",""good_move""]","",""
"11846","","<div style=""width:500px;"">
  <p>What determined the result of this run?</p>
  </div>","56","html-slider-response","10","160578","0.0-5.0-1.0","11","1","2025-07-09 08:40:24","01610cd0009c79a99da7d0a3353eb402","51.36.175.7","Mozilla/5.0 (Windows NT 10.0; Win64; x64) AppleWebKit/537.36 (KHTML, like Gecko) Chrome/137.0.0.0 Safari/537.36","WebKit","Chrome","137.0.0.0","Windows","10.0","https://app.prolific.com/","en-US,en;q=0.9","65f19a1fe38352676f83d5f0","683db7602f5db6a34d12d064","686e2acd3df67b8a16f8f71a","1","65f19a1fe38352676f83d5f0","1","2025-07-09T08:43:04.534Z","","","","","","","","","","","AttribQ","","50","","","","","","","","","","","","","","","","","","","","","","","","","","","","",""
"9077","","<div style=""width:500px;"">
  <p>How much control did you have over the ball?</p>
  </div>","63","html-slider-response","11","169658","0.0-5.0-2.0","11","1","2025-07-09 08:40:24","01610cd0009c79a99da7d0a3353eb402","51.36.175.7","Mozilla/5.0 (Windows NT 10.0; Win64; x64) AppleWebKit/537.36 (KHTML, like Gecko) Chrome/137.0.0.0 Safari/537.36","WebKit","Chrome","137.0.0.0","Windows","10.0","https://app.prolific.com/","en-US,en;q=0.9","65f19a1fe38352676f83d5f0","683db7602f5db6a34d12d064","686e2acd3df67b8a16f8f71a","1","65f19a1fe38352676f83d5f0","1","2025-07-09T08:43:13.614Z","","","","","","","","","","","ControlQ","","50","","","","","","","","","","","","","","","","","","","","","","","","","","","","",""
"5652","","<div style=""width:500px;"">
  <p>How would you describe your current emotional state?</p>
  </div>","52","html-slider-response","12","175312","0.0-5.0-3.0","11","1","2025-07-09 08:40:24","01610cd0009c79a99da7d0a3353eb402","51.36.175.7","Mozilla/5.0 (Windows NT 10.0; Win64; x64) AppleWebKit/537.36 (KHTML, like Gecko) Chrome/137.0.0.0 Safari/537.36","WebKit","Chrome","137.0.0.0","Windows","10.0","https://app.prolific.com/","en-US,en;q=0.9","65f19a1fe38352676f83d5f0","683db7602f5db6a34d12d064","686e2acd3df67b8a16f8f71a","1","65f19a1fe38352676f83d5f0","1","2025-07-09T08:43:19.268Z","","","","","","","","","","","StressQ","","50","","","","","","","","","","","","","","","","","","","","","","","","","","","","",""
"5383","","<div style=""width:500px;"">
  <p>What best describes how you currently feel?</p>
  </div>","49","html-slider-response","13","180696","0.0-5.0-4.0","11","1","2025-07-09 08:40:24","01610cd0009c79a99da7d0a3353eb402","51.36.175.7","Mozilla/5.0 (Windows NT 10.0; Win64; x64) AppleWebKit/537.36 (KHTML, like Gecko) Chrome/137.0.0.0 Safari/537.36","WebKit","Chrome","137.0.0.0","Windows","10.0","https://app.prolific.com/","en-US,en;q=0.9","65f19a1fe38352676f83d5f0","683db7602f5db6a34d12d064","686e2acd3df67b8a16f8f71a","1","65f19a1fe38352676f83d5f0","1","2025-07-09T08:43:24.652Z","","","","","","","","","","","MotivationQ","","50","","","","","","","","","","","","","","","","","","","","","","","","","","","","",""
"","","","","ctl-task-cpt","14","209794","0.0-5.0-0.1","11","1","2025-07-09 08:40:24","01610cd0009c79a99da7d0a3353eb402","51.36.175.7","Mozilla/5.0 (Windows NT 10.0; Win64; x64) AppleWebKit/537.36 (KHTML, like Gecko) Chrome/137.0.0.0 Safari/537.36","WebKit","Chrome","137.0.0.0","Windows","10.0","https://app.prolific.com/","en-US,en;q=0.9","65f19a1fe38352676f83d5f0","683db7602f5db6a34d12d064","686e2acd3df67b8a16f8f71a","1","65f19a1fe38352676f83d5f0","1","2025-07-09T08:43:53.750Z","","","","","","","","","","","","","","win-only","2","g1:SE,g2:NW","0.9","2","0","183848.8","1425.4","6426.7","26086.1","1","4","8","6","1","1","1","2","1","0.015151515151515152","1452.4","3000","560","[""down"",""right""]","{""num_key_presses"":6,""num_perfect"":5,""num_errors"":0,""num_randdir"":1,""num_randdir_good_moves"":0,""num_whilered"":0,""num_whileblue"":0,""num_blue"":1,""num_good_moves"":5}","[420.3214133126395,426.57142761775424,0.3,420.3214133126395,426.57142761775424,102,420.3214133126395,426.57142761775424,202.2,420.3214133126395,426.57142761775424,306.3,420.3214133126395,426.57142761775424,410.9,420.3214133126395,426.57142761775424,511.4,406.5714133126395,374.07142761775424,615.9,414.0714133126395,366.57142761775424,720.5,699.0714133126395,586.5714276177542,825.8,741.5714133126395,662.8214276177542,931.1,741.5714133126395,665.3214276177542,1035.9,729.0714133126395,729.0714276177542,1141,731.5714133126395,767.8214276177542,1245.8,731.5714133126395,767.8214276177542,1350.2,731.5714133126395,767.8214276177542,1451.2,731.5714133126395,767.8214276177542,1555.3,731.5714133126395,767.8214276177542,1656.1,731.5714133126395,767.8214276177542,1760.7,731.5714133126395,767.8214276177542,1865.9,235.3214133126395,411.57142761775424,1971.2,-117.1785866873605,322.82142761775424,2075.7,-142.1785866873605,317.82142761775424,2181.5,-144.6785866873605,316.57142761775424,2281.8,-144.6785866873605,316.57142761775424,2382.8,-144.6785866873605,316.57142761775424,2485.9,-144.6785866873605,316.57142761775424,2586.1,-144.6785866873605,316.57142761775424,2690.2,-144.6785866873605,316.57142761775424,2791,-144.6785866873605,316.57142761775424,2891.3,-144.6785866873605,316.57142761775424,2996.4,-144.6785866873605,316.57142761775424,3100.4,-144.6785866873605,316.57142761775424,3201,-144.6785866873605,316.57142761775424,3302.1,-144.6785866873605,316.57142761775424,3403,-144.6785866873605,316.57142761775424,3505.8,-144.6785866873605,316.57142761775424,3610.5,-144.6785866873605,316.57142761775424,3711.2,-144.6785866873605,316.57142761775424,3815.8,-144.6785866873605,316.57142761775424,3920.6,-144.6785866873605,316.57142761775424,4026.2,-144.6785866873605,316.57142761775424,4132.2,-144.6785866873605,316.57142761775424,4235.8,-144.6785866873605,316.57142761775424,4340.7,-144.6785866873605,316.57142761775424,4446.8,-144.6785866873605,316.57142761775424,4546.8,-144.6785866873605,316.57142761775424,4647,-144.6785866873605,316.57142761775424,4747,-144.6785866873605,316.57142761775424,4851.4,-144.6785866873605,316.57142761775424,4956.1]","[1537.5,1537.5,1000,0,537.5,""smooth"",""down"",""down"",""good_move"",4362.4,2824.4,2461,1538.1,363.3,""oops"",""down"",""left"",""bad_move"",6832.8,2469.9,2074.5,4363,395.3,""smooth"",""down"",""down"",""good_move"",13589.9,6756.9,3203,9974.5,412.4,""smooth"",""right"",""right"",""good_move"",16362.6,2772.3,2400.2,13590.3,372.2,""smooth"",""right"",""right"",""good_move"",19574.1,3211.2,2807.6,16362.9,403.6,""smooth"",""right"",""right"",""good_move""]","",""
"3934","","<div style=""width:500px;"">
  <p>What determined the result of this run?</p>
  </div>","54","html-slider-response","15","213730","0.0-5.0-1.1","11","1","2025-07-09 08:40:24","01610cd0009c79a99da7d0a3353eb402","51.36.175.7","Mozilla/5.0 (Windows NT 10.0; Win64; x64) AppleWebKit/537.36 (KHTML, like Gecko) Chrome/137.0.0.0 Safari/537.36","WebKit","Chrome","137.0.0.0","Windows","10.0","https://app.prolific.com/","en-US,en;q=0.9","65f19a1fe38352676f83d5f0","683db7602f5db6a34d12d064","686e2acd3df67b8a16f8f71a","1","65f19a1fe38352676f83d5f0","1","2025-07-09T08:43:57.686Z","","","","","","","","","","","AttribQ","","50","","","","","","","","","","","","","","","","","","","","","","","","","","","","",""
"2903","","<div style=""width:500px;"">
  <p>How much control did you have over the ball?</p>
  </div>","56","html-slider-response","16","216635","0.0-5.0-2.1","11","1","2025-07-09 08:40:24","01610cd0009c79a99da7d0a3353eb402","51.36.175.7","Mozilla/5.0 (Windows NT 10.0; Win64; x64) AppleWebKit/537.36 (KHTML, like Gecko) Chrome/137.0.0.0 Safari/537.36","WebKit","Chrome","137.0.0.0","Windows","10.0","https://app.prolific.com/","en-US,en;q=0.9","65f19a1fe38352676f83d5f0","683db7602f5db6a34d12d064","686e2acd3df67b8a16f8f71a","1","65f19a1fe38352676f83d5f0","1","2025-07-09T08:44:00.591Z","","","","","","","","","","","ControlQ","","50","","","","","","","","","","","","","","","","","","","","","","","","","","","","",""
"3857","","<div style=""width:500px;"">
  <p>How would you describe your current emotional state?</p>
  </div>","51","html-slider-response","17","220493","0.0-5.0-3.1","11","1","2025-07-09 08:40:24","01610cd0009c79a99da7d0a3353eb402","51.36.175.7","Mozilla/5.0 (Windows NT 10.0; Win64; x64) AppleWebKit/537.36 (KHTML, like Gecko) Chrome/137.0.0.0 Safari/537.36","WebKit","Chrome","137.0.0.0","Windows","10.0","https://app.prolific.com/","en-US,en;q=0.9","65f19a1fe38352676f83d5f0","683db7602f5db6a34d12d064","686e2acd3df67b8a16f8f71a","1","65f19a1fe38352676f83d5f0","1","2025-07-09T08:44:04.450Z","","","","","","","","","","","StressQ","","50","","","","","","","","","","","","","","","","","","","","","","","","","","","","",""
"5479","","<div style=""width:500px;"">
  <p>What best describes how you currently feel?</p>
  </div>","47","html-slider-response","18","225974","0.0-5.0-4.1","11","1","2025-07-09 08:40:24","01610cd0009c79a99da7d0a3353eb402","51.36.175.7","Mozilla/5.0 (Windows NT 10.0; Win64; x64) AppleWebKit/537.36 (KHTML, like Gecko) Chrome/137.0.0.0 Safari/537.36","WebKit","Chrome","137.0.0.0","Windows","10.0","https://app.prolific.com/","en-US,en;q=0.9","65f19a1fe38352676f83d5f0","683db7602f5db6a34d12d064","686e2acd3df67b8a16f8f71a","1","65f19a1fe38352676f83d5f0","1","2025-07-09T08:44:09.930Z","","","","","","","","","","","MotivationQ","","50","","","","","","","","","","","","","","","","","","","","","","","","","","","","",""
"","","","","ctl-task-cpt","19","251579","0.0-5.0-0.2","11","1","2025-07-09 08:40:24","01610cd0009c79a99da7d0a3353eb402","51.36.175.7","Mozilla/5.0 (Windows NT 10.0; Win64; x64) AppleWebKit/537.36 (KHTML, like Gecko) Chrome/137.0.0.0 Safari/537.36","WebKit","Chrome","137.0.0.0","Windows","10.0","https://app.prolific.com/","en-US,en;q=0.9","65f19a1fe38352676f83d5f0","683db7602f5db6a34d12d064","686e2acd3df67b8a16f8f71a","1","65f19a1fe38352676f83d5f0","1","2025-07-09T08:44:35.536Z","","","","","","","","","","","","","","win-only","3","g1:SW,g2:NE","0.8","3","0","229127.2","1776.2","6781.8","22588.7","1","4","4","6","1","1","1","3","2","0.022727272727272728","1275.3","3000","1295","[""down"",""left""]","{""num_key_presses"":4,""num_perfect"":4,""num_errors"":0,""num_randdir"":0,""num_randdir_good_moves"":0,""num_whilered"":0,""num_whileblue"":0,""num_blue"":2,""num_good_moves"":4}","[416.5714133126395,425.32142761775424,0.3,416.5714133126395,425.32142761775424,102.2,416.5714133126395,425.32142761775424,204,416.5714133126395,425.32142761775424,304.1,416.5714133126395,425.32142761775424,404.6,416.5714133126395,425.32142761775424,504.6,435.3214133126395,406.57142761775424,610.2,436.5714133126395,404.07142761775424,715.3,171.5714133126395,776.5714276177542,818.9,141.5714133126395,797.8214276177542,920.1,136.5714133126395,792.8214276177542,1024.6,44.07141331263951,761.5714276177542,1125.6,41.57141331263951,761.5714276177542,1230.2,41.57141331263951,761.5714276177542,1336.5,41.57141331263951,761.5714276177542,1439.2,41.57141331263951,761.5714276177542,1540,41.57141331263951,761.5714276177542,1640.2,-229.6785866873605,710.3214276177542,1744.6,-317.1785866873605,684.0714276177542,1844.7,-317.1785866873605,684.0714276177542,1949.4,-317.1785866873605,684.0714276177542,2052.8,-317.1785866873605,684.0714276177542,2154.2,-317.1785866873605,684.0714276177542,2255.7,-317.1785866873605,684.0714276177542,2359.9,-317.1785866873605,684.0714276177542,2465.4,-317.1785866873605,684.0714276177542,2569.8,-317.1785866873605,684.0714276177542,2674.2,-317.1785866873605,684.0714276177542,2774.7,-317.1785866873605,684.0714276177542,2875.6,-317.1785866873605,684.0714276177542,2980.9,-317.1785866873605,684.0714276177542,3084.3,-317.1785866873605,684.0714276177542,3184.8,-317.1785866873605,684.0714276177542,3285.4,-317.1785866873605,684.0714276177542,3389.2,-317.1785866873605,684.0714276177542,3489.3,-317.1785866873605,684.0714276177542,3595.4,-317.1785866873605,684.0714276177542,3695.7,-317.1785866873605,684.0714276177542,3801,-317.1785866873605,684.0714276177542,3905.4,-317.1785866873605,684.0714276177542,4010.4,-317.1785866873605,684.0714276177542,4115.6,-317.1785866873605,684.0714276177542,4219.1,-317.1785866873605,684.0714276177542,4320.1,-317.1785866873605,684.0714276177542,4425.4,-317.1785866873605,684.0714276177542,4529.9,-317.1785866873605,684.0714276177542,4634.4,-317.1785866873605,684.0714276177542,4734.4,-317.1785866873605,684.0714276177542,4835.5,-317.1785866873605,684.0714276177542,4939.9]","[1430.5,1430.5,1000,0,430.5,""smooth"",""down"",""down"",""good_move"",10294.2,8863.4,2292.7,7594.4,407.1,""smooth"",""down"",""down"",""good_move"",12979.1,2684.5,2165,10294.6,519.5,""smooth"",""left"",""left"",""good_move"",15717.6,2738,2352.3,12979.6,385.7,""smooth"",""left"",""left"",""good_move""]","",""
"41946","","<div style=""width:500px;"">
  <p>What determined the result of this run?</p>
  </div>","54","html-slider-response","20","293527","0.0-5.0-1.2","11","1","2025-07-09 08:40:24","01610cd0009c79a99da7d0a3353eb402","51.36.175.7","Mozilla/5.0 (Windows NT 10.0; Win64; x64) AppleWebKit/537.36 (KHTML, like Gecko) Chrome/137.0.0.0 Safari/537.36","WebKit","Chrome","137.0.0.0","Windows","10.0","https://app.prolific.com/","en-US,en;q=0.9","65f19a1fe38352676f83d5f0","683db7602f5db6a34d12d064","686e2acd3df67b8a16f8f71a","1","65f19a1fe38352676f83d5f0","1","2025-07-09T08:45:17.483Z","","","","","","","","","","","AttribQ","","50","","","","","","","","","","","","","","","","","","","","","","","","","","","","",""
"3980","","<div style=""width:500px;"">
  <p>How much control did you have over the ball?</p>
  </div>","53","html-slider-response","21","297509","0.0-5.0-2.2","11","1","2025-07-09 08:40:24","01610cd0009c79a99da7d0a3353eb402","51.36.175.7","Mozilla/5.0 (Windows NT 10.0; Win64; x64) AppleWebKit/537.36 (KHTML, like Gecko) Chrome/137.0.0.0 Safari/537.36","WebKit","Chrome","137.0.0.0","Windows","10.0","https://app.prolific.com/","en-US,en;q=0.9","65f19a1fe38352676f83d5f0","683db7602f5db6a34d12d064","686e2acd3df67b8a16f8f71a","1","65f19a1fe38352676f83d5f0","1","2025-07-09T08:45:21.465Z","","","","","","","","","","","ControlQ","","50","","","","","","","","","","","","","","","","","","","","","","","","","","","","",""
"31742","","<div style=""width:500px;"">
  <p>How would you describe your current emotional state?</p>
  </div>","52","html-slider-response","22","329251","0.0-5.0-3.2","11","1","2025-07-09 08:40:24","01610cd0009c79a99da7d0a3353eb402","51.36.175.7","Mozilla/5.0 (Windows NT 10.0; Win64; x64) AppleWebKit/537.36 (KHTML, like Gecko) Chrome/137.0.0.0 Safari/537.36","WebKit","Chrome","137.0.0.0","Windows","10.0","https://app.prolific.com/","en-US,en;q=0.9","65f19a1fe38352676f83d5f0","683db7602f5db6a34d12d064","686e2acd3df67b8a16f8f71a","1","65f19a1fe38352676f83d5f0","1","2025-07-09T08:45:53.207Z","","","","","","","","","","","StressQ","","50","","","","","","","","","","","","","","","","","","","","","","","","","","","","",""
"3287","","<div style=""width:500px;"">
  <p>What best describes how you currently feel?</p>
  </div>","48","html-slider-response","23","332539","0.0-5.0-4.2","11","1","2025-07-09 08:40:24","01610cd0009c79a99da7d0a3353eb402","51.36.175.7","Mozilla/5.0 (Windows NT 10.0; Win64; x64) AppleWebKit/537.36 (KHTML, like Gecko) Chrome/137.0.0.0 Safari/537.36","WebKit","Chrome","137.0.0.0","Windows","10.0","https://app.prolific.com/","en-US,en;q=0.9","65f19a1fe38352676f83d5f0","683db7602f5db6a34d12d064","686e2acd3df67b8a16f8f71a","1","65f19a1fe38352676f83d5f0","1","2025-07-09T08:45:56.496Z","","","","","","","","","","","MotivationQ","","50","","","","","","","","","","","","","","","","","","","","","","","","","","","","",""
"","","","","ctl-task-cpt","24","358215","0.0-5.0-0.3","11","1","2025-07-09 08:40:24","01610cd0009c79a99da7d0a3353eb402","51.36.175.7","Mozilla/5.0 (Windows NT 10.0; Win64; x64) AppleWebKit/537.36 (KHTML, like Gecko) Chrome/137.0.0.0 Safari/537.36","WebKit","Chrome","137.0.0.0","Windows","10.0","https://app.prolific.com/","en-US,en;q=0.9","65f19a1fe38352676f83d5f0","683db7602f5db6a34d12d064","686e2acd3df67b8a16f8f71a","1","65f19a1fe38352676f83d5f0","1","2025-07-09T08:46:22.171Z","","","","","","","","","","","","","","win-only","2","g1:SE,g2:NW","0.7","4","0","335693.5","1032.3","6036.6","22655.8","1","4","8","6","1","1","1","4","3","0.030303030303030304","1389.2","3000","1270","[""down"",""right""]","{""num_key_presses"":4,""num_perfect"":3,""num_errors"":0,""num_randdir"":1,""num_randdir_good_moves"":1,""num_whilered"":0,""num_whileblue"":0,""num_blue"":2,""num_good_moves"":4}","[407.8214133126395,419.07142761775424,0.4,407.8214133126395,419.07142761775424,103.2,407.8214133126395,419.07142761775424,208.1,407.8214133126395,419.07142761775424,308.1,407.8214133126395,419.07142761775424,408.2,407.8214133126395,419.07142761775424,513.8,576.5714133126395,564.0714276177542,617.7,731.5714133126395,714.0714276177542,718.6,732.8214133126395,716.5714276177542,823.1,732.8214133126395,716.5714276177542,924.2,735.3214133126395,721.5714276177542,1024.4,744.0714133126395,731.5714276177542,1130.1,745.3214133126395,731.5714276177542,1234.7,745.3214133126395,732.8214276177542,1338.2,745.3214133126395,732.8214276177542,1438.5,745.3214133126395,732.8214276177542,1538.8,745.3214133126395,732.8214276177542,1643,745.3214133126395,732.8214276177542,1743.2,476.5714133126395,629.0714276177542,1844.4,-253.4285866873605,471.57142761775424,1949.4,-258.4285866873605,466.57142761775424,2053.2,-258.4285866873605,466.57142761775424,2153.9,-258.4285866873605,466.57142761775424,2254.5,-258.4285866873605,466.57142761775424,2358.5,-258.4285866873605,466.57142761775424,2464.6,-258.4285866873605,466.57142761775424,2568.2,-258.4285866873605,466.57142761775424,2668.2,-258.4285866873605,466.57142761775424,2768.3,-258.4285866873605,466.57142761775424,2873.7,-258.4285866873605,466.57142761775424,2974.1,-258.4285866873605,466.57142761775424,3078.9,-258.4285866873605,466.57142761775424,3183.2,-258.4285866873605,466.57142761775424,3284.1,-258.4285866873605,466.57142761775424,3388.4,-258.4285866873605,466.57142761775424,3488.7,-258.4285866873605,466.57142761775424,3589.1,-258.4285866873605,466.57142761775424,3693.3,-258.4285866873605,466.57142761775424,3794.9,-258.4285866873605,466.57142761775424,3900.4,-258.4285866873605,466.57142761775424,4003.9,-258.4285866873605,466.57142761775424,4109,-258.4285866873605,466.57142761775424,4215.2,-258.4285866873605,466.57142761775424,4316.6,-258.4285866873605,466.57142761775424,4418.3,-258.4285866873605,466.57142761775424,4518.9,-258.4285866873605,466.57142761775424,4624,-258.4285866873605,466.57142761775424,4724,-258.4285866873605,466.57142761775424,4824.3,-258.4285866873605,466.57142761775424,4930.1]","[8553.3,8553.3,2168.7,5929.4,455.2,""oops"",""down"",""right"",""good_move"",11020.3,2466.6,2000,8553.7,466.6,""smooth"",""down"",""down"",""good_move"",13634.7,2614.1,2212.8,11020.7,401.3,""smooth"",""down"",""down"",""good_move"",16525.9,2891,2458.5,13634.9,432.5,""smooth"",""right"",""right"",""good_move""]","",""
"4429","","<div style=""width:500px;"">
  <p>What determined the result of this run?</p>
  </div>","55","html-slider-response","25","362645","0.0-5.0-1.3","11","1","2025-07-09 08:40:24","01610cd0009c79a99da7d0a3353eb402","51.36.175.7","Mozilla/5.0 (Windows NT 10.0; Win64; x64) AppleWebKit/537.36 (KHTML, like Gecko) Chrome/137.0.0.0 Safari/537.36","WebKit","Chrome","137.0.0.0","Windows","10.0","https://app.prolific.com/","en-US,en;q=0.9","65f19a1fe38352676f83d5f0","683db7602f5db6a34d12d064","686e2acd3df67b8a16f8f71a","1","65f19a1fe38352676f83d5f0","1","2025-07-09T08:46:26.601Z","","","","","","","","","","","AttribQ","","50","","","","","","","","","","","","","","","","","","","","","","","","","","","","",""
"3104","","<div style=""width:500px;"">
  <p>How much control did you have over the ball?</p>
  </div>","57","html-slider-response","26","365750","0.0-5.0-2.3","11","1","2025-07-09 08:40:24","01610cd0009c79a99da7d0a3353eb402","51.36.175.7","Mozilla/5.0 (Windows NT 10.0; Win64; x64) AppleWebKit/537.36 (KHTML, like Gecko) Chrome/137.0.0.0 Safari/537.36","WebKit","Chrome","137.0.0.0","Windows","10.0","https://app.prolific.com/","en-US,en;q=0.9","65f19a1fe38352676f83d5f0","683db7602f5db6a34d12d064","686e2acd3df67b8a16f8f71a","1","65f19a1fe38352676f83d5f0","1","2025-07-09T08:46:29.707Z","","","","","","","","","","","ControlQ","","50","","","","","","","","","","","","","","","","","","","","","","","","","","","","",""
"3389","","<div style=""width:500px;"">
  <p>How would you describe your current emotional state?</p>
  </div>","53","html-slider-response","27","369141","0.0-5.0-3.3","11","1","2025-07-09 08:40:24","01610cd0009c79a99da7d0a3353eb402","51.36.175.7","Mozilla/5.0 (Windows NT 10.0; Win64; x64) AppleWebKit/537.36 (KHTML, like Gecko) Chrome/137.0.0.0 Safari/537.36","WebKit","Chrome","137.0.0.0","Windows","10.0","https://app.prolific.com/","en-US,en;q=0.9","65f19a1fe38352676f83d5f0","683db7602f5db6a34d12d064","686e2acd3df67b8a16f8f71a","1","65f19a1fe38352676f83d5f0","1","2025-07-09T08:46:33.097Z","","","","","","","","","","","StressQ","","50","","","","","","","","","","","","","","","","","","","","","","","","","","","","",""
"2975","","<div style=""width:500px;"">
  <p>What best describes how you currently feel?</p>
  </div>","46","html-slider-response","28","372117","0.0-5.0-4.3","11","1","2025-07-09 08:40:24","01610cd0009c79a99da7d0a3353eb402","51.36.175.7","Mozilla/5.0 (Windows NT 10.0; Win64; x64) AppleWebKit/537.36 (KHTML, like Gecko) Chrome/137.0.0.0 Safari/537.36","WebKit","Chrome","137.0.0.0","Windows","10.0","https://app.prolific.com/","en-US,en;q=0.9","65f19a1fe38352676f83d5f0","683db7602f5db6a34d12d064","686e2acd3df67b8a16f8f71a","1","65f19a1fe38352676f83d5f0","1","2025-07-09T08:46:36.073Z","","","","","","","","","","","MotivationQ","","50","","","","","","","","","","","","","","","","","","","","","","","","","","","","",""
"","","","","ctl-task-cpt","29","435571","0.0-5.0-0.4","11","1","2025-07-09 08:40:24","01610cd0009c79a99da7d0a3353eb402","51.36.175.7","Mozilla/5.0 (Windows NT 10.0; Win64; x64) AppleWebKit/537.36 (KHTML, like Gecko) Chrome/137.0.0.0 Safari/537.36","WebKit","Chrome","137.0.0.0","Windows","10.0","https://app.prolific.com/","en-US,en;q=0.9","65f19a1fe38352676f83d5f0","683db7602f5db6a34d12d064","686e2acd3df67b8a16f8f71a","1","65f19a1fe38352676f83d5f0","1","2025-07-09T08:47:39.527Z","","","","","","","","","","","","","","win-only","0","g1:NW,g2:SE","0.6","5","0","375270.5","33433.6","38437.1","60435.5","1","4","8","6","1","-1","-1","3","4","0.022727272727272728","1180.4","3000","-2995","[""left"",""up""]","{""num_key_presses"":7,""num_perfect"":4,""num_errors"":0,""num_randdir"":3,""num_randdir_good_moves"":1,""num_whilered"":0,""num_whileblue"":0,""num_blue"":0,""num_good_moves"":5}","[426.5714133126395,421.57142761775424,0.2,426.5714133126395,421.57142761775424,102.1,426.5714133126395,421.57142761775424,202.7,426.5714133126395,421.57142761775424,309.7,426.5714133126395,421.57142761775424,412,426.5714133126395,421.57142761775424,512.4,227.8214133126395,300.32142761775424,617.1,131.5714133126395,187.82142761775424,717.9,129.0714133126395,185.32142761775424,822.7,111.5714133126395,121.57142761775425,927.5,86.5714133126395,77.82142761775425,1032.6,86.5714133126395,77.82142761775425,1137.2,86.5714133126395,77.82142761775425,1241.7,86.5714133126395,77.82142761775425,1342.4,86.5714133126395,77.82142761775425,1442.7,86.5714133126395,77.82142761775425,1547,86.5714133126395,77.82142761775425,1647.6,1.571413312639507,106.57142761775425,1754.1,-103.4285866873605,145.32142761775424,1858.6,-103.4285866873605,145.32142761775424,1959.4,-103.4285866873605,145.32142761775424,2062.6,-103.4285866873605,145.32142761775424,2167,-103.4285866873605,145.32142761775424,2267.6,-103.4285866873605,145.32142761775424,2375.8,-103.4285866873605,145.32142761775424,2477.3,-103.4285866873605,145.32142761775424,2578,-103.4285866873605,145.32142761775424,2678.3,-103.4285866873605,145.32142761775424,2782.5,-103.4285866873605,145.32142761775424,2887.7,-103.4285866873605,145.32142761775424,2987.7,-103.4285866873605,145.32142761775424,3087.7,-103.4285866873605,145.32142761775424,3192,-103.4285866873605,145.32142761775424,3292.8,-103.4285866873605,145.32142761775424,3393.5,-103.4285866873605,145.32142761775424,3497,-103.4285866873605,145.32142761775424,3602.9,-103.4285866873605,145.32142761775424,3703.2,-103.4285866873605,145.32142761775424,3807.5,-103.4285866873605,145.32142761775424,3911.8,-103.4285866873605,145.32142761775424,4012.6,-103.4285866873605,145.32142761775424,4116.9,-103.4285866873605,145.32142761775424,4216.9,-103.4285866873605,145.32142761775424,4324.8,-103.4285866873605,145.32142761775424,4426.8,-103.4285866873605,145.32142761775424,4527.1,-103.4285866873605,145.32142761775424,4627.7,-103.4285866873605,145.32142761775424,4733.1,-103.4285866873605,145.32142761775424,4841.3,-103.4285866873605,145.32142761775424,4942.1]","[1466.5,1466.5,1000,0,466.5,""oops"",""up"",""right"",""bad_move"",5109.1,3642.2,3216.2,1466.9,426,""smooth"",""up"",""up"",""good_move"",7864.4,2754.9,2308,5109.6,446.8,""oops"",""up"",""left"",""good_move"",10713.3,2848.6,2337.4,7864.7,511.2,""oops"",""up"",""right"",""bad_move"",13330.4,2616.5,2144.5,10713.9,472,""smooth"",""up"",""up"",""good_move"",16171.9,2841.4,2467.3,13330.5,374.1,""smooth"",""left"",""left"",""good_move"",19486.9,3314.8,2964,16172.1,350.8,""smooth"",""left"",""left"",""good_move""]","",""
"2888","","<div style=""width:500px;"">
  <p>What determined the result of this run?</p>
  </div>","35","html-slider-response","30","438460","0.0-5.0-1.4","11","1","2025-07-09 08:40:24","01610cd0009c79a99da7d0a3353eb402","51.36.175.7","Mozilla/5.0 (Windows NT 10.0; Win64; x64) AppleWebKit/537.36 (KHTML, like Gecko) Chrome/137.0.0.0 Safari/537.36","WebKit","Chrome","137.0.0.0","Windows","10.0","https://app.prolific.com/","en-US,en;q=0.9","65f19a1fe38352676f83d5f0","683db7602f5db6a34d12d064","686e2acd3df67b8a16f8f71a","1","65f19a1fe38352676f83d5f0","1","2025-07-09T08:47:42.416Z","","","","","","","","","","","AttribQ","","50","","","","","","","","","","","","","","","","","","","","","","","","","","","","",""
"2965","","<div style=""width:500px;"">
  <p>How much control did you have over the ball?</p>
  </div>","29","html-slider-response","31","441425","0.0-5.0-2.4","11","1","2025-07-09 08:40:24","01610cd0009c79a99da7d0a3353eb402","51.36.175.7","Mozilla/5.0 (Windows NT 10.0; Win64; x64) AppleWebKit/537.36 (KHTML, like Gecko) Chrome/137.0.0.0 Safari/537.36","WebKit","Chrome","137.0.0.0","Windows","10.0","https://app.prolific.com/","en-US,en;q=0.9","65f19a1fe38352676f83d5f0","683db7602f5db6a34d12d064","686e2acd3df67b8a16f8f71a","1","65f19a1fe38352676f83d5f0","1","2025-07-09T08:47:45.381Z","","","","","","","","","","","ControlQ","","50","","","","","","","","","","","","","","","","","","","","","","","","","","","","",""
"2414","","<div style=""width:500px;"">
  <p>How would you describe your current emotional state?</p>
  </div>","67","html-slider-response","32","443840","0.0-5.0-3.4","11","1","2025-07-09 08:40:24","01610cd0009c79a99da7d0a3353eb402","51.36.175.7","Mozilla/5.0 (Windows NT 10.0; Win64; x64) AppleWebKit/537.36 (KHTML, like Gecko) Chrome/137.0.0.0 Safari/537.36","WebKit","Chrome","137.0.0.0","Windows","10.0","https://app.prolific.com/","en-US,en;q=0.9","65f19a1fe38352676f83d5f0","683db7602f5db6a34d12d064","686e2acd3df67b8a16f8f71a","1","65f19a1fe38352676f83d5f0","1","2025-07-09T08:47:47.796Z","","","","","","","","","","","StressQ","","50","","","","","","","","","","","","","","","","","","","","","","","","","","","","",""
"2205","","<div style=""width:500px;"">
  <p>What best describes how you currently feel?</p>
  </div>","34","html-slider-response","33","446046","0.0-5.0-4.4","11","1","2025-07-09 08:40:24","01610cd0009c79a99da7d0a3353eb402","51.36.175.7","Mozilla/5.0 (Windows NT 10.0; Win64; x64) AppleWebKit/537.36 (KHTML, like Gecko) Chrome/137.0.0.0 Safari/537.36","WebKit","Chrome","137.0.0.0","Windows","10.0","https://app.prolific.com/","en-US,en;q=0.9","65f19a1fe38352676f83d5f0","683db7602f5db6a34d12d064","686e2acd3df67b8a16f8f71a","1","65f19a1fe38352676f83d5f0","1","2025-07-09T08:47:50.002Z","","","","","","","","","","","MotivationQ","","50","","","","","","","","","","","","","","","","","","","","","","","","","","","","",""
"","","","","ctl-task-cpt","34","477847","0.0-5.0-0.5","11","1","2025-07-09 08:40:24","01610cd0009c79a99da7d0a3353eb402","51.36.175.7","Mozilla/5.0 (Windows NT 10.0; Win64; x64) AppleWebKit/537.36 (KHTML, like Gecko) Chrome/137.0.0.0 Safari/537.36","WebKit","Chrome","137.0.0.0","Windows","10.0","https://app.prolific.com/","en-US,en;q=0.9","65f19a1fe38352676f83d5f0","683db7602f5db6a34d12d064","686e2acd3df67b8a16f8f71a","1","65f19a1fe38352676f83d5f0","1","2025-07-09T08:48:21.803Z","","","","","","","","","","","","","","win-only","0","g1:NW,g2:SE","0.5","6","0","449198.8","1117.9","6122.3","28782.1","1","4","4","6","1","1","1","4","3","0.030303030303030304","1816.2","3000","225","[""left"",""up""]","{""num_key_presses"":6,""num_perfect"":3,""num_errors"":0,""num_randdir"":3,""num_randdir_good_moves"":2,""num_whilered"":0,""num_whileblue"":0,""num_blue"":2,""num_good_moves"":5}","[417.8214133126395,416.57142761775424,0.1,417.8214133126395,416.57142761775424,103.7,417.8214133126395,416.57142761775424,211.1,417.8214133126395,416.57142761775424,313.7,417.8214133126395,416.57142761775424,418.4,269.0714133126395,286.57142761775424,524.7,151.5714133126395,151.57142761775424,628,146.5714133126395,136.57142761775424,728,146.5714133126395,136.57142761775424,829,146.5714133126395,136.57142761775424,929.2,146.5714133126395,136.57142761775424,1033,136.5714133126395,129.07142761775424,1133.2,110.3214133126395,110.32142761775425,1237.6,110.3214133126395,110.32142761775425,1339.9,91.5714133126395,101.57142761775425,1440.2,86.5714133126395,97.82142761775425,1544.9,86.5714133126395,97.82142761775425,1648.4,86.5714133126395,97.82142761775425,1748.6,86.5714133126395,97.82142761775425,1853.5,86.5714133126395,97.82142761775425,1958,86.5714133126395,97.82142761775425,2058.8,86.5714133126395,97.82142761775425,2166.3,-115.9285866873605,184.07142761775424,2268.6,-168.4285866873605,216.57142761775424,2372.6,-168.4285866873605,216.57142761775424,2473.2,-168.4285866873605,216.57142761775424,2576.4,-168.4285866873605,216.57142761775424,2678,-168.4285866873605,216.57142761775424,2778,-168.4285866873605,216.57142761775424,2882.4,-168.4285866873605,216.57142761775424,2983.2,-168.4285866873605,216.57142761775424,3089.4,-168.4285866873605,216.57142761775424,3191.1,-168.4285866873605,216.57142761775424,3293.6,-168.4285866873605,216.57142761775424,3397.4,-168.4285866873605,216.57142761775424,3498.1,-168.4285866873605,216.57142761775424,3602.4,-168.4285866873605,216.57142761775424,3703.6,-168.4285866873605,216.57142761775424,3805.4,-168.4285866873605,216.57142761775424,3908.7,-168.4285866873605,216.57142761775424,4013.2,-168.4285866873605,216.57142761775424,4113.2,-168.4285866873605,216.57142761775424,4218.2,-168.4285866873605,216.57142761775424,4320.4,-168.4285866873605,216.57142761775424,4423.1,-168.4285866873605,216.57142761775424,4525,-168.4285866873605,216.57142761775424,4627.4,-168.4285866873605,216.57142761775424,4727.7,-168.4285866873605,216.57142761775424,4828.6,-168.4285866873605,216.57142761775424,4928.7]","[1750.1,1750.1,1000,0,750.1,""oops"",""left"",""right"",""bad_move"",7956.6,6206,2795.8,4781.1,379.7,""smooth"",""left"",""left"",""good_move"",11123.1,3166.2,2742.2,7956.9,424,""smooth"",""left"",""left"",""good_move"",14059.4,2936.1,2388.8,11123.3,547.3,""oops"",""left"",""up"",""good_move"",16317,2257.2,1807.2,14059.8,450,""oops"",""left"",""left"",""good_move"",22569.4,6252.3,2812.5,19425.3,331.6,""smooth"",""up"",""up"",""good_move""]","",""
"3337","","<div style=""width:500px;"">
  <p>What determined the result of this run?</p>
  </div>","34","html-slider-response","35","481184","0.0-5.0-1.5","11","1","2025-07-09 08:40:24","01610cd0009c79a99da7d0a3353eb402","51.36.175.7","Mozilla/5.0 (Windows NT 10.0; Win64; x64) AppleWebKit/537.36 (KHTML, like Gecko) Chrome/137.0.0.0 Safari/537.36","WebKit","Chrome","137.0.0.0","Windows","10.0","https://app.prolific.com/","en-US,en;q=0.9","65f19a1fe38352676f83d5f0","683db7602f5db6a34d12d064","686e2acd3df67b8a16f8f71a","1","65f19a1fe38352676f83d5f0","1","2025-07-09T08:48:25.140Z","","","","","","","","","","","AttribQ","","50","","","","","","","","","","","","","","","","","","","","","","","","","","","","",""
"2921","","<div style=""width:500px;"">
  <p>How much control did you have over the ball?</p>
  </div>","45","html-slider-response","36","484107","0.0-5.0-2.5","11","1","2025-07-09 08:40:24","01610cd0009c79a99da7d0a3353eb402","51.36.175.7","Mozilla/5.0 (Windows NT 10.0; Win64; x64) AppleWebKit/537.36 (KHTML, like Gecko) Chrome/137.0.0.0 Safari/537.36","WebKit","Chrome","137.0.0.0","Windows","10.0","https://app.prolific.com/","en-US,en;q=0.9","65f19a1fe38352676f83d5f0","683db7602f5db6a34d12d064","686e2acd3df67b8a16f8f71a","1","65f19a1fe38352676f83d5f0","1","2025-07-09T08:48:28.063Z","","","","","","","","","","","ControlQ","","50","","","","","","","","","","","","","","","","","","","","","","","","","","","","",""
"2344","","<div style=""width:500px;"">
  <p>How would you describe your current emotional state?</p>
  </div>","58","html-slider-response","37","486451","0.0-5.0-3.5","11","1","2025-07-09 08:40:24","01610cd0009c79a99da7d0a3353eb402","51.36.175.7","Mozilla/5.0 (Windows NT 10.0; Win64; x64) AppleWebKit/537.36 (KHTML, like Gecko) Chrome/137.0.0.0 Safari/537.36","WebKit","Chrome","137.0.0.0","Windows","10.0","https://app.prolific.com/","en-US,en;q=0.9","65f19a1fe38352676f83d5f0","683db7602f5db6a34d12d064","686e2acd3df67b8a16f8f71a","1","65f19a1fe38352676f83d5f0","1","2025-07-09T08:48:30.407Z","","","","","","","","","","","StressQ","","50","","","","","","","","","","","","","","","","","","","","","","","","","","","","",""
"98980","","<div style=""width:500px;"">
  <p>What best describes how you currently feel?</p>
  </div>","44","html-slider-response","38","585433","0.0-5.0-4.5","11","1","2025-07-09 08:40:24","01610cd0009c79a99da7d0a3353eb402","51.36.175.7","Mozilla/5.0 (Windows NT 10.0; Win64; x64) AppleWebKit/537.36 (KHTML, like Gecko) Chrome/137.0.0.0 Safari/537.36","WebKit","Chrome","137.0.0.0","Windows","10.0","https://app.prolific.com/","en-US,en;q=0.9","65f19a1fe38352676f83d5f0","683db7602f5db6a34d12d064","686e2acd3df67b8a16f8f71a","1","65f19a1fe38352676f83d5f0","1","2025-07-09T08:50:09.389Z","","","","","","","","","","","MotivationQ","","50","","","","","","","","","","","","","","","","","","","","","","","","","","","","",""
"","","","","ctl-task-cpt","39","610022","0.0-5.0-0.6","11","1","2025-07-09 08:40:24","01610cd0009c79a99da7d0a3353eb402","51.36.175.7","Mozilla/5.0 (Windows NT 10.0; Win64; x64) AppleWebKit/537.36 (KHTML, like Gecko) Chrome/137.0.0.0 Safari/537.36","WebKit","Chrome","137.0.0.0","Windows","10.0","https://app.prolific.com/","en-US,en;q=0.9","65f19a1fe38352676f83d5f0","683db7602f5db6a34d12d064","686e2acd3df67b8a16f8f71a","1","65f19a1fe38352676f83d5f0","1","2025-07-09T08:50:33.978Z","","","","","","","","","","","","","","win-only","2","g1:SE,g2:NW","0.4","7","0","588586.8","1379","6380.3","21570.6","1","4","4","6","1","-1","-1","3","4","0.022727272727272728","1199.8","3000","-2995","[""down"",""right""]","{""num_key_presses"":5,""num_perfect"":2,""num_errors"":0,""num_randdir"":3,""num_randdir_good_moves"":1,""num_whilered"":0,""num_whileblue"":0,""num_blue"":0,""num_good_moves"":3}","[421.5714133126395,416.57142761775424,0.3,421.5714133126395,416.57142761775424,101.5,421.5714133126395,416.57142761775424,202,421.5714133126395,416.57142761775424,302.6,421.5714133126395,416.57142761775424,406.2,421.5714133126395,416.57142761775424,506.6,334.0714133126395,351.57142761775424,606.6,314.0714133126395,342.82142761775424,706.8,711.5714133126395,696.5714276177542,811.5,751.5714133126395,745.3214276177542,911.6,772.8214133126395,764.0714276177542,1014.9,774.0714133126395,764.0714276177542,1116.7,774.0714133126395,764.0714276177542,1217.6,774.0714133126395,764.0714276177542,1321.6,774.0714133126395,764.0714276177542,1427.6,774.0714133126395,764.0714276177542,1531.9,686.5714133126395,736.5714276177542,1632.2,-189.6785866873605,601.5714276177542,1734.8,-228.4285866873605,581.5714276177542,1836.7,-228.4285866873605,581.5714276177542,1936.7,-228.4285866873605,581.5714276177542,2036.7,-228.4285866873605,581.5714276177542,2141.5,-228.4285866873605,581.5714276177542,2241.5,-228.4285866873605,581.5714276177542,2343.8,-228.4285866873605,581.5714276177542,2448.2,-228.4285866873605,581.5714276177542,2551.6,-228.4285866873605,581.5714276177542,2651.8,-228.4285866873605,581.5714276177542,2757.2,-228.4285866873605,581.5714276177542,2863.6,-228.4285866873605,581.5714276177542,2967,-228.4285866873605,581.5714276177542,3067.5,-228.4285866873605,581.5714276177542,3171.3,-228.4285866873605,581.5714276177542,3271.9,-228.4285866873605,581.5714276177542,3372.7,-228.4285866873605,581.5714276177542,3478.3,-228.4285866873605,581.5714276177542,3582.3,-228.4285866873605,581.5714276177542,3686.8,-228.4285866873605,581.5714276177542,3793.3,-228.4285866873605,581.5714276177542,3893.7,-228.4285866873605,581.5714276177542,3999.4,-228.4285866873605,581.5714276177542,4100.8,-228.4285866873605,581.5714276177542,4201.4,-228.4285866873605,581.5714276177542,4301.4,-228.4285866873605,581.5714276177542,4406.7,-228.4285866873605,581.5714276177542,4512.2,-228.4285866873605,581.5714276177542,4616.6,-228.4285866873605,581.5714276177542,4717,-228.4285866873605,581.5714276177542,4821.5,-228.4285866873605,581.5714276177542,4921.8]","[2162.5,2162.5,1000,0,1162.5,""oops"",""right"",""down"",""good_move"",5238.4,3075.7,2654.9,2162.7,420.8,""smooth"",""right"",""right"",""good_move"",8043,2804.3,2318.3,5238.7,486,""oops"",""right"",""left"",""bad_move"",10658.7,2615.1,2228.6,8043.7,386.4,""oops"",""right"",""up"",""bad_move"",13255.2,2596.3,2191.6,10658.9,404.7,""smooth"",""right"",""right"",""good_move""]","",""
"3007","","<div style=""width:500px;"">
  <p>What determined the result of this run?</p>
  </div>","28","html-slider-response","40","613030","0.0-5.0-1.6","11","1","2025-07-09 08:40:24","01610cd0009c79a99da7d0a3353eb402","51.36.175.7","Mozilla/5.0 (Windows NT 10.0; Win64; x64) AppleWebKit/537.36 (KHTML, like Gecko) Chrome/137.0.0.0 Safari/537.36","WebKit","Chrome","137.0.0.0","Windows","10.0","https://app.prolific.com/","en-US,en;q=0.9","65f19a1fe38352676f83d5f0","683db7602f5db6a34d12d064","686e2acd3df67b8a16f8f71a","1","65f19a1fe38352676f83d5f0","1","2025-07-09T08:50:36.987Z","","","","","","","","","","","AttribQ","","50","","","","","","","","","","","","","","","","","","","","","","","","","","","","",""
"3310","","<div style=""width:500px;"">
  <p>How much control did you have over the ball?</p>
  </div>","21","html-slider-response","41","616341","0.0-5.0-2.6","11","1","2025-07-09 08:40:24","01610cd0009c79a99da7d0a3353eb402","51.36.175.7","Mozilla/5.0 (Windows NT 10.0; Win64; x64) AppleWebKit/537.36 (KHTML, like Gecko) Chrome/137.0.0.0 Safari/537.36","WebKit","Chrome","137.0.0.0","Windows","10.0","https://app.prolific.com/","en-US,en;q=0.9","65f19a1fe38352676f83d5f0","683db7602f5db6a34d12d064","686e2acd3df67b8a16f8f71a","1","65f19a1fe38352676f83d5f0","1","2025-07-09T08:50:40.298Z","","","","","","","","","","","ControlQ","","50","","","","","","","","","","","","","","","","","","","","","","","","","","","","",""
"2230","","<div style=""width:500px;"">
  <p>How would you describe your current emotional state?</p>
  </div>","63","html-slider-response","42","618573","0.0-5.0-3.6","11","1","2025-07-09 08:40:24","01610cd0009c79a99da7d0a3353eb402","51.36.175.7","Mozilla/5.0 (Windows NT 10.0; Win64; x64) AppleWebKit/537.36 (KHTML, like Gecko) Chrome/137.0.0.0 Safari/537.36","WebKit","Chrome","137.0.0.0","Windows","10.0","https://app.prolific.com/","en-US,en;q=0.9","65f19a1fe38352676f83d5f0","683db7602f5db6a34d12d064","686e2acd3df67b8a16f8f71a","1","65f19a1fe38352676f83d5f0","1","2025-07-09T08:50:42.529Z","","","","","","","","","","","StressQ","","50","","","","","","","","","","","","","","","","","","","","","","","","","","","","",""
"2449","","<div style=""width:500px;"">
  <p>What best describes how you currently feel?</p>
  </div>","27","html-slider-response","43","621023","0.0-5.0-4.6","11","1","2025-07-09 08:40:24","01610cd0009c79a99da7d0a3353eb402","51.36.175.7","Mozilla/5.0 (Windows NT 10.0; Win64; x64) AppleWebKit/537.36 (KHTML, like Gecko) Chrome/137.0.0.0 Safari/537.36","WebKit","Chrome","137.0.0.0","Windows","10.0","https://app.prolific.com/","en-US,en;q=0.9","65f19a1fe38352676f83d5f0","683db7602f5db6a34d12d064","686e2acd3df67b8a16f8f71a","1","65f19a1fe38352676f83d5f0","1","2025-07-09T08:50:44.979Z","","","","","","","","","","","MotivationQ","","50","","","","","","","","","","","","","","","","","","","","","","","","","","","","",""
"","","","","ctl-task-cpt","44","654137","0.0-5.0-0.7","11","1","2025-07-09 08:40:24","01610cd0009c79a99da7d0a3353eb402","51.36.175.7","Mozilla/5.0 (Windows NT 10.0; Win64; x64) AppleWebKit/537.36 (KHTML, like Gecko) Chrome/137.0.0.0 Safari/537.36","WebKit","Chrome","137.0.0.0","Windows","10.0","https://app.prolific.com/","en-US,en;q=0.9","65f19a1fe38352676f83d5f0","683db7602f5db6a34d12d064","686e2acd3df67b8a16f8f71a","1","65f19a1fe38352676f83d5f0","1","2025-07-09T08:51:18.093Z","","","","","","","","","","","","","","win-only","1","g1:NE,g2:SW","0.3","8","0","624175.4","1498.7","6502.3","30093.1","1","4","8","6","1","-1","-1","2","3","0.015151515151515152","1608.2","3000","-2970","[""up"",""right""]","{""num_key_presses"":6,""num_perfect"":1,""num_errors"":0,""num_randdir"":5,""num_randdir_good_moves"":3,""num_whilered"":0,""num_whileblue"":0,""num_blue"":2,""num_good_moves"":4}","[416.5714133126395,419.07142761775424,0.1,416.5714133126395,419.07142761775424,101.5,416.5714133126395,419.07142761775424,202,416.5714133126395,419.07142761775424,310,-73.4285866873605,385.32142761775424,411.8,-135.9285866873605,377.82142761775424,516.8,-135.9285866873605,377.82142761775424,617.4,297.8214133126395,219.07142761775424,717.4,481.5714133126395,146.57142761775424,825.4,551.5714133126395,146.57142761775424,926.3,679.0714133126395,114.07142761775425,1027,721.5714133126395,91.57142761775425,1131.6,721.5714133126395,91.57142761775425,1236.8,721.5714133126395,91.57142761775425,1339.5,721.5714133126395,91.57142761775425,1440.2,721.5714133126395,91.57142761775425,1541.7,721.5714133126395,91.57142761775425,1643.5,721.5714133126395,91.57142761775425,1747,721.5714133126395,91.57142761775425,1847,721.5714133126395,91.57142761775425,1953.3,71.5714133126395,156.57142761775424,2054.8,-99.6785866873605,211.57142761775424,2157.7,-99.6785866873605,211.57142761775424,2259.2,-99.6785866873605,211.57142761775424,2361.7,-99.6785866873605,211.57142761775424,2463.2,-99.6785866873605,211.57142761775424,2568.4,-99.6785866873605,211.57142761775424,2677.3,-99.6785866873605,211.57142761775424,2782,-99.6785866873605,211.57142761775424,2882.3,-99.6785866873605,211.57142761775424,2982.3,-99.6785866873605,211.57142761775424,3086.7,-99.6785866873605,211.57142761775424,3189.8,-99.6785866873605,211.57142761775424,3292.5,-99.6785866873605,211.57142761775424,3396.5,-99.6785866873605,211.57142761775424,3502.7,-99.6785866873605,211.57142761775424,3607.7,-99.6785866873605,211.57142761775424,3710.6,-99.6785866873605,211.57142761775424,3811.6,-99.6785866873605,211.57142761775424,3911.7,-99.6785866873605,211.57142761775424,4012.5,-99.6785866873605,211.57142761775424,4112.8,-99.6785866873605,211.57142761775424,4217.4,-99.6785866873605,211.57142761775424,4317.4,-99.6785866873605,211.57142761775424,4422.1,-99.6785866873605,211.57142761775424,4526.3,-99.6785866873605,211.57142761775424,4627,-99.6785866873605,211.57142761775424,4727.7,-99.6785866873605,211.57142761775424,4832.1,-99.6785866873605,211.57142761775424,4936.6]","[1793.1,1793.1,1000,0,793.1,""oops"",""up"",""up"",""good_move"",8094.5,6301.1,2673.8,5023.3,397.4,""smooth"",""up"",""up"",""good_move"",10747.2,2652.5,1995.1,8094.7,657.4,""oops"",""right"",""down"",""bad_move"",12800.7,2053.2,1671.3,10747.5,381.9,""oops"",""right"",""up"",""good_move"",15619.1,2818.2,2431.7,12800.9,386.5,""oops"",""right"",""right"",""good_move"",18246.7,2627.3,2243.1,15619.4,384.3,""oops"",""right"",""left"",""bad_move""]","",""
"2794","","<div style=""width:500px;"">
  <p>What determined the result of this run?</p>
  </div>","10","html-slider-response","45","656932","0.0-5.0-1.7","11","1","2025-07-09 08:40:24","01610cd0009c79a99da7d0a3353eb402","51.36.175.7","Mozilla/5.0 (Windows NT 10.0; Win64; x64) AppleWebKit/537.36 (KHTML, like Gecko) Chrome/137.0.0.0 Safari/537.36","WebKit","Chrome","137.0.0.0","Windows","10.0","https://app.prolific.com/","en-US,en;q=0.9","65f19a1fe38352676f83d5f0","683db7602f5db6a34d12d064","686e2acd3df67b8a16f8f71a","1","65f19a1fe38352676f83d5f0","1","2025-07-09T08:51:20.888Z","","","","","","","","","","","AttribQ","","50","","","","","","","","","","","","","","","","","","","","","","","","","","","","",""
"2462","","<div style=""width:500px;"">
  <p>How much control did you have over the ball?</p>
  </div>","12","html-slider-response","46","659396","0.0-5.0-2.7","11","1","2025-07-09 08:40:24","01610cd0009c79a99da7d0a3353eb402","51.36.175.7","Mozilla/5.0 (Windows NT 10.0; Win64; x64) AppleWebKit/537.36 (KHTML, like Gecko) Chrome/137.0.0.0 Safari/537.36","WebKit","Chrome","137.0.0.0","Windows","10.0","https://app.prolific.com/","en-US,en;q=0.9","65f19a1fe38352676f83d5f0","683db7602f5db6a34d12d064","686e2acd3df67b8a16f8f71a","1","65f19a1fe38352676f83d5f0","1","2025-07-09T08:51:23.352Z","","","","","","","","","","","ControlQ","","50","","","","","","","","","","","","","","","","","","","","","","","","","","","","",""
"2627","","<div style=""width:500px;"">
  <p>How would you describe your current emotional state?</p>
  </div>","73","html-slider-response","47","662023","0.0-5.0-3.7","11","1","2025-07-09 08:40:24","01610cd0009c79a99da7d0a3353eb402","51.36.175.7","Mozilla/5.0 (Windows NT 10.0; Win64; x64) AppleWebKit/537.36 (KHTML, like Gecko) Chrome/137.0.0.0 Safari/537.36","WebKit","Chrome","137.0.0.0","Windows","10.0","https://app.prolific.com/","en-US,en;q=0.9","65f19a1fe38352676f83d5f0","683db7602f5db6a34d12d064","686e2acd3df67b8a16f8f71a","1","65f19a1fe38352676f83d5f0","1","2025-07-09T08:51:25.979Z","","","","","","","","","","","StressQ","","50","","","","","","","","","","","","","","","","","","","","","","","","","","","","",""
"2398","","<div style=""width:500px;"">
  <p>What best describes how you currently feel?</p>
  </div>","17","html-slider-response","48","664422","0.0-5.0-4.7","11","1","2025-07-09 08:40:24","01610cd0009c79a99da7d0a3353eb402","51.36.175.7","Mozilla/5.0 (Windows NT 10.0; Win64; x64) AppleWebKit/537.36 (KHTML, like Gecko) Chrome/137.0.0.0 Safari/537.36","WebKit","Chrome","137.0.0.0","Windows","10.0","https://app.prolific.com/","en-US,en;q=0.9","65f19a1fe38352676f83d5f0","683db7602f5db6a34d12d064","686e2acd3df67b8a16f8f71a","1","65f19a1fe38352676f83d5f0","1","2025-07-09T08:51:28.379Z","","","","","","","","","","","MotivationQ","","50","","","","","","","","","","","","","","","","","","","","","","","","","","","","",""
"","","","","ctl-task-cpt","49","710680","0.0-5.0-0.8","11","1","2025-07-09 08:40:24","01610cd0009c79a99da7d0a3353eb402","51.36.175.7","Mozilla/5.0 (Windows NT 10.0; Win64; x64) AppleWebKit/537.36 (KHTML, like Gecko) Chrome/137.0.0.0 Safari/537.36","WebKit","Chrome","137.0.0.0","Windows","10.0","https://app.prolific.com/","en-US,en;q=0.9","65f19a1fe38352676f83d5f0","683db7602f5db6a34d12d064","686e2acd3df67b8a16f8f71a","1","65f19a1fe38352676f83d5f0","1","2025-07-09T08:52:14.636Z","","","","","","","","","","","","","","win-only","3","g1:SW,g2:NE","0.2","9","0","667574.7","1537.6","6539.4","43239.1","1","4","4","6","1","-1","-1","1","2","0.007575757575757576","1299","3000","-2950","[""down"",""left""]","{""num_key_presses"":6,""num_perfect"":1,""num_errors"":0,""num_randdir"":5,""num_randdir_good_moves"":3,""num_whilered"":0,""num_whileblue"":0,""num_blue"":5,""num_good_moves"":4}","[415.3214133126395,414.07142761775424,0.4,415.3214133126395,414.07142761775424,103.2,415.3214133126395,414.07142761775424,207.8,415.3214133126395,414.07142761775424,308.4,415.3214133126395,414.07142761775424,408.5,415.3214133126395,414.07142761775424,515.4,420.3214133126395,406.57142761775424,615.9,280.3214133126395,491.57142761775424,717.7,80.3214133126395,720.3214276177542,822.9,71.5714133126395,731.5714276177542,923.4,71.5714133126395,731.5714276177542,1027.8,71.5714133126395,731.5714276177542,1128.5,71.5714133126395,731.5714276177542,1229.6,71.5714133126395,731.5714276177542,1330.7,71.5714133126395,731.5714276177542,1433.4,71.5714133126395,731.5714276177542,1533.5,71.5714133126395,731.5714276177542,1633.7,71.5714133126395,731.5714276177542,1738.4,-238.4285866873605,750.3214276177542,1843.2,-257.1785866873605,750.3214276177542,1948.6,-257.1785866873605,750.3214276177542,2051.2,-257.1785866873605,750.3214276177542,2152.9,-257.1785866873605,750.3214276177542,2253.3,-257.1785866873605,750.3214276177542,2358.1,-257.1785866873605,750.3214276177542,2458.1,-257.1785866873605,750.3214276177542,2563.7,-257.1785866873605,750.3214276177542,2666.3,-257.1785866873605,750.3214276177542,2767.8,-257.1785866873605,750.3214276177542,2867.9,-257.1785866873605,750.3214276177542,2968.1,-257.1785866873605,750.3214276177542,3068.5,-257.1785866873605,750.3214276177542,3173.1,-257.1785866873605,750.3214276177542,3273.4,-257.1785866873605,750.3214276177542,3373.5,-257.1785866873605,750.3214276177542,3473.7,-257.1785866873605,750.3214276177542,3582.7,-257.1785866873605,750.3214276177542,3687.6,-257.1785866873605,750.3214276177542,3787.8,-257.1785866873605,750.3214276177542,3895.6,-257.1785866873605,750.3214276177542,3997.6,-257.1785866873605,750.3214276177542,4097.8,-257.1785866873605,750.3214276177542,4198.4,-257.1785866873605,750.3214276177542,4298.4,-257.1785866873605,750.3214276177542,4403.7,-257.1785866873605,750.3214276177542,4508.7,-257.1785866873605,750.3214276177542,4614.7,-257.1785866873605,750.3214276177542,4715.7,-257.1785866873605,750.3214276177542,4818.1,-257.1785866873605,750.3214276177542,4918.2]","[1688.2,1688.2,1000,0,688.2,""oops"",""down"",""down"",""good_move"",8150,6461.2,2587.5,5137.1,425.4,""oops"",""down"",""right"",""bad_move"",19246.8,11096.5,2457,16301.9,487.9,""oops"",""down"",""down"",""good_move"",22803.8,3556.4,2916.7,19247.4,639.7,""oops"",""left"",""left"",""good_move"",24805.3,2001.2,1578.3,22804.1,423,""smooth"",""left"",""left"",""good_move"",31701,6895.5,2671.6,28635.5,393.9,""oops"",""left"",""right"",""bad_move""]","",""
"3164","","<div style=""width:500px;"">
  <p>What determined the result of this run?</p>
  </div>","4","html-slider-response","50","713845","0.0-5.0-1.8","11","1","2025-07-09 08:40:24","01610cd0009c79a99da7d0a3353eb402","51.36.175.7","Mozilla/5.0 (Windows NT 10.0; Win64; x64) AppleWebKit/537.36 (KHTML, like Gecko) Chrome/137.0.0.0 Safari/537.36","WebKit","Chrome","137.0.0.0","Windows","10.0","https://app.prolific.com/","en-US,en;q=0.9","65f19a1fe38352676f83d5f0","683db7602f5db6a34d12d064","686e2acd3df67b8a16f8f71a","1","65f19a1fe38352676f83d5f0","1","2025-07-09T08:52:17.801Z","","","","","","","","","","","AttribQ","","50","","","","","","","","","","","","","","","","","","","","","","","","","","","","",""
"2661","","<div style=""width:500px;"">
  <p>How much control did you have over the ball?</p>
  </div>","15","html-slider-response","51","716507","0.0-5.0-2.8","11","1","2025-07-09 08:40:24","01610cd0009c79a99da7d0a3353eb402","51.36.175.7","Mozilla/5.0 (Windows NT 10.0; Win64; x64) AppleWebKit/537.36 (KHTML, like Gecko) Chrome/137.0.0.0 Safari/537.36","WebKit","Chrome","137.0.0.0","Windows","10.0","https://app.prolific.com/","en-US,en;q=0.9","65f19a1fe38352676f83d5f0","683db7602f5db6a34d12d064","686e2acd3df67b8a16f8f71a","1","65f19a1fe38352676f83d5f0","1","2025-07-09T08:52:20.463Z","","","","","","","","","","","ControlQ","","50","","","","","","","","","","","","","","","","","","","","","","","","","","","","",""
"2213","","<div style=""width:500px;"">
  <p>How would you describe your current emotional state?</p>
  </div>","81","html-slider-response","52","718720","0.0-5.0-3.8","11","1","2025-07-09 08:40:24","01610cd0009c79a99da7d0a3353eb402","51.36.175.7","Mozilla/5.0 (Windows NT 10.0; Win64; x64) AppleWebKit/537.36 (KHTML, like Gecko) Chrome/137.0.0.0 Safari/537.36","WebKit","Chrome","137.0.0.0","Windows","10.0","https://app.prolific.com/","en-US,en;q=0.9","65f19a1fe38352676f83d5f0","683db7602f5db6a34d12d064","686e2acd3df67b8a16f8f71a","1","65f19a1fe38352676f83d5f0","1","2025-07-09T08:52:22.676Z","","","","","","","","","","","StressQ","","50","","","","","","","","","","","","","","","","","","","","","","","","","","","","",""
"2910","","<div style=""width:500px;"">
  <p>What best describes how you currently feel?</p>
  </div>","14","html-slider-response","53","721630","0.0-5.0-4.8","11","1","2025-07-09 08:40:24","01610cd0009c79a99da7d0a3353eb402","51.36.175.7","Mozilla/5.0 (Windows NT 10.0; Win64; x64) AppleWebKit/537.36 (KHTML, like Gecko) Chrome/137.0.0.0 Safari/537.36","WebKit","Chrome","137.0.0.0","Windows","10.0","https://app.prolific.com/","en-US,en;q=0.9","65f19a1fe38352676f83d5f0","683db7602f5db6a34d12d064","686e2acd3df67b8a16f8f71a","1","65f19a1fe38352676f83d5f0","1","2025-07-09T08:52:25.587Z","","","","","","","","","","","MotivationQ","","50","","","","","","","","","","","","","","","","","","","","","","","","","","","","",""
"","","","","ctl-task-cpt","54","758654","0.0-5.0-0.9","11","1","2025-07-09 08:40:24","01610cd0009c79a99da7d0a3353eb402","51.36.175.7","Mozilla/5.0 (Windows NT 10.0; Win64; x64) AppleWebKit/537.36 (KHTML, like Gecko) Chrome/137.0.0.0 Safari/537.36","WebKit","Chrome","137.0.0.0","Windows","10.0","https://app.prolific.com/","en-US,en;q=0.9","65f19a1fe38352676f83d5f0","683db7602f5db6a34d12d064","686e2acd3df67b8a16f8f71a","1","65f19a1fe38352676f83d5f0","1","2025-07-09T08:53:02.610Z","","","","","","","","","","","","","","win-only","1","g1:NE,g2:SW","0.4","10","0","724783.9","1613.7","6619","34000.4","1","4","8","6","1","-1","-1","0","1","0","960.8","3000","-2885","[""up"",""right""]","{""num_key_presses"":7,""num_perfect"":3,""num_errors"":0,""num_randdir"":4,""num_randdir_good_moves"":1,""num_whilered"":0,""num_whileblue"":0,""num_blue"":2,""num_good_moves"":4}","[407.8214133126395,407.82142761775424,0.3,407.8214133126395,407.82142761775424,104.7,407.8214133126395,407.82142761775424,207,407.8214133126395,407.82142761775424,308.4,407.8214133126395,407.82142761775424,412.4,641.5714133126395,211.57142761775424,517.6,796.5714133126395,86.57142761775425,617.8,821.5714133126395,81.57142761775425,725.1,821.5714133126395,81.57142761775425,826.9,821.5714133126395,81.57142761775425,927.4,821.5714133126395,81.57142761775425,1027.6,821.5714133126395,81.57142761775425,1132,821.5714133126395,81.57142761775425,1240,821.5714133126395,81.57142761775425,1343.7,564.0714133126395,65.32142761775425,1447.7,-263.4285866873605,241.57142761775424,1547.7,-272.1785866873605,242.82142761775424,1652.4,-272.1785866873605,242.82142761775424,1754,-272.1785866873605,242.82142761775424,1854.9,-272.1785866873605,242.82142761775424,1957.9,-272.1785866873605,242.82142761775424,2061.6,-272.1785866873605,242.82142761775424,2162.2,-272.1785866873605,242.82142761775424,2269.3,-272.1785866873605,242.82142761775424,2373.9,-272.1785866873605,242.82142761775424,2474.6,-272.1785866873605,242.82142761775424,2577,-272.1785866873605,242.82142761775424,2677,-272.1785866873605,242.82142761775424,2781.9,-272.1785866873605,242.82142761775424,2882.8,-272.1785866873605,242.82142761775424,2982.9,-272.1785866873605,242.82142761775424,3082.9,-272.1785866873605,242.82142761775424,3182.9,-272.1785866873605,242.82142761775424,3288.6,-272.1785866873605,242.82142761775424,3391.6,-272.1785866873605,242.82142761775424,3494,-272.1785866873605,242.82142761775424,3597.2,-272.1785866873605,242.82142761775424,3697.3,-272.1785866873605,242.82142761775424,3797.8,-272.1785866873605,242.82142761775424,3904.5,-272.1785866873605,242.82142761775424,4007.4,-272.1785866873605,242.82142761775424,4111.9,-272.1785866873605,242.82142761775424,4212.9,-272.1785866873605,242.82142761775424,4318,-272.1785866873605,242.82142761775424,4419,-272.1785866873605,242.82142761775424,4519.2,-272.1785866873605,242.82142761775424,4620.5,-272.1785866873605,242.82142761775424,4722.5,-272.1785866873605,242.82142761775424,4823.5,-272.1785866873605,242.82142761775424,4926.5]","[1437,1437,1000,0,437,""smooth"",""right"",""right"",""good_move"",4002.4,2564.8,2123.5,1437.6,441.3,""smooth"",""right"",""right"",""good_move"",10463.8,6461.3,2615.2,7437,411.7,""oops"",""up"",""down"",""bad_move"",13894.4,3430.2,3031.5,10464.2,398.7,""oops"",""up"",""down"",""bad_move"",16358.2,2463.6,1999,13894.6,464.6,""oops"",""up"",""down"",""bad_move"",19792.7,3434.3,3037.1,16358.4,397.2,""oops"",""up"",""up"",""good_move"",24800.3,5007.4,1862.1,22542.2,396,""smooth"",""up"",""up"",""good_move""]","",""
"2250","","<div style=""width:500px;"">
  <p>What determined the result of this run?</p>
  </div>","8","html-slider-response","55","760906","0.0-5.0-1.9","11","1","2025-07-09 08:40:24","01610cd0009c79a99da7d0a3353eb402","51.36.175.7","Mozilla/5.0 (Windows NT 10.0; Win64; x64) AppleWebKit/537.36 (KHTML, like Gecko) Chrome/137.0.0.0 Safari/537.36","WebKit","Chrome","137.0.0.0","Windows","10.0","https://app.prolific.com/","en-US,en;q=0.9","65f19a1fe38352676f83d5f0","683db7602f5db6a34d12d064","686e2acd3df67b8a16f8f71a","1","65f19a1fe38352676f83d5f0","1","2025-07-09T08:53:04.862Z","","","","","","","","","","","AttribQ","","50","","","","","","","","","","","","","","","","","","","","","","","","","","","","",""
"3523","","<div style=""width:500px;"">
  <p>How much control did you have over the ball?</p>
  </div>","0","html-slider-response","56","764429","0.0-5.0-2.9","11","1","2025-07-09 08:40:24","01610cd0009c79a99da7d0a3353eb402","51.36.175.7","Mozilla/5.0 (Windows NT 10.0; Win64; x64) AppleWebKit/537.36 (KHTML, like Gecko) Chrome/137.0.0.0 Safari/537.36","WebKit","Chrome","137.0.0.0","Windows","10.0","https://app.prolific.com/","en-US,en;q=0.9","65f19a1fe38352676f83d5f0","683db7602f5db6a34d12d064","686e2acd3df67b8a16f8f71a","1","65f19a1fe38352676f83d5f0","1","2025-07-09T08:53:08.385Z","","","","","","","","","","","ControlQ","","50","","","","","","","","","","","","","","","","","","","","","","","","","","","","",""
"2452","","<div style=""width:500px;"">
  <p>How would you describe your current emotional state?</p>
  </div>","90","html-slider-response","57","766882","0.0-5.0-3.9","11","1","2025-07-09 08:40:24","01610cd0009c79a99da7d0a3353eb402","51.36.175.7","Mozilla/5.0 (Windows NT 10.0; Win64; x64) AppleWebKit/537.36 (KHTML, like Gecko) Chrome/137.0.0.0 Safari/537.36","WebKit","Chrome","137.0.0.0","Windows","10.0","https://app.prolific.com/","en-US,en;q=0.9","65f19a1fe38352676f83d5f0","683db7602f5db6a34d12d064","686e2acd3df67b8a16f8f71a","1","65f19a1fe38352676f83d5f0","1","2025-07-09T08:53:10.838Z","","","","","","","","","","","StressQ","","50","","","","","","","","","","","","","","","","","","","","","","","","","","","","",""
"6037","","<div style=""width:500px;"">
  <p>What best describes how you currently feel?</p>
  </div>","6","html-slider-response","58","772919","0.0-5.0-4.9","11","1","2025-07-09 08:40:24","01610cd0009c79a99da7d0a3353eb402","51.36.175.7","Mozilla/5.0 (Windows NT 10.0; Win64; x64) AppleWebKit/537.36 (KHTML, like Gecko) Chrome/137.0.0.0 Safari/537.36","WebKit","Chrome","137.0.0.0","Windows","10.0","https://app.prolific.com/","en-US,en;q=0.9","65f19a1fe38352676f83d5f0","683db7602f5db6a34d12d064","686e2acd3df67b8a16f8f71a","1","65f19a1fe38352676f83d5f0","1","2025-07-09T08:53:16.875Z","","","","","","","","","","","MotivationQ","","50","","","","","","","","","","","","","","","","","","","","","","","","","","","","",""
"","","","","ctl-task-cpt","59","804959","0.0-5.0-0.10","11","1","2025-07-09 08:40:24","01610cd0009c79a99da7d0a3353eb402","51.36.175.7","Mozilla/5.0 (Windows NT 10.0; Win64; x64) AppleWebKit/537.36 (KHTML, like Gecko) Chrome/137.0.0.0 Safari/537.36","WebKit","Chrome","137.0.0.0","Windows","10.0","https://app.prolific.com/","en-US,en;q=0.9","65f19a1fe38352676f83d5f0","683db7602f5db6a34d12d064","686e2acd3df67b8a16f8f71a","1","65f19a1fe38352676f83d5f0","1","2025-07-09T08:53:48.915Z","","","","","","","","","","","","","","win-only","1","g1:NE,g2:SW","0.5","11","0","776072.3","943.1","5946.4","29020.6","1","4","8","6","1","1","1","1","0","0.007575757575757576","1179.3","3000","265","[""up"",""right""]","{""num_key_presses"":6,""num_perfect"":3,""num_errors"":0,""num_randdir"":3,""num_randdir_good_moves"":2,""num_whilered"":0,""num_whileblue"":0,""num_blue"":2,""num_good_moves"":5}","[412.8214133126395,409.07142761775424,0.2,412.8214133126395,409.07142761775424,102.6,412.8214133126395,409.07142761775424,202.9,412.8214133126395,409.07142761775424,308.1,412.8214133126395,409.07142761775424,417,412.8214133126395,409.07142761775424,518.1,449.0714133126395,371.57142761775424,619.3,671.5714133126395,192.82142761775424,722.4,714.0714133126395,156.57142761775424,822.4,721.5714133126395,147.82142761775424,928.5,740.3214133126395,110.32142761775425,1037,740.3214133126395,110.32142761775425,1137.1,740.3214133126395,110.32142761775425,1244.3,740.3214133126395,110.32142761775425,1345,740.3214133126395,110.32142761775425,1448.7,740.3214133126395,110.32142761775425,1551.1,740.3214133126395,110.32142761775425,1652.1,720.3214133126395,110.32142761775425,1752.1,159.0714133126395,176.57142761775424,1853.1,-48.42858668736049,280.32142761775424,1957.4,-48.42858668736049,280.32142761775424,2057.4,-48.42858668736049,280.32142761775424,2157.6,-48.42858668736049,280.32142761775424,2257.6,-48.42858668736049,280.32142761775424,2366.7,-48.42858668736049,280.32142761775424,2468.2,-48.42858668736049,280.32142761775424,2572.8,-48.42858668736049,280.32142761775424,2679.1,-48.42858668736049,280.32142761775424,2780,-48.42858668736049,280.32142761775424,2883,-48.42858668736049,280.32142761775424,2988.1,-48.42858668736049,280.32142761775424,3095.2,-48.42858668736049,280.32142761775424,3198.7,-48.42858668736049,280.32142761775424,3303.1,-48.42858668736049,280.32142761775424,3403.2,-48.42858668736049,280.32142761775424,3508.1,-48.42858668736049,280.32142761775424,3608.4,-48.42858668736049,280.32142761775424,3709.2,-48.42858668736049,280.32142761775424,3811.8,-48.42858668736049,280.32142761775424,3918.1,-48.42858668736049,280.32142761775424,4023.4,-48.42858668736049,280.32142761775424,4130.2,-48.42858668736049,280.32142761775424,4234.4,-48.42858668736049,280.32142761775424,4338.1,-48.42858668736049,280.32142761775424,4444.5,-48.42858668736049,280.32142761775424,4548.1,-48.42858668736049,280.32142761775424,4653.3,-48.42858668736049,280.32142761775424,4757.8,-48.42858668736049,280.32142761775424,4857.9,-48.42858668736049,280.32142761775424,4965.6]","[1893.8,1893.8,1000,0,893.8,""smooth"",""right"",""right"",""good_move"",4658.3,2764.2,2383.3,1894.1,380.9,""oops"",""right"",""left"",""bad_move"",11189.7,6530.9,2431.9,8350,407.8,""oops"",""right"",""up"",""good_move"",18007.3,6817.3,2152.5,15395.3,459.5,""oops"",""right"",""up"",""good_move"",20906.7,2899,2494.8,18007.7,404.2,""smooth"",""right"",""right"",""good_move"",22976.5,2069.4,1713.1,20907.1,356.3,""smooth"",""right"",""right"",""good_move""]","",""
"3142","","<div style=""width:500px;"">
  <p>What determined the result of this run?</p>
  </div>","10","html-slider-response","60","808102","0.0-5.0-1.10","11","1","2025-07-09 08:40:24","01610cd0009c79a99da7d0a3353eb402","51.36.175.7","Mozilla/5.0 (Windows NT 10.0; Win64; x64) AppleWebKit/537.36 (KHTML, like Gecko) Chrome/137.0.0.0 Safari/537.36","WebKit","Chrome","137.0.0.0","Windows","10.0","https://app.prolific.com/","en-US,en;q=0.9","65f19a1fe38352676f83d5f0","683db7602f5db6a34d12d064","686e2acd3df67b8a16f8f71a","1","65f19a1fe38352676f83d5f0","1","2025-07-09T08:53:52.058Z","","","","","","","","","","","AttribQ","","50","","","","","","","","","","","","","","","","","","","","","","","","","","","","",""
"3026","","<div style=""width:500px;"">
  <p>How much control did you have over the ball?</p>
  </div>","24","html-slider-response","61","811129","0.0-5.0-2.10","11","1","2025-07-09 08:40:24","01610cd0009c79a99da7d0a3353eb402","51.36.175.7","Mozilla/5.0 (Windows NT 10.0; Win64; x64) AppleWebKit/537.36 (KHTML, like Gecko) Chrome/137.0.0.0 Safari/537.36","WebKit","Chrome","137.0.0.0","Windows","10.0","https://app.prolific.com/","en-US,en;q=0.9","65f19a1fe38352676f83d5f0","683db7602f5db6a34d12d064","686e2acd3df67b8a16f8f71a","1","65f19a1fe38352676f83d5f0","1","2025-07-09T08:53:55.086Z","","","","","","","","","","","ControlQ","","50","","","","","","","","","","","","","","","","","","","","","","","","","","","","",""
"2875","","<div style=""width:500px;"">
  <p>How would you describe your current emotional state?</p>
  </div>","75","html-slider-response","62","814006","0.0-5.0-3.10","11","1","2025-07-09 08:40:24","01610cd0009c79a99da7d0a3353eb402","51.36.175.7","Mozilla/5.0 (Windows NT 10.0; Win64; x64) AppleWebKit/537.36 (KHTML, like Gecko) Chrome/137.0.0.0 Safari/537.36","WebKit","Chrome","137.0.0.0","Windows","10.0","https://app.prolific.com/","en-US,en;q=0.9","65f19a1fe38352676f83d5f0","683db7602f5db6a34d12d064","686e2acd3df67b8a16f8f71a","1","65f19a1fe38352676f83d5f0","1","2025-07-09T08:53:57.962Z","","","","","","","","","","","StressQ","","50","","","","","","","","","","","","","","","","","","","","","","","","","","","","",""
"2211","","<div style=""width:500px;"">
  <p>What best describes how you currently feel?</p>
  </div>","27","html-slider-response","63","816217","0.0-5.0-4.10","11","1","2025-07-09 08:40:24","01610cd0009c79a99da7d0a3353eb402","51.36.175.7","Mozilla/5.0 (Windows NT 10.0; Win64; x64) AppleWebKit/537.36 (KHTML, like Gecko) Chrome/137.0.0.0 Safari/537.36","WebKit","Chrome","137.0.0.0","Windows","10.0","https://app.prolific.com/","en-US,en;q=0.9","65f19a1fe38352676f83d5f0","683db7602f5db6a34d12d064","686e2acd3df67b8a16f8f71a","1","65f19a1fe38352676f83d5f0","1","2025-07-09T08:54:00.173Z","","","","","","","","","","","MotivationQ","","50","","","","","","","","","","","","","","","","","","","","","","","","","","","","",""
"","","","","ctl-task-cpt","64","848887","0.0-5.0-0.11","11","1","2025-07-09 08:40:24","01610cd0009c79a99da7d0a3353eb402","51.36.175.7","Mozilla/5.0 (Windows NT 10.0; Win64; x64) AppleWebKit/537.36 (KHTML, like Gecko) Chrome/137.0.0.0 Safari/537.36","WebKit","Chrome","137.0.0.0","Windows","10.0","https://app.prolific.com/","en-US,en;q=0.9","65f19a1fe38352676f83d5f0","683db7602f5db6a34d12d064","686e2acd3df67b8a16f8f71a","1","65f19a1fe38352676f83d5f0","1","2025-07-09T08:54:32.843Z","","","","","","","","","","","","","","win-only","2","g1:SE,g2:NW","0.6","12","0","819370.2","1120.6","6121.2","29651.3","1","4","4","6","1","-1","-1","0","1","0","1202.5","3000","-2815","[""down"",""right""]","{""num_key_presses"":6,""num_perfect"":4,""num_errors"":0,""num_randdir"":2,""num_randdir_good_moves"":0,""num_whilered"":0,""num_whileblue"":0,""num_blue"":1,""num_good_moves"":4}","[417.8214133126395,412.82142761775424,0.3,417.8214133126395,412.82142761775424,100.7,417.8214133126395,412.82142761775424,203,417.8214133126395,412.82142761775424,308.3,417.8214133126395,412.82142761775424,410.3,417.8214133126395,412.82142761775424,515.6,524.0714133126395,567.8214276177542,623.1,630.3214133126395,701.5714276177542,726.6,656.5714133126395,710.3214276177542,830.1,699.0714133126395,731.5714276177542,930.9,731.5714133126395,746.5714276177542,1034.9,731.5714133126395,746.5714276177542,1137.5,731.5714133126395,746.5714276177542,1239.8,731.5714133126395,746.5714276177542,1341,731.5714133126395,746.5714276177542,1446,731.5714133126395,746.5714276177542,1548.4,661.5714133126395,714.0714276177542,1653.5,-34.67858668736049,524.0714276177542,1756.5,-98.4285866873605,481.57142761775424,1859.9,-98.4285866873605,481.57142761775424,1960.1,-98.4285866873605,481.57142761775424,2060.9,-98.4285866873605,481.57142761775424,2165.3,-98.4285866873605,481.57142761775424,2267.7,-98.4285866873605,481.57142761775424,2369.2,-98.4285866873605,481.57142761775424,2471.1,-98.4285866873605,481.57142761775424,2574.8,-98.4285866873605,481.57142761775424,2675.2,-98.4285866873605,481.57142761775424,2775.2,-98.4285866873605,481.57142761775424,2880.9,-98.4285866873605,481.57142761775424,2989.6,-98.4285866873605,481.57142761775424,3091.2,-98.4285866873605,481.57142761775424,3195,-98.4285866873605,481.57142761775424,3295,-98.4285866873605,481.57142761775424,3395.6,-98.4285866873605,481.57142761775424,3503.8,-98.4285866873605,481.57142761775424,3605.7,-98.4285866873605,481.57142761775424,3707.2,-98.4285866873605,481.57142761775424,3811.7,-98.4285866873605,481.57142761775424,3914.6,-98.4285866873605,481.57142761775424,4015.6,-98.4285866873605,481.57142761775424,4118.8,-98.4285866873605,481.57142761775424,4220.5,-98.4285866873605,481.57142761775424,4320.6,-98.4285866873605,481.57142761775424,4422.8,-98.4285866873605,481.57142761775424,4525.9,-98.4285866873605,481.57142761775424,4629.7,-98.4285866873605,481.57142761775424,4736.6,-98.4285866873605,481.57142761775424,4840.6,-98.4285866873605,481.57142761775424,4944.7]","[1839.4,1839.4,1000,0,839.4,""oops"",""down"",""left"",""bad_move"",5012.3,3172.4,2791.6,1839.9,380.8,""smooth"",""down"",""down"",""good_move"",7516.4,2503.5,2091,5012.9,412.5,""smooth"",""down"",""down"",""good_move"",10814.6,3298,2867.9,7516.6,430.1,""oops"",""right"",""left"",""bad_move"",17011.3,6196.1,2579.8,13955.2,476.3,""smooth"",""right"",""right"",""good_move"",20018.1,3006.3,2557.9,17011.9,448.3,""smooth"",""right"",""right"",""good_move""]","",""
"5301","","<div style=""width:500px;"">
  <p>What determined the result of this run?</p>
  </div>","2","html-slider-response","65","854189","0.0-5.0-1.11","11","1","2025-07-09 08:40:24","01610cd0009c79a99da7d0a3353eb402","51.36.175.7","Mozilla/5.0 (Windows NT 10.0; Win64; x64) AppleWebKit/537.36 (KHTML, like Gecko) Chrome/137.0.0.0 Safari/537.36","WebKit","Chrome","137.0.0.0","Windows","10.0","https://app.prolific.com/","en-US,en;q=0.9","65f19a1fe38352676f83d5f0","683db7602f5db6a34d12d064","686e2acd3df67b8a16f8f71a","1","65f19a1fe38352676f83d5f0","1","2025-07-09T08:54:38.145Z","","","","","","","","","","","AttribQ","","50","","","","","","","","","","","","","","","","","","","","","","","","","","","","",""
"2624","","<div style=""width:500px;"">
  <p>How much control did you have over the ball?</p>
  </div>","7","html-slider-response","66","856814","0.0-5.0-2.11","11","1","2025-07-09 08:40:24","01610cd0009c79a99da7d0a3353eb402","51.36.175.7","Mozilla/5.0 (Windows NT 10.0; Win64; x64) AppleWebKit/537.36 (KHTML, like Gecko) Chrome/137.0.0.0 Safari/537.36","WebKit","Chrome","137.0.0.0","Windows","10.0","https://app.prolific.com/","en-US,en;q=0.9","65f19a1fe38352676f83d5f0","683db7602f5db6a34d12d064","686e2acd3df67b8a16f8f71a","1","65f19a1fe38352676f83d5f0","1","2025-07-09T08:54:40.770Z","","","","","","","","","","","ControlQ","","50","","","","","","","","","","","","","","","","","","","","","","","","","","","","",""
"2128","","<div style=""width:500px;"">
  <p>How would you describe your current emotional state?</p>
  </div>","88","html-slider-response","67","858943","0.0-5.0-3.11","11","1","2025-07-09 08:40:24","01610cd0009c79a99da7d0a3353eb402","51.36.175.7","Mozilla/5.0 (Windows NT 10.0; Win64; x64) AppleWebKit/537.36 (KHTML, like Gecko) Chrome/137.0.0.0 Safari/537.36","WebKit","Chrome","137.0.0.0","Windows","10.0","https://app.prolific.com/","en-US,en;q=0.9","65f19a1fe38352676f83d5f0","683db7602f5db6a34d12d064","686e2acd3df67b8a16f8f71a","1","65f19a1fe38352676f83d5f0","1","2025-07-09T08:54:42.899Z","","","","","","","","","","","StressQ","","50","","","","","","","","","","","","","","","","","","","","","","","","","","","","",""
"2464","","<div style=""width:500px;"">
  <p>What best describes how you currently feel?</p>
  </div>","8","html-slider-response","68","861408","0.0-5.0-4.11","11","1","2025-07-09 08:40:24","01610cd0009c79a99da7d0a3353eb402","51.36.175.7","Mozilla/5.0 (Windows NT 10.0; Win64; x64) AppleWebKit/537.36 (KHTML, like Gecko) Chrome/137.0.0.0 Safari/537.36","WebKit","Chrome","137.0.0.0","Windows","10.0","https://app.prolific.com/","en-US,en;q=0.9","65f19a1fe38352676f83d5f0","683db7602f5db6a34d12d064","686e2acd3df67b8a16f8f71a","1","65f19a1fe38352676f83d5f0","1","2025-07-09T08:54:45.364Z","","","","","","","","","","","MotivationQ","","50","","","","","","","","","","","","","","","","","","","","","","","","","","","","",""
"","","","","ctl-task-cpt","69","893042","0.0-5.0-0.12","11","1","2025-07-09 08:40:24","01610cd0009c79a99da7d0a3353eb402","51.36.175.7","Mozilla/5.0 (Windows NT 10.0; Win64; x64) AppleWebKit/537.36 (KHTML, like Gecko) Chrome/137.0.0.0 Safari/537.36","WebKit","Chrome","137.0.0.0","Windows","10.0","https://app.prolific.com/","en-US,en;q=0.9","65f19a1fe38352676f83d5f0","683db7602f5db6a34d12d064","686e2acd3df67b8a16f8f71a","1","65f19a1fe38352676f83d5f0","1","2025-07-09T08:55:16.998Z","","","","","","","","","","","","","","win-only","2","g1:SE,g2:NW","0.7","13","0","864560.5","1000","6001.1","28616.7","1","4","4","6","1","1","1","1","0","0.007575757575757576","1224.6","3000","1445","[""down"",""right""]","{""num_key_presses"":4,""num_perfect"":3,""num_errors"":0,""num_randdir"":1,""num_randdir_good_moves"":1,""num_whilered"":0,""num_whileblue"":0,""num_blue"":3,""num_good_moves"":4}","[407.8214133126395,421.57142761775424,0.4,407.8214133126395,421.57142761775424,101.2,407.8214133126395,421.57142761775424,206.1,407.8214133126395,421.57142761775424,313.7,407.8214133126395,421.57142761775424,416.6,407.8214133126395,421.57142761775424,520.7,527.8214133126395,557.8214276177542,621,657.8214133126395,685.3214276177542,725.6,674.0714133126395,696.5714276177542,825.6,674.0714133126395,696.5714276177542,926.4,741.5714133126395,746.5714276177542,1031.8,760.3214133126395,770.3214276177542,1136.1,760.3214133126395,770.3214276177542,1240.8,760.3214133126395,770.3214276177542,1341.2,760.3214133126395,770.3214276177542,1449.7,760.3214133126395,770.3214276177542,1552,496.5714133126395,662.8214276177542,1656.1,10.321413312639507,527.8214276177542,1764.5,6.571413312639507,524.0714276177542,1867.7,6.571413312639507,524.0714276177542,1971.5,6.571413312639507,524.0714276177542,2075.6,6.571413312639507,524.0714276177542,2185.2,-98.4285866873605,520.3214276177542,2287.5,-97.1785866873605,517.8214276177542,2391.4,-97.1785866873605,517.8214276177542,2503.8,-97.1785866873605,517.8214276177542,2608.4,-97.1785866873605,517.8214276177542,2716,-97.1785866873605,517.8214276177542,2817,-97.1785866873605,517.8214276177542,2920.3,-97.1785866873605,517.8214276177542,3025.4,-97.1785866873605,517.8214276177542,3130.7,-97.1785866873605,517.8214276177542,3231.9,-97.1785866873605,517.8214276177542,3336.9,-97.1785866873605,517.8214276177542,3443.5,-97.1785866873605,517.8214276177542,3547.3,-97.1785866873605,517.8214276177542,3651.1,-97.1785866873605,517.8214276177542,3755.3,-97.1785866873605,517.8214276177542,3856.4,-97.1785866873605,517.8214276177542,3967,-97.1785866873605,517.8214276177542,4072,-97.1785866873605,517.8214276177542,4181,-97.1785866873605,517.8214276177542,4281.4,-97.1785866873605,517.8214276177542,4386.1,-97.1785866873605,517.8214276177542,4486.6,-97.1785866873605,517.8214276177542,4591.1,-97.1785866873605,517.8214276177542,4697.5,-97.1785866873605,517.8214276177542,4802,-97.1785866873605,517.8214276177542,4905.3]","[1448,1448,1000,0,448,""smooth"",""down"",""down"",""good_move"",3714.1,2265.9,1834,1448.2,431.9,""smooth"",""down"",""down"",""good_move"",18588.4,14874.2,2901.1,15244.1,443.2,""oops"",""right"",""right"",""good_move"",22518.4,3929.8,3501.1,18588.7,428.7,""smooth"",""right"",""right"",""good_move""]","",""
"2186","","<div style=""width:500px;"">
  <p>What determined the result of this run?</p>
  </div>","26","html-slider-response","70","895229","0.0-5.0-1.12","11","1","2025-07-09 08:40:24","01610cd0009c79a99da7d0a3353eb402","51.36.175.7","Mozilla/5.0 (Windows NT 10.0; Win64; x64) AppleWebKit/537.36 (KHTML, like Gecko) Chrome/137.0.0.0 Safari/537.36","WebKit","Chrome","137.0.0.0","Windows","10.0","https://app.prolific.com/","en-US,en;q=0.9","65f19a1fe38352676f83d5f0","683db7602f5db6a34d12d064","686e2acd3df67b8a16f8f71a","1","65f19a1fe38352676f83d5f0","1","2025-07-09T08:55:19.185Z","","","","","","","","","","","AttribQ","","50","","","","","","","","","","","","","","","","","","","","","","","","","","","","",""
"3098","","<div style=""width:500px;"">
  <p>How much control did you have over the ball?</p>
  </div>","32","html-slider-response","71","898328","0.0-5.0-2.12","11","1","2025-07-09 08:40:24","01610cd0009c79a99da7d0a3353eb402","51.36.175.7","Mozilla/5.0 (Windows NT 10.0; Win64; x64) AppleWebKit/537.36 (KHTML, like Gecko) Chrome/137.0.0.0 Safari/537.36","WebKit","Chrome","137.0.0.0","Windows","10.0","https://app.prolific.com/","en-US,en;q=0.9","65f19a1fe38352676f83d5f0","683db7602f5db6a34d12d064","686e2acd3df67b8a16f8f71a","1","65f19a1fe38352676f83d5f0","1","2025-07-09T08:55:22.284Z","","","","","","","","","","","ControlQ","","50","","","","","","","","","","","","","","","","","","","","","","","","","","","","",""
"2062","","<div style=""width:500px;"">
  <p>How would you describe your current emotional state?</p>
  </div>","67","html-slider-response","72","900391","0.0-5.0-3.12","11","1","2025-07-09 08:40:24","01610cd0009c79a99da7d0a3353eb402","51.36.175.7","Mozilla/5.0 (Windows NT 10.0; Win64; x64) AppleWebKit/537.36 (KHTML, like Gecko) Chrome/137.0.0.0 Safari/537.36","WebKit","Chrome","137.0.0.0","Windows","10.0","https://app.prolific.com/","en-US,en;q=0.9","65f19a1fe38352676f83d5f0","683db7602f5db6a34d12d064","686e2acd3df67b8a16f8f71a","1","65f19a1fe38352676f83d5f0","1","2025-07-09T08:55:24.347Z","","","","","","","","","","","StressQ","","50","","","","","","","","","","","","","","","","","","","","","","","","","","","","",""
"2097","","<div style=""width:500px;"">
  <p>What best describes how you currently feel?</p>
  </div>","22","html-slider-response","73","902490","0.0-5.0-4.12","11","1","2025-07-09 08:40:24","01610cd0009c79a99da7d0a3353eb402","51.36.175.7","Mozilla/5.0 (Windows NT 10.0; Win64; x64) AppleWebKit/537.36 (KHTML, like Gecko) Chrome/137.0.0.0 Safari/537.36","WebKit","Chrome","137.0.0.0","Windows","10.0","https://app.prolific.com/","en-US,en;q=0.9","65f19a1fe38352676f83d5f0","683db7602f5db6a34d12d064","686e2acd3df67b8a16f8f71a","1","65f19a1fe38352676f83d5f0","1","2025-07-09T08:55:26.446Z","","","","","","","","","","","MotivationQ","","50","","","","","","","","","","","","","","","","","","","","","","","","","","","","",""
"","","","","ctl-task-cpt","74","930835","0.0-5.0-0.13","11","1","2025-07-09 08:40:24","01610cd0009c79a99da7d0a3353eb402","51.36.175.7","Mozilla/5.0 (Windows NT 10.0; Win64; x64) AppleWebKit/537.36 (KHTML, like Gecko) Chrome/137.0.0.0 Safari/537.36","WebKit","Chrome","137.0.0.0","Windows","10.0","https://app.prolific.com/","en-US,en;q=0.9","65f19a1fe38352676f83d5f0","683db7602f5db6a34d12d064","686e2acd3df67b8a16f8f71a","1","65f19a1fe38352676f83d5f0","1","2025-07-09T08:55:54.791Z","","","","","","","","","","","","","","win-only","3","g1:SW,g2:NE","0.8","14","0","905643.2","1076","6081.5","25326.3","1","4","8","6","1","1","1","2","1","0.015151515151515152","990.9","3000","590","[""down"",""left""]","{""num_key_presses"":6,""num_perfect"":5,""num_errors"":0,""num_randdir"":1,""num_randdir_good_moves"":0,""num_whilered"":0,""num_whileblue"":0,""num_blue"":1,""num_good_moves"":5}","[417.8214133126395,419.07142761775424,0.5,417.8214133126395,419.07142761775424,103.2,417.8214133126395,419.07142761775424,210.9,417.8214133126395,419.07142761775424,314.2,417.8214133126395,419.07142761775424,415.2,417.8214133126395,419.07142761775424,515.5,161.5714133126395,636.5714276177542,619.5,125.3214133126395,726.5714276177542,720.7,95.3214133126395,801.5714276177542,826.3,86.5714133126395,811.5714276177542,929.9,86.5714133126395,811.5714276177542,1034.9,86.5714133126395,811.5714276177542,1139.9,86.5714133126395,811.5714276177542,1244.5,86.5714133126395,811.5714276177542,1355.3,-123.4285866873605,736.5714276177542,1459,-128.4285866873605,734.0714276177542,1567.3,-128.4285866873605,734.0714276177542,1679,-128.4285866873605,734.0714276177542,1779.2,-128.4285866873605,734.0714276177542,1879.3,-128.4285866873605,734.0714276177542,1979.4,-128.4285866873605,734.0714276177542,2081.6,-128.4285866873605,734.0714276177542,2187.4,-128.4285866873605,734.0714276177542,2288.8,-128.4285866873605,734.0714276177542,2390.3,-128.4285866873605,734.0714276177542,2494.7,-128.4285866873605,734.0714276177542,2595.9,-128.4285866873605,734.0714276177542,2701.2,-128.4285866873605,734.0714276177542,2804.6,-128.4285866873605,734.0714276177542,2906.7,-128.4285866873605,734.0714276177542,3009.3,-128.4285866873605,734.0714276177542,3109.3,-128.4285866873605,734.0714276177542,3210.1,-128.4285866873605,734.0714276177542,3318.4,-128.4285866873605,734.0714276177542,3420.1,-128.4285866873605,734.0714276177542,3525,-128.4285866873605,734.0714276177542,3630.2,-128.4285866873605,734.0714276177542,3730.9,-128.4285866873605,734.0714276177542,3840.7,-128.4285866873605,734.0714276177542,3945.5,-128.4285866873605,734.0714276177542,4052.7,-128.4285866873605,734.0714276177542,4155.4,-128.4285866873605,734.0714276177542,4256,-128.4285866873605,734.0714276177542,4359.6,-128.4285866873605,734.0714276177542,4459.8,-128.4285866873605,734.0714276177542,4560,-128.4285866873605,734.0714276177542,4665.3,-128.4285866873605,734.0714276177542,4766.1,-128.4285866873605,734.0714276177542,4866.2,-128.4285866873605,734.0714276177542,4972.9]","[4736.2,4736.2,2230.3,2009.5,496.4,""smooth"",""down"",""down"",""good_move"",7481.3,2744.8,2082.3,4736.5,662.5,""smooth"",""down"",""down"",""good_move"",10247,2765.5,2361.9,7481.5,403.6,""smooth"",""left"",""left"",""good_move"",13372.4,3125.1,2761.8,10247.3,363.3,""oops"",""left"",""right"",""bad_move"",16204.1,2831.5,2474.5,13372.6,357,""smooth"",""left"",""left"",""good_move"",19141.7,2937.4,2579.5,16204.3,357.9,""smooth"",""left"",""left"",""good_move""]","",""
"2075","","<div style=""width:500px;"">
  <p>What determined the result of this run?</p>
  </div>","16","html-slider-response","75","932911","0.0-5.0-1.13","11","1","2025-07-09 08:40:24","01610cd0009c79a99da7d0a3353eb402","51.36.175.7","Mozilla/5.0 (Windows NT 10.0; Win64; x64) AppleWebKit/537.36 (KHTML, like Gecko) Chrome/137.0.0.0 Safari/537.36","WebKit","Chrome","137.0.0.0","Windows","10.0","https://app.prolific.com/","en-US,en;q=0.9","65f19a1fe38352676f83d5f0","683db7602f5db6a34d12d064","686e2acd3df67b8a16f8f71a","1","65f19a1fe38352676f83d5f0","1","2025-07-09T08:55:56.867Z","","","","","","","","","","","AttribQ","","50","","","","","","","","","","","","","","","","","","","","","","","","","","","","",""
"4076","","<div style=""width:500px;"">
  <p>How much control did you have over the ball?</p>
  </div>","23","html-slider-response","76","936988","0.0-5.0-2.13","11","1","2025-07-09 08:40:24","01610cd0009c79a99da7d0a3353eb402","51.36.175.7","Mozilla/5.0 (Windows NT 10.0; Win64; x64) AppleWebKit/537.36 (KHTML, like Gecko) Chrome/137.0.0.0 Safari/537.36","WebKit","Chrome","137.0.0.0","Windows","10.0","https://app.prolific.com/","en-US,en;q=0.9","65f19a1fe38352676f83d5f0","683db7602f5db6a34d12d064","686e2acd3df67b8a16f8f71a","1","65f19a1fe38352676f83d5f0","1","2025-07-09T08:56:00.944Z","","","","","","","","","","","ControlQ","","50","","","","","","","","","","","","","","","","","","","","","","","","","","","","",""
"2694","","<div style=""width:500px;"">
  <p>How would you describe your current emotional state?</p>
  </div>","79","html-slider-response","77","939683","0.0-5.0-3.13","11","1","2025-07-09 08:40:24","01610cd0009c79a99da7d0a3353eb402","51.36.175.7","Mozilla/5.0 (Windows NT 10.0; Win64; x64) AppleWebKit/537.36 (KHTML, like Gecko) Chrome/137.0.0.0 Safari/537.36","WebKit","Chrome","137.0.0.0","Windows","10.0","https://app.prolific.com/","en-US,en;q=0.9","65f19a1fe38352676f83d5f0","683db7602f5db6a34d12d064","686e2acd3df67b8a16f8f71a","1","65f19a1fe38352676f83d5f0","1","2025-07-09T08:56:03.639Z","","","","","","","","","","","StressQ","","50","","","","","","","","","","","","","","","","","","","","","","","","","","","","",""
"3287","","<div style=""width:500px;"">
  <p>What best describes how you currently feel?</p>
  </div>","18","html-slider-response","78","942971","0.0-5.0-4.13","11","1","2025-07-09 08:40:24","01610cd0009c79a99da7d0a3353eb402","51.36.175.7","Mozilla/5.0 (Windows NT 10.0; Win64; x64) AppleWebKit/537.36 (KHTML, like Gecko) Chrome/137.0.0.0 Safari/537.36","WebKit","Chrome","137.0.0.0","Windows","10.0","https://app.prolific.com/","en-US,en;q=0.9","65f19a1fe38352676f83d5f0","683db7602f5db6a34d12d064","686e2acd3df67b8a16f8f71a","1","65f19a1fe38352676f83d5f0","1","2025-07-09T08:56:06.927Z","","","","","","","","","","","MotivationQ","","50","","","","","","","","","","","","","","","","","","","","","","","","","","","","",""
