"rt","response_timestamp","stimulus","response","trial_type","trial_index","time_elapsed","internal_node_id","run_id","condition","recorded_at","source_code_version","ip","user_agent","device","browser","browser_version","platform","platform_version","referer","accept_language","PROLIFIC_PID","STUDY_ID","SESSION_ID","WEEK","BATCH","prolific_id","week","batch","realtime","success","responses","item_order","radio_event_ids","radio_event_times","key_event_times","mouse_event_times","straightlining","zigzagging","honeypot","eventType","view_history","slider_start","which_type","canvas_config","goals_layout","control_level","trial_number","tutorial_trial_number","trial_start_time","phase1_start_time","phase2_start_time","phase3_start_time","goal_1_value","goal_1_distance","goal_2_value","goal_2_distance","goal_selected","outcome","outcome_total","participant_final_score","participant_initial_score","participant_final_score_prop","goal_choice_rt","allocated_time","allocated_time_remaining","goal_direction","counts","mouse_movements","key_presses","question_order","question_id"
"2399","1753260251417","<p style='font-size:40px;line-height:1.25'><strong>Welcome to the experiment!</strong></p><p style='font-size:1.1em;line-height:1.25'>Thank you for participanting in our experiment again! You will be asked to play the Dysfunctional Ball Game again. We will briefly recap the rules before we start.</p><p style='font-size:1.1em;line-height:1.25'>Press <strong>Next</strong> to continue.</p>","0","custom-html-button-response","0","2405","0.0-0.0","197","1","2025-07-23 08:44:01","1f75c3e559b7213887762d5229550c2b","41.144.1.31","Mozilla/5.0 (Windows NT 10.0; Win64; x64) AppleWebKit/537.36 (KHTML, like Gecko) Chrome/138.0.0.0 Safari/537.36","WebKit","Chrome","138.0.0.0","Windows","10.0","null","en-US,en;q=0.9","669f76a7112b8713f104644c","683db9eb0562dbf637994deb","6880825847cb550288118904","2","1","669f76a7112b8713f104644c","2","1","2025-07-23T08:44:11.418Z","","","","","","","","","","","","","","","","","","","","","","","","","","","","","","","","","","","","","","","","","",""
"1248","","","","fullscreen","1","4668","0.0-1.0","197","1","2025-07-23 08:44:01","1f75c3e559b7213887762d5229550c2b","41.144.1.31","Mozilla/5.0 (Windows NT 10.0; Win64; x64) AppleWebKit/537.36 (KHTML, like Gecko) Chrome/138.0.0.0 Safari/537.36","WebKit","Chrome","138.0.0.0","Windows","10.0","null","en-US,en;q=0.9","669f76a7112b8713f104644c","683db9eb0562dbf637994deb","6880825847cb550288118904","2","1","669f76a7112b8713f104644c","2","1","","true","","","","","","","","","","","","","","","","","","","","","","","","","","","","","","","","","","","","","","","","",""
"1892","1753260255574","<p style='font-size:1.1em;line-height:1.25'>In the following, we will ask you a few questions relating to your feelings in the last 24 hours.<br></p><p style='font-size:1.1em;line-height:1.25'>Press the <strong>Next</strong> button to continue.</p>","0","custom-html-button-response","2","6562","0.0-2.0-0.0","197","1","2025-07-23 08:44:01","1f75c3e559b7213887762d5229550c2b","41.144.1.31","Mozilla/5.0 (Windows NT 10.0; Win64; x64) AppleWebKit/537.36 (KHTML, like Gecko) Chrome/138.0.0.0 Safari/537.36","WebKit","Chrome","138.0.0.0","Windows","10.0","null","en-US,en;q=0.9","669f76a7112b8713f104644c","683db9eb0562dbf637994deb","6880825847cb550288118904","2","1","669f76a7112b8713f104644c","2","1","2025-07-23T08:44:15.575Z","","","","","","","","","","","","","","","","","","","","","","","","","","","","","","","","","","","","","","","","","",""
"83227.5","","","","survey-template","3","89795","0.0-2.0-1.0","197","1","2025-07-23 08:44:01","1f75c3e559b7213887762d5229550c2b","41.144.1.31","Mozilla/5.0 (Windows NT 10.0; Win64; x64) AppleWebKit/537.36 (KHTML, like Gecko) Chrome/138.0.0.0 Safari/537.36","WebKit","Chrome","138.0.0.0","Windows","10.0","null","en-US,en;q=0.9","669f76a7112b8713f104644c","683db9eb0562dbf637994deb","6880825847cb550288118904","2","1","669f76a7112b8713f104644c","2","1","2025-07-23T08:45:38.808Z","","{""Q01"":""2"",""Q02"":""2"",""Q03"":""3"",""Q04"":""1"",""Q05"":""0"",""Q06"":""4"",""Q07"":""2"",""Q08"":""0"",""Q09"":""4"",""Q10"":""2"",""Q11"":""2"",""Q12"":""4"",""Q13"":""5"",""Q14"":""5"",""Q15"":""4"",""Q16"":""4"",""Q17"":""5"",""Q18"":""5"",""Q19"":""0"",""Q20"":""1"",""Q21"":""1"",""Q22"":""2""}","[0,1,2,3,4,5,6,7,8,9,10,11,12,13,14,15,16,17,18,19,20,21]","[""Q01"",""Q02"",""Q03"",""Q04"",""Q05"",""Q06"",""Q07"",""Q08"",""Q09"",""Q10"",""Q10"",""Q11"",""Q12"",""Q13"",""Q14"",""Q15"",""Q16"",""Q17"",""Q18"",""Q19"",""Q20"",""Q20"",""Q21"",""Q22"",""Q22""]","[6371.200000047684,9074.299999952316,11559.200000047684,14667.5,15856.799999952316,21262.700000047684,25092.900000095367,29323.5,35723.700000047684,37375.40000009537,39351.90000009537,42705.59999990463,48814.700000047684,50257.5,53898.40000009537,57056.5,59526.700000047684,62848.700000047684,66220.09999990463,69398.29999995232,72441,76693.09999990463,77701.20000004768,78940.90000009537,82030.29999995232]","[]","[0.09999990463256836,5595.099999904633,6371.200000047684,7380.099999904633,8225.700000047684,9074.299999952316,11559.200000047684,13884.700000047684,14667.5,15856.799999952316,21262.700000047684,25092.900000095367,26400.599999904633,27209.799999952316,27401.400000095367,29323.5,34584.5,35723.700000047684,37375.40000009537,39351.90000009537,41059,42705.59999990463,45037.5,45140,46307,46901.200000047684,48003.09999990463,48814.700000047684,50257.5,53898.40000009537,56338.90000009537,57056.5,58146,58776.299999952316,59526.700000047684,62848.700000047684,64308.59999990463,66220.09999990463,67511.79999995232,68362,69398.29999995232,71558.20000004768,72441,74878.40000009537,75757.20000004768,76693.09999990463,77701.20000004768,78940.90000009537,82030.29999995232,83220.09999990463]","0.2727272727272727","0.38095238095238093","0","drsp","","","","","","","","","","","","","","","","","","","","","","","","","","","","","","",""
"12477.599999904633","","","","survey-template","4","102275","0.0-2.0-2.0","197","1","2025-07-23 08:44:01","1f75c3e559b7213887762d5229550c2b","41.144.1.31","Mozilla/5.0 (Windows NT 10.0; Win64; x64) AppleWebKit/537.36 (KHTML, like Gecko) Chrome/138.0.0.0 Safari/537.36","WebKit","Chrome","138.0.0.0","Windows","10.0","null","en-US,en;q=0.9","669f76a7112b8713f104644c","683db9eb0562dbf637994deb","6880825847cb550288118904","2","1","669f76a7112b8713f104644c","2","1","2025-07-23T08:45:51.288Z","","{""Q01"":""4"",""Q02"":""0"",""Q03"":""3""}","[0,1,2]","[""Q01"",""Q02"",""Q03""]","[2716.2000000476837,7546.099999904633,10854.599999904633]","[]","[2716.2000000476837,3944.399999856949,5224,6407,7546.099999904633,10030.700000047684,10854.599999904633,12476.5]","0.3333333333333333","0.5","0","stress","","","","","","","","","","","","","","","","","","","","","","","","","","","","","","",""
"2770","","","","instructions","5","105046","0.0-3.0-0.0","197","1","2025-07-23 08:44:01","1f75c3e559b7213887762d5229550c2b","41.144.1.31","Mozilla/5.0 (Windows NT 10.0; Win64; x64) AppleWebKit/537.36 (KHTML, like Gecko) Chrome/138.0.0.0 Safari/537.36","WebKit","Chrome","138.0.0.0","Windows","10.0","null","en-US,en;q=0.9","669f76a7112b8713f104644c","683db9eb0562dbf637994deb","6880825847cb550288118904","2","1","669f76a7112b8713f104644c","2","1","","","","","","","","","","","","","[{""page_index"":0,""viewing_time"":2770}]","","","","","","","","","","","","","","","","","","","","","","","","","","","","","",""
"6109","","<p>Before you start with this game please answer the following three questions yourself. </p>
  <p>Through this game, we measure several aspects of your cognitive performance, such as reaction times, multi-tasking capabilities </p>
  <p>and the ability to assess the situation you are in.</p>
  <p></p>
  <p><b>How good do you usually are in such tasks?</b></p>","95","html-slider-response","6","111158","0.0-4.0-0.0","197","1","2025-07-23 08:44:01","1f75c3e559b7213887762d5229550c2b","41.144.1.31","Mozilla/5.0 (Windows NT 10.0; Win64; x64) AppleWebKit/537.36 (KHTML, like Gecko) Chrome/138.0.0.0 Safari/537.36","WebKit","Chrome","138.0.0.0","Windows","10.0","null","en-US,en;q=0.9","669f76a7112b8713f104644c","683db9eb0562dbf637994deb","6880825847cb550288118904","2","1","669f76a7112b8713f104644c","2","1","2025-07-23T08:46:00.171Z","","","","","","","","","","","PreSkillQ","","50","","","","","","","","","","","","","","","","","","","","","","","","","","","","",""
"4711","","<div style=""width:500px;"">
  <p>How well do you think you will perform in this task compared to other participants?</p>
  </div>","93","html-slider-response","7","115870","0.0-4.0-1.0","197","1","2025-07-23 08:44:01","1f75c3e559b7213887762d5229550c2b","41.144.1.31","Mozilla/5.0 (Windows NT 10.0; Win64; x64) AppleWebKit/537.36 (KHTML, like Gecko) Chrome/138.0.0.0 Safari/537.36","WebKit","Chrome","138.0.0.0","Windows","10.0","null","en-US,en;q=0.9","669f76a7112b8713f104644c","683db9eb0562dbf637994deb","6880825847cb550288118904","2","1","669f76a7112b8713f104644c","2","1","2025-07-23T08:46:04.883Z","","","","","","","","","","","PrePerfQ","","50","","","","","","","","","","","","","","","","","","","","","","","","","","","","",""
"3295","","<div style=""width:500px;"">
  <p>What best describes how you currently feel?</p>
  </div>","96","html-slider-response","8","119166","0.0-4.0-2.0","197","1","2025-07-23 08:44:01","1f75c3e559b7213887762d5229550c2b","41.144.1.31","Mozilla/5.0 (Windows NT 10.0; Win64; x64) AppleWebKit/537.36 (KHTML, like Gecko) Chrome/138.0.0.0 Safari/537.36","WebKit","Chrome","138.0.0.0","Windows","10.0","null","en-US,en;q=0.9","669f76a7112b8713f104644c","683db9eb0562dbf637994deb","6880825847cb550288118904","2","1","669f76a7112b8713f104644c","2","1","2025-07-23T08:46:08.179Z","","","","","","","","","","","PreMotivationQ","","50","","","","","","","","","","","","","","","","","","","","","","","","","","","","",""
"","","","","ctl-task-cpt","9","147756","0.0-5.0-0.0","197","1","2025-07-23 08:44:01","1f75c3e559b7213887762d5229550c2b","41.144.1.31","Mozilla/5.0 (Windows NT 10.0; Win64; x64) AppleWebKit/537.36 (KHTML, like Gecko) Chrome/138.0.0.0 Safari/537.36","WebKit","Chrome","138.0.0.0","Windows","10.0","null","en-US,en;q=0.9","669f76a7112b8713f104644c","683db9eb0562dbf637994deb","6880825847cb550288118904","2","1","669f76a7112b8713f104644c","2","1","2025-07-23T08:46:36.771Z","","","","","","","","","","","","","","win-only","0","g1:NW,g2:SE","1","1","0","128389.1","1704.3","6706.3","25573.9","1","4","4","6","2","4","4","4","0","0.030303030303030304","1832.9","3000","115","[""down"",""right""]","{""num_key_presses"":6,""num_perfect"":6,""num_errors"":0,""num_randdir"":0,""num_randdir_good_moves"":0,""num_whilered"":0,""num_whileblue"":0,""num_blue"":0,""num_good_moves"":6}","[294.22232142857143,303.12857142857143,1,294.22232142857143,303.12857142857143,100.8,294.22232142857143,303.12857142857143,201.4,294.22232142857143,303.12857142857143,303.9,294.22232142857143,303.12857142857143,414.1,294.22232142857143,303.12857142857143,516.7,345.22232142857143,348.12857142857143,616.7,466.22232142857143,452.12857142857143,732.9,466.22232142857143,453.12857142857143,842.7,466.22232142857143,453.12857142857143,951.8,479.22232142857143,472.12857142857143,1053.9,501.22232142857143,478.12857142857143,1161.6,508.22232142857143,491.12857142857143,1268,520.2223214285714,502.12857142857143,1375.3,521.2223214285714,503.12857142857143,1479.1,521.2223214285714,504.12857142857143,1580.2,521.2223214285714,504.12857142857143,1683.6,521.2223214285714,504.12857142857143,1783.8,521.2223214285714,504.12857142857143,1900.2,521.2223214285714,504.12857142857143,2003.1,521.2223214285714,504.12857142857143,2103.6,521.2223214285714,504.12857142857143,2213.1,511.22232142857143,514.1285714285714,2320.1,395.22232142857143,471.12857142857143,2434.4,329.22232142857143,417.12857142857143,2542.7,302.22232142857143,409.12857142857143,2644.2,302.22232142857143,409.12857142857143,2751.7,300.22232142857143,402.12857142857143,2855.7,293.22232142857143,377.12857142857143,2955.7,286.22232142857143,363.12857142857143,3055.7,253.22232142857143,342.12857142857143,3165.1,229.22232142857143,333.12857142857143,3265.4,229.22232142857143,332.12857142857143,3370,229.22232142857143,332.12857142857143,3470.5,229.22232142857143,332.12857142857143,3578.4,229.22232142857143,332.12857142857143,3678.6,229.22232142857143,332.12857142857143,3794.3,229.22232142857143,332.12857142857143,3900.8,229.22232142857143,332.12857142857143,4002.8,229.22232142857143,332.12857142857143,4105.4,229.22232142857143,332.12857142857143,4207.8,229.22232142857143,332.12857142857143,4312.6,229.22232142857143,332.12857142857143,4420.4,229.22232142857143,332.12857142857143,4529.2,229.22232142857143,332.12857142857143,4629.8,229.22232142857143,332.12857142857143,4730.1,229.22232142857143,332.12857142857143,4834.3,229.22232142857143,332.12857142857143,4943.1]","[3173.2,3173.1,1000,0.1,2173.1,""smooth"",""down"",""down"",""good_move"",6005.4,2830.4,2392.3,3175.1,438.2,""smooth"",""down"",""down"",""good_move"",8642.7,2636.3,2247.4,6006.5,388.9,""smooth"",""down"",""down"",""good_move"",12375.6,3731.8,3024,8644,707.7,""smooth"",""right"",""right"",""good_move"",15962.5,3583.2,3215.8,12379.5,367.3,""smooth"",""right"",""right"",""good_move"",18735.8,2772.2,2292.6,15963.7,479.5,""smooth"",""right"",""right"",""good_move""]","",""
"4512","","<div style=""width:500px;"">
  <p>What determined the result of this run?</p>
  </div>","77","html-slider-response","10","152276","0.0-5.0-1.0","197","1","2025-07-23 08:44:01","1f75c3e559b7213887762d5229550c2b","41.144.1.31","Mozilla/5.0 (Windows NT 10.0; Win64; x64) AppleWebKit/537.36 (KHTML, like Gecko) Chrome/138.0.0.0 Safari/537.36","WebKit","Chrome","138.0.0.0","Windows","10.0","null","en-US,en;q=0.9","669f76a7112b8713f104644c","683db9eb0562dbf637994deb","6880825847cb550288118904","2","1","669f76a7112b8713f104644c","2","1","2025-07-23T08:46:41.290Z","","","","","","","","","","","AttribQ","","50","","","","","","","","","","","","","","","","","","","","","","","","","","","","",""
"7019","","<div style=""width:500px;"">
  <p>How much control did you have over the ball?</p>
  </div>","87","html-slider-response","11","159297","0.0-5.0-2.0","197","1","2025-07-23 08:44:01","1f75c3e559b7213887762d5229550c2b","41.144.1.31","Mozilla/5.0 (Windows NT 10.0; Win64; x64) AppleWebKit/537.36 (KHTML, like Gecko) Chrome/138.0.0.0 Safari/537.36","WebKit","Chrome","138.0.0.0","Windows","10.0","null","en-US,en;q=0.9","669f76a7112b8713f104644c","683db9eb0562dbf637994deb","6880825847cb550288118904","2","1","669f76a7112b8713f104644c","2","1","2025-07-23T08:46:48.310Z","","","","","","","","","","","ControlQ","","50","","","","","","","","","","","","","","","","","","","","","","","","","","","","",""
"4804","","<div style=""width:500px;"">
  <p>How would you describe your current emotional state?</p>
  </div>","94","html-slider-response","12","164101","0.0-5.0-3.0","197","1","2025-07-23 08:44:01","1f75c3e559b7213887762d5229550c2b","41.144.1.31","Mozilla/5.0 (Windows NT 10.0; Win64; x64) AppleWebKit/537.36 (KHTML, like Gecko) Chrome/138.0.0.0 Safari/537.36","WebKit","Chrome","138.0.0.0","Windows","10.0","null","en-US,en;q=0.9","669f76a7112b8713f104644c","683db9eb0562dbf637994deb","6880825847cb550288118904","2","1","669f76a7112b8713f104644c","2","1","2025-07-23T08:46:53.115Z","","","","","","","","","","","StressQ","","50","","","","","","","","","","","","","","","","","","","","","","","","","","","","",""
"2456","","<div style=""width:500px;"">
  <p>What best describes how you currently feel?</p>
  </div>","76","html-slider-response","13","166559","0.0-5.0-4.0","197","1","2025-07-23 08:44:01","1f75c3e559b7213887762d5229550c2b","41.144.1.31","Mozilla/5.0 (Windows NT 10.0; Win64; x64) AppleWebKit/537.36 (KHTML, like Gecko) Chrome/138.0.0.0 Safari/537.36","WebKit","Chrome","138.0.0.0","Windows","10.0","null","en-US,en;q=0.9","669f76a7112b8713f104644c","683db9eb0562dbf637994deb","6880825847cb550288118904","2","1","669f76a7112b8713f104644c","2","1","2025-07-23T08:46:55.572Z","","","","","","","","","","","MotivationQ","","50","","","","","","","","","","","","","","","","","","","","","","","","","","","","",""
"","","","","ctl-task-cpt","14","210338","0.0-5.0-0.1","197","1","2025-07-23 08:44:01","1f75c3e559b7213887762d5229550c2b","41.144.1.31","Mozilla/5.0 (Windows NT 10.0; Win64; x64) AppleWebKit/537.36 (KHTML, like Gecko) Chrome/138.0.0.0 Safari/537.36","WebKit","Chrome","138.0.0.0","Windows","10.0","null","en-US,en;q=0.9","669f76a7112b8713f104644c","683db9eb0562dbf637994deb","6880825847cb550288118904","2","1","669f76a7112b8713f104644c","2","1","2025-07-23T08:47:39.352Z","","","","","","","","","","","","","","win-only","2","g1:SE,g2:NW","0.9","2","0","175779.1","1716.6","6720.6","40769.1","1","4","8","6","2","8","8","12","4","0.09090909090909091","1339.9","3000","395","[""left"",""up""]","{""num_key_presses"":8,""num_perfect"":7,""num_errors"":0,""num_randdir"":1,""num_randdir_good_moves"":0,""num_whilered"":0,""num_whileblue"":0,""num_blue"":3,""num_good_moves"":7}","[299.22232142857143,302.12857142857143,1,299.22232142857143,302.12857142857143,105.1,299.22232142857143,302.12857142857143,217.4,299.22232142857143,302.12857142857143,329.7,299.22232142857143,302.12857142857143,437.7,335.22232142857143,372.12857142857143,547,253.22232142857143,295.12857142857143,648.4,78.22232142857143,91.12857142857143,750.9,78.22232142857143,69.12857142857143,855,78.22232142857143,69.12857142857143,971.5,78.22232142857143,69.12857142857143,1081.5,78.22232142857143,69.12857142857143,1199.1,78.22232142857143,69.12857142857143,1300.2,78.22232142857143,69.12857142857143,1402.1,78.22232142857143,69.12857142857143,1514.9,78.22232142857143,69.12857142857143,1618.2,78.22232142857143,69.12857142857143,1719.1,78.22232142857143,69.12857142857143,1821.6,143.22232142857143,148.12857142857143,1926.7,198.22232142857143,214.12857142857143,2038,198.22232142857143,214.12857142857143,2138.4,228.22232142857143,234.12857142857143,2242.1,307.22232142857143,295.12857142857143,2352.2,312.22232142857143,298.12857142857143,2463.6,312.22232142857143,298.12857142857143,2569.2,312.22232142857143,298.12857142857143,2671.7,321.22232142857143,309.12857142857143,2773.8,322.22232142857143,311.12857142857143,2879.1,322.22232142857143,311.12857142857143,2979.4,322.22232142857143,311.12857142857143,3092.6,322.22232142857143,311.12857142857143,3196.9,334.22232142857143,318.12857142857143,3301.3,337.22232142857143,319.12857142857143,3408,337.22232142857143,319.12857142857143,3515,337.22232142857143,319.12857142857143,3620.5,337.22232142857143,319.12857142857143,3721.4,337.22232142857143,319.12857142857143,3822.7,337.22232142857143,319.12857142857143,3928.4,337.22232142857143,319.12857142857143,4036.8,337.22232142857143,319.12857142857143,4142.8,337.22232142857143,319.12857142857143,4243.3,337.22232142857143,319.12857142857143,4346.7,337.22232142857143,319.12857142857143,4452.9,337.22232142857143,319.12857142857143,4555.2,337.22232142857143,319.12857142857143,4657.7,337.22232142857143,319.12857142857143,4763.4,337.22232142857143,319.12857142857143,4864.3,337.22232142857143,319.12857142857143,4967.5]","[9340.8,9340.7,2917.5,5828.9,594.4,""smooth"",""left"",""left"",""good_move"",15353.1,6011.7,2386.8,12490.1,476.3,""smooth"",""left"",""left"",""good_move"",18315.9,2961.3,2472.7,15354.8,488.5,""smooth"",""left"",""left"",""good_move"",21112.8,2793.4,2022.6,18319.5,770.8,""smooth"",""up"",""up"",""good_move"",24008.9,2894.7,2336.5,21114.2,558.2,""oops"",""up"",""down"",""bad_move"",27476.2,3464.4,3090.5,24011.8,373.9,""smooth"",""up"",""up"",""good_move"",30121,2641.9,2086.8,27479.1,555.1,""smooth"",""up"",""up"",""good_move"",33906.5,3784.4,3030.7,30122.1,753.7,""smooth"",""up"",""up"",""good_move""]","",""
"14266","","<div style=""width:500px;"">
  <p>What determined the result of this run?</p>
  </div>","73","html-slider-response","15","224608","0.0-5.0-1.1","197","1","2025-07-23 08:44:01","1f75c3e559b7213887762d5229550c2b","41.144.1.31","Mozilla/5.0 (Windows NT 10.0; Win64; x64) AppleWebKit/537.36 (KHTML, like Gecko) Chrome/138.0.0.0 Safari/537.36","WebKit","Chrome","138.0.0.0","Windows","10.0","null","en-US,en;q=0.9","669f76a7112b8713f104644c","683db9eb0562dbf637994deb","6880825847cb550288118904","2","1","669f76a7112b8713f104644c","2","1","2025-07-23T08:47:53.621Z","","","","","","","","","","","AttribQ","","50","","","","","","","","","","","","","","","","","","","","","","","","","","","","",""
"2982","","<div style=""width:500px;"">
  <p>How much control did you have over the ball?</p>
  </div>","93","html-slider-response","16","227591","0.0-5.0-2.1","197","1","2025-07-23 08:44:01","1f75c3e559b7213887762d5229550c2b","41.144.1.31","Mozilla/5.0 (Windows NT 10.0; Win64; x64) AppleWebKit/537.36 (KHTML, like Gecko) Chrome/138.0.0.0 Safari/537.36","WebKit","Chrome","138.0.0.0","Windows","10.0","null","en-US,en;q=0.9","669f76a7112b8713f104644c","683db9eb0562dbf637994deb","6880825847cb550288118904","2","1","669f76a7112b8713f104644c","2","1","2025-07-23T08:47:56.604Z","","","","","","","","","","","ControlQ","","50","","","","","","","","","","","","","","","","","","","","","","","","","","","","",""
"5370","","<div style=""width:500px;"">
  <p>How would you describe your current emotional state?</p>
  </div>","19","html-slider-response","17","232962","0.0-5.0-3.1","197","1","2025-07-23 08:44:01","1f75c3e559b7213887762d5229550c2b","41.144.1.31","Mozilla/5.0 (Windows NT 10.0; Win64; x64) AppleWebKit/537.36 (KHTML, like Gecko) Chrome/138.0.0.0 Safari/537.36","WebKit","Chrome","138.0.0.0","Windows","10.0","null","en-US,en;q=0.9","669f76a7112b8713f104644c","683db9eb0562dbf637994deb","6880825847cb550288118904","2","1","669f76a7112b8713f104644c","2","1","2025-07-23T08:48:01.976Z","","","","","","","","","","","StressQ","","50","","","","","","","","","","","","","","","","","","","","","","","","","","","","",""
"8591","","<div style=""width:500px;"">
  <p>What best describes how you currently feel?</p>
  </div>","84","html-slider-response","18","241554","0.0-5.0-4.1","197","1","2025-07-23 08:44:01","1f75c3e559b7213887762d5229550c2b","41.144.1.31","Mozilla/5.0 (Windows NT 10.0; Win64; x64) AppleWebKit/537.36 (KHTML, like Gecko) Chrome/138.0.0.0 Safari/537.36","WebKit","Chrome","138.0.0.0","Windows","10.0","null","en-US,en;q=0.9","669f76a7112b8713f104644c","683db9eb0562dbf637994deb","6880825847cb550288118904","2","1","669f76a7112b8713f104644c","2","1","2025-07-23T08:48:10.568Z","","","","","","","","","","","MotivationQ","","50","","","","","","","","","","","","","","","","","","","","","","","","","","","","",""
"","","","","ctl-task-cpt","19","287548","0.0-5.0-0.2","197","1","2025-07-23 08:44:01","1f75c3e559b7213887762d5229550c2b","41.144.1.31","Mozilla/5.0 (Windows NT 10.0; Win64; x64) AppleWebKit/537.36 (KHTML, like Gecko) Chrome/138.0.0.0 Safari/537.36","WebKit","Chrome","138.0.0.0","Windows","10.0","null","en-US,en;q=0.9","669f76a7112b8713f104644c","683db9eb0562dbf637994deb","6880825847cb550288118904","2","1","669f76a7112b8713f104644c","2","1","2025-07-23T08:48:56.561Z","","","","","","","","","","","","","","win-only","3","g1:SW,g2:NE","0.8","3","0","250777.9","2089.6","7094.3","42971.7","1","4","4","6","2","4","3","15","12","0.11363636363636363","1523.7","3000","230","[""up"",""right""]","{""num_key_presses"":9,""num_perfect"":6,""num_errors"":1,""num_randdir"":2,""num_randdir_good_moves"":1,""num_whilered"":0,""num_whileblue"":0,""num_blue"":4,""num_good_moves"":7}","[291.22232142857143,291.12857142857143,3,291.22232142857143,291.12857142857143,114.4,291.22232142857143,291.12857142857143,226.5,291.22232142857143,291.12857142857143,341.1,291.22232142857143,291.12857142857143,442.5,190.22232142857143,377.12857142857143,554.3,257.22232142857143,253.12857142857143,662.5,443.22232142857143,55.128571428571426,772.9,451.22232142857143,49.128571428571426,884,451.22232142857143,49.128571428571426,985,463.22232142857143,45.128571428571426,1089.1,494.22232142857143,50.128571428571426,1192.9,518.2223214285714,52.128571428571426,1297.2,518.2223214285714,51.128571428571426,1417.5,518.2223214285714,51.128571428571426,1517.7,518.2223214285714,51.128571428571426,1618.5,518.2223214285714,51.128571428571426,1719.5,518.2223214285714,51.128571428571426,1824.6,466.22232142857143,99.12857142857143,1925.1,347.22232142857143,237.12857142857143,2026.9,309.22232142857143,257.12857142857143,2132.1,309.22232142857143,257.12857142857143,2236.5,306.22232142857143,265.12857142857143,2340.3,268.22232142857143,306.12857142857143,2446.5,262.22232142857143,316.12857142857143,2561.5,262.22232142857143,315.12857142857143,2672.5,262.22232142857143,315.12857142857143,2773.5,262.22232142857143,315.12857142857143,2876.6,262.22232142857143,315.12857142857143,2977.4,472.22232142857143,101.12857142857143,3088.5,491.22232142857143,86.12857142857143,3191.6,491.22232142857143,85.12857142857143,3294.6,491.22232142857143,85.12857142857143,3398.9,491.22232142857143,85.12857142857143,3502.5,491.22232142857143,85.12857142857143,3605.4,328.22232142857143,278.12857142857143,3708.7,318.22232142857143,287.12857142857143,3810.3,318.22232142857143,287.12857142857143,3919.7,262.22232142857143,339.12857142857143,4022.7,243.22232142857143,346.12857142857143,4129.9,243.22232142857143,346.12857142857143,4236.6,243.22232142857143,346.12857142857143,4343.1,243.22232142857143,346.12857142857143,4448.3,243.22232142857143,346.12857142857143,4554.4,243.22232142857143,346.12857142857143,4659.9,243.22232142857143,346.12857142857143,4760.1,243.22232142857143,346.12857142857143,4860.3,243.22232142857143,346.12857142857143,4960.4]","[1748,1748,1000,0,748,""oops"",""right"",""left"",""bad_move"",4964.4,3214.2,2822.3,1750.2,391.9,""oops"",""up"",""up"",""good_move"",8221.9,3256,2318.6,7618.5,-1715.1,""error"",""-"",""-"",""no_move"",11840.7,3616.8,2132.1,9234.3,474.3,""smooth"",""up"",""up"",""good_move"",17773.3,5931.5,2063.2,15207,503.1,""smooth"",""up"",""up"",""good_move"",26586.9,8811.1,2288.8,23813.1,485,""smooth"",""right"",""right"",""good_move"",30111.1,3523.8,2996,26587.4,527.9,""smooth"",""right"",""right"",""good_move"",32972.2,2859.5,2269.1,30112.7,590.4,""smooth"",""right"",""right"",""good_move"",35746.7,2773,2341.2,32973.7,431.8,""smooth"",""right"",""right"",""good_move""]","",""
"2650","","<div style=""width:500px;"">
  <p>What determined the result of this run?</p>
  </div>","68","html-slider-response","20","290202","0.0-5.0-1.2","197","1","2025-07-23 08:44:01","1f75c3e559b7213887762d5229550c2b","41.144.1.31","Mozilla/5.0 (Windows NT 10.0; Win64; x64) AppleWebKit/537.36 (KHTML, like Gecko) Chrome/138.0.0.0 Safari/537.36","WebKit","Chrome","138.0.0.0","Windows","10.0","null","en-US,en;q=0.9","669f76a7112b8713f104644c","683db9eb0562dbf637994deb","6880825847cb550288118904","2","1","669f76a7112b8713f104644c","2","1","2025-07-23T08:48:59.215Z","","","","","","","","","","","AttribQ","","50","","","","","","","","","","","","","","","","","","","","","","","","","","","","",""
"2166","","<div style=""width:500px;"">
  <p>How much control did you have over the ball?</p>
  </div>","92","html-slider-response","21","292370","0.0-5.0-2.2","197","1","2025-07-23 08:44:01","1f75c3e559b7213887762d5229550c2b","41.144.1.31","Mozilla/5.0 (Windows NT 10.0; Win64; x64) AppleWebKit/537.36 (KHTML, like Gecko) Chrome/138.0.0.0 Safari/537.36","WebKit","Chrome","138.0.0.0","Windows","10.0","null","en-US,en;q=0.9","669f76a7112b8713f104644c","683db9eb0562dbf637994deb","6880825847cb550288118904","2","1","669f76a7112b8713f104644c","2","1","2025-07-23T08:49:01.383Z","","","","","","","","","","","ControlQ","","50","","","","","","","","","","","","","","","","","","","","","","","","","","","","",""
"5555","","<div style=""width:500px;"">
  <p>How would you describe your current emotional state?</p>
  </div>","15","html-slider-response","22","297926","0.0-5.0-3.2","197","1","2025-07-23 08:44:01","1f75c3e559b7213887762d5229550c2b","41.144.1.31","Mozilla/5.0 (Windows NT 10.0; Win64; x64) AppleWebKit/537.36 (KHTML, like Gecko) Chrome/138.0.0.0 Safari/537.36","WebKit","Chrome","138.0.0.0","Windows","10.0","null","en-US,en;q=0.9","669f76a7112b8713f104644c","683db9eb0562dbf637994deb","6880825847cb550288118904","2","1","669f76a7112b8713f104644c","2","1","2025-07-23T08:49:06.940Z","","","","","","","","","","","StressQ","","50","","","","","","","","","","","","","","","","","","","","","","","","","","","","",""
"3695","","<div style=""width:500px;"">
  <p>What best describes how you currently feel?</p>
  </div>","80","html-slider-response","23","301623","0.0-5.0-4.2","197","1","2025-07-23 08:44:01","1f75c3e559b7213887762d5229550c2b","41.144.1.31","Mozilla/5.0 (Windows NT 10.0; Win64; x64) AppleWebKit/537.36 (KHTML, like Gecko) Chrome/138.0.0.0 Safari/537.36","WebKit","Chrome","138.0.0.0","Windows","10.0","null","en-US,en;q=0.9","669f76a7112b8713f104644c","683db9eb0562dbf637994deb","6880825847cb550288118904","2","1","669f76a7112b8713f104644c","2","1","2025-07-23T08:49:10.636Z","","","","","","","","","","","MotivationQ","","50","","","","","","","","","","","","","","","","","","","","","","","","","","","","",""
"","","","","ctl-task-cpt","24","354253","0.0-5.0-0.3","197","1","2025-07-23 08:44:01","1f75c3e559b7213887762d5229550c2b","41.144.1.31","Mozilla/5.0 (Windows NT 10.0; Win64; x64) AppleWebKit/537.36 (KHTML, like Gecko) Chrome/138.0.0.0 Safari/537.36","WebKit","Chrome","138.0.0.0","Windows","10.0","null","en-US,en;q=0.9","669f76a7112b8713f104644c","683db9eb0562dbf637994deb","6880825847cb550288118904","2","1","669f76a7112b8713f104644c","2","1","2025-07-23T08:50:03.266Z","","","","","","","","","","","","","","win-only","3","g1:SW,g2:NE","0.7","4","0","310846.6","1256.6","6262.3","49607.1","1","4","8","6","2","-8","-8","7","15","0.05303030303030303","1054.1","3000","-2095","[""up"",""right""]","{""num_key_presses"":9,""num_perfect"":6,""num_errors"":0,""num_randdir"":3,""num_randdir_good_moves"":1,""num_whilered"":0,""num_whileblue"":0,""num_blue"":4,""num_good_moves"":7}","[298.22232142857143,292.12857142857143,0.2,298.22232142857143,292.12857142857143,102.7,298.22232142857143,292.12857142857143,212.7,298.22232142857143,292.12857142857143,326.6,376.22232142857143,185.12857142857143,446.5,495.22232142857143,33.128571428571426,551,496.22232142857143,33.128571428571426,655.6,507.22232142857143,33.128571428571426,762.1,511.22232142857143,33.128571428571426,872,511.22232142857143,33.128571428571426,976.4,511.22232142857143,33.128571428571426,1080.3,511.22232142857143,33.128571428571426,1180.4,511.22232142857143,33.128571428571426,1281,511.22232142857143,33.128571428571426,1381.3,511.22232142857143,33.128571428571426,1488.6,511.22232142857143,33.128571428571426,1591.6,511.22232142857143,33.128571428571426,1695,511.22232142857143,33.128571428571426,1796.3,511.22232142857143,33.128571428571426,1899.8,511.22232142857143,33.128571428571426,2000.7,511.22232142857143,33.128571428571426,2115,511.22232142857143,33.128571428571426,2223.7,511.22232142857143,33.128571428571426,2326.5,511.22232142857143,33.128571428571426,2427.4,511.22232142857143,33.128571428571426,2528.3,511.22232142857143,33.128571428571426,2636.6,511.22232142857143,33.128571428571426,2744.1,511.22232142857143,33.128571428571426,2845.5,511.22232142857143,33.128571428571426,2946.4,511.22232142857143,33.128571428571426,3047.9,511.22232142857143,33.128571428571426,3149.5,511.22232142857143,33.128571428571426,3253.6,511.22232142857143,33.128571428571426,3355.6,511.22232142857143,33.128571428571426,3455.7,511.22232142857143,33.128571428571426,3560,511.22232142857143,33.128571428571426,3661.9,511.22232142857143,33.128571428571426,3766,511.22232142857143,33.128571428571426,3872.3,511.22232142857143,33.128571428571426,3985.4,511.22232142857143,33.128571428571426,4094.7,511.22232142857143,33.128571428571426,4196,511.22232142857143,33.128571428571426,4299.2,511.22232142857143,33.128571428571426,4400.6,511.22232142857143,33.128571428571426,4500.7,511.22232142857143,33.128571428571426,4605.4,511.22232142857143,33.128571428571426,4706.7,511.22232142857143,33.128571428571426,4809.8,511.22232142857143,33.128571428571426,4912.8]","[1685.8,1685.9,1000,0,685.9,""smooth"",""up"",""up"",""good_move"",7395.4,5708.2,2270.6,4684.4,440.4,""oops"",""up"",""down"",""bad_move"",10915.1,3518,3094.8,7397.1,423.2,""smooth"",""right"",""right"",""good_move"",17609.3,6692.9,2664.1,14463,482.2,""smooth"",""right"",""right"",""good_move"",24320.4,6710.2,2791.7,20964.5,564.2,""smooth"",""right"",""right"",""good_move"",27750.6,3428.9,2895.5,24321.8,533.3,""oops"",""up"",""up"",""good_move"",35459.7,7707.7,2612.2,32440.2,407.3,""oops"",""up"",""down"",""bad_move"",38229.1,2767.5,2314.9,35461.6,452.6,""smooth"",""up"",""up"",""good_move"",41186.8,2957.1,2533.3,38229.7,423.8,""smooth"",""up"",""up"",""good_move""]","",""
"4987","","<div style=""width:500px;"">
  <p>What determined the result of this run?</p>
  </div>","81","html-slider-response","25","359243","0.0-5.0-1.3","197","1","2025-07-23 08:44:01","1f75c3e559b7213887762d5229550c2b","41.144.1.31","Mozilla/5.0 (Windows NT 10.0; Win64; x64) AppleWebKit/537.36 (KHTML, like Gecko) Chrome/138.0.0.0 Safari/537.36","WebKit","Chrome","138.0.0.0","Windows","10.0","null","en-US,en;q=0.9","669f76a7112b8713f104644c","683db9eb0562dbf637994deb","6880825847cb550288118904","2","1","669f76a7112b8713f104644c","2","1","2025-07-23T08:50:08.256Z","","","","","","","","","","","AttribQ","","50","","","","","","","","","","","","","","","","","","","","","","","","","","","","",""
"3270","","<div style=""width:500px;"">
  <p>How much control did you have over the ball?</p>
  </div>","90","html-slider-response","26","362515","0.0-5.0-2.3","197","1","2025-07-23 08:44:01","1f75c3e559b7213887762d5229550c2b","41.144.1.31","Mozilla/5.0 (Windows NT 10.0; Win64; x64) AppleWebKit/537.36 (KHTML, like Gecko) Chrome/138.0.0.0 Safari/537.36","WebKit","Chrome","138.0.0.0","Windows","10.0","null","en-US,en;q=0.9","669f76a7112b8713f104644c","683db9eb0562dbf637994deb","6880825847cb550288118904","2","1","669f76a7112b8713f104644c","2","1","2025-07-23T08:50:11.528Z","","","","","","","","","","","ControlQ","","50","","","","","","","","","","","","","","","","","","","","","","","","","","","","",""
"3708","","<div style=""width:500px;"">
  <p>How would you describe your current emotional state?</p>
  </div>","17","html-slider-response","27","366224","0.0-5.0-3.3","197","1","2025-07-23 08:44:01","1f75c3e559b7213887762d5229550c2b","41.144.1.31","Mozilla/5.0 (Windows NT 10.0; Win64; x64) AppleWebKit/537.36 (KHTML, like Gecko) Chrome/138.0.0.0 Safari/537.36","WebKit","Chrome","138.0.0.0","Windows","10.0","null","en-US,en;q=0.9","669f76a7112b8713f104644c","683db9eb0562dbf637994deb","6880825847cb550288118904","2","1","669f76a7112b8713f104644c","2","1","2025-07-23T08:50:15.238Z","","","","","","","","","","","StressQ","","50","","","","","","","","","","","","","","","","","","","","","","","","","","","","",""
"2479","","<div style=""width:500px;"">
  <p>What best describes how you currently feel?</p>
  </div>","93","html-slider-response","28","368705","0.0-5.0-4.3","197","1","2025-07-23 08:44:01","1f75c3e559b7213887762d5229550c2b","41.144.1.31","Mozilla/5.0 (Windows NT 10.0; Win64; x64) AppleWebKit/537.36 (KHTML, like Gecko) Chrome/138.0.0.0 Safari/537.36","WebKit","Chrome","138.0.0.0","Windows","10.0","null","en-US,en;q=0.9","669f76a7112b8713f104644c","683db9eb0562dbf637994deb","6880825847cb550288118904","2","1","669f76a7112b8713f104644c","2","1","2025-07-23T08:50:17.718Z","","","","","","","","","","","MotivationQ","","50","","","","","","","","","","","","","","","","","","","","","","","","","","","","",""
"","","","","ctl-task-cpt","29","415997","0.0-5.0-0.4","197","1","2025-07-23 08:44:01","1f75c3e559b7213887762d5229550c2b","41.144.1.31","Mozilla/5.0 (Windows NT 10.0; Win64; x64) AppleWebKit/537.36 (KHTML, like Gecko) Chrome/138.0.0.0 Safari/537.36","WebKit","Chrome","138.0.0.0","Windows","10.0","null","en-US,en;q=0.9","669f76a7112b8713f104644c","683db9eb0562dbf637994deb","6880825847cb550288118904","2","1","669f76a7112b8713f104644c","2","1","2025-07-23T08:51:05.010Z","","","","","","","","","","","","","","win-only","0","g1:NW,g2:SE","0.6","5","0","377927.6","2024","7025.8","44270.8","1","4","4","6","2","-4","-5","2","7","0.015151515151515152","1399.5","3000","-1920","[""down"",""right""]","{""num_key_presses"":11,""num_perfect"":6,""num_errors"":1,""num_randdir"":4,""num_randdir_good_moves"":0,""num_whilered"":0,""num_whileblue"":1,""num_blue"":2,""num_good_moves"":7}","[300.22232142857143,302.12857142857143,1.8,300.22232142857143,302.12857142857143,101,300.22232142857143,302.12857142857143,207.7,300.22232142857143,302.12857142857143,310.6,296.22232142857143,295.12857142857143,415.3,295.22232142857143,292.12857142857143,516.3,456.22232142857143,434.12857142857143,618.4,466.22232142857143,450.12857142857143,725.7,466.22232142857143,450.12857142857143,840.3,480.22232142857143,470.12857142857143,944.2,518.2223214285714,509.12857142857143,1044.5,525.2223214285714,535.1285714285714,1147.2,525.2223214285714,532.1285714285714,1259.6,525.2223214285714,532.1285714285714,1363,525.2223214285714,532.1285714285714,1466.7,525.2223214285714,532.1285714285714,1572.7,525.2223214285714,532.1285714285714,1682.1,525.2223214285714,532.1285714285714,1784.1,456.22232142857143,521.1285714285714,1886,294.22232142857143,437.12857142857143,1987.3,292.22232142857143,395.12857142857143,2088.1,292.22232142857143,395.12857142857143,2188.1,280.22232142857143,371.12857142857143,2296.1,259.22232142857143,304.12857142857143,2399.2,263.22232142857143,270.12857142857143,2502,263.22232142857143,269.12857142857143,2602.4,252.22232142857143,266.12857142857143,2708.7,247.22232142857143,259.12857142857143,2816.1,247.22232142857143,259.12857142857143,2920.4,247.22232142857143,259.12857142857143,3038.9,247.22232142857143,259.12857142857143,3145.1,247.22232142857143,259.12857142857143,3248.2,247.22232142857143,259.12857142857143,3348.6,247.22232142857143,259.12857142857143,3448.8,247.22232142857143,259.12857142857143,3558.7,247.22232142857143,259.12857142857143,3672,247.22232142857143,259.12857142857143,3787.5,247.22232142857143,259.12857142857143,3890.6,247.22232142857143,259.12857142857143,4010,247.22232142857143,259.12857142857143,4115.6,247.22232142857143,259.12857142857143,4215.7,247.22232142857143,259.12857142857143,4321.6,247.22232142857143,259.12857142857143,4423.8,247.22232142857143,259.12857142857143,4540.4,247.22232142857143,259.12857142857143,4640.8,247.22232142857143,259.12857142857143,4745.1,247.22232142857143,259.12857142857143,4849.2,247.22232142857143,259.12857142857143,4949.9]","[1671.7,1671.7,1000,0,671.7,""smooth"",""down"",""down"",""good_move"",8027.4,6354.9,2539.6,5072.2,415.7,""smooth"",""down"",""down"",""good_move"",10990.3,2959.9,2540.1,8030.4,419.8,""oops"",""down"",""left"",""bad_move"",13049.3,2054.9,1380,10994.4,674.9,""oops"",""down"",""up"",""bad_move"",16768.5,3717.8,3350.1,13050.7,367.7,""oops"",""right"",""left"",""bad_move"",19506.3,2735.1,2286.1,16771.2,449,""smooth"",""down"",""down"",""good_move"",22893,3384.7,3042.3,19508.5,342.2,""oops"",""down"",""up"",""bad_move"",26096.2,3202,2883.1,22894.2,318.9,""while_blue"",""right"",""down"",""good_move"",28404.6,2307.6,1902,26097.1,405.5,""smooth"",""down"",""down"",""good_move"",31537.7,3132.2,2745.8,28405.5,386.4,""smooth"",""right"",""right"",""good_move"",34556,3013.5,2647.5,31542.5,366,""smooth"",""right"",""right"",""good_move""]","",""
"5738","","<div style=""width:500px;"">
  <p>What determined the result of this run?</p>
  </div>","9","html-slider-response","30","421738","0.0-5.0-1.4","197","1","2025-07-23 08:44:01","1f75c3e559b7213887762d5229550c2b","41.144.1.31","Mozilla/5.0 (Windows NT 10.0; Win64; x64) AppleWebKit/537.36 (KHTML, like Gecko) Chrome/138.0.0.0 Safari/537.36","WebKit","Chrome","138.0.0.0","Windows","10.0","null","en-US,en;q=0.9","669f76a7112b8713f104644c","683db9eb0562dbf637994deb","6880825847cb550288118904","2","1","669f76a7112b8713f104644c","2","1","2025-07-23T08:51:10.751Z","","","","","","","","","","","AttribQ","","50","","","","","","","","","","","","","","","","","","","","","","","","","","","","",""
"2621","","<div style=""width:500px;"">
  <p>How much control did you have over the ball?</p>
  </div>","13","html-slider-response","31","424360","0.0-5.0-2.4","197","1","2025-07-23 08:44:01","1f75c3e559b7213887762d5229550c2b","41.144.1.31","Mozilla/5.0 (Windows NT 10.0; Win64; x64) AppleWebKit/537.36 (KHTML, like Gecko) Chrome/138.0.0.0 Safari/537.36","WebKit","Chrome","138.0.0.0","Windows","10.0","null","en-US,en;q=0.9","669f76a7112b8713f104644c","683db9eb0562dbf637994deb","6880825847cb550288118904","2","1","669f76a7112b8713f104644c","2","1","2025-07-23T08:51:13.374Z","","","","","","","","","","","ControlQ","","50","","","","","","","","","","","","","","","","","","","","","","","","","","","","",""
"5180","","<div style=""width:500px;"">
  <p>How would you describe your current emotional state?</p>
  </div>","88","html-slider-response","32","429542","0.0-5.0-3.4","197","1","2025-07-23 08:44:01","1f75c3e559b7213887762d5229550c2b","41.144.1.31","Mozilla/5.0 (Windows NT 10.0; Win64; x64) AppleWebKit/537.36 (KHTML, like Gecko) Chrome/138.0.0.0 Safari/537.36","WebKit","Chrome","138.0.0.0","Windows","10.0","null","en-US,en;q=0.9","669f76a7112b8713f104644c","683db9eb0562dbf637994deb","6880825847cb550288118904","2","1","669f76a7112b8713f104644c","2","1","2025-07-23T08:51:18.555Z","","","","","","","","","","","StressQ","","50","","","","","","","","","","","","","","","","","","","","","","","","","","","","",""
"5359","","<div style=""width:500px;"">
  <p>What best describes how you currently feel?</p>
  </div>","77","html-slider-response","33","434902","0.0-5.0-4.4","197","1","2025-07-23 08:44:01","1f75c3e559b7213887762d5229550c2b","41.144.1.31","Mozilla/5.0 (Windows NT 10.0; Win64; x64) AppleWebKit/537.36 (KHTML, like Gecko) Chrome/138.0.0.0 Safari/537.36","WebKit","Chrome","138.0.0.0","Windows","10.0","null","en-US,en;q=0.9","669f76a7112b8713f104644c","683db9eb0562dbf637994deb","6880825847cb550288118904","2","1","669f76a7112b8713f104644c","2","1","2025-07-23T08:51:23.915Z","","","","","","","","","","","MotivationQ","","50","","","","","","","","","","","","","","","","","","","","","","","","","","","","",""
"","","","","ctl-task-cpt","34","474845","0.0-5.0-0.5","197","1","2025-07-23 08:44:01","1f75c3e559b7213887762d5229550c2b","41.144.1.31","Mozilla/5.0 (Windows NT 10.0; Win64; x64) AppleWebKit/537.36 (KHTML, like Gecko) Chrome/138.0.0.0 Safari/537.36","WebKit","Chrome","138.0.0.0","Windows","10.0","null","en-US,en;q=0.9","669f76a7112b8713f104644c","683db9eb0562dbf637994deb","6880825847cb550288118904","2","1","669f76a7112b8713f104644c","2","1","2025-07-23T08:52:03.858Z","","","","","","","","","","","","","","win-only","1","g1:NE,g2:SW","0.5","6","0","444123.4","1206.4","6208.7","36933","1","4","8","6","2","-8","-8","0","2","0","1196.3","3000","-2035","[""down"",""left""]","{""num_key_presses"":11,""num_perfect"":5,""num_errors"":0,""num_randdir"":6,""num_randdir_good_moves"":2,""num_whilered"":0,""num_whileblue"":0,""num_blue"":0,""num_good_moves"":7}","[293.22232142857143,297.12857142857143,8.6,293.22232142857143,297.12857142857143,107.5,293.22232142857143,297.12857142857143,213,293.22232142857143,297.12857142857143,316.2,293.22232142857143,297.12857142857143,420.8,115.22232142857143,453.12857142857143,527.3,96.22232142857143,460.12857142857143,632.6,96.22232142857143,460.12857142857143,742.9,63.222321428571426,526.1285714285714,852.1,62.222321428571426,529.1285714285714,954.7,62.222321428571426,530.1285714285714,1056.7,62.222321428571426,530.1285714285714,1159.8,62.222321428571426,530.1285714285714,1260.6,62.222321428571426,530.1285714285714,1366.2,62.222321428571426,530.1285714285714,1467.5,62.222321428571426,524.1285714285714,1571.6,125.22232142857143,358.12857142857143,1675.5,185.22232142857143,286.12857142857143,1776,229.22232142857143,269.12857142857143,1877.2,229.22232142857143,269.12857142857143,1990,229.22232142857143,269.12857142857143,2094.1,232.22232142857143,267.12857142857143,2202.6,315.22232142857143,216.12857142857143,2309.3,318.22232142857143,216.12857142857143,2413.8,319.22232142857143,216.12857142857143,2520.1,325.22232142857143,221.12857142857143,2630.1,328.22232142857143,228.12857142857143,2734.8,329.22232142857143,229.12857142857143,2841.3,330.22232142857143,231.12857142857143,2943.3,330.22232142857143,231.12857142857143,3043.4,330.22232142857143,231.12857142857143,3146.7,330.22232142857143,231.12857142857143,3255,330.22232142857143,231.12857142857143,3373.6,330.22232142857143,231.12857142857143,3475.5,330.22232142857143,231.12857142857143,3578.8,330.22232142857143,231.12857142857143,3683.3,330.22232142857143,231.12857142857143,3788.8,330.22232142857143,231.12857142857143,3893.1,330.22232142857143,231.12857142857143,3994.9,330.22232142857143,231.12857142857143,4097.4,330.22232142857143,231.12857142857143,4199.3,330.22232142857143,231.12857142857143,4300.8,330.22232142857143,231.12857142857143,4406.7,330.22232142857143,231.12857142857143,4508.9,330.22232142857143,231.12857142857143,4620.2,330.22232142857143,231.12857142857143,4722.2,330.22232142857143,231.12857142857143,4825.3,330.22232142857143,231.12857142857143,4932.9]","[1464.8,1464.8,1000,0,464.9,""smooth"",""down"",""down"",""good_move"",3775.8,2309.7,1877.7,1466.1,432,""smooth"",""down"",""down"",""good_move"",7517.2,3740.6,3386,3776.6,354.6,""oops"",""down"",""up"",""bad_move"",10194.2,2676.4,2288,7517.8,388.4,""smooth"",""left"",""left"",""good_move"",12947.9,2752.6,2345.7,10195.3,406.9,""oops"",""left"",""right"",""bad_move"",15854.9,2906.1,2514.8,12948.8,391.3,""oops"",""down"",""down"",""good_move"",18483.3,2626.9,2225.3,15856.4,401.7,""smooth"",""down"",""down"",""good_move"",20866.6,2381.6,1571.6,18485,810,""oops"",""left"",""left"",""good_move"",23658.9,2791,2455.8,20867.9,335.2,""smooth"",""left"",""left"",""good_move"",25895.8,2235.7,1557.8,23660.3,677.8,""oops"",""left"",""right"",""bad_move"",28290.5,2393.2,1897.5,25897.3,495.7,""oops"",""left"",""right"",""bad_move""]","",""
"2823","","<div style=""width:500px;"">
  <p>What determined the result of this run?</p>
  </div>","76","html-slider-response","35","477670","0.0-5.0-1.5","197","1","2025-07-23 08:44:01","1f75c3e559b7213887762d5229550c2b","41.144.1.31","Mozilla/5.0 (Windows NT 10.0; Win64; x64) AppleWebKit/537.36 (KHTML, like Gecko) Chrome/138.0.0.0 Safari/537.36","WebKit","Chrome","138.0.0.0","Windows","10.0","null","en-US,en;q=0.9","669f76a7112b8713f104644c","683db9eb0562dbf637994deb","6880825847cb550288118904","2","1","669f76a7112b8713f104644c","2","1","2025-07-23T08:52:06.683Z","","","","","","","","","","","AttribQ","","50","","","","","","","","","","","","","","","","","","","","","","","","","","","","",""
"1843","","<div style=""width:500px;"">
  <p>How much control did you have over the ball?</p>
  </div>","79","html-slider-response","36","479515","0.0-5.0-2.5","197","1","2025-07-23 08:44:01","1f75c3e559b7213887762d5229550c2b","41.144.1.31","Mozilla/5.0 (Windows NT 10.0; Win64; x64) AppleWebKit/537.36 (KHTML, like Gecko) Chrome/138.0.0.0 Safari/537.36","WebKit","Chrome","138.0.0.0","Windows","10.0","null","en-US,en;q=0.9","669f76a7112b8713f104644c","683db9eb0562dbf637994deb","6880825847cb550288118904","2","1","669f76a7112b8713f104644c","2","1","2025-07-23T08:52:08.528Z","","","","","","","","","","","ControlQ","","50","","","","","","","","","","","","","","","","","","","","","","","","","","","","",""
"3120","","<div style=""width:500px;"">
  <p>How would you describe your current emotional state?</p>
  </div>","55","html-slider-response","37","482637","0.0-5.0-3.5","197","1","2025-07-23 08:44:01","1f75c3e559b7213887762d5229550c2b","41.144.1.31","Mozilla/5.0 (Windows NT 10.0; Win64; x64) AppleWebKit/537.36 (KHTML, like Gecko) Chrome/138.0.0.0 Safari/537.36","WebKit","Chrome","138.0.0.0","Windows","10.0","null","en-US,en;q=0.9","669f76a7112b8713f104644c","683db9eb0562dbf637994deb","6880825847cb550288118904","2","1","669f76a7112b8713f104644c","2","1","2025-07-23T08:52:11.651Z","","","","","","","","","","","StressQ","","50","","","","","","","","","","","","","","","","","","","","","","","","","","","","",""
"2487","","<div style=""width:500px;"">
  <p>What best describes how you currently feel?</p>
  </div>","20","html-slider-response","38","485126","0.0-5.0-4.5","197","1","2025-07-23 08:44:01","1f75c3e559b7213887762d5229550c2b","41.144.1.31","Mozilla/5.0 (Windows NT 10.0; Win64; x64) AppleWebKit/537.36 (KHTML, like Gecko) Chrome/138.0.0.0 Safari/537.36","WebKit","Chrome","138.0.0.0","Windows","10.0","null","en-US,en;q=0.9","669f76a7112b8713f104644c","683db9eb0562dbf637994deb","6880825847cb550288118904","2","1","669f76a7112b8713f104644c","2","1","2025-07-23T08:52:14.139Z","","","","","","","","","","","MotivationQ","","50","","","","","","","","","","","","","","","","","","","","","","","","","","","","",""
"","","","","ctl-task-cpt","39","529027","0.0-5.0-0.6","197","1","2025-07-23 08:44:01","1f75c3e559b7213887762d5229550c2b","41.144.1.31","Mozilla/5.0 (Windows NT 10.0; Win64; x64) AppleWebKit/537.36 (KHTML, like Gecko) Chrome/138.0.0.0 Safari/537.36","WebKit","Chrome","138.0.0.0","Windows","10.0","null","en-US,en;q=0.9","669f76a7112b8713f104644c","683db9eb0562dbf637994deb","6880825847cb550288118904","2","1","669f76a7112b8713f104644c","2","1","2025-07-23T08:52:58.041Z","","","","","","","","","","","","","","win-only","0","g1:NW,g2:SE","0.4","7","0","494348.6","1312.4","6314.7","40887.8","1","4","4","6","2","-4","-4","0","0","0","1509.8","3000","-1595","[""down"",""right""]","{""num_key_presses"":8,""num_perfect"":2,""num_errors"":0,""num_randdir"":6,""num_randdir_good_moves"":2,""num_whilered"":0,""num_whileblue"":0,""num_blue"":2,""num_good_moves"":4}","[289.22232142857143,302.12857142857143,2.7,289.22232142857143,302.12857142857143,110.5,289.22232142857143,302.12857142857143,215.4,289.22232142857143,302.12857142857143,316.7,289.22232142857143,302.12857142857143,420.1,289.22232142857143,302.12857142857143,528.2,284.22232142857143,282.12857142857143,632.1,395.22232142857143,372.12857142857143,736.9,451.22232142857143,425.12857142857143,846.1,451.22232142857143,425.12857142857143,948.8,497.22232142857143,460.12857142857143,1049.8,523.2223214285714,499.12857142857143,1149.8,526.2223214285714,512.1285714285714,1253.3,526.2223214285714,512.1285714285714,1356.9,526.2223214285714,512.1285714285714,1460.5,526.2223214285714,512.1285714285714,1568,526.2223214285714,512.1285714285714,1669.3,526.2223214285714,512.1285714285714,1771.7,520.2223214285714,502.12857142857143,1880,309.22232142857143,319.12857142857143,1984.6,286.22232142857143,297.12857142857143,2086.6,286.22232142857143,297.12857142857143,2195.2,279.22232142857143,287.12857142857143,2299.2,241.22232142857143,242.12857142857143,2406.7,252.22232142857143,223.12857142857143,2510.5,256.22232142857143,221.12857142857143,2611.5,259.22232142857143,230.12857142857143,2716.6,259.22232142857143,239.12857142857143,2824.5,259.22232142857143,239.12857142857143,2939.1,259.22232142857143,239.12857142857143,3040.2,259.22232142857143,239.12857142857143,3144.7,259.22232142857143,239.12857142857143,3244.7,259.22232142857143,239.12857142857143,3350.4,259.22232142857143,239.12857142857143,3455.7,259.22232142857143,239.12857142857143,3558.1,259.22232142857143,239.12857142857143,3660.3,259.22232142857143,239.12857142857143,3760.9,259.22232142857143,239.12857142857143,3867.3,259.22232142857143,239.12857142857143,3975.2,259.22232142857143,239.12857142857143,4079.3,259.22232142857143,239.12857142857143,4185,259.22232142857143,239.12857142857143,4285,259.22232142857143,239.12857142857143,4392.8,259.22232142857143,239.12857142857143,4493,259.22232142857143,239.12857142857143,4596.6,259.22232142857143,239.12857142857143,4698.5,259.22232142857143,239.12857142857143,4799.3,259.22232142857143,239.12857142857143,4910.9]","[2062.8,2062.9,1000,0,1062.9,""smooth"",""right"",""right"",""good_move"",5398.9,3334.8,2859.5,2064.1,475.3,""smooth"",""right"",""right"",""good_move"",11954.3,6553.8,2735.7,8670.8,547.8,""oops"",""right"",""left"",""bad_move"",15530.5,3575.3,2903.3,11955.2,672,""oops"",""down"",""down"",""good_move"",18929.7,3397.8,2934.8,15532,463,""oops"",""down"",""up"",""bad_move"",26048.6,7116.2,3497.4,22102.1,449.1,""oops"",""right"",""left"",""bad_move"",29383.2,3333.8,2341.5,26049.4,992.3,""oops"",""down"",""left"",""bad_move"",32344.9,2961.3,2536.1,29383.6,425.2,""oops"",""down"",""down"",""good_move""]","",""
"2626","","<div style=""width:500px;"">
  <p>What determined the result of this run?</p>
  </div>","92","html-slider-response","40","531656","0.0-5.0-1.6","197","1","2025-07-23 08:44:01","1f75c3e559b7213887762d5229550c2b","41.144.1.31","Mozilla/5.0 (Windows NT 10.0; Win64; x64) AppleWebKit/537.36 (KHTML, like Gecko) Chrome/138.0.0.0 Safari/537.36","WebKit","Chrome","138.0.0.0","Windows","10.0","null","en-US,en;q=0.9","669f76a7112b8713f104644c","683db9eb0562dbf637994deb","6880825847cb550288118904","2","1","669f76a7112b8713f104644c","2","1","2025-07-23T08:53:00.669Z","","","","","","","","","","","AttribQ","","50","","","","","","","","","","","","","","","","","","","","","","","","","","","","",""
"2181","","<div style=""width:500px;"">
  <p>How much control did you have over the ball?</p>
  </div>","91","html-slider-response","41","533839","0.0-5.0-2.6","197","1","2025-07-23 08:44:01","1f75c3e559b7213887762d5229550c2b","41.144.1.31","Mozilla/5.0 (Windows NT 10.0; Win64; x64) AppleWebKit/537.36 (KHTML, like Gecko) Chrome/138.0.0.0 Safari/537.36","WebKit","Chrome","138.0.0.0","Windows","10.0","null","en-US,en;q=0.9","669f76a7112b8713f104644c","683db9eb0562dbf637994deb","6880825847cb550288118904","2","1","669f76a7112b8713f104644c","2","1","2025-07-23T08:53:02.852Z","","","","","","","","","","","ControlQ","","50","","","","","","","","","","","","","","","","","","","","","","","","","","","","",""
"4624","","<div style=""width:500px;"">
  <p>How would you describe your current emotional state?</p>
  </div>","68","html-slider-response","42","538465","0.0-5.0-3.6","197","1","2025-07-23 08:44:01","1f75c3e559b7213887762d5229550c2b","41.144.1.31","Mozilla/5.0 (Windows NT 10.0; Win64; x64) AppleWebKit/537.36 (KHTML, like Gecko) Chrome/138.0.0.0 Safari/537.36","WebKit","Chrome","138.0.0.0","Windows","10.0","null","en-US,en;q=0.9","669f76a7112b8713f104644c","683db9eb0562dbf637994deb","6880825847cb550288118904","2","1","669f76a7112b8713f104644c","2","1","2025-07-23T08:53:07.478Z","","","","","","","","","","","StressQ","","50","","","","","","","","","","","","","","","","","","","","","","","","","","","","",""
"3011","","<div style=""width:500px;"">
  <p>What best describes how you currently feel?</p>
  </div>","86","html-slider-response","43","541476","0.0-5.0-4.6","197","1","2025-07-23 08:44:01","1f75c3e559b7213887762d5229550c2b","41.144.1.31","Mozilla/5.0 (Windows NT 10.0; Win64; x64) AppleWebKit/537.36 (KHTML, like Gecko) Chrome/138.0.0.0 Safari/537.36","WebKit","Chrome","138.0.0.0","Windows","10.0","null","en-US,en;q=0.9","669f76a7112b8713f104644c","683db9eb0562dbf637994deb","6880825847cb550288118904","2","1","669f76a7112b8713f104644c","2","1","2025-07-23T08:53:10.490Z","","","","","","","","","","","MotivationQ","","50","","","","","","","","","","","","","","","","","","","","","","","","","","","","",""
"","","","","ctl-task-cpt","44","588591","0.0-5.0-0.7","197","1","2025-07-23 08:44:01","1f75c3e559b7213887762d5229550c2b","41.144.1.31","Mozilla/5.0 (Windows NT 10.0; Win64; x64) AppleWebKit/537.36 (KHTML, like Gecko) Chrome/138.0.0.0 Safari/537.36","WebKit","Chrome","138.0.0.0","Windows","10.0","null","en-US,en;q=0.9","669f76a7112b8713f104644c","683db9eb0562dbf637994deb","6880825847cb550288118904","2","1","669f76a7112b8713f104644c","2","1","2025-07-23T08:53:57.605Z","","","","","","","","","","","","","","win-only","0","g1:NW,g2:SE","0.3","8","0","550698.4","5995.2","10998.7","44084.6","1","4","8","6","2","8","8","8","0","0.06060606060606061","1802.5","3000","255","[""down"",""right""]","{""num_key_presses"":8,""num_perfect"":3,""num_errors"":0,""num_randdir"":5,""num_randdir_good_moves"":4,""num_whilered"":0,""num_whileblue"":0,""num_blue"":3,""num_good_moves"":7}","[294.22232142857143,294.12857142857143,2.9,294.22232142857143,294.12857142857143,109.2,294.22232142857143,294.12857142857143,218.5,294.22232142857143,294.12857142857143,319.2,294.22232142857143,294.12857142857143,420,294.22232142857143,294.12857142857143,522.4,312.22232142857143,306.12857142857143,629.3,384.22232142857143,387.12857142857143,739.3,434.22232142857143,428.12857142857143,845.7,435.22232142857143,428.12857142857143,946.8,435.22232142857143,428.12857142857143,1051,470.22232142857143,471.12857142857143,1153.6,494.22232142857143,510.12857142857143,1255.3,495.22232142857143,512.1285714285714,1356.8,503.22232142857143,518.1285714285714,1463.2,532.2223214285714,522.1285714285714,1566,532.2223214285714,522.1285714285714,1669.2,532.2223214285714,522.1285714285714,1772.8,532.2223214285714,522.1285714285714,1879.2,532.2223214285714,522.1285714285714,1981.1,532.2223214285714,522.1285714285714,2086.9,514.2223214285714,520.1285714285714,2192,296.22232142857143,378.12857142857143,2298.5,290.22232142857143,324.12857142857143,2402.6,290.22232142857143,324.12857142857143,2507.3,275.22232142857143,324.12857142857143,2613.9,245.22232142857143,317.12857142857143,2714.9,246.22232142857143,303.12857142857143,2816.4,254.22232142857143,298.12857142857143,2921,240.22232142857143,272.12857142857143,3031.6,237.22232142857143,265.12857142857143,3137.7,236.22232142857143,257.12857142857143,3238.9,236.22232142857143,255.12857142857143,3341.3,236.22232142857143,255.12857142857143,3451.1,236.22232142857143,255.12857142857143,3552,236.22232142857143,255.12857142857143,3660.7,236.22232142857143,255.12857142857143,3764.6,236.22232142857143,255.12857142857143,3864.8,236.22232142857143,255.12857142857143,3967.1,236.22232142857143,255.12857142857143,4067.1,236.22232142857143,255.12857142857143,4167.1,236.22232142857143,255.12857142857143,4271.1,236.22232142857143,255.12857142857143,4372.7,236.22232142857143,255.12857142857143,4485.3,236.22232142857143,255.12857142857143,4585.7,236.22232142857143,255.12857142857143,4687.2,236.22232142857143,255.12857142857143,4800.7,236.22232142857143,255.12857142857143,4917.9]","[1487.3,1487.3,1000,0,487.3,""oops"",""down"",""down"",""good_move"",5162.5,3673.3,1945.4,1489.2,1727.9,""oops"",""down"",""up"",""bad_move"",7576,2410.9,2035.7,5165.1,375.2,""smooth"",""right"",""right"",""good_move"",13100.4,5523.2,2129.7,10528.4,442.3,""oops"",""right"",""right"",""good_move"",19890.9,6789.5,2450.6,17025.2,415.1,""smooth"",""right"",""right"",""good_move"",23341.5,3449.8,3102.1,19891.7,347.7,""oops"",""down"",""down"",""good_move"",29366.3,6023.6,2496.7,26445.1,424.5,""smooth"",""down"",""down"",""good_move"",32944.5,3577.1,3184.8,29367.6,392.1,""oops"",""down"",""down"",""good_move""]","",""
"2920","","<div style=""width:500px;"">
  <p>What determined the result of this run?</p>
  </div>","68","html-slider-response","45","591515","0.0-5.0-1.7","197","1","2025-07-23 08:44:01","1f75c3e559b7213887762d5229550c2b","41.144.1.31","Mozilla/5.0 (Windows NT 10.0; Win64; x64) AppleWebKit/537.36 (KHTML, like Gecko) Chrome/138.0.0.0 Safari/537.36","WebKit","Chrome","138.0.0.0","Windows","10.0","null","en-US,en;q=0.9","669f76a7112b8713f104644c","683db9eb0562dbf637994deb","6880825847cb550288118904","2","1","669f76a7112b8713f104644c","2","1","2025-07-23T08:54:00.528Z","","","","","","","","","","","AttribQ","","50","","","","","","","","","","","","","","","","","","","","","","","","","","","","",""
"2880","","<div style=""width:500px;"">
  <p>How much control did you have over the ball?</p>
  </div>","93","html-slider-response","46","594397","0.0-5.0-2.7","197","1","2025-07-23 08:44:01","1f75c3e559b7213887762d5229550c2b","41.144.1.31","Mozilla/5.0 (Windows NT 10.0; Win64; x64) AppleWebKit/537.36 (KHTML, like Gecko) Chrome/138.0.0.0 Safari/537.36","WebKit","Chrome","138.0.0.0","Windows","10.0","null","en-US,en;q=0.9","669f76a7112b8713f104644c","683db9eb0562dbf637994deb","6880825847cb550288118904","2","1","669f76a7112b8713f104644c","2","1","2025-07-23T08:54:03.410Z","","","","","","","","","","","ControlQ","","50","","","","","","","","","","","","","","","","","","","","","","","","","","","","",""
"1862","","<div style=""width:500px;"">
  <p>How would you describe your current emotional state?</p>
  </div>","80","html-slider-response","47","596260","0.0-5.0-3.7","197","1","2025-07-23 08:44:01","1f75c3e559b7213887762d5229550c2b","41.144.1.31","Mozilla/5.0 (Windows NT 10.0; Win64; x64) AppleWebKit/537.36 (KHTML, like Gecko) Chrome/138.0.0.0 Safari/537.36","WebKit","Chrome","138.0.0.0","Windows","10.0","null","en-US,en;q=0.9","669f76a7112b8713f104644c","683db9eb0562dbf637994deb","6880825847cb550288118904","2","1","669f76a7112b8713f104644c","2","1","2025-07-23T08:54:05.273Z","","","","","","","","","","","StressQ","","50","","","","","","","","","","","","","","","","","","","","","","","","","","","","",""
"5030","","<div style=""width:500px;"">
  <p>What best describes how you currently feel?</p>
  </div>","72","html-slider-response","48","601292","0.0-5.0-4.7","197","1","2025-07-23 08:44:01","1f75c3e559b7213887762d5229550c2b","41.144.1.31","Mozilla/5.0 (Windows NT 10.0; Win64; x64) AppleWebKit/537.36 (KHTML, like Gecko) Chrome/138.0.0.0 Safari/537.36","WebKit","Chrome","138.0.0.0","Windows","10.0","null","en-US,en;q=0.9","669f76a7112b8713f104644c","683db9eb0562dbf637994deb","6880825847cb550288118904","2","1","669f76a7112b8713f104644c","2","1","2025-07-23T08:54:10.305Z","","","","","","","","","","","MotivationQ","","50","","","","","","","","","","","","","","","","","","","","","","","","","","","","",""
"","","","","ctl-task-cpt","49","654554","0.0-5.0-0.8","197","1","2025-07-23 08:44:01","1f75c3e559b7213887762d5229550c2b","41.144.1.31","Mozilla/5.0 (Windows NT 10.0; Win64; x64) AppleWebKit/537.36 (KHTML, like Gecko) Chrome/138.0.0.0 Safari/537.36","WebKit","Chrome","138.0.0.0","Windows","10.0","null","en-US,en;q=0.9","669f76a7112b8713f104644c","683db9eb0562dbf637994deb","6880825847cb550288118904","2","1","669f76a7112b8713f104644c","2","1","2025-07-23T08:55:03.567Z","","","","","","","","","","","","","","win-only","2","g1:SE,g2:NW","0.2","9","0","610514.4","1638.1","6641.1","50234.3","1","4","4","6","2","-4","-5","3","8","0.022727272727272728","1389.4","3000","-1450","[""left"",""up""]","{""num_key_presses"":13,""num_perfect"":3,""num_errors"":1,""num_randdir"":9,""num_randdir_good_moves"":3,""num_whilered"":0,""num_whileblue"":0,""num_blue"":1,""num_good_moves"":6}","[292.22232142857143,303.12857142857143,4,292.22232142857143,303.12857142857143,103.8,292.22232142857143,303.12857142857143,211.3,292.22232142857143,303.12857142857143,311.4,292.22232142857143,303.12857142857143,416.1,292.22232142857143,302.12857142857143,517.2,182.22232142857143,165.12857142857143,619.5,143.22232142857143,132.12857142857143,720.8,143.22232142857143,132.12857142857143,821,118.22232142857143,106.12857142857143,927.7,86.22232142857143,81.12857142857143,1035,85.22232142857143,80.12857142857143,1142.8,85.22232142857143,80.12857142857143,1245.9,85.22232142857143,80.12857142857143,1352.2,85.22232142857143,80.12857142857143,1457.1,85.22232142857143,80.12857142857143,1558.7,85.22232142857143,80.12857142857143,1663.8,85.22232142857143,80.12857142857143,1764.7,85.22232142857143,80.12857142857143,1868.5,85.22232142857143,80.12857142857143,1975.4,85.22232142857143,80.12857142857143,2089.2,116.22232142857143,99.12857142857143,2195.1,274.22232142857143,224.12857142857143,2308.3,274.22232142857143,225.12857142857143,2413.2,274.22232142857143,225.12857142857143,2514.2,291.22232142857143,265.12857142857143,2616.3,347.22232142857143,316.12857142857143,2720.7,358.22232142857143,329.12857142857143,2822.4,358.22232142857143,329.12857142857143,2926.2,358.22232142857143,328.12857142857143,3032.4,358.22232142857143,328.12857142857143,3137.6,358.22232142857143,328.12857142857143,3241.9,358.22232142857143,328.12857142857143,3343.3,358.22232142857143,328.12857142857143,3448.5,358.22232142857143,328.12857142857143,3553,358.22232142857143,328.12857142857143,3658.9,358.22232142857143,328.12857142857143,3761.9,358.22232142857143,328.12857142857143,3867.7,358.22232142857143,328.12857142857143,3969.2,358.22232142857143,328.12857142857143,4069.5,358.22232142857143,328.12857142857143,4175.6,358.22232142857143,328.12857142857143,4281.9,358.22232142857143,328.12857142857143,4383.3,358.22232142857143,328.12857142857143,4483.9,358.22232142857143,328.12857142857143,4590.3,358.22232142857143,328.12857142857143,4692.7,358.22232142857143,328.12857142857143,4792.8,358.22232142857143,328.12857142857143,4898.4]","[1516.9,1516.9,1000,0,516.9,""smooth"",""up"",""up"",""good_move"",7106.7,5588.8,1905.1,4711.8,489.8,""oops"",""up"",""right"",""bad_move"",10156.5,3049.5,2584.5,7107.1,465,""oops"",""up"",""down"",""bad_move"",13038.8,2880.8,2471,10158.1,409.7,""oops"",""left"",""up"",""good_move"",16498.7,3458.2,3038.1,13040.5,420.1,""oops"",""up"",""up"",""good_move"",19612.9,3113.3,2754.2,16499.7,359,""oops"",""up"",""down"",""bad_move"",23056.8,3440.9,3124.7,19616.1,316.1,""oops"",""left"",""right"",""bad_move"",25453.9,2395.5,2058,23058.4,337.5,""oops"",""up"",""down"",""bad_move"",28783.7,3328.5,2864.8,25455.2,463.7,""smooth"",""left"",""left"",""good_move"",31231.1,2444.9,2075.5,28786.2,369.4,""oops"",""left"",""up"",""good_move"",33584.4,2352.3,1943.6,31232.1,408.7,""oops"",""up"",""right"",""bad_move"",36856.7,3270.7,2913.7,33586,357,""smooth"",""up"",""up"",""good_move"",39530.7,2672.8,3029.1,36857.9,-356.3,""error"",""-"",""-"",""no_move""]","",""
"2345","","<div style=""width:500px;"">
  <p>What determined the result of this run?</p>
  </div>","77","html-slider-response","50","656901","0.0-5.0-1.8","197","1","2025-07-23 08:44:01","1f75c3e559b7213887762d5229550c2b","41.144.1.31","Mozilla/5.0 (Windows NT 10.0; Win64; x64) AppleWebKit/537.36 (KHTML, like Gecko) Chrome/138.0.0.0 Safari/537.36","WebKit","Chrome","138.0.0.0","Windows","10.0","null","en-US,en;q=0.9","669f76a7112b8713f104644c","683db9eb0562dbf637994deb","6880825847cb550288118904","2","1","669f76a7112b8713f104644c","2","1","2025-07-23T08:55:05.914Z","","","","","","","","","","","AttribQ","","50","","","","","","","","","","","","","","","","","","","","","","","","","","","","",""
"2637","","<div style=""width:500px;"">
  <p>How much control did you have over the ball?</p>
  </div>","90","html-slider-response","51","659540","0.0-5.0-2.8","197","1","2025-07-23 08:44:01","1f75c3e559b7213887762d5229550c2b","41.144.1.31","Mozilla/5.0 (Windows NT 10.0; Win64; x64) AppleWebKit/537.36 (KHTML, like Gecko) Chrome/138.0.0.0 Safari/537.36","WebKit","Chrome","138.0.0.0","Windows","10.0","null","en-US,en;q=0.9","669f76a7112b8713f104644c","683db9eb0562dbf637994deb","6880825847cb550288118904","2","1","669f76a7112b8713f104644c","2","1","2025-07-23T08:55:08.553Z","","","","","","","","","","","ControlQ","","50","","","","","","","","","","","","","","","","","","","","","","","","","","","","",""
"5672","","<div style=""width:500px;"">
  <p>How would you describe your current emotional state?</p>
  </div>","87","html-slider-response","52","665214","0.0-5.0-3.8","197","1","2025-07-23 08:44:01","1f75c3e559b7213887762d5229550c2b","41.144.1.31","Mozilla/5.0 (Windows NT 10.0; Win64; x64) AppleWebKit/537.36 (KHTML, like Gecko) Chrome/138.0.0.0 Safari/537.36","WebKit","Chrome","138.0.0.0","Windows","10.0","null","en-US,en;q=0.9","669f76a7112b8713f104644c","683db9eb0562dbf637994deb","6880825847cb550288118904","2","1","669f76a7112b8713f104644c","2","1","2025-07-23T08:55:14.227Z","","","","","","","","","","","StressQ","","50","","","","","","","","","","","","","","","","","","","","","","","","","","","","",""
"4833","","<div style=""width:500px;"">
  <p>What best describes how you currently feel?</p>
  </div>","79","html-slider-response","53","670047","0.0-5.0-4.8","197","1","2025-07-23 08:44:01","1f75c3e559b7213887762d5229550c2b","41.144.1.31","Mozilla/5.0 (Windows NT 10.0; Win64; x64) AppleWebKit/537.36 (KHTML, like Gecko) Chrome/138.0.0.0 Safari/537.36","WebKit","Chrome","138.0.0.0","Windows","10.0","null","en-US,en;q=0.9","669f76a7112b8713f104644c","683db9eb0562dbf637994deb","6880825847cb550288118904","2","1","669f76a7112b8713f104644c","2","1","2025-07-23T08:55:19.061Z","","","","","","","","","","","MotivationQ","","50","","","","","","","","","","","","","","","","","","","","","","","","","","","","",""
"","","","","ctl-task-cpt","54","713503","0.0-5.0-0.9","197","1","2025-07-23 08:44:01","1f75c3e559b7213887762d5229550c2b","41.144.1.31","Mozilla/5.0 (Windows NT 10.0; Win64; x64) AppleWebKit/537.36 (KHTML, like Gecko) Chrome/138.0.0.0 Safari/537.36","WebKit","Chrome","138.0.0.0","Windows","10.0","null","en-US,en;q=0.9","669f76a7112b8713f104644c","683db9eb0562dbf637994deb","6880825847cb550288118904","2","1","669f76a7112b8713f104644c","2","1","2025-07-23T08:56:02.516Z","","","","","","","","","","","","","","win-only","1","g1:NE,g2:SW","0.4","10","0","679270.7","1813.3","6816","40424.6","1","4","8","6","2","8","8","11","3","0.08333333333333333","1267.7","3000","890","[""down"",""left""]","{""num_key_presses"":10,""num_perfect"":4,""num_errors"":0,""num_randdir"":6,""num_randdir_good_moves"":4,""num_whilered"":0,""num_whileblue"":0,""num_blue"":1,""num_good_moves"":8}","[294.22232142857143,294.12857142857143,0.4,294.22232142857143,294.12857142857143,106.2,294.22232142857143,294.12857142857143,206.6,294.22232142857143,294.12857142857143,310,294.22232142857143,294.12857142857143,412.6,35.222321428571426,453.12857142857143,514.8,22.222321428571426,455.12857142857143,621.5,22.222321428571426,455.12857142857143,726,15.222321428571426,486.12857142857143,826.6,41.222321428571426,522.1285714285714,928,44.222321428571426,543.1285714285714,1028.6,44.222321428571426,543.1285714285714,1129.2,44.222321428571426,543.1285714285714,1230.1,44.222321428571426,543.1285714285714,1337,44.222321428571426,543.1285714285714,1439.4,70.22232142857143,505.12857142857143,1545.7,226.22232142857143,380.12857142857143,1654.6,302.22232142857143,302.12857142857143,1759,330.22232142857143,283.12857142857143,1862.4,339.22232142857143,281.12857142857143,1966.5,342.22232142857143,277.12857142857143,2079.3,342.22232142857143,277.12857142857143,2180.2,342.22232142857143,273.12857142857143,2296.3,349.22232142857143,241.12857142857143,2398.7,349.22232142857143,239.12857142857143,2505.7,349.22232142857143,239.12857142857143,2606.9,349.22232142857143,239.12857142857143,2711.6,349.22232142857143,239.12857142857143,2814.1,349.22232142857143,239.12857142857143,2914.5,349.22232142857143,239.12857142857143,3015.7,349.22232142857143,239.12857142857143,3120.5,349.22232142857143,239.12857142857143,3225,349.22232142857143,239.12857142857143,3327.3,349.22232142857143,239.12857142857143,3430.4,349.22232142857143,239.12857142857143,3541.6,349.22232142857143,239.12857142857143,3644,349.22232142857143,239.12857142857143,3746.5,349.22232142857143,239.12857142857143,3846.5,349.22232142857143,239.12857142857143,3950.5,349.22232142857143,239.12857142857143,4052.6,349.22232142857143,239.12857142857143,4159,349.22232142857143,239.12857142857143,4261.4,349.22232142857143,239.12857142857143,4366.2,349.22232142857143,239.12857142857143,4470.5,349.22232142857143,239.12857142857143,4574.9,349.22232142857143,239.12857142857143,4677.2,349.22232142857143,239.12857142857143,4781.6,349.22232142857143,239.12857142857143,4890.7,349.22232142857143,239.12857142857143,4991.5]","[1475,1475,1000,0,475,""oops"",""down"",""down"",""good_move"",5301,3825.4,3068.3,1475.6,757.1,""oops"",""down"",""left"",""good_move"",7999.7,2697.7,2242.5,5302,455.2,""smooth"",""left"",""left"",""good_move"",11082.5,3081.9,2683.3,8000.6,398.6,""oops"",""left"",""right"",""bad_move"",14291.8,3207.9,2822.6,11083.9,385.3,""smooth"",""down"",""down"",""good_move"",17518.4,3225.4,2751.3,14293,474.1,""smooth"",""down"",""down"",""good_move"",20162.3,2642.6,2233.3,17519.8,409.2,""oops"",""left"",""up"",""bad_move"",23067.1,2904.1,2023.9,20163,880.2,""oops"",""left"",""left"",""good_move"",30143.9,7075.3,2707.2,26969.8,466.9,""oops"",""left"",""down"",""good_move"",33188.9,3044.3,2644.1,30144.6,400.2,""smooth"",""left"",""left"",""good_move""]","",""
"2833","","<div style=""width:500px;"">
  <p>What determined the result of this run?</p>
  </div>","79","html-slider-response","55","716339","0.0-5.0-1.9","197","1","2025-07-23 08:44:01","1f75c3e559b7213887762d5229550c2b","41.144.1.31","Mozilla/5.0 (Windows NT 10.0; Win64; x64) AppleWebKit/537.36 (KHTML, like Gecko) Chrome/138.0.0.0 Safari/537.36","WebKit","Chrome","138.0.0.0","Windows","10.0","null","en-US,en;q=0.9","669f76a7112b8713f104644c","683db9eb0562dbf637994deb","6880825847cb550288118904","2","1","669f76a7112b8713f104644c","2","1","2025-07-23T08:56:05.352Z","","","","","","","","","","","AttribQ","","50","","","","","","","","","","","","","","","","","","","","","","","","","","","","",""
"2784","","<div style=""width:500px;"">
  <p>How much control did you have over the ball?</p>
  </div>","86","html-slider-response","56","719124","0.0-5.0-2.9","197","1","2025-07-23 08:44:01","1f75c3e559b7213887762d5229550c2b","41.144.1.31","Mozilla/5.0 (Windows NT 10.0; Win64; x64) AppleWebKit/537.36 (KHTML, like Gecko) Chrome/138.0.0.0 Safari/537.36","WebKit","Chrome","138.0.0.0","Windows","10.0","null","en-US,en;q=0.9","669f76a7112b8713f104644c","683db9eb0562dbf637994deb","6880825847cb550288118904","2","1","669f76a7112b8713f104644c","2","1","2025-07-23T08:56:08.138Z","","","","","","","","","","","ControlQ","","50","","","","","","","","","","","","","","","","","","","","","","","","","","","","",""
"2916","","<div style=""width:500px;"">
  <p>How would you describe your current emotional state?</p>
  </div>","92","html-slider-response","57","722044","0.0-5.0-3.9","197","1","2025-07-23 08:44:01","1f75c3e559b7213887762d5229550c2b","41.144.1.31","Mozilla/5.0 (Windows NT 10.0; Win64; x64) AppleWebKit/537.36 (KHTML, like Gecko) Chrome/138.0.0.0 Safari/537.36","WebKit","Chrome","138.0.0.0","Windows","10.0","null","en-US,en;q=0.9","669f76a7112b8713f104644c","683db9eb0562dbf637994deb","6880825847cb550288118904","2","1","669f76a7112b8713f104644c","2","1","2025-07-23T08:56:11.057Z","","","","","","","","","","","StressQ","","50","","","","","","","","","","","","","","","","","","","","","","","","","","","","",""
"2433","","<div style=""width:500px;"">
  <p>What best describes how you currently feel?</p>
  </div>","31","html-slider-response","58","724480","0.0-5.0-4.9","197","1","2025-07-23 08:44:01","1f75c3e559b7213887762d5229550c2b","41.144.1.31","Mozilla/5.0 (Windows NT 10.0; Win64; x64) AppleWebKit/537.36 (KHTML, like Gecko) Chrome/138.0.0.0 Safari/537.36","WebKit","Chrome","138.0.0.0","Windows","10.0","null","en-US,en;q=0.9","669f76a7112b8713f104644c","683db9eb0562dbf637994deb","6880825847cb550288118904","2","1","669f76a7112b8713f104644c","2","1","2025-07-23T08:56:13.493Z","","","","","","","","","","","MotivationQ","","50","","","","","","","","","","","","","","","","","","","","","","","","","","","","",""
"","","","","ctl-task-cpt","59","791779","0.0-5.0-0.10","197","1","2025-07-23 08:44:01","1f75c3e559b7213887762d5229550c2b","41.144.1.31","Mozilla/5.0 (Windows NT 10.0; Win64; x64) AppleWebKit/537.36 (KHTML, like Gecko) Chrome/138.0.0.0 Safari/537.36","WebKit","Chrome","138.0.0.0","Windows","10.0","null","en-US,en;q=0.9","669f76a7112b8713f104644c","683db9eb0562dbf637994deb","6880825847cb550288118904","2","1","669f76a7112b8713f104644c","2","1","2025-07-23T08:57:20.792Z","","","","","","","","","","","","","","win-only","1","g1:NE,g2:SW","0.5","11","0","733702.4","1654.4","6673.2","64270.7","1","4","4","6","2","4","4","15","11","0.11363636363636363","1258.4","3000","880","[""down"",""left""]","{""num_key_presses"":14,""num_perfect"":6,""num_errors"":0,""num_randdir"":8,""num_randdir_good_moves"":4,""num_whilered"":0,""num_whileblue"":0,""num_blue"":1,""num_good_moves"":10}","[295.22232142857143,301.12857142857143,0.8,295.22232142857143,301.12857142857143,124.8,295.22232142857143,301.12857142857143,227.8,295.22232142857143,301.12857142857143,338.8,263.22232142857143,346.12857142857143,457.1,162.22232142857143,514.1285714285714,578.1,162.22232142857143,514.1285714285714,695.9,112.22232142857143,565.1285714285714,817.3,69.22232142857143,568.1285714285714,946.3,50.222321428571426,567.1285714285714,1061.2,50.222321428571426,567.1285714285714,1170,50.222321428571426,567.1285714285714,1287.2,50.222321428571426,567.1285714285714,1397.6,50.222321428571426,567.1285714285714,1525.1,73.22232142857143,525.1285714285714,1638.4,283.22232142857143,332.12857142857143,1752.5,300.22232142857143,320.12857142857143,1864.8,300.22232142857143,320.12857142857143,1977.3,305.22232142857143,305.12857142857143,2083.2,369.22232142857143,226.12857142857143,2194.4,370.22232142857143,225.12857142857143,2301.8,370.22232142857143,225.12857142857143,2415.7,358.22232142857143,245.12857142857143,2534.7,356.22232142857143,245.12857142857143,2650.1,356.22232142857143,245.12857142857143,2765.3,356.22232142857143,245.12857142857143,2878.1,78.22232142857143,494.12857142857143,3003.6,30.222321428571426,563.1285714285714,3131.3,30.222321428571426,563.1285714285714,3234.1,30.222321428571426,563.1285714285714,3343.3,30.222321428571426,563.1285714285714,3458.9,34.222321428571426,559.1285714285714,3577.5,34.222321428571426,559.1285714285714,3693.3,34.222321428571426,559.1285714285714,3807,34.222321428571426,559.1285714285714,3916.9,34.222321428571426,559.1285714285714,4038.2,34.222321428571426,559.1285714285714,4153.9,34.222321428571426,559.1285714285714,4267.8,34.222321428571426,559.1285714285714,4380.1,34.222321428571426,559.1285714285714,4489.2,34.222321428571426,559.1285714285714,4603.9,34.222321428571426,559.1285714285714,4715.4,34.222321428571426,559.1285714285714,4823.9,34.222321428571426,559.1285714285714,4935.4]","[1946.6,1946.6,1000,0,946.6,""oops"",""down"",""right"",""bad_move"",4508.5,2561.3,2146.6,1947.2,414.7,""smooth"",""down"",""down"",""good_move"",7771,3262,2737.7,4509,524.4,""smooth"",""down"",""down"",""good_move"",10702.9,2931.2,1972.8,7771.7,958.4,""smooth"",""down"",""down"",""good_move"",13809.5,3106.1,2179.3,10703.4,926.8,""oops"",""left"",""left"",""good_move"",19942,6132,1715.9,13810,4416.1,""smooth"",""left"",""left"",""good_move"",26824.9,6882.6,1999.9,19942.4,4882.7,""oops"",""left"",""right"",""bad_move"",30608.9,3783.5,2434.9,26825.4,1348.6,""oops"",""left"",""up"",""bad_move"",39474,8864.2,3295,30609.8,5569.2,""smooth"",""left"",""left"",""good_move"",45494.9,6020.6,2531.2,42416.9,546.8,""oops"",""left"",""up"",""bad_move"",48838.9,3343.4,2880.4,45495.5,463,""oops"",""left"",""left"",""good_move"",52231.3,3391.6,2867.2,48839.7,524.4,""oops"",""left"",""down"",""good_move"",54752.9,2519.6,2103.2,52233.3,416.4,""oops"",""left"",""left"",""good_move"",57398,2644.2,2295.3,54753.8,348.9,""smooth"",""down"",""down"",""good_move""]","",""
"2499","","<div style=""width:500px;"">
  <p>What determined the result of this run?</p>
  </div>","72","html-slider-response","60","794281","0.0-5.0-1.10","197","1","2025-07-23 08:44:01","1f75c3e559b7213887762d5229550c2b","41.144.1.31","Mozilla/5.0 (Windows NT 10.0; Win64; x64) AppleWebKit/537.36 (KHTML, like Gecko) Chrome/138.0.0.0 Safari/537.36","WebKit","Chrome","138.0.0.0","Windows","10.0","null","en-US,en;q=0.9","669f76a7112b8713f104644c","683db9eb0562dbf637994deb","6880825847cb550288118904","2","1","669f76a7112b8713f104644c","2","1","2025-07-23T08:57:23.294Z","","","","","","","","","","","AttribQ","","50","","","","","","","","","","","","","","","","","","","","","","","","","","","","",""
"2639","","<div style=""width:500px;"">
  <p>How much control did you have over the ball?</p>
  </div>","92","html-slider-response","61","796921","0.0-5.0-2.10","197","1","2025-07-23 08:44:01","1f75c3e559b7213887762d5229550c2b","41.144.1.31","Mozilla/5.0 (Windows NT 10.0; Win64; x64) AppleWebKit/537.36 (KHTML, like Gecko) Chrome/138.0.0.0 Safari/537.36","WebKit","Chrome","138.0.0.0","Windows","10.0","null","en-US,en;q=0.9","669f76a7112b8713f104644c","683db9eb0562dbf637994deb","6880825847cb550288118904","2","1","669f76a7112b8713f104644c","2","1","2025-07-23T08:57:25.934Z","","","","","","","","","","","ControlQ","","50","","","","","","","","","","","","","","","","","","","","","","","","","","","","",""
"2422","","<div style=""width:500px;"">
  <p>How would you describe your current emotional state?</p>
  </div>","88","html-slider-response","62","799344","0.0-5.0-3.10","197","1","2025-07-23 08:44:01","1f75c3e559b7213887762d5229550c2b","41.144.1.31","Mozilla/5.0 (Windows NT 10.0; Win64; x64) AppleWebKit/537.36 (KHTML, like Gecko) Chrome/138.0.0.0 Safari/537.36","WebKit","Chrome","138.0.0.0","Windows","10.0","null","en-US,en;q=0.9","669f76a7112b8713f104644c","683db9eb0562dbf637994deb","6880825847cb550288118904","2","1","669f76a7112b8713f104644c","2","1","2025-07-23T08:57:28.357Z","","","","","","","","","","","StressQ","","50","","","","","","","","","","","","","","","","","","","","","","","","","","","","",""
"3403","","<div style=""width:500px;"">
  <p>What best describes how you currently feel?</p>
  </div>","93","html-slider-response","63","802750","0.0-5.0-4.10","197","1","2025-07-23 08:44:01","1f75c3e559b7213887762d5229550c2b","41.144.1.31","Mozilla/5.0 (Windows NT 10.0; Win64; x64) AppleWebKit/537.36 (KHTML, like Gecko) Chrome/138.0.0.0 Safari/537.36","WebKit","Chrome","138.0.0.0","Windows","10.0","null","en-US,en;q=0.9","669f76a7112b8713f104644c","683db9eb0562dbf637994deb","6880825847cb550288118904","2","1","669f76a7112b8713f104644c","2","1","2025-07-23T08:57:31.763Z","","","","","","","","","","","MotivationQ","","50","","","","","","","","","","","","","","","","","","","","","","","","","","","","",""
"","","","","ctl-task-cpt","64","882996","0.0-5.0-0.11","197","1","2025-07-23 08:44:01","1f75c3e559b7213887762d5229550c2b","41.144.1.31","Mozilla/5.0 (Windows NT 10.0; Win64; x64) AppleWebKit/537.36 (KHTML, like Gecko) Chrome/138.0.0.0 Safari/537.36","WebKit","Chrome","138.0.0.0","Windows","10.0","null","en-US,en;q=0.9","669f76a7112b8713f104644c","683db9eb0562dbf637994deb","6880825847cb550288118904","2","1","669f76a7112b8713f104644c","2","1","2025-07-23T08:58:52.010Z","","","","","","","","","","","","","","win-only","2","g1:SE,g2:NW","0.6","12","0","811972.4","1681.9","6683","77222.5","1","4","8","6","2","-8","-10","5","15","0.03787878787878788","1351.5","3000","-810","[""left"",""up""]","{""num_key_presses"":15,""num_perfect"":7,""num_errors"":2,""num_randdir"":6,""num_randdir_good_moves"":2,""num_whilered"":0,""num_whileblue"":0,""num_blue"":6,""num_good_moves"":9}","[295.22232142857143,298.12857142857143,0.3,295.22232142857143,298.12857142857143,105.6,295.22232142857143,298.12857142857143,219.6,295.22232142857143,298.12857142857143,355.5,292.22232142857143,299.12857142857143,468.3,255.22232142857143,169.12857142857143,570.6,255.22232142857143,169.12857142857143,692.4,255.22232142857143,169.12857142857143,792.6,135.22232142857143,112.12857142857143,898.4,88.22232142857143,79.12857142857143,1003.1,88.22232142857143,79.12857142857143,1128.6,88.22232142857143,79.12857142857143,1229.6,88.22232142857143,79.12857142857143,1362.5,88.22232142857143,79.12857142857143,1491.3,88.22232142857143,79.12857142857143,1614.1,88.22232142857143,79.12857142857143,1739.2,103.22232142857143,78.12857142857143,1848.3,122.22232142857143,86.12857142857143,1954.7,134.22232142857143,102.12857142857143,2063.2,183.22232142857143,117.12857142857143,2175.9,213.22232142857143,146.12857142857143,2276.9,213.22232142857143,146.12857142857143,2382.7,213.22232142857143,146.12857142857143,2486.4,298.22232142857143,225.12857142857143,2592.2,298.22232142857143,225.12857142857143,2693.3,298.22232142857143,217.12857142857143,2808.6,337.22232142857143,357.12857142857143,2913.7,337.22232142857143,357.12857142857143,3013.7,337.22232142857143,357.12857142857143,3120.4,337.22232142857143,357.12857142857143,3244.1,337.22232142857143,357.12857142857143,3344.9,337.22232142857143,357.12857142857143,3469.3,337.22232142857143,357.12857142857143,3573.2,337.22232142857143,357.12857142857143,3696.5,337.22232142857143,357.12857142857143,3800.7,337.22232142857143,357.12857142857143,3906.7,337.22232142857143,357.12857142857143,4020.8,337.22232142857143,357.12857142857143,4134.5,337.22232142857143,357.12857142857143,4259.5,337.22232142857143,357.12857142857143,4373.4,337.22232142857143,357.12857142857143,4492.9,337.22232142857143,357.12857142857143,4595.6,337.22232142857143,357.12857142857143,4730.2,337.22232142857143,357.12857142857143,4830.4,337.22232142857143,357.12857142857143,4954.6]","[2785.7,2785.7,1000,0.1,1785.6,""oops"",""up"",""left"",""good_move"",9494.8,6708.4,2753.9,6217.6,523.3,""smooth"",""left"",""left"",""good_move"",12876.8,3381.6,2940.3,9495.2,441.3,""smooth"",""left"",""left"",""good_move"",19327,6449.8,2729.6,16230.6,366.8,""smooth"",""up"",""up"",""good_move"",27176.4,7848.5,2009.8,26170.8,-1004.2,""error"",""-"",""-"",""no_move"",31776.5,4599,3031.2,28191.2,554.1,""oops"",""up"",""right"",""bad_move"",34286.7,2509.6,2003.9,31777.2,505.6,""smooth"",""up"",""up"",""good_move"",37316.6,3029.5,1835.8,34287.1,1193.7,""error"",""-"",""-"",""no_move"",44218.9,6902,2639.8,41082.2,496.9,""smooth"",""up"",""up"",""good_move"",49330.8,5111.5,2059.9,44219.3,3051.6,""oops"",""left"",""down"",""bad_move"",52240.6,2908.7,2439.2,49331.9,469.5,""oops"",""left"",""right"",""bad_move"",54631.7,2390.2,2012.5,52241.5,377.7,""smooth"",""up"",""up"",""good_move"",57817.3,3184.4,2811.7,54632.9,372.8,""oops"",""left"",""down"",""bad_move"",61501.5,3682.3,3292.8,57819.2,389.5,""oops"",""left"",""left"",""good_move"",67308.5,5806.3,2084.7,65172.8,51,""smooth"",""left"",""left"",""good_move""]","",""
"3688","","<div style=""width:500px;"">
  <p>What determined the result of this run?</p>
  </div>","87","html-slider-response","65","886688","0.0-5.0-1.11","197","1","2025-07-23 08:44:01","1f75c3e559b7213887762d5229550c2b","41.144.1.31","Mozilla/5.0 (Windows NT 10.0; Win64; x64) AppleWebKit/537.36 (KHTML, like Gecko) Chrome/138.0.0.0 Safari/537.36","WebKit","Chrome","138.0.0.0","Windows","10.0","null","en-US,en;q=0.9","669f76a7112b8713f104644c","683db9eb0562dbf637994deb","6880825847cb550288118904","2","1","669f76a7112b8713f104644c","2","1","2025-07-23T08:58:55.701Z","","","","","","","","","","","AttribQ","","50","","","","","","","","","","","","","","","","","","","","","","","","","","","","",""
"4546","","<div style=""width:500px;"">
  <p>How much control did you have over the ball?</p>
  </div>","86","html-slider-response","66","891241","0.0-5.0-2.11","197","1","2025-07-23 08:44:01","1f75c3e559b7213887762d5229550c2b","41.144.1.31","Mozilla/5.0 (Windows NT 10.0; Win64; x64) AppleWebKit/537.36 (KHTML, like Gecko) Chrome/138.0.0.0 Safari/537.36","WebKit","Chrome","138.0.0.0","Windows","10.0","null","en-US,en;q=0.9","669f76a7112b8713f104644c","683db9eb0562dbf637994deb","6880825847cb550288118904","2","1","669f76a7112b8713f104644c","2","1","2025-07-23T08:59:00.254Z","","","","","","","","","","","ControlQ","","50","","","","","","","","","","","","","","","","","","","","","","","","","","","","",""
"2910","","<div style=""width:500px;"">
  <p>How would you describe your current emotional state?</p>
  </div>","88","html-slider-response","67","894154","0.0-5.0-3.11","197","1","2025-07-23 08:44:01","1f75c3e559b7213887762d5229550c2b","41.144.1.31","Mozilla/5.0 (Windows NT 10.0; Win64; x64) AppleWebKit/537.36 (KHTML, like Gecko) Chrome/138.0.0.0 Safari/537.36","WebKit","Chrome","138.0.0.0","Windows","10.0","null","en-US,en;q=0.9","669f76a7112b8713f104644c","683db9eb0562dbf637994deb","6880825847cb550288118904","2","1","669f76a7112b8713f104644c","2","1","2025-07-23T08:59:03.167Z","","","","","","","","","","","StressQ","","50","","","","","","","","","","","","","","","","","","","","","","","","","","","","",""
"4605","","<div style=""width:500px;"">
  <p>What best describes how you currently feel?</p>
  </div>","78","html-slider-response","68","898762","0.0-5.0-4.11","197","1","2025-07-23 08:44:01","1f75c3e559b7213887762d5229550c2b","41.144.1.31","Mozilla/5.0 (Windows NT 10.0; Win64; x64) AppleWebKit/537.36 (KHTML, like Gecko) Chrome/138.0.0.0 Safari/537.36","WebKit","Chrome","138.0.0.0","Windows","10.0","null","en-US,en;q=0.9","669f76a7112b8713f104644c","683db9eb0562dbf637994deb","6880825847cb550288118904","2","1","669f76a7112b8713f104644c","2","1","2025-07-23T08:59:07.775Z","","","","","","","","","","","MotivationQ","","50","","","","","","","","","","","","","","","","","","","","","","","","","","","","",""
"","","","","ctl-task-cpt","69","927766","0.0-5.0-0.12","197","1","2025-07-23 08:44:01","1f75c3e559b7213887762d5229550c2b","41.144.1.31","Mozilla/5.0 (Windows NT 10.0; Win64; x64) AppleWebKit/537.36 (KHTML, like Gecko) Chrome/138.0.0.0 Safari/537.36","WebKit","Chrome","138.0.0.0","Windows","10.0","null","en-US,en;q=0.9","669f76a7112b8713f104644c","683db9eb0562dbf637994deb","6880825847cb550288118904","2","1","669f76a7112b8713f104644c","2","1","2025-07-23T08:59:36.779Z","","","","","","","","","","","","","","win-only","1","g1:NE,g2:SW","0.7","13","0","907986","1765.3","6774.9","25973.9","1","4","4","6","2","4","4","9","5","0.06818181818181818","1448.1","3000","995","[""down"",""left""]","{""num_key_presses"":6,""num_perfect"":6,""num_errors"":0,""num_randdir"":0,""num_randdir_good_moves"":0,""num_whilered"":0,""num_whileblue"":0,""num_blue"":0,""num_good_moves"":6}","[293.22232142857143,303.12857142857143,1.3,293.22232142857143,303.12857142857143,105.8,293.22232142857143,303.12857142857143,210,293.22232142857143,303.12857142857143,311.4,293.22232142857143,303.12857142857143,423.2,180.22232142857143,451.12857142857143,533.9,168.22232142857143,461.12857142857143,636.8,168.22232142857143,461.12857142857143,740.1,124.22232142857143,498.12857142857143,853.7,98.22232142857143,525.1285714285714,958,90.22232142857143,527.1285714285714,1059.2,90.22232142857143,527.1285714285714,1170.3,90.22232142857143,527.1285714285714,1276.5,90.22232142857143,527.1285714285714,1387.2,90.22232142857143,527.1285714285714,1487.7,90.22232142857143,527.1285714285714,1597.3,90.22232142857143,527.1285714285714,1698.1,90.22232142857143,527.1285714285714,1801.6,143.22232142857143,474.12857142857143,1905.5,225.22232142857143,423.12857142857143,2007.8,245.22232142857143,423.12857142857143,2110.2,271.22232142857143,399.12857142857143,2221.5,271.22232142857143,371.12857142857143,2331.3,271.22232142857143,371.12857142857143,2434.1,200.22232142857143,421.12857142857143,2541.4,102.22232142857143,490.12857142857143,2655.8,95.22232142857143,495.12857142857143,2769.2,95.22232142857143,495.12857142857143,2870.5,132.22232142857143,447.12857142857143,2985.6,347.22232142857143,214.12857142857143,3094.7,361.22232142857143,182.12857142857143,3200.9,361.22232142857143,185.12857142857143,3309.9,361.22232142857143,185.12857142857143,3418.1,342.22232142857143,229.12857142857143,3533.4,332.22232142857143,247.12857142857143,3634.2,332.22232142857143,247.12857142857143,3744.2,332.22232142857143,247.12857142857143,3851.7,332.22232142857143,247.12857142857143,3953.2,337.22232142857143,246.12857142857143,4074.4,338.22232142857143,246.12857142857143,4191.1,338.22232142857143,246.12857142857143,4303.1,338.22232142857143,246.12857142857143,4410.8,338.22232142857143,246.12857142857143,4518,338.22232142857143,246.12857142857143,4623.5,338.22232142857143,246.12857142857143,4731.9,338.22232142857143,246.12857142857143,4839.3,338.22232142857143,246.12857142857143,4947.6]","[3463.4,3463.4,1000,0.1,2463.3,""smooth"",""down"",""down"",""good_move"",5877.3,2412.8,1931.8,3464.5,481,""smooth"",""down"",""down"",""good_move"",8645.2,2766.8,2335.4,5878.4,431.4,""smooth"",""down"",""down"",""good_move"",11313.2,2667.2,2242.7,8646,424.5,""smooth"",""left"",""left"",""good_move"",14971,3657.1,3100.1,11314,556.9,""smooth"",""left"",""left"",""good_move"",18824.6,3852.5,2499.8,14972.1,1352.7,""smooth"",""left"",""left"",""good_move""]","",""
"3257","","<div style=""width:500px;"">
  <p>What determined the result of this run?</p>
  </div>","73","html-slider-response","70","931025","0.0-5.0-1.12","197","1","2025-07-23 08:44:01","1f75c3e559b7213887762d5229550c2b","41.144.1.31","Mozilla/5.0 (Windows NT 10.0; Win64; x64) AppleWebKit/537.36 (KHTML, like Gecko) Chrome/138.0.0.0 Safari/537.36","WebKit","Chrome","138.0.0.0","Windows","10.0","null","en-US,en;q=0.9","669f76a7112b8713f104644c","683db9eb0562dbf637994deb","6880825847cb550288118904","2","1","669f76a7112b8713f104644c","2","1","2025-07-23T08:59:40.038Z","","","","","","","","","","","AttribQ","","50","","","","","","","","","","","","","","","","","","","","","","","","","","","","",""
"2632","","<div style=""width:500px;"">
  <p>How much control did you have over the ball?</p>
  </div>","80","html-slider-response","71","933659","0.0-5.0-2.12","197","1","2025-07-23 08:44:01","1f75c3e559b7213887762d5229550c2b","41.144.1.31","Mozilla/5.0 (Windows NT 10.0; Win64; x64) AppleWebKit/537.36 (KHTML, like Gecko) Chrome/138.0.0.0 Safari/537.36","WebKit","Chrome","138.0.0.0","Windows","10.0","null","en-US,en;q=0.9","669f76a7112b8713f104644c","683db9eb0562dbf637994deb","6880825847cb550288118904","2","1","669f76a7112b8713f104644c","2","1","2025-07-23T08:59:42.672Z","","","","","","","","","","","ControlQ","","50","","","","","","","","","","","","","","","","","","","","","","","","","","","","",""
"4681","","<div style=""width:500px;"">
  <p>How would you describe your current emotional state?</p>
  </div>","87","html-slider-response","72","938341","0.0-5.0-3.12","197","1","2025-07-23 08:44:01","1f75c3e559b7213887762d5229550c2b","41.144.1.31","Mozilla/5.0 (Windows NT 10.0; Win64; x64) AppleWebKit/537.36 (KHTML, like Gecko) Chrome/138.0.0.0 Safari/537.36","WebKit","Chrome","138.0.0.0","Windows","10.0","null","en-US,en;q=0.9","669f76a7112b8713f104644c","683db9eb0562dbf637994deb","6880825847cb550288118904","2","1","669f76a7112b8713f104644c","2","1","2025-07-23T08:59:47.354Z","","","","","","","","","","","StressQ","","50","","","","","","","","","","","","","","","","","","","","","","","","","","","","",""
"3600","","<div style=""width:500px;"">
  <p>What best describes how you currently feel?</p>
  </div>","85","html-slider-response","73","941943","0.0-5.0-4.12","197","1","2025-07-23 08:44:01","1f75c3e559b7213887762d5229550c2b","41.144.1.31","Mozilla/5.0 (Windows NT 10.0; Win64; x64) AppleWebKit/537.36 (KHTML, like Gecko) Chrome/138.0.0.0 Safari/537.36","WebKit","Chrome","138.0.0.0","Windows","10.0","null","en-US,en;q=0.9","669f76a7112b8713f104644c","683db9eb0562dbf637994deb","6880825847cb550288118904","2","1","669f76a7112b8713f104644c","2","1","2025-07-23T08:59:50.957Z","","","","","","","","","","","MotivationQ","","50","","","","","","","","","","","","","","","","","","","","","","","","","","","","",""
"","","","","ctl-task-cpt","74","993715","0.0-5.0-0.13","197","1","2025-07-23 08:44:01","1f75c3e559b7213887762d5229550c2b","41.144.1.31","Mozilla/5.0 (Windows NT 10.0; Win64; x64) AppleWebKit/537.36 (KHTML, like Gecko) Chrome/138.0.0.0 Safari/537.36","WebKit","Chrome","138.0.0.0","Windows","10.0","null","en-US,en;q=0.9","669f76a7112b8713f104644c","683db9eb0562dbf637994deb","6880825847cb550288118904","2","1","669f76a7112b8713f104644c","2","1","2025-07-23T09:00:42.728Z","","","","","","","","","","","","","","win-only","1","g1:NE,g2:SW","0.8","14","0","951165.6","1433.5","6436.8","48736.3","1","4","8","6","2","8","8","17","9","0.12878787878787878","1269.8","3000","1805","[""down"",""left""]","{""num_key_presses"":8,""num_perfect"":6,""num_errors"":0,""num_randdir"":2,""num_randdir_good_moves"":1,""num_whilered"":0,""num_whileblue"":0,""num_blue"":4,""num_good_moves"":7}","[291.22232142857143,293.12857142857143,0.5,291.22232142857143,293.12857142857143,105.9,291.22232142857143,293.12857142857143,220.1,291.22232142857143,293.12857142857143,335.6,291.22232142857143,293.12857142857143,439.1,190.22232142857143,365.12857142857143,545.1,106.22232142857143,445.12857142857143,649.6,106.22232142857143,445.12857142857143,750.7,70.22232142857143,524.1285714285714,862.8,44.222321428571426,550.1285714285714,976.1,44.222321428571426,551.1285714285714,1086.2,44.222321428571426,551.1285714285714,1203.7,44.222321428571426,551.1285714285714,1322.3,44.222321428571426,551.1285714285714,1437.1,44.222321428571426,551.1285714285714,1537.3,67.22232142857143,492.12857142857143,1638.3,180.22232142857143,381.12857142857143,1742.7,232.22232142857143,327.12857142857143,1850.5,232.22232142857143,327.12857142857143,1955.4,232.22232142857143,327.12857142857143,2060.4,253.22232142857143,296.12857142857143,2160.6,309.22232142857143,265.12857142857143,2270,312.22232142857143,260.12857142857143,2379.5,325.22232142857143,252.12857142857143,2486.8,329.22232142857143,251.12857142857143,2588.1,329.22232142857143,251.12857142857143,2692.9,329.22232142857143,251.12857142857143,2793.8,329.22232142857143,251.12857142857143,2894.4,329.22232142857143,251.12857142857143,2998.5,329.22232142857143,251.12857142857143,3102.2,329.22232142857143,251.12857142857143,3203.9,329.22232142857143,251.12857142857143,3307,329.22232142857143,251.12857142857143,3413,329.22232142857143,251.12857142857143,3520.8,329.22232142857143,251.12857142857143,3621.6,329.22232142857143,251.12857142857143,3723.8,329.22232142857143,251.12857142857143,3825.4,329.22232142857143,251.12857142857143,3926.4,329.22232142857143,251.12857142857143,4028.8,329.22232142857143,251.12857142857143,4128.8,329.22232142857143,251.12857142857143,4242.4,329.22232142857143,251.12857142857143,4348.2,329.22232142857143,251.12857142857143,4451.6,329.22232142857143,251.12857142857143,4557.8,329.22232142857143,251.12857142857143,4661.2,329.22232142857143,251.12857142857143,4762.3,329.22232142857143,251.12857142857143,4880.5,329.22232142857143,251.12857142857143,4990.5]","[1669.4,1669.5,1000,0,669.5,""oops"",""down"",""right"",""bad_move"",11223.5,9553,2373,8148.3,702.2,""smooth"",""down"",""down"",""good_move"",13987.7,2763.1,2266.1,11224.6,497,""smooth"",""down"",""down"",""good_move"",16875.4,2887,2413.3,13988.4,473.7,""smooth"",""down"",""down"",""good_move"",20084.4,3208.6,2765.2,16875.9,443.3,""smooth"",""left"",""left"",""good_move"",28224.5,8139.5,2757.2,24752.7,714.6,""smooth"",""left"",""left"",""good_move"",34221.5,5996.2,1942.2,28225.3,4054,""smooth"",""left"",""left"",""good_move"",42025.4,7803.5,3250,38248.8,526.6,""oops"",""left"",""left"",""good_move""]","",""
"4472","","<div style=""width:500px;"">
  <p>What determined the result of this run?</p>
  </div>","79","html-slider-response","75","998190","0.0-5.0-1.13","197","1","2025-07-23 08:44:01","1f75c3e559b7213887762d5229550c2b","41.144.1.31","Mozilla/5.0 (Windows NT 10.0; Win64; x64) AppleWebKit/537.36 (KHTML, like Gecko) Chrome/138.0.0.0 Safari/537.36","WebKit","Chrome","138.0.0.0","Windows","10.0","null","en-US,en;q=0.9","669f76a7112b8713f104644c","683db9eb0562dbf637994deb","6880825847cb550288118904","2","1","669f76a7112b8713f104644c","2","1","2025-07-23T09:00:47.203Z","","","","","","","","","","","AttribQ","","50","","","","","","","","","","","","","","","","","","","","","","","","","","","","",""
"4072","","<div style=""width:500px;"">
  <p>How much control did you have over the ball?</p>
