"rt","response_timestamp","stimulus","response","trial_type","trial_index","time_elapsed","internal_node_id","run_id","condition","recorded_at","source_code_version","ip","user_agent","device","browser","browser_version","platform","platform_version","referer","accept_language","PROLIFIC_PID","STUDY_ID","SESSION_ID","WEEK","BATCH","prolific_id","week","batch","realtime","success","responses","item_order","radio_event_ids","radio_event_times","key_event_times","mouse_event_times","straightlining","zigzagging","honeypot","eventType","view_history","slider_start","which_type","canvas_config","goals_layout","control_level","trial_number","tutorial_trial_number","trial_start_time","phase1_start_time","phase2_start_time","phase3_start_time","goal_1_value","goal_1_distance","goal_2_value","goal_2_distance","goal_selected","outcome","outcome_total","participant_final_score","participant_initial_score","participant_final_score_prop","goal_choice_rt","allocated_time","allocated_time_remaining","goal_direction","counts","mouse_movements","key_presses","question_order","question_id"
"6731","1753256084279","<p style='font-size:40px;line-height:1.25'><strong>Welcome to the experiment!</strong></p><p style='font-size:1.1em;line-height:1.25'>Thank you for participanting in our experiment again! You will be asked to play the Dysfunctional Ball Game again. We will briefly recap the rules before we start.</p><p style='font-size:1.1em;line-height:1.25'>Press <strong>Next</strong> to continue.</p>","0","custom-html-button-response","0","6738","0.0-0.0","178","1","2025-07-23 07:34:30","1f75c3e559b7213887762d5229550c2b","102.213.27.252","Mozilla/5.0 (Windows NT 10.0; Win64; x64) AppleWebKit/537.36 (KHTML, like Gecko) Chrome/138.0.0.0 Safari/537.36","WebKit","Chrome","138.0.0.0","Windows","10.0","https://app.prolific.com/","en-US,en;q=0.9,zh-CN;q=0.8,zh;q=0.7","669149873799bbea50733fe0","683db9eb0562dbf637994deb","6880905ca21312e4d45f6c4e","2","1","669149873799bbea50733fe0","2","1","2025-07-23T07:34:44.285Z","","","","","","","","","","","","","","","","","","","","","","","","","","","","","","","","","","","","","","","","","",""
"3535","","","","fullscreen","1","11291","0.0-1.0","178","1","2025-07-23 07:34:30","1f75c3e559b7213887762d5229550c2b","102.213.27.252","Mozilla/5.0 (Windows NT 10.0; Win64; x64) AppleWebKit/537.36 (KHTML, like Gecko) Chrome/138.0.0.0 Safari/537.36","WebKit","Chrome","138.0.0.0","Windows","10.0","https://app.prolific.com/","en-US,en;q=0.9,zh-CN;q=0.8,zh;q=0.7","669149873799bbea50733fe0","683db9eb0562dbf637994deb","6880905ca21312e4d45f6c4e","2","1","669149873799bbea50733fe0","2","1","","true","","","","","","","","","","","","","","","","","","","","","","","","","","","","","","","","","","","","","","","","",""
"1897","1753256090737","<p style='font-size:1.1em;line-height:1.25'>In the following, we will ask you a few questions relating to your feelings in the last 24 hours.<br></p><p style='font-size:1.1em;line-height:1.25'>Press the <strong>Next</strong> button to continue.</p>","0","custom-html-button-response","2","13194","0.0-2.0-0.0","178","1","2025-07-23 07:34:30","1f75c3e559b7213887762d5229550c2b","102.213.27.252","Mozilla/5.0 (Windows NT 10.0; Win64; x64) AppleWebKit/537.36 (KHTML, like Gecko) Chrome/138.0.0.0 Safari/537.36","WebKit","Chrome","138.0.0.0","Windows","10.0","https://app.prolific.com/","en-US,en;q=0.9,zh-CN;q=0.8,zh;q=0.7","669149873799bbea50733fe0","683db9eb0562dbf637994deb","6880905ca21312e4d45f6c4e","2","1","669149873799bbea50733fe0","2","1","2025-07-23T07:34:50.741Z","","","","","","","","","","","","","","","","","","","","","","","","","","","","","","","","","","","","","","","","","",""
"80011.79999995232","","","","survey-template","3","93221","0.0-2.0-1.0","178","1","2025-07-23 07:34:30","1f75c3e559b7213887762d5229550c2b","102.213.27.252","Mozilla/5.0 (Windows NT 10.0; Win64; x64) AppleWebKit/537.36 (KHTML, like Gecko) Chrome/138.0.0.0 Safari/537.36","WebKit","Chrome","138.0.0.0","Windows","10.0","https://app.prolific.com/","en-US,en;q=0.9,zh-CN;q=0.8,zh;q=0.7","669149873799bbea50733fe0","683db9eb0562dbf637994deb","6880905ca21312e4d45f6c4e","2","1","669149873799bbea50733fe0","2","1","2025-07-23T07:36:10.767Z","","{""Q01"":""2"",""Q02"":""1"",""Q03"":""1"",""Q04"":""2"",""Q05"":""0"",""Q06"":""2"",""Q07"":""1"",""Q08"":""0"",""Q09"":""2"",""Q10"":""2"",""Q11"":""1"",""Q12"":""2"",""Q13"":""5"",""Q14"":""4"",""Q15"":""1"",""Q16"":""1"",""Q17"":""1"",""Q18"":""1"",""Q19"":""0"",""Q20"":""1"",""Q21"":""0"",""Q22"":""0""}","[0,1,2,3,4,5,6,7,8,9,10,11,12,13,14,15,16,17,18,19,20,21]","[""Q01"",""Q02"",""Q03"",""Q04"",""Q05"",""Q06"",""Q07"",""Q08"",""Q09"",""Q10"",""Q11"",""Q12"",""Q13"",""Q14"",""Q15"",""Q16"",""Q17"",""Q18"",""Q19"",""Q20"",""Q21"",""Q22""]","[3665.699999988079,5200.199999988079,7115.599999964237,9141.699999988079,12725.899999976158,18288.299999952316,19966,24630.69999998808,26861.799999952316,28926.899999976158,33886.59999996424,39365,43261.59999996424,47439.299999952316,50288,53736.89999997616,55466.799999952316,56782.69999998808,61494.5,65490.09999996424,75450.19999998808,78757.69999998808]","[]","[0.3999999761581421,3665.699999988079,5200.199999988079,7115.599999964237,9141.699999988079,12725.899999976158,18288.299999952316,19966,22500.69999998808,24630.69999998808,26861.799999952316,28926.899999976158,33886.59999996424,39365,43261.59999996424,47439.299999952316,50288,52436.69999998808,53736.89999997616,55466.799999952316,56782.69999998808,61494.5,65490.09999996424,72516.19999998808,75450.19999998808,78757.69999998808,79995.39999997616]","0.4090909090909091","0.47619047619047616","0","drsp","","","","","","","","","","","","","","","","","","","","","","","","","","","","","","",""
"34678.30000001192","","","","survey-template","4","127906","0.0-2.0-2.0","178","1","2025-07-23 07:34:30","1f75c3e559b7213887762d5229550c2b","102.213.27.252","Mozilla/5.0 (Windows NT 10.0; Win64; x64) AppleWebKit/537.36 (KHTML, like Gecko) Chrome/138.0.0.0 Safari/537.36","WebKit","Chrome","138.0.0.0","Windows","10.0","https://app.prolific.com/","en-US,en;q=0.9,zh-CN;q=0.8,zh;q=0.7","669149873799bbea50733fe0","683db9eb0562dbf637994deb","6880905ca21312e4d45f6c4e","2","1","669149873799bbea50733fe0","2","1","2025-07-23T07:36:45.453Z","","{""Q01"":""1"",""Q02"":""3"",""Q03"":""1""}","[0,1,2]","[""Q01"",""Q02"",""Q02"",""Q03""]","[15463.199999988079,16963.30000001192,18858.899999976158,20706.69999998808]","[]","[15463.199999988079,16963.30000001192,18858.899999976158,20706.69999998808,22270.69999998808,34675]","0.6666666666666666","1","0","stress","","","","","","","","","","","","","","","","","","","","","","","","","","","","","","",""
"12897","","","","instructions","5","140808","0.0-3.0-0.0","178","1","2025-07-23 07:34:30","1f75c3e559b7213887762d5229550c2b","102.213.27.252","Mozilla/5.0 (Windows NT 10.0; Win64; x64) AppleWebKit/537.36 (KHTML, like Gecko) Chrome/138.0.0.0 Safari/537.36","WebKit","Chrome","138.0.0.0","Windows","10.0","https://app.prolific.com/","en-US,en;q=0.9,zh-CN;q=0.8,zh;q=0.7","669149873799bbea50733fe0","683db9eb0562dbf637994deb","6880905ca21312e4d45f6c4e","2","1","669149873799bbea50733fe0","2","1","","","","","","","","","","","","","[{""page_index"":0,""viewing_time"":12895}]","","","","","","","","","","","","","","","","","","","","","","","","","","","","","",""
"8063","","<p>Before you start with this game please answer the following three questions yourself. </p>
  <p>Through this game, we measure several aspects of your cognitive performance, such as reaction times, multi-tasking capabilities </p>
  <p>and the ability to assess the situation you are in.</p>
  <p></p>
  <p><b>How good do you usually are in such tasks?</b></p>","67","html-slider-response","6","148882","0.0-4.0-0.0","178","1","2025-07-23 07:34:30","1f75c3e559b7213887762d5229550c2b","102.213.27.252","Mozilla/5.0 (Windows NT 10.0; Win64; x64) AppleWebKit/537.36 (KHTML, like Gecko) Chrome/138.0.0.0 Safari/537.36","WebKit","Chrome","138.0.0.0","Windows","10.0","https://app.prolific.com/","en-US,en;q=0.9,zh-CN;q=0.8,zh;q=0.7","669149873799bbea50733fe0","683db9eb0562dbf637994deb","6880905ca21312e4d45f6c4e","2","1","669149873799bbea50733fe0","2","1","2025-07-23T07:37:06.428Z","","","","","","","","","","","PreSkillQ","","50","","","","","","","","","","","","","","","","","","","","","","","","","","","","",""
"5138","","<div style=""width:500px;"">
  <p>How well do you think you will perform in this task compared to other participants?</p>
  </div>","57","html-slider-response","7","154029","0.0-4.0-1.0","178","1","2025-07-23 07:34:30","1f75c3e559b7213887762d5229550c2b","102.213.27.252","Mozilla/5.0 (Windows NT 10.0; Win64; x64) AppleWebKit/537.36 (KHTML, like Gecko) Chrome/138.0.0.0 Safari/537.36","WebKit","Chrome","138.0.0.0","Windows","10.0","https://app.prolific.com/","en-US,en;q=0.9,zh-CN;q=0.8,zh;q=0.7","669149873799bbea50733fe0","683db9eb0562dbf637994deb","6880905ca21312e4d45f6c4e","2","1","669149873799bbea50733fe0","2","1","2025-07-23T07:37:11.575Z","","","","","","","","","","","PrePerfQ","","50","","","","","","","","","","","","","","","","","","","","","","","","","","","","",""
"7533","","<div style=""width:500px;"">
  <p>What best describes how you currently feel?</p>
  </div>","60","html-slider-response","8","161566","0.0-4.0-2.0","178","1","2025-07-23 07:34:30","1f75c3e559b7213887762d5229550c2b","102.213.27.252","Mozilla/5.0 (Windows NT 10.0; Win64; x64) AppleWebKit/537.36 (KHTML, like Gecko) Chrome/138.0.0.0 Safari/537.36","WebKit","Chrome","138.0.0.0","Windows","10.0","https://app.prolific.com/","en-US,en;q=0.9,zh-CN;q=0.8,zh;q=0.7","669149873799bbea50733fe0","683db9eb0562dbf637994deb","6880905ca21312e4d45f6c4e","2","1","669149873799bbea50733fe0","2","1","2025-07-23T07:37:19.112Z","","","","","","","","","","","PreMotivationQ","","50","","","","","","","","","","","","","","","","","","","","","","","","","","","","",""
"","","","","ctl-task-cpt","9","184142","0.0-5.0-0.0","178","1","2025-07-23 07:34:30","1f75c3e559b7213887762d5229550c2b","102.213.27.252","Mozilla/5.0 (Windows NT 10.0; Win64; x64) AppleWebKit/537.36 (KHTML, like Gecko) Chrome/138.0.0.0 Safari/537.36","WebKit","Chrome","138.0.0.0","Windows","10.0","https://app.prolific.com/","en-US,en;q=0.9,zh-CN;q=0.8,zh;q=0.7","669149873799bbea50733fe0","683db9eb0562dbf637994deb","6880905ca21312e4d45f6c4e","2","1","669149873799bbea50733fe0","2","1","2025-07-23T07:37:41.688Z","","","","","","","","","","","","","","win-only","2","g1:SE,g2:NW","1","1","0","168758.9","2613.9","7616.9","19563.4","1","4","4","6","1","1","1","1","0","0.007575757575757576","1610.6","3000","1505","[""down"",""right""]","{""num_key_presses"":4,""num_perfect"":4,""num_errors"":0,""num_randdir"":0,""num_randdir_good_moves"":0,""num_whilered"":0,""num_whileblue"":0,""num_blue"":0,""num_good_moves"":4}","[412.8214133126395,410.32142761775424,1.1,412.8214133126395,410.32142761775424,105.7,412.8214133126395,410.32142761775424,207.3,412.8214133126395,410.32142761775424,312.8,412.8214133126395,410.32142761775424,419,412.8214133126395,410.32142761775424,522.8,412.8214133126395,410.32142761775424,626.9,412.8214133126395,410.32142761775424,727.9,570.3214133126395,491.57142761775424,832.9,779.0714133126395,671.5714276177542,936.9,796.5714133126395,751.5714276177542,1046.1,785.3214133126395,750.3214276177542,1153.7,766.5714133126395,746.5714276177542,1260.3,766.5714133126395,746.5714276177542,1362.3,766.5714133126395,746.5714276177542,1462.5,766.5714133126395,746.5714276177542,1562.6,766.5714133126395,746.5714276177542,1674.4,766.5714133126395,746.5714276177542,1777.2,766.5714133126395,746.5714276177542,1890.9,766.5714133126395,746.5714276177542,1991.9,766.5714133126395,746.5714276177542,2092.4,766.5714133126395,746.5714276177542,2197.2,766.5714133126395,746.5714276177542,2297.3,766.5714133126395,746.5714276177542,2407,766.5714133126395,746.5714276177542,2507.3,766.5714133126395,746.5714276177542,2612.3,766.5714133126395,746.5714276177542,2717.2,766.5714133126395,746.5714276177542,2823.3,766.5714133126395,746.5714276177542,2927,766.5714133126395,746.5714276177542,3029.5,766.5714133126395,746.5714276177542,3139.6,766.5714133126395,746.5714276177542,3242.5,766.5714133126395,746.5714276177542,3342.5,766.5714133126395,746.5714276177542,3442.5,766.5714133126395,746.5714276177542,3542.6,766.5714133126395,746.5714276177542,3655.8,766.5714133126395,746.5714276177542,3757.7,766.5714133126395,746.5714276177542,3862.4,766.5714133126395,746.5714276177542,3972,766.5714133126395,746.5714276177542,4072,766.5714133126395,746.5714276177542,4172,766.5714133126395,746.5714276177542,4272,766.5714133126395,746.5714276177542,4377.9,766.5714133126395,746.5714276177542,4482.4,766.5714133126395,746.5714276177542,4587.2,766.5714133126395,746.5714276177542,4691.6,766.5714133126395,746.5714276177542,4791.7,766.5714133126395,746.5714276177542,4892.6,766.5714133126395,746.5714276177542,4997.2]","[1352.9,1352.8,1000,0.1,352.8,""smooth"",""right"",""right"",""good_move"",4280.3,2926.6,2395,1353.7,531.6,""smooth"",""right"",""right"",""good_move"",7861.1,3580.3,3219.8,4280.8,360.5,""smooth"",""down"",""down"",""good_move"",11834.6,3972.5,3366.4,7862.1,606.1,""smooth"",""down"",""down"",""good_move""]","",""
"6713","","<div style=""width:500px;"">
  <p>What determined the result of this run?</p>
  </div>","83","html-slider-response","10","190858","0.0-5.0-1.0","178","1","2025-07-23 07:34:30","1f75c3e559b7213887762d5229550c2b","102.213.27.252","Mozilla/5.0 (Windows NT 10.0; Win64; x64) AppleWebKit/537.36 (KHTML, like Gecko) Chrome/138.0.0.0 Safari/537.36","WebKit","Chrome","138.0.0.0","Windows","10.0","https://app.prolific.com/","en-US,en;q=0.9,zh-CN;q=0.8,zh;q=0.7","669149873799bbea50733fe0","683db9eb0562dbf637994deb","6880905ca21312e4d45f6c4e","2","1","669149873799bbea50733fe0","2","1","2025-07-23T07:37:48.404Z","","","","","","","","","","","AttribQ","","50","","","","","","","","","","","","","","","","","","","","","","","","","","","","",""
"5971","","<div style=""width:500px;"">
  <p>How much control did you have over the ball?</p>
  </div>","70","html-slider-response","11","196831","0.0-5.0-2.0","178","1","2025-07-23 07:34:30","1f75c3e559b7213887762d5229550c2b","102.213.27.252","Mozilla/5.0 (Windows NT 10.0; Win64; x64) AppleWebKit/537.36 (KHTML, like Gecko) Chrome/138.0.0.0 Safari/537.36","WebKit","Chrome","138.0.0.0","Windows","10.0","https://app.prolific.com/","en-US,en;q=0.9,zh-CN;q=0.8,zh;q=0.7","669149873799bbea50733fe0","683db9eb0562dbf637994deb","6880905ca21312e4d45f6c4e","2","1","669149873799bbea50733fe0","2","1","2025-07-23T07:37:54.377Z","","","","","","","","","","","ControlQ","","50","","","","","","","","","","","","","","","","","","","","","","","","","","","","",""
"6159","","<div style=""width:500px;"">
  <p>How would you describe your current emotional state?</p>
  </div>","64","html-slider-response","12","202992","0.0-5.0-3.0","178","1","2025-07-23 07:34:30","1f75c3e559b7213887762d5229550c2b","102.213.27.252","Mozilla/5.0 (Windows NT 10.0; Win64; x64) AppleWebKit/537.36 (KHTML, like Gecko) Chrome/138.0.0.0 Safari/537.36","WebKit","Chrome","138.0.0.0","Windows","10.0","https://app.prolific.com/","en-US,en;q=0.9,zh-CN;q=0.8,zh;q=0.7","669149873799bbea50733fe0","683db9eb0562dbf637994deb","6880905ca21312e4d45f6c4e","2","1","669149873799bbea50733fe0","2","1","2025-07-23T07:38:00.538Z","","","","","","","","","","","StressQ","","50","","","","","","","","","","","","","","","","","","","","","","","","","","","","",""
"4157","","<div style=""width:500px;"">
  <p>What best describes how you currently feel?</p>
  </div>","76","html-slider-response","13","207150","0.0-5.0-4.0","178","1","2025-07-23 07:34:30","1f75c3e559b7213887762d5229550c2b","102.213.27.252","Mozilla/5.0 (Windows NT 10.0; Win64; x64) AppleWebKit/537.36 (KHTML, like Gecko) Chrome/138.0.0.0 Safari/537.36","WebKit","Chrome","138.0.0.0","Windows","10.0","https://app.prolific.com/","en-US,en;q=0.9,zh-CN;q=0.8,zh;q=0.7","669149873799bbea50733fe0","683db9eb0562dbf637994deb","6880905ca21312e4d45f6c4e","2","1","669149873799bbea50733fe0","2","1","2025-07-23T07:38:04.697Z","","","","","","","","","","","MotivationQ","","50","","","","","","","","","","","","","","","","","","","","","","","","","","","","",""
"","","","","ctl-task-cpt","14","236057","0.0-5.0-0.1","178","1","2025-07-23 07:34:30","1f75c3e559b7213887762d5229550c2b","102.213.27.252","Mozilla/5.0 (Windows NT 10.0; Win64; x64) AppleWebKit/537.36 (KHTML, like Gecko) Chrome/138.0.0.0 Safari/537.36","WebKit","Chrome","138.0.0.0","Windows","10.0","https://app.prolific.com/","en-US,en;q=0.9,zh-CN;q=0.8,zh;q=0.7","669149873799bbea50733fe0","683db9eb0562dbf637994deb","6880905ca21312e4d45f6c4e","2","1","669149873799bbea50733fe0","2","1","2025-07-23T07:38:33.603Z","","","","","","","","","","","","","","win-only","1","g1:NE,g2:SW","0.9","2","0","214341","2100.9","7117.1","25867.5","1","4","8","6","1","1","1","2","1","0.015151515151515152","2016.8","3000","1365","[""up"",""right""]","{""num_key_presses"":6,""num_perfect"":5,""num_errors"":0,""num_randdir"":1,""num_randdir_good_moves"":0,""num_whilered"":0,""num_whileblue"":0,""num_blue"":1,""num_good_moves"":5}","[422.8214133126395,416.57142761775424,0.7,422.8214133126395,416.57142761775424,102.5,422.8214133126395,416.57142761775424,206.9,422.8214133126395,416.57142761775424,310.5,422.8214133126395,416.57142761775424,415.7,422.8214133126395,416.57142761775424,520.1,422.8214133126395,416.57142761775424,620.7,395.3214133126395,446.57142761775424,727.5,371.5714133126395,476.57142761775424,831.5,371.5714133126395,475.32142761775424,936.7,556.5714133126395,324.07142761775424,1054,836.5714133126395,116.57142761775425,1156.4,836.5714133126395,116.57142761775425,1259.9,836.5714133126395,116.57142761775425,1364.6,836.5714133126395,116.57142761775425,1464.8,836.5714133126395,116.57142761775425,1565.2,805.3214133126395,111.57142761775425,1672.3,780.3214133126395,100.32142761775425,1775.7,780.3214133126395,100.32142761775425,1878.3,780.3214133126395,100.32142761775425,1981.6,780.3214133126395,100.32142761775425,2086.7,780.3214133126395,100.32142761775425,2190,780.3214133126395,100.32142761775425,2301.6,780.3214133126395,100.32142761775425,2406,780.3214133126395,100.32142761775425,2506,780.3214133126395,100.32142761775425,2610.8,780.3214133126395,100.32142761775425,2716,780.3214133126395,100.32142761775425,2816.5,780.3214133126395,100.32142761775425,2925.5,780.3214133126395,100.32142761775425,3025.7,780.3214133126395,100.32142761775425,3126.7,780.3214133126395,100.32142761775425,3231.9,780.3214133126395,100.32142761775425,3332.5,780.3214133126395,100.32142761775425,3433.6,780.3214133126395,100.32142761775425,3534.9,780.3214133126395,100.32142761775425,3636.6,780.3214133126395,100.32142761775425,3740.6,764.0714133126395,104.07142761775425,3840.8,747.8214133126395,104.07142761775425,3942.2,735.3214133126395,104.07142761775425,4046.3,690.3214133126395,110.32142761775425,4146.5,645.3214133126395,120.32142761775425,4252.9,632.8214133126395,126.57142761775425,4366.9,632.8214133126395,126.57142761775425,4473.1,632.8214133126395,126.57142761775425,4580.5,632.8214133126395,126.57142761775425,4681.7,632.8214133126395,126.57142761775425,4782.3,632.8214133126395,126.57142761775425,4883.7,632.8214133126395,126.57142761775425,4984.7]","[4473.6,4473.6,1982.1,2016.3,475.2,""smooth"",""up"",""up"",""good_move"",7260.4,2785.5,2282.1,4474.9,503.4,""smooth"",""up"",""up"",""good_move"",9191.7,1929.2,1338.6,7262.6,590.5,""smooth"",""right"",""right"",""good_move"",12685.1,3492.2,3081.8,9192.9,410.4,""oops"",""right"",""down"",""bad_move"",15690.2,3003.7,2606.2,12686.5,397.5,""smooth"",""right"",""right"",""good_move"",18599.1,2906.4,2504.7,15692.8,401.6,""smooth"",""up"",""up"",""good_move""]","",""
"4425","","<div style=""width:500px;"">
  <p>What determined the result of this run?</p>
  </div>","22","html-slider-response","15","240484","0.0-5.0-1.1","178","1","2025-07-23 07:34:30","1f75c3e559b7213887762d5229550c2b","102.213.27.252","Mozilla/5.0 (Windows NT 10.0; Win64; x64) AppleWebKit/537.36 (KHTML, like Gecko) Chrome/138.0.0.0 Safari/537.36","WebKit","Chrome","138.0.0.0","Windows","10.0","https://app.prolific.com/","en-US,en;q=0.9,zh-CN;q=0.8,zh;q=0.7","669149873799bbea50733fe0","683db9eb0562dbf637994deb","6880905ca21312e4d45f6c4e","2","1","669149873799bbea50733fe0","2","1","2025-07-23T07:38:38.030Z","","","","","","","","","","","AttribQ","","50","","","","","","","","","","","","","","","","","","","","","","","","","","","","",""
"5614","","<div style=""width:500px;"">
  <p>How much control did you have over the ball?</p>
  </div>","81","html-slider-response","16","246100","0.0-5.0-2.1","178","1","2025-07-23 07:34:30","1f75c3e559b7213887762d5229550c2b","102.213.27.252","Mozilla/5.0 (Windows NT 10.0; Win64; x64) AppleWebKit/537.36 (KHTML, like Gecko) Chrome/138.0.0.0 Safari/537.36","WebKit","Chrome","138.0.0.0","Windows","10.0","https://app.prolific.com/","en-US,en;q=0.9,zh-CN;q=0.8,zh;q=0.7","669149873799bbea50733fe0","683db9eb0562dbf637994deb","6880905ca21312e4d45f6c4e","2","1","669149873799bbea50733fe0","2","1","2025-07-23T07:38:43.646Z","","","","","","","","","","","ControlQ","","50","","","","","","","","","","","","","","","","","","","","","","","","","","","","",""
"9740","","<div style=""width:500px;"">
  <p>How would you describe your current emotional state?</p>
  </div>","23","html-slider-response","17","255843","0.0-5.0-3.1","178","1","2025-07-23 07:34:30","1f75c3e559b7213887762d5229550c2b","102.213.27.252","Mozilla/5.0 (Windows NT 10.0; Win64; x64) AppleWebKit/537.36 (KHTML, like Gecko) Chrome/138.0.0.0 Safari/537.36","WebKit","Chrome","138.0.0.0","Windows","10.0","https://app.prolific.com/","en-US,en;q=0.9,zh-CN;q=0.8,zh;q=0.7","669149873799bbea50733fe0","683db9eb0562dbf637994deb","6880905ca21312e4d45f6c4e","2","1","669149873799bbea50733fe0","2","1","2025-07-23T07:38:53.389Z","","","","","","","","","","","StressQ","","50","","","","","","","","","","","","","","","","","","","","","","","","","","","","",""
"6770","","<div style=""width:500px;"">
  <p>What best describes how you currently feel?</p>
  </div>","73","html-slider-response","18","262615","0.0-5.0-4.1","178","1","2025-07-23 07:34:30","1f75c3e559b7213887762d5229550c2b","102.213.27.252","Mozilla/5.0 (Windows NT 10.0; Win64; x64) AppleWebKit/537.36 (KHTML, like Gecko) Chrome/138.0.0.0 Safari/537.36","WebKit","Chrome","138.0.0.0","Windows","10.0","https://app.prolific.com/","en-US,en;q=0.9,zh-CN;q=0.8,zh;q=0.7","669149873799bbea50733fe0","683db9eb0562dbf637994deb","6880905ca21312e4d45f6c4e","2","1","669149873799bbea50733fe0","2","1","2025-07-23T07:39:00.162Z","","","","","","","","","","","MotivationQ","","50","","","","","","","","","","","","","","","","","","","","","","","","","","","","",""
"","","","","ctl-task-cpt","19","283911","0.0-5.0-0.2","178","1","2025-07-23 07:34:30","1f75c3e559b7213887762d5229550c2b","102.213.27.252","Mozilla/5.0 (Windows NT 10.0; Win64; x64) AppleWebKit/537.36 (KHTML, like Gecko) Chrome/138.0.0.0 Safari/537.36","WebKit","Chrome","138.0.0.0","Windows","10.0","https://app.prolific.com/","en-US,en;q=0.9,zh-CN;q=0.8,zh;q=0.7","669149873799bbea50733fe0","683db9eb0562dbf637994deb","6880905ca21312e4d45f6c4e","2","1","669149873799bbea50733fe0","2","1","2025-07-23T07:39:21.457Z","","","","","","","","","","","","","","win-only","1","g1:NE,g2:SW","0.8","3","0","269826.3","2209.7","7214.1","18247","1","4","4","6","1","1","1","3","2","0.022727272727272728","2015.7","3000","1665","[""up"",""right""]","{""num_key_presses"":4,""num_perfect"":4,""num_errors"":0,""num_randdir"":0,""num_randdir_good_moves"":0,""num_whilered"":0,""num_whileblue"":0,""num_blue"":0,""num_good_moves"":4}","[410.3214133126395,422.82142761775424,1.2,410.3214133126395,422.82142761775424,100.6,410.3214133126395,422.82142761775424,202.4,410.3214133126395,422.82142761775424,303.1,410.3214133126395,422.82142761775424,406.7,410.3214133126395,422.82142761775424,528.8,410.3214133126395,422.82142761775424,635.6,467.8214133126395,369.07142761775424,736,627.8214133126395,230.32142761775424,835.9,627.8214133126395,230.32142761775424,936.9,627.8214133126395,230.32142761775424,1038.1,627.8214133126395,230.32142761775424,1150.7,627.8214133126395,230.32142761775424,1268.5,651.5714133126395,151.57142761775424,1379,692.8214133126395,94.07142761775425,1491.5,696.5714133126395,90.32142761775425,1592.7,732.8214133126395,96.57142761775425,1699.1,756.5714133126395,101.57142761775425,1801.4,756.5714133126395,101.57142761775425,1915,756.5714133126395,101.57142761775425,2024.4,756.5714133126395,101.57142761775425,2140.7,756.5714133126395,101.57142761775425,2241,756.5714133126395,101.57142761775425,2364.3,756.5714133126395,101.57142761775425,2482.8,756.5714133126395,101.57142761775425,2583.4,756.5714133126395,101.57142761775425,2688.4,756.5714133126395,101.57142761775425,2810.8,756.5714133126395,101.57142761775425,2913.2,756.5714133126395,101.57142761775425,3034.8,756.5714133126395,101.57142761775425,3144.6,756.5714133126395,101.57142761775425,3244.8,756.5714133126395,101.57142761775425,3364.8,756.5714133126395,101.57142761775425,3468.3,756.5714133126395,101.57142761775425,3568.5,756.5714133126395,101.57142761775425,3680,756.5714133126395,101.57142761775425,3783.3,756.5714133126395,101.57142761775425,3892.2,756.5714133126395,101.57142761775425,3993.3,756.5714133126395,101.57142761775425,4097.2,756.5714133126395,101.57142761775425,4208.4,756.5714133126395,101.57142761775425,4332.4,756.5714133126395,101.57142761775425,4437.3,756.5714133126395,101.57142761775425,4548.4,756.5714133126395,101.57142761775425,4658.6,756.5714133126395,101.57142761775425,4759.6,756.5714133126395,101.57142761775425,4860.8,756.5714133126395,101.57142761775425,4976.2]","[2387,2387,1000,0,1387,""smooth"",""up"",""up"",""good_move"",5416.1,3028,2531.7,2388.2,496.2,""smooth"",""up"",""up"",""good_move"",8104.2,2687,2299.9,5417.2,387.1,""smooth"",""right"",""right"",""good_move"",10843.5,2737.9,2301.2,8105.6,436.7,""smooth"",""right"",""right"",""good_move""]","",""
"4884","","<div style=""width:500px;"">
  <p>What determined the result of this run?</p>
  </div>","84","html-slider-response","20","288797","0.0-5.0-1.2","178","1","2025-07-23 07:34:30","1f75c3e559b7213887762d5229550c2b","102.213.27.252","Mozilla/5.0 (Windows NT 10.0; Win64; x64) AppleWebKit/537.36 (KHTML, like Gecko) Chrome/138.0.0.0 Safari/537.36","WebKit","Chrome","138.0.0.0","Windows","10.0","https://app.prolific.com/","en-US,en;q=0.9,zh-CN;q=0.8,zh;q=0.7","669149873799bbea50733fe0","683db9eb0562dbf637994deb","6880905ca21312e4d45f6c4e","2","1","669149873799bbea50733fe0","2","1","2025-07-23T07:39:26.343Z","","","","","","","","","","","AttribQ","","50","","","","","","","","","","","","","","","","","","","","","","","","","","","","",""
"10995","","<div style=""width:500px;"">
  <p>How much control did you have over the ball?</p>
  </div>","77","html-slider-response","21","299794","0.0-5.0-2.2","178","1","2025-07-23 07:34:30","1f75c3e559b7213887762d5229550c2b","102.213.27.252","Mozilla/5.0 (Windows NT 10.0; Win64; x64) AppleWebKit/537.36 (KHTML, like Gecko) Chrome/138.0.0.0 Safari/537.36","WebKit","Chrome","138.0.0.0","Windows","10.0","https://app.prolific.com/","en-US,en;q=0.9,zh-CN;q=0.8,zh;q=0.7","669149873799bbea50733fe0","683db9eb0562dbf637994deb","6880905ca21312e4d45f6c4e","2","1","669149873799bbea50733fe0","2","1","2025-07-23T07:39:37.341Z","","","","","","","","","","","ControlQ","","50","","","","","","","","","","","","","","","","","","","","","","","","","","","","",""
"15985","","<div style=""width:500px;"">
  <p>How would you describe your current emotional state?</p>
  </div>","23","html-slider-response","22","315782","0.0-5.0-3.2","178","1","2025-07-23 07:34:30","1f75c3e559b7213887762d5229550c2b","102.213.27.252","Mozilla/5.0 (Windows NT 10.0; Win64; x64) AppleWebKit/537.36 (KHTML, like Gecko) Chrome/138.0.0.0 Safari/537.36","WebKit","Chrome","138.0.0.0","Windows","10.0","https://app.prolific.com/","en-US,en;q=0.9,zh-CN;q=0.8,zh;q=0.7","669149873799bbea50733fe0","683db9eb0562dbf637994deb","6880905ca21312e4d45f6c4e","2","1","669149873799bbea50733fe0","2","1","2025-07-23T07:39:53.328Z","","","","","","","","","","","StressQ","","50","","","","","","","","","","","","","","","","","","","","","","","","","","","","",""
"11230","","<div style=""width:500px;"">
  <p>What best describes how you currently feel?</p>
  </div>","80","html-slider-response","23","327015","0.0-5.0-4.2","178","1","2025-07-23 07:34:30","1f75c3e559b7213887762d5229550c2b","102.213.27.252","Mozilla/5.0 (Windows NT 10.0; Win64; x64) AppleWebKit/537.36 (KHTML, like Gecko) Chrome/138.0.0.0 Safari/537.36","WebKit","Chrome","138.0.0.0","Windows","10.0","https://app.prolific.com/","en-US,en;q=0.9,zh-CN;q=0.8,zh;q=0.7","669149873799bbea50733fe0","683db9eb0562dbf637994deb","6880905ca21312e4d45f6c4e","2","1","669149873799bbea50733fe0","2","1","2025-07-23T07:40:04.561Z","","","","","","","","","","","MotivationQ","","50","","","","","","","","","","","","","","","","","","","","","","","","","","","","",""
"","","","","ctl-task-cpt","24","372569","0.0-5.0-0.3","178","1","2025-07-23 07:34:30","1f75c3e559b7213887762d5229550c2b","102.213.27.252","Mozilla/5.0 (Windows NT 10.0; Win64; x64) AppleWebKit/537.36 (KHTML, like Gecko) Chrome/138.0.0.0 Safari/537.36","WebKit","Chrome","138.0.0.0","Windows","10.0","https://app.prolific.com/","en-US,en;q=0.9,zh-CN;q=0.8,zh;q=0.7","669149873799bbea50733fe0","683db9eb0562dbf637994deb","6880905ca21312e4d45f6c4e","2","1","669149873799bbea50733fe0","2","1","2025-07-23T07:40:50.116Z","","","","","","","","","","","","","","win-only","2","g1:SE,g2:NW","0.7","4","0","334209.7","19541.5","24550","42495.9","1","4","8","6","1","1","1","4","3","0.030303030303030304","1579.4","3000","2105","[""down"",""right""]","{""num_key_presses"":4,""num_perfect"":3,""num_errors"":0,""num_randdir"":1,""num_randdir_good_moves"":1,""num_whilered"":0,""num_whileblue"":0,""num_blue"":2,""num_good_moves"":4}","[420.3214133126395,415.32142761775424,1.1,420.3214133126395,415.32142761775424,149.1,420.3214133126395,415.32142761775424,257.9,420.3214133126395,415.32142761775424,361.3,420.3214133126395,415.32142761775424,466.8,420.3214133126395,415.32142761775424,572.9,431.5714133126395,420.32142761775424,683.6,566.5714133126395,595.3214276177542,796.4,642.8214133126395,750.3214276177542,898.3,699.0714133126395,779.0714276177542,1001.5,739.0714133126395,736.5714276177542,1106.4,761.5714133126395,729.0714276177542,1224.9,775.3214133126395,729.0714276177542,1325,775.3214133126395,729.0714276177542,1431.2,775.3214133126395,729.0714276177542,1565.6,775.3214133126395,729.0714276177542,1698.6,775.3214133126395,729.0714276177542,1799.9,775.3214133126395,729.0714276177542,1908.5,775.3214133126395,729.0714276177542,2032.3,775.3214133126395,729.0714276177542,2137.3,775.3214133126395,729.0714276177542,2241.1,775.3214133126395,729.0714276177542,2341.4,775.3214133126395,729.0714276177542,2446,775.3214133126395,729.0714276177542,2548.7,775.3214133126395,729.0714276177542,2651.4,775.3214133126395,729.0714276177542,2780.8,775.3214133126395,729.0714276177542,2885.3,775.3214133126395,729.0714276177542,2986.5,775.3214133126395,729.0714276177542,3089.2,742.8214133126395,694.0714276177542,3192.8,739.0714133126395,690.3214276177542,3314.7,739.0714133126395,690.3214276177542,3420.1,739.0714133126395,690.3214276177542,3520.4,739.0714133126395,690.3214276177542,3625.6,739.0714133126395,690.3214276177542,3726.7,739.0714133126395,690.3214276177542,3830.5,739.0714133126395,690.3214276177542,3930.8,739.0714133126395,690.3214276177542,4039.8,739.0714133126395,690.3214276177542,4140.2,739.0714133126395,690.3214276177542,4247.2,739.0714133126395,690.3214276177542,4376.3,739.0714133126395,690.3214276177542,4478.5,739.0714133126395,690.3214276177542,4578.8,739.0714133126395,690.3214276177542,4679.6,739.0714133126395,690.3214276177542,4818.6,739.0714133126395,690.3214276177542,4936.3]","[5112.4,5112.4,2518,2014.3,580.1,""smooth"",""right"",""right"",""good_move"",11287.8,6174.2,2657.6,8013.4,616.9,""smooth"",""right"",""right"",""good_move"",14798.3,3509.7,2995.5,11288.7,514.2,""smooth"",""down"",""down"",""good_move"",17761.9,2959.4,2487.6,14802.5,471.8,""oops"",""down"",""down"",""good_move""]","",""
"4008","","<div style=""width:500px;"">
  <p>What determined the result of this run?</p>
  </div>","71","html-slider-response","25","376580","0.0-5.0-1.3","178","1","2025-07-23 07:34:30","1f75c3e559b7213887762d5229550c2b","102.213.27.252","Mozilla/5.0 (Windows NT 10.0; Win64; x64) AppleWebKit/537.36 (KHTML, like Gecko) Chrome/138.0.0.0 Safari/537.36","WebKit","Chrome","138.0.0.0","Windows","10.0","https://app.prolific.com/","en-US,en;q=0.9,zh-CN;q=0.8,zh;q=0.7","669149873799bbea50733fe0","683db9eb0562dbf637994deb","6880905ca21312e4d45f6c4e","2","1","669149873799bbea50733fe0","2","1","2025-07-23T07:40:54.126Z","","","","","","","","","","","AttribQ","","50","","","","","","","","","","","","","","","","","","","","","","","","","","","","",""
"6932","","<div style=""width:500px;"">
  <p>How much control did you have over the ball?</p>
  </div>","86","html-slider-response","26","383515","0.0-5.0-2.3","178","1","2025-07-23 07:34:30","1f75c3e559b7213887762d5229550c2b","102.213.27.252","Mozilla/5.0 (Windows NT 10.0; Win64; x64) AppleWebKit/537.36 (KHTML, like Gecko) Chrome/138.0.0.0 Safari/537.36","WebKit","Chrome","138.0.0.0","Windows","10.0","https://app.prolific.com/","en-US,en;q=0.9,zh-CN;q=0.8,zh;q=0.7","669149873799bbea50733fe0","683db9eb0562dbf637994deb","6880905ca21312e4d45f6c4e","2","1","669149873799bbea50733fe0","2","1","2025-07-23T07:41:01.061Z","","","","","","","","","","","ControlQ","","50","","","","","","","","","","","","","","","","","","","","","","","","","","","","",""
"6964","","<div style=""width:500px;"">
  <p>How would you describe your current emotional state?</p>
  </div>","16","html-slider-response","27","390482","0.0-5.0-3.3","178","1","2025-07-23 07:34:30","1f75c3e559b7213887762d5229550c2b","102.213.27.252","Mozilla/5.0 (Windows NT 10.0; Win64; x64) AppleWebKit/537.36 (KHTML, like Gecko) Chrome/138.0.0.0 Safari/537.36","WebKit","Chrome","138.0.0.0","Windows","10.0","https://app.prolific.com/","en-US,en;q=0.9,zh-CN;q=0.8,zh;q=0.7","669149873799bbea50733fe0","683db9eb0562dbf637994deb","6880905ca21312e4d45f6c4e","2","1","669149873799bbea50733fe0","2","1","2025-07-23T07:41:08.028Z","","","","","","","","","","","StressQ","","50","","","","","","","","","","","","","","","","","","","","","","","","","","","","",""
"7272","","<div style=""width:500px;"">
  <p>What best describes how you currently feel?</p>
  </div>","83","html-slider-response","28","397757","0.0-5.0-4.3","178","1","2025-07-23 07:34:30","1f75c3e559b7213887762d5229550c2b","102.213.27.252","Mozilla/5.0 (Windows NT 10.0; Win64; x64) AppleWebKit/537.36 (KHTML, like Gecko) Chrome/138.0.0.0 Safari/537.36","WebKit","Chrome","138.0.0.0","Windows","10.0","https://app.prolific.com/","en-US,en;q=0.9,zh-CN;q=0.8,zh;q=0.7","669149873799bbea50733fe0","683db9eb0562dbf637994deb","6880905ca21312e4d45f6c4e","2","1","669149873799bbea50733fe0","2","1","2025-07-23T07:41:15.304Z","","","","","","","","","","","MotivationQ","","50","","","","","","","","","","","","","","","","","","","","","","","","","","","","",""
"","","","","ctl-task-cpt","29","454685","0.0-5.0-0.4","178","1","2025-07-23 07:34:30","1f75c3e559b7213887762d5229550c2b","102.213.27.252","Mozilla/5.0 (Windows NT 10.0; Win64; x64) AppleWebKit/537.36 (KHTML, like Gecko) Chrome/138.0.0.0 Safari/537.36","WebKit","Chrome","138.0.0.0","Windows","10.0","https://app.prolific.com/","en-US,en;q=0.9,zh-CN;q=0.8,zh;q=0.7","669149873799bbea50733fe0","683db9eb0562dbf637994deb","6880905ca21312e4d45f6c4e","2","1","669149873799bbea50733fe0","2","1","2025-07-23T07:42:12.231Z","","","","","","","","","","","","","","win-only","3","g1:SW,g2:NE","0.6","5","0","404950.6","15087.3","20113.4","53906.1","1","4","8","6","1","1","1","5","4","0.03787878787878788","1883.8","3000","1350","[""down"",""left""]","{""num_key_presses"":8,""num_perfect"":5,""num_errors"":0,""num_randdir"":3,""num_randdir_good_moves"":1,""num_whilered"":0,""num_whileblue"":0,""num_blue"":3,""num_good_moves"":6}","[421.5714133126395,407.82142761775424,1.1,421.5714133126395,407.82142761775424,107.3,421.5714133126395,407.82142761775424,210.1,421.5714133126395,407.82142761775424,334.1,421.5714133126395,407.82142761775424,482.7,421.5714133126395,407.82142761775424,584.6,421.5714133126395,427.82142761775424,733.2,341.5714133126395,510.32142761775424,834.5,225.3214133126395,599.0714276177542,957.9,146.5714133126395,657.8214276177542,1093.8,131.5714133126395,666.5714276177542,1225.5,109.0714133126395,700.3214276177542,1342.9,96.5714133126395,725.3214276177542,1445.5,96.5714133126395,726.5714276177542,1583.7,96.5714133126395,726.5714276177542,1686.9,96.5714133126395,726.5714276177542,1791.4,96.5714133126395,726.5714276177542,1892.4,96.5714133126395,726.5714276177542,2006,96.5714133126395,726.5714276177542,2106.7,96.5714133126395,726.5714276177542,2227,96.5714133126395,726.5714276177542,2332.6,96.5714133126395,726.5714276177542,2443.7,96.5714133126395,726.5714276177542,2558.4,96.5714133126395,726.5714276177542,2664.1,96.5714133126395,726.5714276177542,2772.4,96.5714133126395,726.5714276177542,2875,96.5714133126395,726.5714276177542,2976.1,96.5714133126395,726.5714276177542,3098.3,277.8214133126395,590.3214276177542,3226.2,291.5714133126395,582.8214276177542,3336,291.5714133126395,582.8214276177542,3504.9,291.5714133126395,582.8214276177542,3612.3,291.5714133126395,582.8214276177542,3713.4,291.5714133126395,582.8214276177542,3826,291.5714133126395,582.8214276177542,3928.5,291.5714133126395,582.8214276177542,4041.5,291.5714133126395,582.8214276177542,4144.6,291.5714133126395,582.8214276177542,4273.7,291.5714133126395,582.8214276177542,4378.1,291.5714133126395,582.8214276177542,4508.7,291.5714133126395,582.8214276177542,4610.6,291.5714133126395,582.8214276177542,4731.3,291.5714133126395,582.8214276177542,4832.9,291.5714133126395,582.8214276177542,4961.5]","[7380,7380.1,2415.1,4569.4,395.6,""oops"",""left"",""right"",""bad_move"",14653,7271.5,2890.9,11334.5,427.6,""oops"",""down"",""down"",""good_move"",17853.5,3199.2,2623.9,14654.3,575.3,""smooth"",""down"",""down"",""good_move"",21584.3,3729.7,3266.5,17854.7,463.1,""oops"",""left"",""right"",""bad_move"",25102.1,3516.7,2771.6,21585.4,745.1,""smooth"",""left"",""left"",""good_move"",28494.2,3390.3,2886.5,25103.9,503.8,""smooth"",""left"",""left"",""good_move"",31030.4,2535.1,1860.4,28495.4,674.6,""smooth"",""left"",""left"",""good_move"",33549.6,2518,1804.1,31031.6,713.9,""smooth"",""left"",""left"",""good_move""]","",""
"7067","","<div style=""width:500px;"">
  <p>What determined the result of this run?</p>
  </div>","73","html-slider-response","30","461755","0.0-5.0-1.4","178","1","2025-07-23 07:34:30","1f75c3e559b7213887762d5229550c2b","102.213.27.252","Mozilla/5.0 (Windows NT 10.0; Win64; x64) AppleWebKit/537.36 (KHTML, like Gecko) Chrome/138.0.0.0 Safari/537.36","WebKit","Chrome","138.0.0.0","Windows","10.0","https://app.prolific.com/","en-US,en;q=0.9,zh-CN;q=0.8,zh;q=0.7","669149873799bbea50733fe0","683db9eb0562dbf637994deb","6880905ca21312e4d45f6c4e","2","1","669149873799bbea50733fe0","2","1","2025-07-23T07:42:19.301Z","","","","","","","","","","","AttribQ","","50","","","","","","","","","","","","","","","","","","","","","","","","","","","","",""
"16260","","<div style=""width:500px;"">
  <p>How much control did you have over the ball?</p>
  </div>","74","html-slider-response","31","478018","0.0-5.0-2.4","178","1","2025-07-23 07:34:30","1f75c3e559b7213887762d5229550c2b","102.213.27.252","Mozilla/5.0 (Windows NT 10.0; Win64; x64) AppleWebKit/537.36 (KHTML, like Gecko) Chrome/138.0.0.0 Safari/537.36","WebKit","Chrome","138.0.0.0","Windows","10.0","https://app.prolific.com/","en-US,en;q=0.9,zh-CN;q=0.8,zh;q=0.7","669149873799bbea50733fe0","683db9eb0562dbf637994deb","6880905ca21312e4d45f6c4e","2","1","669149873799bbea50733fe0","2","1","2025-07-23T07:42:35.564Z","","","","","","","","","","","ControlQ","","50","","","","","","","","","","","","","","","","","","","","","","","","","","","","",""
"10044","","<div style=""width:500px;"">
  <p>How would you describe your current emotional state?</p>
  </div>","10","html-slider-response","32","488065","0.0-5.0-3.4","178","1","2025-07-23 07:34:30","1f75c3e559b7213887762d5229550c2b","102.213.27.252","Mozilla/5.0 (Windows NT 10.0; Win64; x64) AppleWebKit/537.36 (KHTML, like Gecko) Chrome/138.0.0.0 Safari/537.36","WebKit","Chrome","138.0.0.0","Windows","10.0","https://app.prolific.com/","en-US,en;q=0.9,zh-CN;q=0.8,zh;q=0.7","669149873799bbea50733fe0","683db9eb0562dbf637994deb","6880905ca21312e4d45f6c4e","2","1","669149873799bbea50733fe0","2","1","2025-07-23T07:42:45.611Z","","","","","","","","","","","StressQ","","50","","","","","","","","","","","","","","","","","","","","","","","","","","","","",""
"24664","","<div style=""width:500px;"">
  <p>What best describes how you currently feel?</p>
  </div>","78","html-slider-response","33","512736","0.0-5.0-4.4","178","1","2025-07-23 07:34:30","1f75c3e559b7213887762d5229550c2b","102.213.27.252","Mozilla/5.0 (Windows NT 10.0; Win64; x64) AppleWebKit/537.36 (KHTML, like Gecko) Chrome/138.0.0.0 Safari/537.36","WebKit","Chrome","138.0.0.0","Windows","10.0","https://app.prolific.com/","en-US,en;q=0.9,zh-CN;q=0.8,zh;q=0.7","669149873799bbea50733fe0","683db9eb0562dbf637994deb","6880905ca21312e4d45f6c4e","2","1","669149873799bbea50733fe0","2","1","2025-07-23T07:43:10.283Z","","","","","","","","","","","MotivationQ","","50","","","","","","","","","","","","","","","","","","","","","","","","","","","","",""
"","","","","ctl-task-cpt","34","596574","0.0-5.0-0.5","178","1","2025-07-23 07:34:30","1f75c3e559b7213887762d5229550c2b","102.213.27.252","Mozilla/5.0 (Windows NT 10.0; Win64; x64) AppleWebKit/537.36 (KHTML, like Gecko) Chrome/138.0.0.0 Safari/537.36","WebKit","Chrome","138.0.0.0","Windows","10.0","https://app.prolific.com/","en-US,en;q=0.9,zh-CN;q=0.8,zh;q=0.7","669149873799bbea50733fe0","683db9eb0562dbf637994deb","6880905ca21312e4d45f6c4e","2","1","669149873799bbea50733fe0","2","1","2025-07-23T07:44:34.120Z","","","","","","","","","","","","","","win-only","3","g1:SW,g2:NE","0.5","6","0","519932.2","25409.6","30445.4","80822.3","1","4","4","6","1","1","1","6","5","0.045454545454545456","1528.5","3000","245","[""down"",""left""]","{""num_key_presses"":14,""num_perfect"":9,""num_errors"":0,""num_randdir"":5,""num_randdir_good_moves"":0,""num_whilered"":0,""num_whileblue"":0,""num_blue"":2,""num_good_moves"":9}","[416.5714133126395,415.32142761775424,0.9,416.5714133126395,415.32142761775424,155.5,416.5714133126395,415.32142761775424,264.4,416.5714133126395,415.32142761775424,389.7,416.5714133126395,415.32142761775424,498.3,416.5714133126395,415.32142761775424,603.8,260.3214133126395,596.5714276177542,703.9,181.5714133126395,710.3214276177542,810.1,119.0714133126395,735.3214276177542,1018.6,104.0714133126395,741.5714276177542,1169.8,102.8214133126395,741.5714276177542,1315.6,102.8214133126395,741.5714276177542,1460,102.8214133126395,741.5714276177542,1563.2,102.8214133126395,741.5714276177542,1793.9,102.8214133126395,741.5714276177542,1918.5,102.8214133126395,741.5714276177542,2029.3,102.8214133126395,741.5714276177542,2171.1,102.8214133126395,741.5714276177542,2305.3,102.8214133126395,741.5714276177542,2435.7,102.8214133126395,741.5714276177542,2575.1,102.8214133126395,741.5714276177542,2677.1,102.8214133126395,741.5714276177542,2778,102.8214133126395,741.5714276177542,2883.3,102.8214133126395,741.5714276177542,2986,102.8214133126395,741.5714276177542,3116.7,102.8214133126395,741.5714276177542,3257.3,102.8214133126395,741.5714276177542,3394.3,102.8214133126395,741.5714276177542,3504.5,102.8214133126395,741.5714276177542,3608.9,102.8214133126395,741.5714276177542,3711.5,102.8214133126395,741.5714276177542,3827.8,102.8214133126395,741.5714276177542,3931.9,102.8214133126395,741.5714276177542,4063.3,102.8214133126395,741.5714276177542,4178.2,102.8214133126395,741.5714276177542,4309.5,102.8214133126395,741.5714276177542,4415.3,102.8214133126395,741.5714276177542,4515.9,102.8214133126395,741.5714276177542,4620.6,102.8214133126395,741.5714276177542,4732.9,102.8214133126395,741.5714276177542,4835.8,102.8214133126395,741.5714276177542,4938.9]","[1631.7,1631.7,1000,0,631.7,""smooth"",""left"",""left"",""good_move"",5214.9,3582.1,2816.5,1632.8,765.6,""smooth"",""left"",""left"",""good_move"",8117.3,2900.6,2420.3,5216.7,480.3,""oops"",""down"",""up"",""bad_move"",11433.1,3313.5,2736.7,8119.7,576.7,""smooth"",""down"",""down"",""good_move"",14426.3,2991.8,2457.4,11434.5,534.4,""oops"",""down"",""right"",""bad_move"",20956.8,6529.1,2690.2,17731.7,534.9,""smooth"",""down"",""down"",""good_move"",24240.4,3283.1,2696.5,20957.4,586.6,""smooth"",""down"",""down"",""good_move"",27401.5,3160.3,2691.8,24241.2,468.5,""oops"",""left"",""right"",""bad_move"",30636.9,3234.1,2228.8,27402.8,1005.3,""oops"",""left"",""right"",""bad_move"",34039.3,3401.4,2866.4,30637.9,535,""oops"",""left"",""up"",""bad_move"",37438.1,3397.5,2722.1,34040.6,675.4,""smooth"",""left"",""left"",""good_move"",40338.5,2899.1,2062.4,37439.4,836.7,""smooth"",""left"",""left"",""good_move"",47038.7,6698,2769.8,43726.7,542.3,""smooth"",""left"",""left"",""good_move"",50135.4,3096.1,2565.7,47039.5,530.2,""smooth"",""down"",""down"",""good_move""]","",""
"5774","","<div style=""width:500px;"">
  <p>What determined the result of this run?</p>
  </div>","83","html-slider-response","35","602351","0.0-5.0-1.5","178","1","2025-07-23 07:34:30","1f75c3e559b7213887762d5229550c2b","102.213.27.252","Mozilla/5.0 (Windows NT 10.0; Win64; x64) AppleWebKit/537.36 (KHTML, like Gecko) Chrome/138.0.0.0 Safari/537.36","WebKit","Chrome","138.0.0.0","Windows","10.0","https://app.prolific.com/","en-US,en;q=0.9,zh-CN;q=0.8,zh;q=0.7","669149873799bbea50733fe0","683db9eb0562dbf637994deb","6880905ca21312e4d45f6c4e","2","1","669149873799bbea50733fe0","2","1","2025-07-23T07:44:39.897Z","","","","","","","","","","","AttribQ","","50","","","","","","","","","","","","","","","","","","","","","","","","","","","","",""
"6244","","<div style=""width:500px;"">
  <p>How much control did you have over the ball?</p>
  </div>","81","html-slider-response","36","608597","0.0-5.0-2.5","178","1","2025-07-23 07:34:30","1f75c3e559b7213887762d5229550c2b","102.213.27.252","Mozilla/5.0 (Windows NT 10.0; Win64; x64) AppleWebKit/537.36 (KHTML, like Gecko) Chrome/138.0.0.0 Safari/537.36","WebKit","Chrome","138.0.0.0","Windows","10.0","https://app.prolific.com/","en-US,en;q=0.9,zh-CN;q=0.8,zh;q=0.7","669149873799bbea50733fe0","683db9eb0562dbf637994deb","6880905ca21312e4d45f6c4e","2","1","669149873799bbea50733fe0","2","1","2025-07-23T07:44:46.144Z","","","","","","","","","","","ControlQ","","50","","","","","","","","","","","","","","","","","","","","","","","","","","","","",""
"14003","","<div style=""width:500px;"">
  <p>How would you describe your current emotional state?</p>
  </div>","14","html-slider-response","37","622603","0.0-5.0-3.5","178","1","2025-07-23 07:34:30","1f75c3e559b7213887762d5229550c2b","102.213.27.252","Mozilla/5.0 (Windows NT 10.0; Win64; x64) AppleWebKit/537.36 (KHTML, like Gecko) Chrome/138.0.0.0 Safari/537.36","WebKit","Chrome","138.0.0.0","Windows","10.0","https://app.prolific.com/","en-US,en;q=0.9,zh-CN;q=0.8,zh;q=0.7","669149873799bbea50733fe0","683db9eb0562dbf637994deb","6880905ca21312e4d45f6c4e","2","1","669149873799bbea50733fe0","2","1","2025-07-23T07:45:00.149Z","","","","","","","","","","","StressQ","","50","","","","","","","","","","","","","","","","","","","","","","","","","","","","",""
"23825","","<div style=""width:500px;"">
  <p>What best describes how you currently feel?</p>
  </div>","83","html-slider-response","38","646431","0.0-5.0-4.5","178","1","2025-07-23 07:34:30","1f75c3e559b7213887762d5229550c2b","102.213.27.252","Mozilla/5.0 (Windows NT 10.0; Win64; x64) AppleWebKit/537.36 (KHTML, like Gecko) Chrome/138.0.0.0 Safari/537.36","WebKit","Chrome","138.0.0.0","Windows","10.0","https://app.prolific.com/","en-US,en;q=0.9,zh-CN;q=0.8,zh;q=0.7","669149873799bbea50733fe0","683db9eb0562dbf637994deb","6880905ca21312e4d45f6c4e","2","1","669149873799bbea50733fe0","2","1","2025-07-23T07:45:23.977Z","","","","","","","","","","","MotivationQ","","50","","","","","","","","","","","","","","","","","","","","","","","","","","","","",""
"","","","","ctl-task-cpt","39","690332","0.0-5.0-0.6","178","1","2025-07-23 07:34:30","1f75c3e559b7213887762d5229550c2b","102.213.27.252","Mozilla/5.0 (Windows NT 10.0; Win64; x64) AppleWebKit/537.36 (KHTML, like Gecko) Chrome/138.0.0.0 Safari/537.36","WebKit","Chrome","138.0.0.0","Windows","10.0","https://app.prolific.com/","en-US,en;q=0.9,zh-CN;q=0.8,zh;q=0.7","669149873799bbea50733fe0","683db9eb0562dbf637994deb","6880905ca21312e4d45f6c4e","2","1","669149873799bbea50733fe0","2","1","2025-07-23T07:46:07.878Z","","","","","","","","","","","","","","win-only","2","g1:SE,g2:NW","0.4","7","0","653625.4","25059.1","30101.3","40884.1","1","4","4","6","1","1","1","7","6","0.05303030303030303","1624.3","3000","2245","[""down"",""right""]","{""num_key_presses"":4,""num_perfect"":3,""num_errors"":0,""num_randdir"":1,""num_randdir_good_moves"":1,""num_whilered"":0,""num_whileblue"":0,""num_blue"":0,""num_good_moves"":4}","[421.071420942034,416.82142857142856,2.1,421.071420942034,416.82142857142856,138.4,421.071420942034,416.82142857142856,243.7,421.071420942034,416.82142857142856,369.2,421.071420942034,416.82142857142856,497.1,421.071420942034,416.82142857142856,630.4,631.071420942034,581.8214285714286,836.8,688.571420942034,668.0714285714286,953.5,706.071420942034,686.8214285714286,1055,766.071420942034,745.5714285714286,1210.2,774.821420942034,761.8214285714286,1311.5,774.821420942034,761.8214285714286,1500.6,774.821420942034,761.8214285714286,1629.3,774.821420942034,761.8214285714286,1746.2,774.821420942034,761.8214285714286,1884.3,774.821420942034,761.8214285714286,1985.8,774.821420942034,761.8214285714286,2090.4,774.821420942034,761.8214285714286,2194.1,774.821420942034,761.8214285714286,2360.8,756.071420942034,720.5714285714286,2468.3,662.321420942034,594.3214285714286,2575.3,559.821420942034,536.8214285714286,2811.3,484.821420942034,461.82142857142856,2915,478.571420942034,450.57142857142856,3068.8,478.571420942034,450.57142857142856,3216.1,478.571420942034,450.57142857142856,3324,478.571420942034,450.57142857142856,3441.8,478.571420942034,450.57142857142856,3554.2,478.571420942034,450.57142857142856,3664.4,478.571420942034,450.57142857142856,3796.4,478.571420942034,450.57142857142856,3962.7,478.571420942034,450.57142857142856,4086.1,478.571420942034,450.57142857142856,4186.2,478.571420942034,450.57142857142856,4349.4,478.571420942034,450.57142857142856,4451.2,478.571420942034,450.57142857142856,4574.8,478.571420942034,450.57142857142856,4690.3,478.571420942034,450.57142857142856,4814.1,478.571420942034,450.57142857142856,4934.9]","[1620.3,1620.3,1000,0,620.3,""smooth"",""right"",""right"",""good_move"",5021.5,3398.9,2544.8,1622.6,854.1,""smooth"",""right"",""right"",""good_move"",7600.9,2578.4,1853.9,5022.6,724.4,""oops"",""down"",""down"",""good_move"",10506,2901.9,2227.6,7604.1,674.3,""smooth"",""down"",""down"",""good_move""]","",""
"34142","","<div style=""width:500px;"">
  <p>What determined the result of this run?</p>
  </div>","81","html-slider-response","40","724477","0.0-5.0-1.6","178","1","2025-07-23 07:34:30","1f75c3e559b7213887762d5229550c2b","102.213.27.252","Mozilla/5.0 (Windows NT 10.0; Win64; x64) AppleWebKit/537.36 (KHTML, like Gecko) Chrome/138.0.0.0 Safari/537.36","WebKit","Chrome","138.0.0.0","Windows","10.0","https://app.prolific.com/","en-US,en;q=0.9,zh-CN;q=0.8,zh;q=0.7","669149873799bbea50733fe0","683db9eb0562dbf637994deb","6880905ca21312e4d45f6c4e","2","1","669149873799bbea50733fe0","2","1","2025-07-23T07:46:42.023Z","","","","","","","","","","","AttribQ","","50","","","","","","","","","","","","","","","","","","","","","","","","","","","","",""
"23056","","<div style=""width:500px;"">
  <p>How much control did you have over the ball?</p>
  </div>","80","html-slider-response","41","747541","0.0-5.0-2.6","178","1","2025-07-23 07:34:30","1f75c3e559b7213887762d5229550c2b","102.213.27.252","Mozilla/5.0 (Windows NT 10.0; Win64; x64) AppleWebKit/537.36 (KHTML, like Gecko) Chrome/138.0.0.0 Safari/537.36","WebKit","Chrome","138.0.0.0","Windows","10.0","https://app.prolific.com/","en-US,en;q=0.9,zh-CN;q=0.8,zh;q=0.7","669149873799bbea50733fe0","683db9eb0562dbf637994deb","6880905ca21312e4d45f6c4e","2","1","669149873799bbea50733fe0","2","1","2025-07-23T07:47:05.088Z","","","","","","","","","","","ControlQ","","50","","","","","","","","","","","","","","","","","","","","","","","","","","","","",""
"7206","","<div style=""width:500px;"">
  <p>How would you describe your current emotional state?</p>
  </div>","21","html-slider-response","42","754754","0.0-5.0-3.6","178","1","2025-07-23 07:34:30","1f75c3e559b7213887762d5229550c2b","102.213.27.252","Mozilla/5.0 (Windows NT 10.0; Win64; x64) AppleWebKit/537.36 (KHTML, like Gecko) Chrome/138.0.0.0 Safari/537.36","WebKit","Chrome","138.0.0.0","Windows","10.0","https://app.prolific.com/","en-US,en;q=0.9,zh-CN;q=0.8,zh;q=0.7","669149873799bbea50733fe0","683db9eb0562dbf637994deb","6880905ca21312e4d45f6c4e","2","1","669149873799bbea50733fe0","2","1","2025-07-23T07:47:12.300Z","","","","","","","","","","","StressQ","","50","","","","","","","","","","","","","","","","","","","","","","","","","","","","",""
"10055","","<div style=""width:500px;"">
  <p>What best describes how you currently feel?</p>
  </div>","79","html-slider-response","43","764812","0.0-5.0-4.6","178","1","2025-07-23 07:34:30","1f75c3e559b7213887762d5229550c2b","102.213.27.252","Mozilla/5.0 (Windows NT 10.0; Win64; x64) AppleWebKit/537.36 (KHTML, like Gecko) Chrome/138.0.0.0 Safari/537.36","WebKit","Chrome","138.0.0.0","Windows","10.0","https://app.prolific.com/","en-US,en;q=0.9,zh-CN;q=0.8,zh;q=0.7","669149873799bbea50733fe0","683db9eb0562dbf637994deb","6880905ca21312e4d45f6c4e","2","1","669149873799bbea50733fe0","2","1","2025-07-23T07:47:22.358Z","","","","","","","","","","","MotivationQ","","50","","","","","","","","","","","","","","","","","","","","","","","","","","","","",""
"","","","","ctl-task-cpt","44","831507","0.0-5.0-0.7","178","1","2025-07-23 07:34:30","1f75c3e559b7213887762d5229550c2b","102.213.27.252","Mozilla/5.0 (Windows NT 10.0; Win64; x64) AppleWebKit/537.36 (KHTML, like Gecko) Chrome/138.0.0.0 Safari/537.36","WebKit","Chrome","138.0.0.0","Windows","10.0","https://app.prolific.com/","en-US,en;q=0.9,zh-CN;q=0.8,zh;q=0.7","669149873799bbea50733fe0","683db9eb0562dbf637994deb","6880905ca21312e4d45f6c4e","2","1","669149873799bbea50733fe0","2","1","2025-07-23T07:48:29.053Z","","","","","","","","","","","","","","win-only","2","g1:SE,g2:NW","0.3","8","0","772006.3","27336.4","32462.2","63555.2","1","4","8","6","1","1","1","8","7","0.06060606060606061","1374.7","3000","1925","[""down"",""right""]","{""num_key_presses"":8,""num_perfect"":3,""num_errors"":0,""num_randdir"":5,""num_randdir_good_moves"":3,""num_whilered"":0,""num_whileblue"":0,""num_blue"":1,""num_good_moves"":6}","[350.7142857142857,347.21428666796004,1.1,350.7142857142857,347.21428666796004,117.1,350.7142857142857,347.21428666796004,297.7,350.7142857142857,347.21428666796004,495.2,451.9642857142857,397.21428666796004,650.9,580.7142857142857,559.71428666796,753,641.9642857142857,654.71428666796,871.9,654.4642857142857,663.46428666796,978.3,655.7142857142857,662.21428666796,1204.8,655.7142857142857,662.21428666796,1307.9,655.7142857142857,662.21428666796,1411.9,655.7142857142857,662.21428666796,1629.2,655.7142857142857,662.21428666796,1942.2,655.7142857142857,662.21428666796,2047.2,655.7142857142857,662.21428666796,2322.2,655.7142857142857,662.21428666796,2429,655.7142857142857,662.21428666796,2709.9,655.7142857142857,662.21428666796,2813.1,655.7142857142857,662.21428666796,3031.5,655.7142857142857,662.21428666796,3137.8,655.7142857142857,662.21428666796,3430.1,655.7142857142857,662.21428666796,3537,655.7142857142857,662.21428666796,3798.9,655.7142857142857,662.21428666796,3901.2,655.7142857142857,662.21428666796,4158.9,655.7142857142857,662.21428666796,4268.1,655.7142857142857,662.21428666796,4480.6,655.7142857142857,662.21428666796,4589.7,655.7142857142857,662.21428666796,4818.3,655.7142857142857,662.21428666796,4922.1]","[1501.5,1501.5,1000,0,501.5,""oops"",""right"",""right"",""good_move"",5327.1,3824.4,3136.6,1502.7,687.8,""smooth"",""right"",""right"",""good_move"",8612,3283.8,2592.9,5328.2,690.9,""oops"",""down"",""down"",""good_move"",11616.9,3003.5,1689.6,8613.4,1313.9,""oops"",""down"",""up"",""bad_move"",17127.3,5509.1,3017.7,11618.3,2491.4,""oops"",""down"",""down"",""good_move"",20751.3,3622.7,3009.4,17128.6,613.4,""oops"",""down"",""up"",""bad_move"",24813.7,4061.2,2203.1,20753.6,1857.4,""smooth"",""down"",""down"",""good_move"",30718.3,5902.9,2344.8,27865.6,508,""smooth"",""down"",""down"",""good_move""]","",""
"31024","","<div style=""width:500px;"">
  <p>What determined the result of this run?</p>
  </div>","83","html-slider-response","45","862534","0.0-5.0-1.7","178","1","2025-07-23 07:34:30","1f75c3e559b7213887762d5229550c2b","102.213.27.252","Mozilla/5.0 (Windows NT 10.0; Win64; x64) AppleWebKit/537.36 (KHTML, like Gecko) Chrome/138.0.0.0 Safari/537.36","WebKit","Chrome","138.0.0.0","Windows","10.0","https://app.prolific.com/","en-US,en;q=0.9,zh-CN;q=0.8,zh;q=0.7","669149873799bbea50733fe0","683db9eb0562dbf637994deb","6880905ca21312e4d45f6c4e","2","1","669149873799bbea50733fe0","2","1","2025-07-23T07:49:00.080Z","","","","","","","","","","","AttribQ","","50","","","","","","","","","","","","","","","","","","","","","","","","","","","","",""
"13409","","<div style=""width:500px;"">
  <p>How much control did you have over the ball?</p>
  </div>","73","html-slider-response","46","875947","0.0-5.0-2.7","178","1","2025-07-23 07:34:30","1f75c3e559b7213887762d5229550c2b","102.213.27.252","Mozilla/5.0 (Windows NT 10.0; Win64; x64) AppleWebKit/537.36 (KHTML, like Gecko) Chrome/138.0.0.0 Safari/537.36","WebKit","Chrome","138.0.0.0","Windows","10.0","https://app.prolific.com/","en-US,en;q=0.9,zh-CN;q=0.8,zh;q=0.7","669149873799bbea50733fe0","683db9eb0562dbf637994deb","6880905ca21312e4d45f6c4e","2","1","669149873799bbea50733fe0","2","1","2025-07-23T07:49:13.494Z","","","","","","","","","","","ControlQ","","50","","","","","","","","","","","","","","","","","","","","","","","","","","","","",""
"10165","","<div style=""width:500px;"">
  <p>How would you describe your current emotional state?</p>
  </div>","21","html-slider-response","47","886117","0.0-5.0-3.7","178","1","2025-07-23 07:34:30","1f75c3e559b7213887762d5229550c2b","102.213.27.252","Mozilla/5.0 (Windows NT 10.0; Win64; x64) AppleWebKit/537.36 (KHTML, like Gecko) Chrome/138.0.0.0 Safari/537.36","WebKit","Chrome","138.0.0.0","Windows","10.0","https://app.prolific.com/","en-US,en;q=0.9,zh-CN;q=0.8,zh;q=0.7","669149873799bbea50733fe0","683db9eb0562dbf637994deb","6880905ca21312e4d45f6c4e","2","1","669149873799bbea50733fe0","2","1","2025-07-23T07:49:23.663Z","","","","","","","","","","","StressQ","","50","","","","","","","","","","","","","","","","","","","","","","","","","","","","",""
"10840","","<div style=""width:500px;"">
  <p>What best describes how you currently feel?</p>
  </div>","82","html-slider-response","48","896961","0.0-5.0-4.7","178","1","2025-07-23 07:34:30","1f75c3e559b7213887762d5229550c2b","102.213.27.252","Mozilla/5.0 (Windows NT 10.0; Win64; x64) AppleWebKit/537.36 (KHTML, like Gecko) Chrome/138.0.0.0 Safari/537.36","WebKit","Chrome","138.0.0.0","Windows","10.0","https://app.prolific.com/","en-US,en;q=0.9,zh-CN;q=0.8,zh;q=0.7","669149873799bbea50733fe0","683db9eb0562dbf637994deb","6880905ca21312e4d45f6c4e","2","1","669149873799bbea50733fe0","2","1","2025-07-23T07:49:34.508Z","","","","","","","","","","","MotivationQ","","50","","","","","","","","","","","","","","","","","","","","","","","","","","","","",""
"","","","","ctl-task-cpt","49","1055708","0.0-5.0-0.8","178","1","2025-07-23 07:34:30","1f75c3e559b7213887762d5229550c2b","102.213.27.252","Mozilla/5.0 (Windows NT 10.0; Win64; x64) AppleWebKit/537.36 (KHTML, like Gecko) Chrome/138.0.0.0 Safari/537.36","WebKit","Chrome","138.0.0.0","Windows","10.0","https://app.prolific.com/","en-US,en;q=0.9,zh-CN;q=0.8,zh;q=0.7","669149873799bbea50733fe0","683db9eb0562dbf637994deb","6880905ca21312e4d45f6c4e","2","1","669149873799bbea50733fe0","2","1","2025-07-23T07:52:13.254Z","","","","","","","","","","","","","","win-only","0","g1:NW,g2:SE","0.2","9","0","904161.2","27304.2","32318.4","155612.3","1","4","4","6","1","-1","-1","7","8","0.05303030303030303","1831.4","3000","-590","[""left"",""up""]","{""num_key_presses"":22,""num_perfect"":4,""num_errors"":0,""num_randdir"":18,""num_randdir_good_moves"":6,""num_whilered"":0,""num_whileblue"":0,""num_blue"":8,""num_good_moves"":10}","[355.7142857142857,349.71428666796004,5,355.7142857142857,349.71428666796004,242.6,355.7142857142857,349.71428666796004,347.3,355.7142857142857,349.71428666796004,623.9,355.7142857142857,349.71428666796004,738.1,176.96428571428572,297.21428666796004,1071.7,81.96428571428572,172.21428666796004,1183.9,90.71428571428572,103.46428666796004,1447.8,81.96428571428572,72.21428666796004,1550.6,81.96428571428572,72.21428666796004,1826.9,81.96428571428572,72.21428666796004,1928.6,81.96428571428572,72.21428666796004,2185.4,81.96428571428572,72.21428666796004,2439.1,81.96428571428572,72.21428666796004,2540.5,81.96428571428572,72.21428666796004,2663.2,81.96428571428572,72.21428666796004,2769.3,81.96428571428572,72.21428666796004,2988.1,81.96428571428572,72.21428666796004,3103,81.96428571428572,72.21428666796004,3439,81.96428571428572,72.21428666796004,3541,81.96428571428572,72.21428666796004,3811.2,81.96428571428572,72.21428666796004,3920.7,81.96428571428572,72.21428666796004,4024.2,81.96428571428572,72.21428666796004,4251.1,81.96428571428572,72.21428666796004,4569.8,81.96428571428572,72.21428666796004,4674,81.96428571428572,72.21428666796004,4907.7]","[1769.6,1769.6,1000,0,769.6,""oops"",""up"",""left"",""good_move"",7440.5,5669.7,2671.5,1770.8,2998.2,""oops"",""left"",""down"",""bad_move"",10660.2,3218.2,2506.2,7442,712,""oops"",""up"",""down"",""bad_move"",16978.4,6316,2121.5,14094,763,""oops"",""left"",""left"",""good_move"",22596.8,5617.7,2945.7,16979.1,2672,""oops"",""up"",""right"",""bad_move"",25832.9,3235.1,2405.1,22597.8,830,""smooth"",""up"",""up"",""good_move"",31260.3,5425.9,2007.3,25834.4,3418.7,""oops"",""up"",""up"",""good_move"",37280.1,6018.9,2574.9,31261.2,3444,""smooth"",""up"",""up"",""good_move"",43009.8,5729,2439.9,37280.9,3289,""oops"",""up"",""right"",""bad_move"",49784.6,6774,2845.2,46208.7,730.7,""oops"",""up"",""up"",""good_move"",54669.1,4883.8,2434.6,49785.3,2449.2,""oops"",""left"",""down"",""bad_move"",58106.2,3435.6,2226.4,54670.6,1209.2,""oops"",""left"",""down"",""bad_move"",61310.1,3202.2,2082.1,58107.9,1120.1,""oops"",""left"",""right"",""bad_move"",64949.3,3636.4,2612.1,61313,1024.2,""smooth"",""up"",""up"",""good_move"",70586.3,5632.8,2470.5,64953.5,3162.3,""smooth"",""up"",""up"",""good_move"",76449.1,5861.8,2390.5,70587.3,3471.3,""oops"",""left"",""down"",""bad_move"",82481.4,6025.6,2061.8,79663.2,756.5,""oops"",""left"",""down"",""bad_move"",86097.9,3615.3,2900,82482.6,715.3,""oops"",""left"",""down"",""bad_move"",89283.4,3173.3,2405.6,86110.1,767.7,""oops"",""left"",""right"",""bad_move"",107031.6,17744.5,2271,104171.9,588.7,""oops"",""up"",""down"",""bad_move"",113584.8,6552.5,2744.1,109989.4,851.3,""oops"",""left"",""up"",""good_move"",118411.3,4825.6,2357.5,113585.8,2468,""oops"",""left"",""up"",""good_move""]","",""
"8061","","<div style=""width:500px;"">
  <p>What determined the result of this run?</p>
  </div>","51","html-slider-response","50","1063772","0.0-5.0-1.8","178","1","2025-07-23 07:34:30","1f75c3e559b7213887762d5229550c2b","102.213.27.252","Mozilla/5.0 (Windows NT 10.0; Win64; x64) AppleWebKit/537.36 (KHTML, like Gecko) Chrome/138.0.0.0 Safari/537.36","WebKit","Chrome","138.0.0.0","Windows","10.0","https://app.prolific.com/","en-US,en;q=0.9,zh-CN;q=0.8,zh;q=0.7","669149873799bbea50733fe0","683db9eb0562dbf637994deb","6880905ca21312e4d45f6c4e","2","1","669149873799bbea50733fe0","2","1","2025-07-23T07:52:21.318Z","","","","","","","","","","","AttribQ","","50","","","","","","","","","","","","","","","","","","","","","","","","","","","","",""
"6995","","<div style=""width:500px;"">
  <p>How much control did you have over the ball?</p>
  </div>","55","html-slider-response","51","1070769","0.0-5.0-2.8","178","1","2025-07-23 07:34:30","1f75c3e559b7213887762d5229550c2b","102.213.27.252","Mozilla/5.0 (Windows NT 10.0; Win64; x64) AppleWebKit/537.36 (KHTML, like Gecko) Chrome/138.0.0.0 Safari/537.36","WebKit","Chrome","138.0.0.0","Windows","10.0","https://app.prolific.com/","en-US,en;q=0.9,zh-CN;q=0.8,zh;q=0.7","669149873799bbea50733fe0","683db9eb0562dbf637994deb","6880905ca21312e4d45f6c4e","2","1","669149873799bbea50733fe0","2","1","2025-07-23T07:52:28.315Z","","","","","","","","","","","ControlQ","","50","","","","","","","","","","","","","","","","","","","","","","","","","","","","",""
"16052","","<div style=""width:500px;"">
  <p>How would you describe your current emotional state?</p>
  </div>","54","html-slider-response","52","1086826","0.0-5.0-3.8","178","1","2025-07-23 07:34:30","1f75c3e559b7213887762d5229550c2b","102.213.27.252","Mozilla/5.0 (Windows NT 10.0; Win64; x64) AppleWebKit/537.36 (KHTML, like Gecko) Chrome/138.0.0.0 Safari/537.36","WebKit","Chrome","138.0.0.0","Windows","10.0","https://app.prolific.com/","en-US,en;q=0.9,zh-CN;q=0.8,zh;q=0.7","669149873799bbea50733fe0","683db9eb0562dbf637994deb","6880905ca21312e4d45f6c4e","2","1","669149873799bbea50733fe0","2","1","2025-07-23T07:52:44.372Z","","","","","","","","","","","StressQ","","50","","","","","","","","","","","","","","","","","","","","","","","","","","","","",""
"7807","","<div style=""width:500px;"">
  <p>What best describes how you currently feel?</p>
  </div>","65","html-slider-response","53","1094638","0.0-5.0-4.8","178","1","2025-07-23 07:34:30","1f75c3e559b7213887762d5229550c2b","102.213.27.252","Mozilla/5.0 (Windows NT 10.0; Win64; x64) AppleWebKit/537.36 (KHTML, like Gecko) Chrome/138.0.0.0 Safari/537.36","WebKit","Chrome","138.0.0.0","Windows","10.0","https://app.prolific.com/","en-US,en;q=0.9,zh-CN;q=0.8,zh;q=0.7","669149873799bbea50733fe0","683db9eb0562dbf637994deb","6880905ca21312e4d45f6c4e","2","1","669149873799bbea50733fe0","2","1","2025-07-23T07:52:52.184Z","","","","","","","","","","","MotivationQ","","50","","","","","","","","","","","","","","","","","","","","","","","","","","","","",""
"","","","","ctl-task-cpt","54","1157170","0.0-5.0-0.9","178","1","2025-07-23 07:34:30","1f75c3e559b7213887762d5229550c2b","102.213.27.252","Mozilla/5.0 (Windows NT 10.0; Win64; x64) AppleWebKit/537.36 (KHTML, like Gecko) Chrome/138.0.0.0 Safari/537.36","WebKit","Chrome","138.0.0.0","Windows","10.0","https://app.prolific.com/","en-US,en;q=0.9,zh-CN;q=0.8,zh;q=0.7","669149873799bbea50733fe0","683db9eb0562dbf637994deb","6880905ca21312e4d45f6c4e","2","1","669149873799bbea50733fe0","2","1","2025-07-23T07:53:54.716Z","","","","","","","","","","","","","","win-only","1","g1:NE,g2:SW","0.4","10","0","1101834.4","25212.7","30272.3","59496.1","1","4","8","6","1","1","1","8","7","0.06060606060606061","1681.7","3000","2325","[""up"",""right""]","{""num_key_presses"":6,""num_perfect"":2,""num_errors"":0,""num_randdir"":4,""num_randdir_good_moves"":3,""num_whilered"":0,""num_whileblue"":0,""num_blue"":1,""num_good_moves"":5}","[346.9642857142857,350.96428666796004,1.8,346.9642857142857,350.96428666796004,102.5,346.9642857142857,350.96428666796004,337.4,346.9642857142857,350.96428666796004,444.2,346.9642857142857,350.96428666796004,548.5,346.9642857142857,334.71428666796004,868.6,548.2142857142857,104.71428666796004,979.5,606.9642857142857,57.21428666796003,1086.5,606.9642857142857,57.21428666796003,1277.3,621.9642857142857,57.21428666796003,1379.4,630.7142857142857,58.46428666796003,1641.6,630.7142857142857,58.46428666796003,1756.1,630.7142857142857,58.46428666796003,2009.3,630.7142857142857,58.46428666796003,2121.4,630.7142857142857,58.46428666796003,2229.4,630.7142857142857,58.46428666796003,2509.1,630.7142857142857,58.46428666796003,2612.4,630.7142857142857,58.46428666796003,2895.8,630.7142857142857,58.46428666796003,2996.2,630.7142857142857,58.46428666796003,3194.3,630.7142857142857,58.46428666796003,3305.5,630.7142857142857,58.46428666796003,3511.5,630.7142857142857,58.46428666796003,3617.1,630.7142857142857,58.46428666796003,3730.1,630.7142857142857,58.46428666796003,3832,630.7142857142857,58.46428666796003,3938,630.7142857142857,58.46428666796003,4222.4,630.7142857142857,58.46428666796003,4326.3,630.7142857142857,58.46428666796003,4435.6,630.7142857142857,58.46428666796003,4540.4,630.7142857142857,58.46428666796003,4663.8,630.7142857142857,58.46428666796003,4775.6]","[1670.5,1670.5,1000,0,670.5,""smooth"",""up"",""up"",""good_move"",7644.5,5972.9,2538.3,1671.6,3434.6,""oops"",""up"",""up"",""good_move"",17517.1,9871.9,3339.6,13518.1,659.4,""oops"",""right"",""down"",""bad_move"",21412.5,3894.4,3090.8,17518.1,803.6,""oops"",""right"",""up"",""good_move"",25494.2,4080.1,2496.8,21414.1,1583.3,""oops"",""right"",""right"",""good_move"",28805.6,3310.4,2670,25495.3,640.4,""smooth"",""right"",""right"",""good_move""]","",""
"4362","","<div style=""width:500px;"">
  <p>What determined the result of this run?</p>
  </div>","72","html-slider-response","55","1161536","0.0-5.0-1.9","178","1","2025-07-23 07:34:30","1f75c3e559b7213887762d5229550c2b","102.213.27.252","Mozilla/5.0 (Windows NT 10.0; Win64; x64) AppleWebKit/537.36 (KHTML, like Gecko) Chrome/138.0.0.0 Safari/537.36","WebKit","Chrome","138.0.0.0","Windows","10.0","https://app.prolific.com/","en-US,en;q=0.9,zh-CN;q=0.8,zh;q=0.7","669149873799bbea50733fe0","683db9eb0562dbf637994deb","6880905ca21312e4d45f6c4e","2","1","669149873799bbea50733fe0","2","1","2025-07-23T07:53:59.082Z","","","","","","","","","","","AttribQ","","50","","","","","","","","","","","","","","","","","","","","","","","","","","","","",""
"8330","","<div style=""width:500px;"">
  <p>How much control did you have over the ball?</p>
  </div>","75","html-slider-response","56","1169870","0.0-5.0-2.9","178","1","2025-07-23 07:34:30","1f75c3e559b7213887762d5229550c2b","102.213.27.252","Mozilla/5.0 (Windows NT 10.0; Win64; x64) AppleWebKit/537.36 (KHTML, like Gecko) Chrome/138.0.0.0 Safari/537.36","WebKit","Chrome","138.0.0.0","Windows","10.0","https://app.prolific.com/","en-US,en;q=0.9,zh-CN;q=0.8,zh;q=0.7","669149873799bbea50733fe0","683db9eb0562dbf637994deb","6880905ca21312e4d45f6c4e","2","1","669149873799bbea50733fe0","2","1","2025-07-23T07:54:07.416Z","","","","","","","","","","","ControlQ","","50","","","","","","","","","","","","","","","","","","","","","","","","","","","","",""
"8412","","<div style=""width:500px;"">
  <p>How would you describe your current emotional state?</p>
  </div>","17","html-slider-response","57","1178284","0.0-5.0-3.9","178","1","2025-07-23 07:34:30","1f75c3e559b7213887762d5229550c2b","102.213.27.252","Mozilla/5.0 (Windows NT 10.0; Win64; x64) AppleWebKit/537.36 (KHTML, like Gecko) Chrome/138.0.0.0 Safari/537.36","WebKit","Chrome","138.0.0.0","Windows","10.0","https://app.prolific.com/","en-US,en;q=0.9,zh-CN;q=0.8,zh;q=0.7","669149873799bbea50733fe0","683db9eb0562dbf637994deb","6880905ca21312e4d45f6c4e","2","1","669149873799bbea50733fe0","2","1","2025-07-23T07:54:15.830Z","","","","","","","","","","","StressQ","","50","","","","","","","","","","","","","","","","","","","","","","","","","","","","",""
"7058","","<div style=""width:500px;"">
  <p>What best describes how you currently feel?</p>
  </div>","67","html-slider-response","58","1185347","0.0-5.0-4.9","178","1","2025-07-23 07:34:30","1f75c3e559b7213887762d5229550c2b","102.213.27.252","Mozilla/5.0 (Windows NT 10.0; Win64; x64) AppleWebKit/537.36 (KHTML, like Gecko) Chrome/138.0.0.0 Safari/537.36","WebKit","Chrome","138.0.0.0","Windows","10.0","https://app.prolific.com/","en-US,en;q=0.9,zh-CN;q=0.8,zh;q=0.7","669149873799bbea50733fe0","683db9eb0562dbf637994deb","6880905ca21312e4d45f6c4e","2","1","669149873799bbea50733fe0","2","1","2025-07-23T07:54:22.893Z","","","","","","","","","","","MotivationQ","","50","","","","","","","","","","","","","","","","","","","","","","","","","","","","",""
"","","","","ctl-task-cpt","59","1228315","0.0-5.0-0.10","178","1","2025-07-23 07:34:30","1f75c3e559b7213887762d5229550c2b","102.213.27.252","Mozilla/5.0 (Windows NT 10.0; Win64; x64) AppleWebKit/537.36 (KHTML, like Gecko) Chrome/138.0.0.0 Safari/537.36","WebKit","Chrome","138.0.0.0","Windows","10.0","https://app.prolific.com/","en-US,en;q=0.9,zh-CN;q=0.8,zh;q=0.7","669149873799bbea50733fe0","683db9eb0562dbf637994deb","6880905ca21312e4d45f6c4e","2","1","669149873799bbea50733fe0","2","1","2025-07-23T07:55:05.861Z","","","","","","","","","","","","","","win-only","2","g1:SE,g2:NW","0.5","11","0","1192542.4","24039","29049.5","39950.2","1","4","4","6","1","1","1","9","8","0.06818181818181818","1794","3000","2510","[""down"",""right""]","{""num_key_presses"":4,""num_perfect"":2,""num_errors"":0,""num_randdir"":2,""num_randdir_good_moves"":2,""num_whilered"":0,""num_whileblue"":0,""num_blue"":0,""num_good_moves"":4}","[356.9642857142857,348.46428666796004,1,356.9642857142857,348.46428666796004,104.6,356.9642857142857,348.46428666796004,337.8,356.9642857142857,348.46428666796004,680.5,298.2142857142857,328.46428666796004,786.2,476.9642857142857,433.46428666796004,1067.3,525.7142857142857,464.71428666796004,1171.2,583.2142857142857,567.21428666796,1435.4,601.9642857142857,592.21428666796,1542.2,603.2142857142857,593.46428666796,1797.5,603.2142857142857,593.46428666796,1906.3,603.2142857142857,593.46428666796,2199,603.2142857142857,593.46428666796,2308.2,603.2142857142857,593.46428666796,2541.8,603.2142857142857,593.46428666796,2644.8,498.2142857142857,497.21428666796004,2841.8,459.4642857142857,468.46428666796004,2952.4,451.9642857142857,467.21428666796004,3061.3,413.2142857142857,432.21428666796004,3270.1,413.2142857142857,432.21428666796004,3380.4,411.9642857142857,432.21428666796004,3484.8,411.9642857142857,432.21428666796004,3738.8,411.9642857142857,432.21428666796004,3841.6,411.9642857142857,432.21428666796004,4097,411.9642857142857,432.21428666796004,4209.9,411.9642857142857,432.21428666796004,4440.3,411.9642857142857,432.21428666796004,4552,411.9642857142857,432.21428666796004,4653.6,411.9642857142857,432.21428666796004,4904.2]","[1966.7,1966.7,1000,0,966.7,""smooth"",""right"",""right"",""good_move"",4637.7,2668.6,1851.9,1969.1,816.8,""oops"",""right"",""right"",""good_move"",7617.5,2977,2320.3,4640.5,656.7,""oops"",""down"",""down"",""good_move"",10220.7,2600.9,2005.8,7619.8,595.1,""smooth"",""down"",""down"",""good_move""]","",""
"11534","","<div style=""width:500px;"">
  <p>What determined the result of this run?</p>
  </div>","63","html-slider-response","60","1239851","0.0-5.0-1.10","178","1","2025-07-23 07:34:30","1f75c3e559b7213887762d5229550c2b","102.213.27.252","Mozilla/5.0 (Windows NT 10.0; Win64; x64) AppleWebKit/537.36 (KHTML, like Gecko) Chrome/138.0.0.0 Safari/537.36","WebKit","Chrome","138.0.0.0","Windows","10.0","https://app.prolific.com/","en-US,en;q=0.9,zh-CN;q=0.8,zh;q=0.7","669149873799bbea50733fe0","683db9eb0562dbf637994deb","6880905ca21312e4d45f6c4e","2","1","669149873799bbea50733fe0","2","1","2025-07-23T07:55:17.397Z","","","","","","","","","","","AttribQ","","50","","","","","","","","","","","","","","","","","","","","","","","","","","","","",""
"5965","","<div style=""width:500px;"">
  <p>How much control did you have over the ball?</p>
  </div>","72","html-slider-response","61","1245819","0.0-5.0-2.10","178","1","2025-07-23 07:34:30","1f75c3e559b7213887762d5229550c2b","102.213.27.252","Mozilla/5.0 (Windows NT 10.0; Win64; x64) AppleWebKit/537.36 (KHTML, like Gecko) Chrome/138.0.0.0 Safari/537.36","WebKit","Chrome","138.0.0.0","Windows","10.0","https://app.prolific.com/","en-US,en;q=0.9,zh-CN;q=0.8,zh;q=0.7","669149873799bbea50733fe0","683db9eb0562dbf637994deb","6880905ca21312e4d45f6c4e","2","1","669149873799bbea50733fe0","2","1","2025-07-23T07:55:23.365Z","","","","","","","","","","","ControlQ","","50","","","","","","","","","","","","","","","","","","","","","","","","","","","","",""
"7853","","<div style=""width:500px;"">
  <p>How would you describe your current emotional state?</p>
  </div>","26","html-slider-response","62","1253676","0.0-5.0-3.10","178","1","2025-07-23 07:34:30","1f75c3e559b7213887762d5229550c2b","102.213.27.252","Mozilla/5.0 (Windows NT 10.0; Win64; x64) AppleWebKit/537.36 (KHTML, like Gecko) Chrome/138.0.0.0 Safari/537.36","WebKit","Chrome","138.0.0.0","Windows","10.0","https://app.prolific.com/","en-US,en;q=0.9,zh-CN;q=0.8,zh;q=0.7","669149873799bbea50733fe0","683db9eb0562dbf637994deb","6880905ca21312e4d45f6c4e","2","1","669149873799bbea50733fe0","2","1","2025-07-23T07:55:31.222Z","","","","","","","","","","","StressQ","","50","","","","","","","","","","","","","","","","","","","","","","","","","","","","",""
"10779","","<div style=""width:500px;"">
  <p>What best describes how you currently feel?</p>
  </div>","73","html-slider-response","63","1264460","0.0-5.0-4.10","178","1","2025-07-23 07:34:30","1f75c3e559b7213887762d5229550c2b","102.213.27.252","Mozilla/5.0 (Windows NT 10.0; Win64; x64) AppleWebKit/537.36 (KHTML, like Gecko) Chrome/138.0.0.0 Safari/537.36","WebKit","Chrome","138.0.0.0","Windows","10.0","https://app.prolific.com/","en-US,en;q=0.9,zh-CN;q=0.8,zh;q=0.7","669149873799bbea50733fe0","683db9eb0562dbf637994deb","6880905ca21312e4d45f6c4e","2","1","669149873799bbea50733fe0","2","1","2025-07-23T07:55:42.007Z","","","","","","","","","","","MotivationQ","","50","","","","","","","","","","","","","","","","","","","","","","","","","","","","",""
"","","","","ctl-task-cpt","64","1371230","0.0-5.0-0.11","178","1","2025-07-23 07:34:30","1f75c3e559b7213887762d5229550c2b","102.213.27.252","Mozilla/5.0 (Windows NT 10.0; Win64; x64) AppleWebKit/537.36 (KHTML, like Gecko) Chrome/138.0.0.0 Safari/537.36","WebKit","Chrome","138.0.0.0","Windows","10.0","https://app.prolific.com/","en-US,en;q=0.9,zh-CN;q=0.8,zh;q=0.7","669149873799bbea50733fe0","683db9eb0562dbf637994deb","6880905ca21312e4d45f6c4e","2","1","669149873799bbea50733fe0","2","1","2025-07-23T07:57:28.777Z","","","","","","","","","","","","","","win-only","1","g1:NE,g2:SW","0.6","12","0","1271672.1","15985.2","21018.8","103731.5","1","4","8","6","1","1","1","10","9","0.07575757575757576","1741.9","3000","1040","[""up"",""right""]","{""num_key_presses"":16,""num_perfect"":10,""num_errors"":0,""num_randdir"":6,""num_randdir_good_moves"":0,""num_whilered"":0,""num_whileblue"":0,""num_blue"":5,""num_good_moves"":10}","[354.4642857142857,352.21428666796004,5.2,354.4642857142857,352.21428666796004,105.6,354.4642857142857,352.21428666796004,350.3,354.4642857142857,352.21428666796004,453.8,354.4642857142857,352.21428666796004,711.6,449.4642857142857,233.46428666796004,821.3,616.9642857142857,104.71428666796004,1072.2,618.2142857142857,102.21428666796004,1173.6,629.4642857142857,84.71428666796004,1435.5,630.7142857142857,83.46428666796004,1536.8,630.7142857142857,83.46428666796004,1770.2,630.7142857142857,83.46428666796004,1877.9,630.7142857142857,83.46428666796004,2208.2,630.7142857142857,83.46428666796004,2317.3,630.7142857142857,83.46428666796004,2586.4,630.7142857142857,83.46428666796004,2690.6,630.7142857142857,83.46428666796004,2801.7,630.7142857142857,83.46428666796004,2975.8,630.7142857142857,83.46428666796004,3082,630.7142857142857,83.46428666796004,3305.3,630.7142857142857,83.46428666796004,3419.5,630.7142857142857,83.46428666796004,3678.9,630.7142857142857,83.46428666796004,3784.6,630.7142857142857,83.46428666796004,3993.7,630.7142857142857,83.46428666796004,4101.7,630.7142857142857,83.46428666796004,4277.7,630.7142857142857,83.46428666796004,4379.5,630.7142857142857,83.46428666796004,4482.1,630.7142857142857,83.46428666796004,4683.7,630.7142857142857,83.46428666796004,4785.1]","[1694.1,1694.1,1000,0,694.1,""smooth"",""right"",""right"",""good_move"",4434.5,2739.3,2087,1695.2,652.3,""smooth"",""right"",""right"",""good_move"",7506,3050.4,2459.1,4455.7,591.2,""oops"",""up"",""down"",""bad_move"",11466.7,3957.3,2935.2,7509.4,1022.1,""oops"",""up"",""left"",""bad_move"",19925.9,8457.9,2593.2,16589.9,742.8,""smooth"",""up"",""up"",""good_move"",29421.4,9493.4,3005.8,25735.4,680.2,""oops"",""up"",""down"",""bad_move"",33110.6,3687.7,2664,29422.9,1023.7,""smooth"",""right"",""right"",""good_move"",36576.8,3452.1,2371.1,33124.7,1081,""oops"",""up"",""down"",""bad_move"",39866.5,3288.5,2596.2,36578,692.3,""smooth"",""up"",""up"",""good_move"",44842.3,4972.9,2469.1,39869.5,2503.8,""smooth"",""up"",""up"",""good_move"",49825.6,4981.5,2742.1,44844.3,2239.4,""smooth"",""up"",""up"",""good_move"",55340.2,5504.2,2605.6,49836.1,2898.5,""oops"",""up"",""down"",""bad_move"",68493.7,13152.7,2282.3,65680.2,531.2,""oops"",""up"",""down"",""bad_move"",71833.5,3338.8,2683.2,68494.7,655.6,""smooth"",""up"",""up"",""good_move"",77512.1,5677.3,2926.6,71834.8,2750.7,""smooth"",""up"",""up"",""good_move"",82330.3,4817.5,2256,77512.8,2561.5,""smooth"",""up"",""up"",""good_move""]","",""
"6352","","<div style=""width:500px;"">
  <p>What determined the result of this run?</p>
  </div>","79","html-slider-response","65","1377587","0.0-5.0-1.11","178","1","2025-07-23 07:34:30","1f75c3e559b7213887762d5229550c2b","102.213.27.252","Mozilla/5.0 (Windows NT 10.0; Win64; x64) AppleWebKit/537.36 (KHTML, like Gecko) Chrome/138.0.0.0 Safari/537.36","WebKit","Chrome","138.0.0.0","Windows","10.0","https://app.prolific.com/","en-US,en;q=0.9,zh-CN;q=0.8,zh;q=0.7","669149873799bbea50733fe0","683db9eb0562dbf637994deb","6880905ca21312e4d45f6c4e","2","1","669149873799bbea50733fe0","2","1","2025-07-23T07:57:35.133Z","","","","","","","","","","","AttribQ","","50","","","","","","","","","","","","","","","","","","","","","","","","","","","","",""
"7175","","<div style=""width:500px;"">
  <p>How much control did you have over the ball?</p>
  </div>","67","html-slider-response","66","1384766","0.0-5.0-2.11","178","1","2025-07-23 07:34:30","1f75c3e559b7213887762d5229550c2b","102.213.27.252","Mozilla/5.0 (Windows NT 10.0; Win64; x64) AppleWebKit/537.36 (KHTML, like Gecko) Chrome/138.0.0.0 Safari/537.36","WebKit","Chrome","138.0.0.0","Windows","10.0","https://app.prolific.com/","en-US,en;q=0.9,zh-CN;q=0.8,zh;q=0.7","669149873799bbea50733fe0","683db9eb0562dbf637994deb","6880905ca21312e4d45f6c4e","2","1","669149873799bbea50733fe0","2","1","2025-07-23T07:57:42.312Z","","","","","","","","","","","ControlQ","","50","","","","","","","","","","","","","","","","","","","","","","","","","","","","",""
"12171","","<div style=""width:500px;"">
  <p>How would you describe your current emotional state?</p>
  </div>","10","html-slider-response","67","1396940","0.0-5.0-3.11","178","1","2025-07-23 07:34:30","1f75c3e559b7213887762d5229550c2b","102.213.27.252","Mozilla/5.0 (Windows NT 10.0; Win64; x64) AppleWebKit/537.36 (KHTML, like Gecko) Chrome/138.0.0.0 Safari/537.36","WebKit","Chrome","138.0.0.0","Windows","10.0","https://app.prolific.com/","en-US,en;q=0.9,zh-CN;q=0.8,zh;q=0.7","669149873799bbea50733fe0","683db9eb0562dbf637994deb","6880905ca21312e4d45f6c4e","2","1","669149873799bbea50733fe0","2","1","2025-07-23T07:57:54.486Z","","","","","","","","","","","StressQ","","50","","","","","","","","","","","","","","","","","","","","","","","","","","","","",""
"10964","","<div style=""width:500px;"">
  <p>What best describes how you currently feel?</p>
  </div>","71","html-slider-response","68","1407907","0.0-5.0-4.11","178","1","2025-07-23 07:34:30","1f75c3e559b7213887762d5229550c2b","102.213.27.252","Mozilla/5.0 (Windows NT 10.0; Win64; x64) AppleWebKit/537.36 (KHTML, like Gecko) Chrome/138.0.0.0 Safari/537.36","WebKit","Chrome","138.0.0.0","Windows","10.0","https://app.prolific.com/","en-US,en;q=0.9,zh-CN;q=0.8,zh;q=0.7","669149873799bbea50733fe0","683db9eb0562dbf637994deb","6880905ca21312e4d45f6c4e","2","1","669149873799bbea50733fe0","2","1","2025-07-23T07:58:05.454Z","","","","","","","","","","","MotivationQ","","50","","","","","","","","","","","","","","","","","","","","","","","","","","","","",""
"","","","","ctl-task-cpt","69","1478383","0.0-5.0-0.12","178","1","2025-07-23 07:34:30","1f75c3e559b7213887762d5229550c2b","102.213.27.252","Mozilla/5.0 (Windows NT 10.0; Win64; x64) AppleWebKit/537.36 (KHTML, like Gecko) Chrome/138.0.0.0 Safari/537.36","WebKit","Chrome","138.0.0.0","Windows","10.0","https://app.prolific.com/","en-US,en;q=0.9,zh-CN;q=0.8,zh;q=0.7","669149873799bbea50733fe0","683db9eb0562dbf637994deb","6880905ca21312e4d45f6c4e","2","1","669149873799bbea50733fe0","2","1","2025-07-23T07:59:15.930Z","","","","","","","","","","","","","","win-only","2","g1:SE,g2:NW","0.7","13","0","1415101.7","17700.5","22800.2","67435.2","1","4","4","6","1","1","1","11","10","0.08333333333333333","1402.4","3000","1010","[""down"",""right""]","{""num_key_presses"":8,""num_perfect"":5,""num_errors"":0,""num_randdir"":3,""num_randdir_good_moves"":1,""num_whilered"":0,""num_whileblue"":0,""num_blue"":1,""num_good_moves"":6}","[349.4642857142857,349.71428666796004,2.5,349.4642857142857,349.71428666796004,266.9,349.4642857142857,349.71428666796004,562.5,349.4642857142857,349.71428666796004,665.5,615.7142857142857,612.21428666796,920.9,623.2142857142857,613.46428666796,1024.8,644.4642857142857,619.71428666796,1239.7,644.4642857142857,619.71428666796,1341.4,644.4642857142857,619.71428666796,1458.4,644.4642857142857,619.71428666796,1724.2,644.4642857142857,619.71428666796,1826.4,644.4642857142857,619.71428666796,2089.2,644.4642857142857,619.71428666796,2201.9,644.4642857142857,619.71428666796,2415.2,644.4642857142857,619.71428666796,2522.7,644.4642857142857,619.71428666796,2747.1,644.4642857142857,619.71428666796,2850,644.4642857142857,619.71428666796,3017.6,644.4642857142857,619.71428666796,3120.1,644.4642857142857,619.71428666796,3232.8,644.4642857142857,619.71428666796,3482.5,644.4642857142857,619.71428666796,3583.1,644.4642857142857,619.71428666796,3695,644.4642857142857,619.71428666796,3944.3,644.4642857142857,619.71428666796,4053.1,644.4642857142857,619.71428666796,4251.3,644.4642857142857,619.71428666796,4357.3,644.4642857142857,619.71428666796,4475.8,644.4642857142857,619.71428666796,4692.9,644.4642857142857,619.71428666796,4798.9,644.4642857142857,619.71428666796,4904.7]","[7684.1,7684.1,1000,0,6684.1,""smooth"",""right"",""right"",""good_move"",10921.2,3235.5,2109,7685.7,1126.5,""oops"",""right"",""left"",""bad_move"",18356.6,7433.5,3073.7,10923.2,4359.8,""smooth"",""down"",""down"",""good_move"",22044.8,3686.4,2680.6,18358.5,1005.7,""oops"",""down"",""up"",""bad_move"",29710.6,7660.1,2997.1,22050.5,4663,""smooth"",""right"",""right"",""good_move"",33853,4141.1,2733.8,29711.9,1407.3,""smooth"",""right"",""right"",""good_move"",40475.7,6621.4,2088,37534,853.7,""oops"",""down"",""down"",""good_move"",43772.3,3295.9,2017.3,40476.4,1278.6,""smooth"",""down"",""down"",""good_move""]","",""
"11971","","<div style=""width:500px;"">
  <p>What determined the result of this run?</p>
  </div>","52","html-slider-response","70","1490359","0.0-5.0-1.12","178","1","2025-07-23 07:34:30","1f75c3e559b7213887762d5229550c2b","102.213.27.252","Mozilla/5.0 (Windows NT 10.0; Win64; x64) AppleWebKit/537.36 (KHTML, like Gecko) Chrome/138.0.0.0 Safari/537.36","WebKit","Chrome","138.0.0.0","Windows","10.0","https://app.prolific.com/","en-US,en;q=0.9,zh-CN;q=0.8,zh;q=0.7","669149873799bbea50733fe0","683db9eb0562dbf637994deb","6880905ca21312e4d45f6c4e","2","1","669149873799bbea50733fe0","2","1","2025-07-23T07:59:27.905Z","","","","","","","","","","","AttribQ","","50","","","","","","","","","","","","","","","","","","","","","","","","","","","","",""
"20711","","<div style=""width:500px;"">
  <p>How much control did you have over the ball?</p>
  </div>","87","html-slider-response","71","1511073","0.0-5.0-2.12","178","1","2025-07-23 07:34:30","1f75c3e559b7213887762d5229550c2b","102.213.27.252","Mozilla/5.0 (Windows NT 10.0; Win64; x64) AppleWebKit/537.36 (KHTML, like Gecko) Chrome/138.0.0.0 Safari/537.36","WebKit","Chrome","138.0.0.0","Windows","10.0","https://app.prolific.com/","en-US,en;q=0.9,zh-CN;q=0.8,zh;q=0.7","669149873799bbea50733fe0","683db9eb0562dbf637994deb","6880905ca21312e4d45f6c4e","2","1","669149873799bbea50733fe0","2","1","2025-07-23T07:59:48.620Z","","","","","","","","","","","ControlQ","","50","","","","","","","","","","","","","","","","","","","","","","","","","","","","",""
"9349","","<div style=""width:500px;"">
  <p>How would you describe your current emotional state?</p>
  </div>","20","html-slider-response","72","1520426","0.0-5.0-3.12","178","1","2025-07-23 07:34:30","1f75c3e559b7213887762d5229550c2b","102.213.27.252","Mozilla/5.0 (Windows NT 10.0; Win64; x64) AppleWebKit/537.36 (KHTML, like Gecko) Chrome/138.0.0.0 Safari/537.36","WebKit","Chrome","138.0.0.0","Windows","10.0","https://app.prolific.com/","en-US,en;q=0.9,zh-CN;q=0.8,zh;q=0.7","669149873799bbea50733fe0","683db9eb0562dbf637994deb","6880905ca21312e4d45f6c4e","2","1","669149873799bbea50733fe0","2","1","2025-07-23T07:59:57.972Z","","","","","","","","","","","StressQ","","50","","","","","","","","","","","","","","","","","","","","","","","","","","","","",""
"7795","","<div style=""width:500px;"">
  <p>What best describes how you currently feel?</p>
  </div>","80","html-slider-response","73","1528225","0.0-5.0-4.12","178","1","2025-07-23 07:34:30","1f75c3e559b7213887762d5229550c2b","102.213.27.252","Mozilla/5.0 (Windows NT 10.0; Win64; x64) AppleWebKit/537.36 (KHTML, like Gecko) Chrome/138.0.0.0 Safari/537.36","WebKit","Chrome","138.0.0.0","Windows","10.0","https://app.prolific.com/","en-US,en;q=0.9,zh-CN;q=0.8,zh;q=0.7","669149873799bbea50733fe0","683db9eb0562dbf637994deb","6880905ca21312e4d45f6c4e","2","1","669149873799bbea50733fe0","2","1","2025-07-23T08:00:05.771Z","","","","","","","","","","","MotivationQ","","50","","","","","","","","","","","","","","","","","","","","","","","","","","","","",""
"","","","","ctl-task-cpt","74","1587698","0.0-5.0-0.13","178","1","2025-07-23 07:34:30","1f75c3e559b7213887762d5229550c2b","102.213.27.252","Mozilla/5.0 (Windows NT 10.0; Win64; x64) AppleWebKit/537.36 (KHTML, like Gecko) Chrome/138.0.0.0 Safari/537.36","WebKit","Chrome","138.0.0.0","Windows","10.0","https://app.prolific.com/","en-US,en;q=0.9,zh-CN;q=0.8,zh;q=0.7","669149873799bbea50733fe0","683db9eb0562dbf637994deb","6880905ca21312e4d45f6c4e","2","1","669149873799bbea50733fe0","2","1","2025-07-23T08:01:05.244Z","","","","","","","","","","","","","","win-only","1","g1:NE,g2:SW","0.8","14","0","1535445.9","23158.6","28359","56173.6","1","4","8","6","1","1","1","12","11","0.09090909090909091","1912.6","3000","2435","[""up"",""right""]","{""num_key_presses"":4,""num_perfect"":4,""num_errors"":0,""num_randdir"":0,""num_randdir_good_moves"":0,""num_whilered"":0,""num_whileblue"":0,""num_blue"":3,""num_good_moves"":4}","[356.9642857142857,353.46428666796004,1,356.9642857142857,353.46428666796004,110,356.9642857142857,353.46428666796004,336.5,356.9642857142857,353.46428666796004,453.6,466.9642857142857,273.46428666796004,770.5,494.4642857142857,245.96428666796004,870.9,584.4642857142857,112.21428666796004,1146.8,583.2142857142857,109.71428666796004,1250.4,614.4642857142857,97.21428666796004,1509.6,620.7142857142857,97.21428666796004,1626.4,620.7142857142857,97.21428666796004,1933.9,620.7142857142857,97.21428666796004,2048.5,620.7142857142857,97.21428666796004,2156.6,620.7142857142857,97.21428666796004,2445.5,620.7142857142857,97.21428666796004,2546,620.7142857142857,97.21428666796004,2845.6,620.7142857142857,97.21428666796004,2948.1,620.7142857142857,97.21428666796004,3172.1,620.7142857142857,97.21428666796004,3276,620.7142857142857,97.21428666796004,3468.3,620.7142857142857,97.21428666796004,3569.8,620.7142857142857,97.21428666796004,3843,620.7142857142857,97.21428666796004,3952.6,620.7142857142857,97.21428666796004,4226,620.7142857142857,97.21428666796004,4331,620.7142857142857,97.21428666796004,4558.7,620.7142857142857,97.21428666796004,4660.6,620.7142857142857,97.21428666796004,4864.2,620.7142857142857,97.21428666796004,4967.2]","[2519.9,2519.9,1000,0,1519.9,""smooth"",""right"",""right"",""good_move"",9679.7,7158.1,2852.1,6107.5,720.1,""smooth"",""right"",""right"",""good_move"",13480.3,3799.7,2617.1,9680.7,1182.5,""smooth"",""up"",""up"",""good_move"",27296.1,13814.4,2096.9,24366.5,832.8,""smooth"",""up"",""up"",""good_move""]","",""
"9876","","<div style=""width:500px;"">
  <p>What determined the result of this run?</p>
  </div>","86","html-slider-response","75","1597576","0.0-5.0-1.13","178","1","2025-07-23 07:34:30","1f75c3e559b7213887762d5229550c2b","102.213.27.252","Mozilla/5.0 (Windows NT 10.0; Win64; x64) AppleWebKit/537.36 (KHTML, like Gecko) Chrome/138.0.0.0 Safari/537.36","WebKit","Chrome","138.0.0.0","Windows","10.0","https://app.prolific.com/","en-US,en;q=0.9,zh-CN;q=0.8,zh;q=0.7","669149873799bbea50733fe0","683db9eb0562dbf637994deb","6880905ca21312e4d45f6c4e","2","1","669149873799bbea50733fe0","2","1","2025-07-23T08:01:15.123Z","","","","","","","","","","","AttribQ","","50","","","","","","","","","","","","","","","","","","","","","","","","","","","","",""
"8022","","<div style=""width:500px;"">
  <p>How much control did you have over the ball?</p>
  </div>","79","html-slider-response","76","1605601","0.0-5.0-2.13","178","1","2025-07-23 07:34:30","1f75c3e559b7213887762d5229550c2b","102.213.27.252","Mozilla/5.0 (Windows NT 10.0; Win64; x64) AppleWebKit/537.36 (KHTML, like Gecko) Chrome/138.0.0.0 Safari/537.36","WebKit","Chrome","138.0.0.0","Windows","10.0","https://app.prolific.com/","en-US,en;q=0.9,zh-CN;q=0.8,zh;q=0.7","669149873799bbea50733fe0","683db9eb0562dbf637994deb","6880905ca21312e4d45f6c4e","2","1","669149873799bbea50733fe0","2","1","2025-07-23T08:01:23.147Z","","","","","","","","","","","ControlQ","","50","","","","","","","","","","","","","","","","","","","","","","","","","","","","",""
"9478","","<div style=""width:500px;"">
  <p>How would you describe your current emotional state?</p>
  </div>","16","html-slider-response","77","1615084","0.0-5.0-3.13","178","1","2025-07-23 07:34:30","1f75c3e559b7213887762d5229550c2b","102.213.27.252","Mozilla/5.0 (Windows NT 10.0; Win64; x64) AppleWebKit/537.36 (KHTML, like Gecko) Chrome/138.0.0.0 Safari/537.36","WebKit","Chrome","138.0.0.0","Windows","10.0","https://app.prolific.com/","en-US,en;q=0.9,zh-CN;q=0.8,zh;q=0.7","669149873799bbea50733fe0","683db9eb0562dbf637994deb","6880905ca21312e4d45f6c4e","2","1","669149873799bbea50733fe0","2","1","2025-07-23T08:01:32.630Z","","","","","","","","","","","StressQ","","50","","","","","","","","","","","","","","","","","","","","","","","","","","","","",""
"15780","","<div style=""width:500px;"">
  <p>What best describes how you currently feel?</p>
  </div>","72","html-slider-response","78","1630870","0.0-5.0-4.13","178","1","2025-07-23 07:34:30","1f75c3e559b7213887762d5229550c2b","102.213.27.252","Mozilla/5.0 (Windows NT 10.0; Win64; x64) AppleWebKit/537.36 (KHTML, like Gecko) Chrome/138.0.0.0 Safari/537.36","WebKit","Chrome","138.0.0.0","Windows","10.0","https://app.prolific.com/","en-US,en;q=0.9,zh-CN;q=0.8,zh;q=0.7","669149873799bbea50733fe0","683db9eb0562dbf637994deb","6880905ca21312e4d45f6c4e","2","1","669149873799bbea50733fe0","2","1","2025-07-23T08:01:48.416Z","","","","","","","","","","","MotivationQ","","50","","","","","","","","","","","","","","","","","","","","","","","","","","","","",""
"","","","","ctl-task-cpt","79","1691912","0.0-5.0-0.14","178","1","2025-07-23 07:34:30","1f75c3e559b7213887762d5229550c2b","102.213.27.252","Mozilla/5.0 (Windows NT 10.0; Win64; x64) AppleWebKit/537.36 (KHTML, like Gecko) Chrome/138.0.0.0 Safari/537.36","WebKit","Chrome","138.0.0.0","Windows","10.0","https://app.prolific.com/","en-US,en;q=0.9,zh-CN;q=0.8,zh;q=0.7","669149873799bbea50733fe0","683db9eb0562dbf637994deb","6880905ca21312e4d45f6c4e","2","1","669149873799bbea50733fe0","2","1","2025-07-23T08:02:49.458Z","","","","","","","","","","","","","","win-only","2","g1:SE,g2:NW","0.9","15","0","1638064.9","27069.6","32160.1","57895","1","4","4","6","1","1","1","13","12","0.09848484848484848","1727.6","3000","2395","[""down"",""right""]","{""num_key_presses"":6,""num_perfect"":5,""num_errors"":0,""num_randdir"":1,""num_randdir_good_moves"":0,""num_whilered"":0,""num_whileblue"":0,""num_blue"":0,""num_good_moves"":5}","[346.9642857142857,350.96428666796004,3.7,346.9642857142857,350.96428666796004,112.5,346.9642857142857,350.96428666796004,482.1,346.9642857142857,350.96428666796004,583.8,509.4642857142857,464.71428666796004,710.9,656.9642857142857,698.46428666796,838.3,636.9642857142857,658.46428666796,1197.6,634.4642857142857,652.21428666796,1307.7,634.4642857142857,652.21428666796,1429.1,634.4642857142857,652.21428666796,1748.2,634.4642857142857,652.21428666796,1868.8,634.4642857142857,652.21428666796,2288.4,634.4642857142857,652.21428666796,2396.4,634.4642857142857,652.21428666796,2680.4,634.4642857142857,652.21428666796,2786.2,634.4642857142857,652.21428666796,3179.1,634.4642857142857,652.21428666796,3288.6,634.4642857142857,652.21428666796,3558.8,634.4642857142857,652.21428666796,3659.2,634.4642857142857,652.21428666796,3881,634.4642857142857,652.21428666796,3983.4,634.4642857142857,652.21428666796,4294.8,634.4642857142857,652.21428666796,4407.9,634.4642857142857,652.21428666796,4648.1,634.4642857142857,652.21428666796,4753]","[1948.6,1948.6,1000,0,948.7,""smooth"",""right"",""right"",""good_move"",6370,4420.1,2935.4,1949.9,1484.7,""smooth"",""right"",""right"",""good_move"",9282.4,2910.9,1884.7,6371.6,1026.2,""smooth"",""down"",""down"",""good_move"",13113.1,3827.7,3101.5,9285.4,726.2,""oops"",""down"",""left"",""bad_move"",21350.4,8235.8,2687.6,13114.6,5548.2,""smooth"",""down"",""down"",""good_move"",25155,3803.6,2792.1,21351.4,1011.5,""smooth"",""right"",""right"",""good_move""]","",""
"12046","","<div style=""width:500px;"">
  <p>What determined the result of this run?</p>
  </div>","80","html-slider-response","80","1703960","0.0-5.0-1.14","178","1","2025-07-23 07:34:30","1f75c3e559b7213887762d5229550c2b","102.213.27.252","Mozilla/5.0 (Windows NT 10.0; Win64; x64) AppleWebKit/537.36 (KHTML, like Gecko) Chrome/138.0.0.0 Safari/537.36","WebKit","Chrome","138.0.0.0","Windows","10.0","https://app.prolific.com/","en-US,en;q=0.9,zh-CN;q=0.8,zh;q=0.7","669149873799bbea50733fe0","683db9eb0562dbf637994deb","6880905ca21312e4d45f6c4e","2","1","669149873799bbea50733fe0","2","1","2025-07-23T08:03:01.506Z","","","","","","","","","","","AttribQ","","50","","","","","","","","","","","","","","","","","","","","","","","","","","","","",""
"11621","","<div style=""width:500px;"">
  <p>How much control did you have over the ball?</p>
