"rt","response_timestamp","stimulus","response","trial_type","trial_index","time_elapsed","internal_node_id","run_id","condition","recorded_at","source_code_version","ip","user_agent","device","browser","browser_version","platform","platform_version","referer","accept_language","PROLIFIC_PID","STUDY_ID","SESSION_ID","WEEK","BATCH","prolific_id","week","batch","realtime","success","responses","item_order","radio_event_ids","radio_event_times","key_event_times","mouse_event_times","straightlining","zigzagging","honeypot","eventType","view_history","slider_start","which_type","canvas_config","goals_layout","control_level","trial_number","tutorial_trial_number","trial_start_time","phase1_start_time","phase2_start_time","phase3_start_time","goal_1_value","goal_1_distance","goal_2_value","goal_2_distance","goal_selected","outcome","outcome_total","participant_final_score","participant_initial_score","participant_final_score_prop","goal_choice_rt","allocated_time","allocated_time_remaining","goal_direction","counts","mouse_movements","key_presses","question_order","question_id"
"320029","1753865280860","<p style='font-size:40px;line-height:1.25'><strong>Welcome to the experiment!</strong></p><p style='font-size:1.1em;line-height:1.25'>Thank you for participanting in our experiment again! You will be asked to play the Dysfunctional Ball Game again. We will briefly recap the rules before we start.</p><p style='font-size:1.1em;line-height:1.25'>Press <strong>Next</strong> to continue.</p>","0","custom-html-button-response","0","320033","0.0-0.0","263","1","2025-07-30 08:42:39","1f75c3e559b7213887762d5229550c2b","94.10.147.75","Mozilla/5.0 (Windows NT 10.0; Win64; x64) AppleWebKit/537.36 (KHTML, like Gecko) Chrome/138.0.0.0 Safari/537.36 Edg/138.0.0.0","WebKit","Edge","138.0.0.0","Windows","10.0","https://app.prolific.com/","en-GB,en;q=0.9,en-US;q=0.8","6702f60844f21087e0840e3d","6877631c9844ddd5501205fc","6889d9c2e89f5ee146047f38","3","1","6702f60844f21087e0840e3d","3","1","2025-07-30T08:48:00.862Z","","","","","","","","","","","","","","","","","","","","","","","","","","","","","","","","","","","","","","","","","",""
"6811","","","","fullscreen","1","327858","0.0-1.0","263","1","2025-07-30 08:42:39","1f75c3e559b7213887762d5229550c2b","94.10.147.75","Mozilla/5.0 (Windows NT 10.0; Win64; x64) AppleWebKit/537.36 (KHTML, like Gecko) Chrome/138.0.0.0 Safari/537.36 Edg/138.0.0.0","WebKit","Edge","138.0.0.0","Windows","10.0","https://app.prolific.com/","en-GB,en;q=0.9,en-US;q=0.8","6702f60844f21087e0840e3d","6877631c9844ddd5501205fc","6889d9c2e89f5ee146047f38","3","1","6702f60844f21087e0840e3d","3","1","","true","","","","","","","","","","","","","","","","","","","","","","","","","","","","","","","","","","","","","","","","",""
"218996","1753865507685","<p style='font-size:1.1em;line-height:1.25'>In the following, we will ask you a few questions relating to your feelings in the last 24 hours.<br></p><p style='font-size:1.1em;line-height:1.25'>Press the <strong>Next</strong> button to continue.</p>","0","custom-html-button-response","2","546858","0.0-2.0-0.0","263","1","2025-07-30 08:42:39","1f75c3e559b7213887762d5229550c2b","94.10.147.75","Mozilla/5.0 (Windows NT 10.0; Win64; x64) AppleWebKit/537.36 (KHTML, like Gecko) Chrome/138.0.0.0 Safari/537.36 Edg/138.0.0.0","WebKit","Edge","138.0.0.0","Windows","10.0","https://app.prolific.com/","en-GB,en;q=0.9,en-US;q=0.8","6702f60844f21087e0840e3d","6877631c9844ddd5501205fc","6889d9c2e89f5ee146047f38","3","1","6702f60844f21087e0840e3d","3","1","2025-07-30T08:51:47.687Z","","","","","","","","","","","","","","","","","","","","","","","","","","","","","","","","","","","","","","","","","",""
"586800.9000000954","","","","survey-template","3","1133677","0.0-2.0-1.0","263","1","2025-07-30 08:42:39","1f75c3e559b7213887762d5229550c2b","94.10.147.75","Mozilla/5.0 (Windows NT 10.0; Win64; x64) AppleWebKit/537.36 (KHTML, like Gecko) Chrome/138.0.0.0 Safari/537.36 Edg/138.0.0.0","WebKit","Edge","138.0.0.0","Windows","10.0","https://app.prolific.com/","en-GB,en;q=0.9,en-US;q=0.8","6702f60844f21087e0840e3d","6877631c9844ddd5501205fc","6889d9c2e89f5ee146047f38","3","1","6702f60844f21087e0840e3d","3","1","2025-07-30T09:01:34.507Z","","{""Q01"":""1"",""Q02"":""1"",""Q03"":""2"",""Q04"":""3"",""Q05"":""3"",""Q06"":""1"",""Q07"":""3"",""Q08"":""0"",""Q09"":""3"",""Q10"":""4"",""Q11"":""1"",""Q12"":""0"",""Q13"":""5"",""Q14"":""2"",""Q15"":""0"",""Q16"":""0"",""Q17"":""0"",""Q18"":""3"",""Q19"":""0"",""Q20"":""2"",""Q21"":""2"",""Q22"":""2""}","[0,1,2,3,4,5,6,7,8,9,10,11,12,13,14,15,16,17,18,19,20,21]","[""Q01"",""Q02"",""Q02"",""Q03"",""Q04"",""Q05"",""Q06"",""Q07"",""Q06"",""Q08"",""Q08"",""Q09"",""Q10"",""Q11"",""Q12"",""Q13"",""Q14"",""Q15"",""Q16"",""Q17"",""Q18"",""Q19"",""Q20"",""Q21"",""Q22""]","[294559.5,299921.90000009537,301845.30000019073,304346.10000014305,306612.7000000477,309663.90000009537,312781.5,314839.5,316194.7000000477,319112.5,321180.40000009537,324581.5,343865.60000014305,346815,349530.90000009537,355447.60000014305,375891.30000019073,379920.40000009537,383998.7000000477,385769,387854.2000000477,391305.5,570124.2000000477,581849.7000000477,585510.9000000954]","[]","[0.20000004768371582,294559.5,299921.90000009537,301845.30000019073,304346.10000014305,306612.7000000477,308039.40000009537,309663.90000009537,312781.5,314839.5,316194.7000000477,319112.5,320255.10000014305,321180.40000009537,324581.5,343865.60000014305,346815,349530.90000009537,355447.60000014305,375891.30000019073,378659.80000019073,379920.40000009537,383998.7000000477,385769,387854.2000000477,391305.5,570124.2000000477,581849.7000000477,585510.9000000954,586796.7000000477]","0.2727272727272727","0.23809523809523808","0","drsp","","","","","","","","","","","","","","","","","","","","","","","","","","","","","","",""
"15698.5","","","","survey-template","4","1149379","0.0-2.0-2.0","263","1","2025-07-30 08:42:39","1f75c3e559b7213887762d5229550c2b","94.10.147.75","Mozilla/5.0 (Windows NT 10.0; Win64; x64) AppleWebKit/537.36 (KHTML, like Gecko) Chrome/138.0.0.0 Safari/537.36 Edg/138.0.0.0","WebKit","Edge","138.0.0.0","Windows","10.0","https://app.prolific.com/","en-GB,en;q=0.9,en-US;q=0.8","6702f60844f21087e0840e3d","6877631c9844ddd5501205fc","6889d9c2e89f5ee146047f38","3","1","6702f60844f21087e0840e3d","3","1","2025-07-30T09:01:50.208Z","","{""Q01"":""1"",""Q02"":""4"",""Q03"":""1""}","[0,1,2]","[""Q01"",""Q02"",""Q03""]","[3963.9000000953674,10046.299999952316,14077.700000047684]","[]","[3963.9000000953674,10046.299999952316,14077.700000047684,15695.400000095367]","1","0","0","stress","","","","","","","","","","","","","","","","","","","","","","","","","","","","","","",""
"115771","","","","instructions","5","1265151","0.0-3.0-0.0","263","1","2025-07-30 08:42:39","1f75c3e559b7213887762d5229550c2b","94.10.147.75","Mozilla/5.0 (Windows NT 10.0; Win64; x64) AppleWebKit/537.36 (KHTML, like Gecko) Chrome/138.0.0.0 Safari/537.36 Edg/138.0.0.0","WebKit","Edge","138.0.0.0","Windows","10.0","https://app.prolific.com/","en-GB,en;q=0.9,en-US;q=0.8","6702f60844f21087e0840e3d","6877631c9844ddd5501205fc","6889d9c2e89f5ee146047f38","3","1","6702f60844f21087e0840e3d","3","1","","","","","","","","","","","","","[{""page_index"":0,""viewing_time"":115770}]","","","","","","","","","","","","","","","","","","","","","","","","","","","","","",""
"9396","","<p>Before you start with this game please answer the following three questions yourself. </p>
  <p>Through this game, we measure several aspects of your cognitive performance, such as reaction times, multi-tasking capabilities </p>
  <p>and the ability to assess the situation you are in.</p>
  <p></p>
  <p><b>How good do you usually are in such tasks?</b></p>","63","html-slider-response","6","1274549","0.0-4.0-0.0","263","1","2025-07-30 08:42:39","1f75c3e559b7213887762d5229550c2b","94.10.147.75","Mozilla/5.0 (Windows NT 10.0; Win64; x64) AppleWebKit/537.36 (KHTML, like Gecko) Chrome/138.0.0.0 Safari/537.36 Edg/138.0.0.0","WebKit","Edge","138.0.0.0","Windows","10.0","https://app.prolific.com/","en-GB,en;q=0.9,en-US;q=0.8","6702f60844f21087e0840e3d","6877631c9844ddd5501205fc","6889d9c2e89f5ee146047f38","3","1","6702f60844f21087e0840e3d","3","1","2025-07-30T09:03:55.378Z","","","","","","","","","","","PreSkillQ","","50","","","","","","","","","","","","","","","","","","","","","","","","","","","","",""
"4349","","<div style=""width:500px;"">
  <p>How well do you think you will perform in this task compared to other participants?</p>
  </div>","66","html-slider-response","7","1278900","0.0-4.0-1.0","263","1","2025-07-30 08:42:39","1f75c3e559b7213887762d5229550c2b","94.10.147.75","Mozilla/5.0 (Windows NT 10.0; Win64; x64) AppleWebKit/537.36 (KHTML, like Gecko) Chrome/138.0.0.0 Safari/537.36 Edg/138.0.0.0","WebKit","Edge","138.0.0.0","Windows","10.0","https://app.prolific.com/","en-GB,en;q=0.9,en-US;q=0.8","6702f60844f21087e0840e3d","6877631c9844ddd5501205fc","6889d9c2e89f5ee146047f38","3","1","6702f60844f21087e0840e3d","3","1","2025-07-30T09:03:59.730Z","","","","","","","","","","","PrePerfQ","","50","","","","","","","","","","","","","","","","","","","","","","","","","","","","",""
"4961","","<div style=""width:500px;"">
  <p>What best describes how you currently feel?</p>
  </div>","65","html-slider-response","8","1283864","0.0-4.0-2.0","263","1","2025-07-30 08:42:39","1f75c3e559b7213887762d5229550c2b","94.10.147.75","Mozilla/5.0 (Windows NT 10.0; Win64; x64) AppleWebKit/537.36 (KHTML, like Gecko) Chrome/138.0.0.0 Safari/537.36 Edg/138.0.0.0","WebKit","Edge","138.0.0.0","Windows","10.0","https://app.prolific.com/","en-GB,en;q=0.9,en-US;q=0.8","6702f60844f21087e0840e3d","6877631c9844ddd5501205fc","6889d9c2e89f5ee146047f38","3","1","6702f60844f21087e0840e3d","3","1","2025-07-30T09:04:04.693Z","","","","","","","","","","","PreMotivationQ","","50","","","","","","","","","","","","","","","","","","","","","","","","","","","","",""
"","","","","ctl-task-cpt","9","1325963","0.0-5.0-0.0","263","1","2025-07-30 08:42:39","1f75c3e559b7213887762d5229550c2b","94.10.147.75","Mozilla/5.0 (Windows NT 10.0; Win64; x64) AppleWebKit/537.36 (KHTML, like Gecko) Chrome/138.0.0.0 Safari/537.36 Edg/138.0.0.0","WebKit","Edge","138.0.0.0","Windows","10.0","https://app.prolific.com/","en-GB,en;q=0.9,en-US;q=0.8","6702f60844f21087e0840e3d","6877631c9844ddd5501205fc","6889d9c2e89f5ee146047f38","3","1","6702f60844f21087e0840e3d","3","1","2025-07-30T09:04:46.792Z","","","","","","","","","","","","","","win-only","1","g1:NE,g2:SW","1","1","0","1285442.7","4708.3","9711.4","39093.2","1","4","4","6","2","4","2","2","0","0.015151515151515152","5003.1","3000","80","[""down"",""left""]","{""num_key_presses"":9,""num_perfect"":6,""num_errors"":2,""num_randdir"":0,""num_randdir_good_moves"":0,""num_whilered"":1,""num_whileblue"":0,""num_blue"":3,""num_good_moves"":6}","[296.22232142857143,297.12857142857143,0.4,296.22232142857143,297.12857142857143,103.9,296.22232142857143,297.12857142857143,208.4,296.22232142857143,297.12857142857143,313.2,296.22232142857143,297.12857142857143,413.4,296.22232142857143,297.12857142857143,519.2,296.22232142857143,297.12857142857143,629.8,296.22232142857143,297.12857142857143,732.7,296.22232142857143,297.12857142857143,832.9,296.22232142857143,297.12857142857143,942.4,296.22232142857143,297.12857142857143,1048.5,296.22232142857143,297.12857142857143,1148.5,296.22232142857143,297.12857142857143,1249.1,296.22232142857143,297.12857142857143,1349.2,296.22232142857143,297.12857142857143,1452.8,296.22232142857143,297.12857142857143,1559.5,296.22232142857143,297.12857142857143,1664,296.22232142857143,297.12857142857143,1768.3,296.22232142857143,297.12857142857143,1868.4,296.22232142857143,297.12857142857143,1973,296.22232142857143,297.12857142857143,2078.5,296.22232142857143,297.12857142857143,2179,296.22232142857143,297.12857142857143,2283.4,296.22232142857143,297.12857142857143,2389.7,296.22232142857143,297.12857142857143,2494.1,296.22232142857143,297.12857142857143,2594.2,296.22232142857143,297.12857142857143,2694.5,296.22232142857143,297.12857142857143,2794.7,296.22232142857143,297.12857142857143,2898.3,296.22232142857143,297.12857142857143,3002.4,296.22232142857143,297.12857142857143,3102.8,296.22232142857143,297.12857142857143,3203.3,296.22232142857143,297.12857142857143,3303.4,296.22232142857143,297.12857142857143,3412.1,296.22232142857143,297.12857142857143,3513.7,296.22232142857143,297.12857142857143,3617.7,296.22232142857143,297.12857142857143,3718.4,296.22232142857143,297.12857142857143,3819.2,296.22232142857143,297.12857142857143,3924.2,296.22232142857143,297.12857142857143,4027.7,296.22232142857143,297.12857142857143,4128.2,296.22232142857143,297.12857142857143,4228.3,296.22232142857143,297.12857142857143,4328.4,296.22232142857143,297.12857142857143,4433,296.22232142857143,297.12857142857143,4537.9,296.22232142857143,297.12857142857143,4638.4,296.22232142857143,297.12857142857143,4743.1,296.22232142857143,297.12857142857143,4843.1,296.22232142857143,297.12857142857143,4948.2]","[1604.9,1604.9,1000,0,604.9,""smooth"",""left"",""left"",""good_move"",1856.4,251.2,1899.5,1605.3,-1648.3,""error"",""-"",""-"",""no_move"",2105.2,248.6,1899.5,1605.3,-1399.6,""while_red"",""-"",""-"",""no_move"",5540.5,3683.9,2037,2860.5,643,""smooth"",""left"",""left"",""good_move"",6453.7,912.9,2799.4,5540.8,-1886.5,""error"",""-"",""-"",""no_move"",10432.2,3978.3,2549.7,7454.5,428,""smooth"",""left"",""left"",""good_move"",16507.7,6075.2,2194.2,13899.2,414.3,""smooth"",""down"",""down"",""good_move"",22849.5,6341.2,2232.3,20235,382.2,""smooth"",""down"",""down"",""good_move"",29293.3,6443.6,2544.7,26255.1,493.5,""smooth"",""down"",""down"",""good_move""]","",""
"7397","","<div style=""width:500px;"">
  <p>What determined the result of this run?</p>
  </div>","88","html-slider-response","10","1333361","0.0-5.0-1.0","263","1","2025-07-30 08:42:39","1f75c3e559b7213887762d5229550c2b","94.10.147.75","Mozilla/5.0 (Windows NT 10.0; Win64; x64) AppleWebKit/537.36 (KHTML, like Gecko) Chrome/138.0.0.0 Safari/537.36 Edg/138.0.0.0","WebKit","Edge","138.0.0.0","Windows","10.0","https://app.prolific.com/","en-GB,en;q=0.9,en-US;q=0.8","6702f60844f21087e0840e3d","6877631c9844ddd5501205fc","6889d9c2e89f5ee146047f38","3","1","6702f60844f21087e0840e3d","3","1","2025-07-30T09:04:54.190Z","","","","","","","","","","","AttribQ","","50","","","","","","","","","","","","","","","","","","","","","","","","","","","","",""
"3755","","<div style=""width:500px;"">
  <p>How much control did you have over the ball?</p>
  </div>","97","html-slider-response","11","1337117","0.0-5.0-2.0","263","1","2025-07-30 08:42:39","1f75c3e559b7213887762d5229550c2b","94.10.147.75","Mozilla/5.0 (Windows NT 10.0; Win64; x64) AppleWebKit/537.36 (KHTML, like Gecko) Chrome/138.0.0.0 Safari/537.36 Edg/138.0.0.0","WebKit","Edge","138.0.0.0","Windows","10.0","https://app.prolific.com/","en-GB,en;q=0.9,en-US;q=0.8","6702f60844f21087e0840e3d","6877631c9844ddd5501205fc","6889d9c2e89f5ee146047f38","3","1","6702f60844f21087e0840e3d","3","1","2025-07-30T09:04:57.946Z","","","","","","","","","","","ControlQ","","50","","","","","","","","","","","","","","","","","","","","","","","","","","","","",""
"10672","","<div style=""width:500px;"">
  <p>How would you describe your current emotional state?</p>
  </div>","35","html-slider-response","12","1347789","0.0-5.0-3.0","263","1","2025-07-30 08:42:39","1f75c3e559b7213887762d5229550c2b","94.10.147.75","Mozilla/5.0 (Windows NT 10.0; Win64; x64) AppleWebKit/537.36 (KHTML, like Gecko) Chrome/138.0.0.0 Safari/537.36 Edg/138.0.0.0","WebKit","Edge","138.0.0.0","Windows","10.0","https://app.prolific.com/","en-GB,en;q=0.9,en-US;q=0.8","6702f60844f21087e0840e3d","6877631c9844ddd5501205fc","6889d9c2e89f5ee146047f38","3","1","6702f60844f21087e0840e3d","3","1","2025-07-30T09:05:08.618Z","","","","","","","","","","","StressQ","","50","","","","","","","","","","","","","","","","","","","","","","","","","","","","",""
"9482","","<div style=""width:500px;"">
  <p>What best describes how you currently feel?</p>
  </div>","69","html-slider-response","13","1357272","0.0-5.0-4.0","263","1","2025-07-30 08:42:39","1f75c3e559b7213887762d5229550c2b","94.10.147.75","Mozilla/5.0 (Windows NT 10.0; Win64; x64) AppleWebKit/537.36 (KHTML, like Gecko) Chrome/138.0.0.0 Safari/537.36 Edg/138.0.0.0","WebKit","Edge","138.0.0.0","Windows","10.0","https://app.prolific.com/","en-GB,en;q=0.9,en-US;q=0.8","6702f60844f21087e0840e3d","6877631c9844ddd5501205fc","6889d9c2e89f5ee146047f38","3","1","6702f60844f21087e0840e3d","3","1","2025-07-30T09:05:18.101Z","","","","","","","","","","","MotivationQ","","50","","","","","","","","","","","","","","","","","","","","","","","","","","","","",""
"","","","","ctl-task-cpt","14","1422890","0.0-5.0-0.1","263","1","2025-07-30 08:42:39","1f75c3e559b7213887762d5229550c2b","94.10.147.75","Mozilla/5.0 (Windows NT 10.0; Win64; x64) AppleWebKit/537.36 (KHTML, like Gecko) Chrome/138.0.0.0 Safari/537.36 Edg/138.0.0.0","WebKit","Edge","138.0.0.0","Windows","10.0","https://app.prolific.com/","en-GB,en;q=0.9,en-US;q=0.8","6702f60844f21087e0840e3d","6877631c9844ddd5501205fc","6889d9c2e89f5ee146047f38","3","1","6702f60844f21087e0840e3d","3","1","2025-07-30T09:06:23.719Z","","","","","","","","","","","","","","win-only","1","g1:NE,g2:SW","0.9","2","0","1358849.3","18796.6","23802.5","62602.1","1","4","8","6","1","1","1","3","2","0.022727272727272728","5005.9","3000","30","[""up"",""right""]","{""num_key_presses"":6,""num_perfect"":5,""num_errors"":0,""num_randdir"":1,""num_randdir_good_moves"":0,""num_whilered"":0,""num_whileblue"":0,""num_blue"":6,""num_good_moves"":5}","[295.22232142857143,296.12857142857143,0.4,295.22232142857143,296.12857142857143,104.3,295.22232142857143,296.12857142857143,228.6,295.22232142857143,296.12857142857143,332,295.22232142857143,296.12857142857143,433.9,295.22232142857143,296.12857142857143,534.7,295.22232142857143,296.12857142857143,639.5,295.22232142857143,296.12857142857143,747.1,295.22232142857143,296.12857142857143,850.3,295.22232142857143,296.12857142857143,954.2,295.22232142857143,296.12857142857143,1054.8,295.22232142857143,296.12857142857143,1159.8,295.22232142857143,296.12857142857143,1259.9,295.22232142857143,296.12857142857143,1364.8,295.22232142857143,296.12857142857143,1464.9,295.22232142857143,296.12857142857143,1569.7,295.22232142857143,296.12857142857143,1673.9,295.22232142857143,296.12857142857143,1774.5,295.22232142857143,296.12857142857143,1879.2,295.22232142857143,296.12857142857143,1980.1,295.22232142857143,296.12857142857143,2080.5,295.22232142857143,296.12857142857143,2183.6,295.22232142857143,296.12857142857143,2283.8,295.22232142857143,296.12857142857143,2389.6,295.22232142857143,296.12857142857143,2494.1,295.22232142857143,296.12857142857143,2598.8,295.22232142857143,296.12857142857143,2698.8,295.22232142857143,296.12857142857143,2799.6,295.22232142857143,296.12857142857143,2904.6,295.22232142857143,296.12857142857143,3009.7,295.22232142857143,296.12857142857143,3115.1,295.22232142857143,296.12857142857143,3219.6,295.22232142857143,296.12857142857143,3324.8,295.22232142857143,296.12857142857143,3430,295.22232142857143,296.12857142857143,3534.6,295.22232142857143,296.12857142857143,3639.2,295.22232142857143,296.12857142857143,3739.5,295.22232142857143,296.12857142857143,3843.8,295.22232142857143,296.12857142857143,3943.9,295.22232142857143,296.12857142857143,4049.6,295.22232142857143,296.12857142857143,4154.2,295.22232142857143,296.12857142857143,4254.5,295.22232142857143,296.12857142857143,4354.8,295.22232142857143,296.12857142857143,4458.9,295.22232142857143,296.12857142857143,4559,295.22232142857143,296.12857142857143,4660.1,295.22232142857143,296.12857142857143,4764.8,295.22232142857143,296.12857142857143,4869.3,295.22232142857143,296.12857142857143,4969.4]","[4582.4,4582.4,2161.6,2008.4,412.4,""smooth"",""right"",""right"",""good_move"",12292.6,7709.5,3558.3,8318,416.3,""smooth"",""right"",""right"",""good_move"",15690.6,3397.8,2632.8,12292.8,765,""smooth"",""up"",""up"",""good_move"",32627,16936.1,2916,29273.3,437.7,""oops"",""up"",""left"",""bad_move"",35408.5,2781.1,2204.9,32627.4,576.2,""smooth"",""right"",""right"",""good_move"",38698.8,3290,2884.2,35408.8,405.8,""smooth"",""up"",""up"",""good_move""]","",""
"5776","","<div style=""width:500px;"">
  <p>What determined the result of this run?</p>
  </div>","72","html-slider-response","15","1428668","0.0-5.0-1.1","263","1","2025-07-30 08:42:39","1f75c3e559b7213887762d5229550c2b","94.10.147.75","Mozilla/5.0 (Windows NT 10.0; Win64; x64) AppleWebKit/537.36 (KHTML, like Gecko) Chrome/138.0.0.0 Safari/537.36 Edg/138.0.0.0","WebKit","Edge","138.0.0.0","Windows","10.0","https://app.prolific.com/","en-GB,en;q=0.9,en-US;q=0.8","6702f60844f21087e0840e3d","6877631c9844ddd5501205fc","6889d9c2e89f5ee146047f38","3","1","6702f60844f21087e0840e3d","3","1","2025-07-30T09:06:29.497Z","","","","","","","","","","","AttribQ","","50","","","","","","","","","","","","","","","","","","","","","","","","","","","","",""
"5529","","<div style=""width:500px;"">
  <p>How much control did you have over the ball?</p>
  </div>","62","html-slider-response","16","1434198","0.0-5.0-2.1","263","1","2025-07-30 08:42:39","1f75c3e559b7213887762d5229550c2b","94.10.147.75","Mozilla/5.0 (Windows NT 10.0; Win64; x64) AppleWebKit/537.36 (KHTML, like Gecko) Chrome/138.0.0.0 Safari/537.36 Edg/138.0.0.0","WebKit","Edge","138.0.0.0","Windows","10.0","https://app.prolific.com/","en-GB,en;q=0.9,en-US;q=0.8","6702f60844f21087e0840e3d","6877631c9844ddd5501205fc","6889d9c2e89f5ee146047f38","3","1","6702f60844f21087e0840e3d","3","1","2025-07-30T09:06:35.027Z","","","","","","","","","","","ControlQ","","50","","","","","","","","","","","","","","","","","","","","","","","","","","","","",""
"5830","","<div style=""width:500px;"">
  <p>How would you describe your current emotional state?</p>
  </div>","37","html-slider-response","17","1440029","0.0-5.0-3.1","263","1","2025-07-30 08:42:39","1f75c3e559b7213887762d5229550c2b","94.10.147.75","Mozilla/5.0 (Windows NT 10.0; Win64; x64) AppleWebKit/537.36 (KHTML, like Gecko) Chrome/138.0.0.0 Safari/537.36 Edg/138.0.0.0","WebKit","Edge","138.0.0.0","Windows","10.0","https://app.prolific.com/","en-GB,en;q=0.9,en-US;q=0.8","6702f60844f21087e0840e3d","6877631c9844ddd5501205fc","6889d9c2e89f5ee146047f38","3","1","6702f60844f21087e0840e3d","3","1","2025-07-30T09:06:40.858Z","","","","","","","","","","","StressQ","","50","","","","","","","","","","","","","","","","","","","","","","","","","","","","",""
"4768","","<div style=""width:500px;"">
  <p>What best describes how you currently feel?</p>
  </div>","61","html-slider-response","18","1444798","0.0-5.0-4.1","263","1","2025-07-30 08:42:39","1f75c3e559b7213887762d5229550c2b","94.10.147.75","Mozilla/5.0 (Windows NT 10.0; Win64; x64) AppleWebKit/537.36 (KHTML, like Gecko) Chrome/138.0.0.0 Safari/537.36 Edg/138.0.0.0","WebKit","Edge","138.0.0.0","Windows","10.0","https://app.prolific.com/","en-GB,en;q=0.9,en-US;q=0.8","6702f60844f21087e0840e3d","6877631c9844ddd5501205fc","6889d9c2e89f5ee146047f38","3","1","6702f60844f21087e0840e3d","3","1","2025-07-30T09:06:45.627Z","","","","","","","","","","","MotivationQ","","50","","","","","","","","","","","","","","","","","","","","","","","","","","","","",""
"","","","","ctl-task-cpt","19","1468483","0.0-5.0-0.2","263","1","2025-07-30 08:42:39","1f75c3e559b7213887762d5229550c2b","94.10.147.75","Mozilla/5.0 (Windows NT 10.0; Win64; x64) AppleWebKit/537.36 (KHTML, like Gecko) Chrome/138.0.0.0 Safari/537.36 Edg/138.0.0.0","WebKit","Edge","138.0.0.0","Windows","10.0","https://app.prolific.com/","en-GB,en;q=0.9,en-US;q=0.8","6702f60844f21087e0840e3d","6877631c9844ddd5501205fc","6889d9c2e89f5ee146047f38","3","1","6702f60844f21087e0840e3d","3","1","2025-07-30T09:07:09.312Z","","","","","","","","","","","","","","win-only","1","g1:NE,g2:SW","0.8","3","0","1446375.5","4870.4","9871.4","20667.1","1","4","8","6","1","1","1","4","3","0.030303030303030304","5001","3000","1185","[""up"",""right""]","{""num_key_presses"":4,""num_perfect"":4,""num_errors"":0,""num_randdir"":0,""num_randdir_good_moves"":0,""num_whilered"":0,""num_whileblue"":0,""num_blue"":0,""num_good_moves"":4}","[297.22232142857143,295.12857142857143,0.3,297.22232142857143,295.12857142857143,100.5,297.22232142857143,295.12857142857143,204.9,297.22232142857143,295.12857142857143,306.2,297.22232142857143,295.12857142857143,409.9,297.22232142857143,295.12857142857143,510.3,285.22232142857143,351.12857142857143,611.4,277.22232142857143,380.12857142857143,717.7,277.22232142857143,380.12857142857143,820.4,277.22232142857143,380.12857142857143,920.5,277.22232142857143,380.12857142857143,1021,277.22232142857143,380.12857142857143,1121.4,277.22232142857143,380.12857142857143,1225,277.22232142857143,380.12857142857143,1325.3,277.22232142857143,380.12857142857143,1430,277.22232142857143,380.12857142857143,1535.2,277.22232142857143,380.12857142857143,1636.1,277.22232142857143,380.12857142857143,1740.7,277.22232142857143,380.12857142857143,1841.1,277.22232142857143,380.12857142857143,1945.5,277.22232142857143,380.12857142857143,2050.5,277.22232142857143,380.12857142857143,2151,277.22232142857143,380.12857142857143,2251.2,277.22232142857143,380.12857142857143,2351.6,277.22232142857143,380.12857142857143,2455,277.22232142857143,380.12857142857143,2556.9,277.22232142857143,380.12857142857143,2660.5,277.22232142857143,380.12857142857143,2760.7,277.22232142857143,380.12857142857143,2866.3,277.22232142857143,380.12857142857143,2970.5,277.22232142857143,380.12857142857143,3070.6,277.22232142857143,380.12857142857143,3170.6,277.22232142857143,380.12857142857143,3275.1,277.22232142857143,380.12857142857143,3380.9,277.22232142857143,380.12857142857143,3484.9,277.22232142857143,380.12857142857143,3584.9,277.22232142857143,380.12857142857143,3685.8,277.22232142857143,380.12857142857143,3789.8,277.22232142857143,380.12857142857143,3890.6,277.22232142857143,380.12857142857143,3995,277.22232142857143,380.12857142857143,4095.6,277.22232142857143,380.12857142857143,4200.8,277.22232142857143,380.12857142857143,4305.5,277.22232142857143,380.12857142857143,4406.5,277.22232142857143,380.12857142857143,4510.2,277.22232142857143,380.12857142857143,4610.4,277.22232142857143,380.12857142857143,4715.9,277.22232142857143,380.12857142857143,4820.3,277.22232142857143,380.12857142857143,4921]","[1513.1,1513.1,1000,0,513.1,""smooth"",""right"",""right"",""good_move"",4757.9,3244.4,2713.6,1513.5,530.8,""smooth"",""right"",""right"",""good_move"",8389.5,3631.4,3229.5,4758.1,401.9,""smooth"",""up"",""up"",""good_move"",10698,2308.2,1852.6,8389.9,455.6,""smooth"",""up"",""up"",""good_move""]","",""
"3718","","<div style=""width:500px;"">
  <p>What determined the result of this run?</p>
  </div>","89","html-slider-response","20","1472203","0.0-5.0-1.2","263","1","2025-07-30 08:42:39","1f75c3e559b7213887762d5229550c2b","94.10.147.75","Mozilla/5.0 (Windows NT 10.0; Win64; x64) AppleWebKit/537.36 (KHTML, like Gecko) Chrome/138.0.0.0 Safari/537.36 Edg/138.0.0.0","WebKit","Edge","138.0.0.0","Windows","10.0","https://app.prolific.com/","en-GB,en;q=0.9,en-US;q=0.8","6702f60844f21087e0840e3d","6877631c9844ddd5501205fc","6889d9c2e89f5ee146047f38","3","1","6702f60844f21087e0840e3d","3","1","2025-07-30T09:07:13.033Z","","","","","","","","","","","AttribQ","","50","","","","","","","","","","","","","","","","","","","","","","","","","","","","",""
"5440","","<div style=""width:500px;"">
  <p>How much control did you have over the ball?</p>
  </div>","100","html-slider-response","21","1477647","0.0-5.0-2.2","263","1","2025-07-30 08:42:39","1f75c3e559b7213887762d5229550c2b","94.10.147.75","Mozilla/5.0 (Windows NT 10.0; Win64; x64) AppleWebKit/537.36 (KHTML, like Gecko) Chrome/138.0.0.0 Safari/537.36 Edg/138.0.0.0","WebKit","Edge","138.0.0.0","Windows","10.0","https://app.prolific.com/","en-GB,en;q=0.9,en-US;q=0.8","6702f60844f21087e0840e3d","6877631c9844ddd5501205fc","6889d9c2e89f5ee146047f38","3","1","6702f60844f21087e0840e3d","3","1","2025-07-30T09:07:18.476Z","","","","","","","","","","","ControlQ","","50","","","","","","","","","","","","","","","","","","","","","","","","","","","","",""
"6285","","<div style=""width:500px;"">
  <p>How would you describe your current emotional state?</p>
  </div>","21","html-slider-response","22","1483932","0.0-5.0-3.2","263","1","2025-07-30 08:42:39","1f75c3e559b7213887762d5229550c2b","94.10.147.75","Mozilla/5.0 (Windows NT 10.0; Win64; x64) AppleWebKit/537.36 (KHTML, like Gecko) Chrome/138.0.0.0 Safari/537.36 Edg/138.0.0.0","WebKit","Edge","138.0.0.0","Windows","10.0","https://app.prolific.com/","en-GB,en;q=0.9,en-US;q=0.8","6702f60844f21087e0840e3d","6877631c9844ddd5501205fc","6889d9c2e89f5ee146047f38","3","1","6702f60844f21087e0840e3d","3","1","2025-07-30T09:07:24.761Z","","","","","","","","","","","StressQ","","50","","","","","","","","","","","","","","","","","","","","","","","","","","","","",""
"4587","","<div style=""width:500px;"">
  <p>What best describes how you currently feel?</p>
  </div>","79","html-slider-response","23","1488521","0.0-5.0-4.2","263","1","2025-07-30 08:42:39","1f75c3e559b7213887762d5229550c2b","94.10.147.75","Mozilla/5.0 (Windows NT 10.0; Win64; x64) AppleWebKit/537.36 (KHTML, like Gecko) Chrome/138.0.0.0 Safari/537.36 Edg/138.0.0.0","WebKit","Edge","138.0.0.0","Windows","10.0","https://app.prolific.com/","en-GB,en;q=0.9,en-US;q=0.8","6702f60844f21087e0840e3d","6877631c9844ddd5501205fc","6889d9c2e89f5ee146047f38","3","1","6702f60844f21087e0840e3d","3","1","2025-07-30T09:07:29.350Z","","","","","","","","","","","MotivationQ","","50","","","","","","","","","","","","","","","","","","","","","","","","","","","","",""
"","","","","ctl-task-cpt","24","1531771","0.0-5.0-0.3","263","1","2025-07-30 08:42:39","1f75c3e559b7213887762d5229550c2b","94.10.147.75","Mozilla/5.0 (Windows NT 10.0; Win64; x64) AppleWebKit/537.36 (KHTML, like Gecko) Chrome/138.0.0.0 Safari/537.36 Edg/138.0.0.0","WebKit","Edge","138.0.0.0","Windows","10.0","https://app.prolific.com/","en-GB,en;q=0.9,en-US;q=0.8","6702f60844f21087e0840e3d","6877631c9844ddd5501205fc","6889d9c2e89f5ee146047f38","3","1","6702f60844f21087e0840e3d","3","1","2025-07-30T09:08:12.600Z","","","","","","","","","","","","","","win-only","0","g1:NW,g2:SE","0.7","4","0","1490102.4","20457.5","25475.7","40226.7","1","4","4","6","1","1","1","5","4","0.03787878787878788","5018.2","3000","1170","[""left"",""up""]","{""num_key_presses"":4,""num_perfect"":4,""num_errors"":0,""num_randdir"":0,""num_randdir_good_moves"":0,""num_whilered"":0,""num_whileblue"":0,""num_blue"":1,""num_good_moves"":4}","[293.22232142857143,298.12857142857143,0.3,293.22232142857143,298.12857142857143,103.2,293.22232142857143,298.12857142857143,204.1,293.22232142857143,298.12857142857143,308.1,293.22232142857143,298.12857142857143,414.1,293.22232142857143,298.12857142857143,514.3,293.22232142857143,298.12857142857143,618.1,293.22232142857143,298.12857142857143,724.3,293.22232142857143,298.12857142857143,836.3,293.22232142857143,298.12857142857143,952.8,293.22232142857143,298.12857142857143,1057,293.22232142857143,298.12857142857143,1168,293.22232142857143,298.12857142857143,1269.2,293.22232142857143,298.12857142857143,1381.2,293.22232142857143,298.12857142857143,1483.1,293.22232142857143,298.12857142857143,1584.3,293.22232142857143,298.12857142857143,1688.2,293.22232142857143,298.12857142857143,1800.8,293.22232142857143,298.12857142857143,1903,293.22232142857143,298.12857142857143,2016.9,293.22232142857143,298.12857142857143,2119.3,293.22232142857143,298.12857142857143,2224.5,293.22232142857143,298.12857142857143,2333.6,293.22232142857143,298.12857142857143,2440.8,293.22232142857143,298.12857142857143,2544.2,293.22232142857143,298.12857142857143,2649.4,293.22232142857143,298.12857142857143,2753.7,293.22232142857143,298.12857142857143,2855.3,293.22232142857143,298.12857142857143,2959.8,293.22232142857143,298.12857142857143,3064.4,293.22232142857143,298.12857142857143,3170.3,293.22232142857143,298.12857142857143,3275.7,293.22232142857143,298.12857142857143,3378.3,293.22232142857143,298.12857142857143,3480.9,293.22232142857143,298.12857142857143,3583.5,293.22232142857143,298.12857142857143,3683.6,293.22232142857143,298.12857142857143,3786.1,293.22232142857143,298.12857142857143,3888.1,293.22232142857143,298.12857142857143,3988.5,293.22232142857143,298.12857142857143,4096.2,293.22232142857143,298.12857142857143,4200.1,293.22232142857143,298.12857142857143,4308.5,293.22232142857143,298.12857142857143,4416.1,293.22232142857143,298.12857142857143,4530.6,293.22232142857143,298.12857142857143,4634.5,293.22232142857143,298.12857142857143,4735.4,293.22232142857143,298.12857142857143,4851.1,293.22232142857143,298.12857142857143,4955.6]","[1438,1438,1000,0,438,""smooth"",""left"",""left"",""good_move"",4919.5,3480.2,2938.3,1439.3,542,""smooth"",""left"",""left"",""good_move"",7952.6,3032.1,2547,4920.5,485.1,""smooth"",""up"",""up"",""good_move"",14652.7,6698.6,2583.9,11616.2,452.6,""smooth"",""up"",""up"",""good_move""]","",""
"3975","","<div style=""width:500px;"">
  <p>What determined the result of this run?</p>
  </div>","80","html-slider-response","25","1535747","0.0-5.0-1.3","263","1","2025-07-30 08:42:39","1f75c3e559b7213887762d5229550c2b","94.10.147.75","Mozilla/5.0 (Windows NT 10.0; Win64; x64) AppleWebKit/537.36 (KHTML, like Gecko) Chrome/138.0.0.0 Safari/537.36 Edg/138.0.0.0","WebKit","Edge","138.0.0.0","Windows","10.0","https://app.prolific.com/","en-GB,en;q=0.9,en-US;q=0.8","6702f60844f21087e0840e3d","6877631c9844ddd5501205fc","6889d9c2e89f5ee146047f38","3","1","6702f60844f21087e0840e3d","3","1","2025-07-30T09:08:16.576Z","","","","","","","","","","","AttribQ","","50","","","","","","","","","","","","","","","","","","","","","","","","","","","","",""
"7949","","<div style=""width:500px;"">
  <p>How much control did you have over the ball?</p>
  </div>","100","html-slider-response","26","1543698","0.0-5.0-2.3","263","1","2025-07-30 08:42:39","1f75c3e559b7213887762d5229550c2b","94.10.147.75","Mozilla/5.0 (Windows NT 10.0; Win64; x64) AppleWebKit/537.36 (KHTML, like Gecko) Chrome/138.0.0.0 Safari/537.36 Edg/138.0.0.0","WebKit","Edge","138.0.0.0","Windows","10.0","https://app.prolific.com/","en-GB,en;q=0.9,en-US;q=0.8","6702f60844f21087e0840e3d","6877631c9844ddd5501205fc","6889d9c2e89f5ee146047f38","3","1","6702f60844f21087e0840e3d","3","1","2025-07-30T09:08:24.527Z","","","","","","","","","","","ControlQ","","50","","","","","","","","","","","","","","","","","","","","","","","","","","","","",""
"7949","","<div style=""width:500px;"">
  <p>How would you describe your current emotional state?</p>
  </div>","16","html-slider-response","27","1551649","0.0-5.0-3.3","263","1","2025-07-30 08:42:39","1f75c3e559b7213887762d5229550c2b","94.10.147.75","Mozilla/5.0 (Windows NT 10.0; Win64; x64) AppleWebKit/537.36 (KHTML, like Gecko) Chrome/138.0.0.0 Safari/537.36 Edg/138.0.0.0","WebKit","Edge","138.0.0.0","Windows","10.0","https://app.prolific.com/","en-GB,en;q=0.9,en-US;q=0.8","6702f60844f21087e0840e3d","6877631c9844ddd5501205fc","6889d9c2e89f5ee146047f38","3","1","6702f60844f21087e0840e3d","3","1","2025-07-30T09:08:32.478Z","","","","","","","","","","","StressQ","","50","","","","","","","","","","","","","","","","","","","","","","","","","","","","",""
"6166","","<div style=""width:500px;"">
  <p>What best describes how you currently feel?</p>
  </div>","79","html-slider-response","28","1557816","0.0-5.0-4.3","263","1","2025-07-30 08:42:39","1f75c3e559b7213887762d5229550c2b","94.10.147.75","Mozilla/5.0 (Windows NT 10.0; Win64; x64) AppleWebKit/537.36 (KHTML, like Gecko) Chrome/138.0.0.0 Safari/537.36 Edg/138.0.0.0","WebKit","Edge","138.0.0.0","Windows","10.0","https://app.prolific.com/","en-GB,en;q=0.9,en-US;q=0.8","6702f60844f21087e0840e3d","6877631c9844ddd5501205fc","6889d9c2e89f5ee146047f38","3","1","6702f60844f21087e0840e3d","3","1","2025-07-30T09:08:38.646Z","","","","","","","","","","","MotivationQ","","50","","","","","","","","","","","","","","","","","","","","","","","","","","","","",""
"","","","","ctl-task-cpt","29","1587609","0.0-5.0-0.4","263","1","2025-07-30 08:42:39","1f75c3e559b7213887762d5229550c2b","94.10.147.75","Mozilla/5.0 (Windows NT 10.0; Win64; x64) AppleWebKit/537.36 (KHTML, like Gecko) Chrome/138.0.0.0 Safari/537.36 Edg/138.0.0.0","WebKit","Edge","138.0.0.0","Windows","10.0","https://app.prolific.com/","en-GB,en;q=0.9,en-US;q=0.8","6702f60844f21087e0840e3d","6877631c9844ddd5501205fc","6889d9c2e89f5ee146047f38","3","1","6702f60844f21087e0840e3d","3","1","2025-07-30T09:09:08.438Z","","","","","","","","","","","","","","win-only","2","g1:SE,g2:NW","0.6","5","0","1559402.3","1854.1","6855","26761.5","1","4","8","6","1","1","1","6","5","0.045454545454545456","5000.9","3000","240","[""down"",""right""]","{""num_key_presses"":6,""num_perfect"":4,""num_errors"":0,""num_randdir"":2,""num_randdir_good_moves"":1,""num_whilered"":0,""num_whileblue"":0,""num_blue"":1,""num_good_moves"":5}","[291.22232142857143,300.12857142857143,0.2,291.22232142857143,300.12857142857143,102.4,291.22232142857143,300.12857142857143,211.2,291.22232142857143,300.12857142857143,311.8,291.22232142857143,300.12857142857143,412,291.22232142857143,300.12857142857143,518,291.22232142857143,300.12857142857143,630,296.22232142857143,340.12857142857143,733,293.22232142857143,381.12857142857143,837,292.22232142857143,382.12857142857143,942.5,292.22232142857143,382.12857142857143,1050.7,292.22232142857143,382.12857142857143,1154.9,292.22232142857143,382.12857142857143,1256.6,292.22232142857143,382.12857142857143,1356.7,292.22232142857143,382.12857142857143,1457.1,292.22232142857143,382.12857142857143,1563,292.22232142857143,382.12857142857143,1668.7,292.22232142857143,382.12857142857143,1772.2,292.22232142857143,382.12857142857143,1876.7,292.22232142857143,382.12857142857143,1977.9,292.22232142857143,382.12857142857143,2084.6,292.22232142857143,382.12857142857143,2184.8,292.22232142857143,382.12857142857143,2288.1,292.22232142857143,382.12857142857143,2391.3,292.22232142857143,382.12857142857143,2504,292.22232142857143,382.12857142857143,2606.8,292.22232142857143,382.12857142857143,2707.8,292.22232142857143,382.12857142857143,2808.1,292.22232142857143,382.12857142857143,2916.9,292.22232142857143,382.12857142857143,3017.6,292.22232142857143,382.12857142857143,3122,292.22232142857143,382.12857142857143,3226.8,292.22232142857143,382.12857142857143,3326.8,292.22232142857143,382.12857142857143,3427.4,292.22232142857143,382.12857142857143,3527.9,292.22232142857143,382.12857142857143,3634.1,292.22232142857143,382.12857142857143,3734.1,292.22232142857143,382.12857142857143,3836.8,292.22232142857143,382.12857142857143,3941.8,292.22232142857143,382.12857142857143,4042,292.22232142857143,382.12857142857143,4143.2,292.22232142857143,382.12857142857143,4250,292.22232142857143,382.12857142857143,4350.5,292.22232142857143,382.12857142857143,4450.7,292.22232142857143,382.12857142857143,4551.7,292.22232142857143,382.12857142857143,4651.7,292.22232142857143,382.12857142857143,4756.7,292.22232142857143,382.12857142857143,4856.8,292.22232142857143,382.12857142857143,4957.8]","[1451.9,1451.9,1000,0,451.9,""smooth"",""right"",""right"",""good_move"",8230.3,6778.1,3126.1,4567.1,537.1,""oops"",""right"",""up"",""bad_move"",11162.4,2931.8,2143.7,8230.6,788.1,""smooth"",""right"",""right"",""good_move"",14703.7,3541,3033,11162.8,508,""smooth"",""down"",""down"",""good_move"",17394.8,2690.7,2231.2,14704.1,459.5,""smooth"",""down"",""down"",""good_move"",19806,2411,2023.5,17395,387.5,""oops"",""down"",""down"",""good_move""]","",""
"4997","","<div style=""width:500px;"">
  <p>What determined the result of this run?</p>
  </div>","55","html-slider-response","30","1592607","0.0-5.0-1.4","263","1","2025-07-30 08:42:39","1f75c3e559b7213887762d5229550c2b","94.10.147.75","Mozilla/5.0 (Windows NT 10.0; Win64; x64) AppleWebKit/537.36 (KHTML, like Gecko) Chrome/138.0.0.0 Safari/537.36 Edg/138.0.0.0","WebKit","Edge","138.0.0.0","Windows","10.0","https://app.prolific.com/","en-GB,en;q=0.9,en-US;q=0.8","6702f60844f21087e0840e3d","6877631c9844ddd5501205fc","6889d9c2e89f5ee146047f38","3","1","6702f60844f21087e0840e3d","3","1","2025-07-30T09:09:13.437Z","","","","","","","","","","","AttribQ","","50","","","","","","","","","","","","","","","","","","","","","","","","","","","","",""
"3963","","<div style=""width:500px;"">
  <p>How much control did you have over the ball?</p>
  </div>","52","html-slider-response","31","1596572","0.0-5.0-2.4","263","1","2025-07-30 08:42:39","1f75c3e559b7213887762d5229550c2b","94.10.147.75","Mozilla/5.0 (Windows NT 10.0; Win64; x64) AppleWebKit/537.36 (KHTML, like Gecko) Chrome/138.0.0.0 Safari/537.36 Edg/138.0.0.0","WebKit","Edge","138.0.0.0","Windows","10.0","https://app.prolific.com/","en-GB,en;q=0.9,en-US;q=0.8","6702f60844f21087e0840e3d","6877631c9844ddd5501205fc","6889d9c2e89f5ee146047f38","3","1","6702f60844f21087e0840e3d","3","1","2025-07-30T09:09:17.401Z","","","","","","","","","","","ControlQ","","50","","","","","","","","","","","","","","","","","","","","","","","","","","","","",""
"3721","","<div style=""width:500px;"">
  <p>How would you describe your current emotional state?</p>
  </div>","40","html-slider-response","32","1600293","0.0-5.0-3.4","263","1","2025-07-30 08:42:39","1f75c3e559b7213887762d5229550c2b","94.10.147.75","Mozilla/5.0 (Windows NT 10.0; Win64; x64) AppleWebKit/537.36 (KHTML, like Gecko) Chrome/138.0.0.0 Safari/537.36 Edg/138.0.0.0","WebKit","Edge","138.0.0.0","Windows","10.0","https://app.prolific.com/","en-GB,en;q=0.9,en-US;q=0.8","6702f60844f21087e0840e3d","6877631c9844ddd5501205fc","6889d9c2e89f5ee146047f38","3","1","6702f60844f21087e0840e3d","3","1","2025-07-30T09:09:21.123Z","","","","","","","","","","","StressQ","","50","","","","","","","","","","","","","","","","","","","","","","","","","","","","",""
"4106","","<div style=""width:500px;"">
  <p>What best describes how you currently feel?</p>
  </div>","61","html-slider-response","33","1604402","0.0-5.0-4.4","263","1","2025-07-30 08:42:39","1f75c3e559b7213887762d5229550c2b","94.10.147.75","Mozilla/5.0 (Windows NT 10.0; Win64; x64) AppleWebKit/537.36 (KHTML, like Gecko) Chrome/138.0.0.0 Safari/537.36 Edg/138.0.0.0","WebKit","Edge","138.0.0.0","Windows","10.0","https://app.prolific.com/","en-GB,en;q=0.9,en-US;q=0.8","6702f60844f21087e0840e3d","6877631c9844ddd5501205fc","6889d9c2e89f5ee146047f38","3","1","6702f60844f21087e0840e3d","3","1","2025-07-30T09:09:25.231Z","","","","","","","","","","","MotivationQ","","50","","","","","","","","","","","","","","","","","","","","","","","","","","","","",""
"","","","","ctl-task-cpt","34","1649768","0.0-5.0-0.5","263","1","2025-07-30 08:42:39","1f75c3e559b7213887762d5229550c2b","94.10.147.75","Mozilla/5.0 (Windows NT 10.0; Win64; x64) AppleWebKit/537.36 (KHTML, like Gecko) Chrome/138.0.0.0 Safari/537.36 Edg/138.0.0.0","WebKit","Edge","138.0.0.0","Windows","10.0","https://app.prolific.com/","en-GB,en;q=0.9,en-US;q=0.8","6702f60844f21087e0840e3d","6877631c9844ddd5501205fc","6889d9c2e89f5ee146047f38","3","1","6702f60844f21087e0840e3d","3","1","2025-07-30T09:10:10.598Z","","","","","","","","","","","","","","win-only","0","g1:NW,g2:SE","0.5","6","0","1605981.5","1723.1","6726.8","42346.5","1","4","4","6","1","-1","-1","5","6","0.03787878787878788","5003.7","3000","-3000","[""left"",""up""]","{""num_key_presses"":6,""num_perfect"":3,""num_errors"":0,""num_randdir"":3,""num_randdir_good_moves"":0,""num_whilered"":0,""num_whileblue"":0,""num_blue"":5,""num_good_moves"":3}","[297.22232142857143,296.12857142857143,0.3,297.22232142857143,296.12857142857143,105.1,297.22232142857143,296.12857142857143,207.2,297.22232142857143,296.12857142857143,308.3,297.22232142857143,296.12857142857143,409,297.22232142857143,296.12857142857143,510.5,297.22232142857143,296.12857142857143,615.1,297.22232142857143,296.12857142857143,716,287.22232142857143,340.12857142857143,825.6,270.22232142857143,361.12857142857143,927.4,268.22232142857143,365.12857142857143,1034.1,268.22232142857143,365.12857142857143,1138,268.22232142857143,365.12857142857143,1243.3,268.22232142857143,365.12857142857143,1343.5,268.22232142857143,365.12857142857143,1443.8,268.22232142857143,365.12857142857143,1544.3,268.22232142857143,365.12857142857143,1655.7,268.22232142857143,365.12857142857143,1760.9,268.22232142857143,365.12857142857143,1862.4,268.22232142857143,365.12857142857143,1963.6,268.22232142857143,365.12857142857143,2068.3,268.22232142857143,365.12857142857143,2168.7,268.22232142857143,365.12857142857143,2269.3,268.22232142857143,365.12857142857143,2387.6,268.22232142857143,365.12857142857143,2489.1,268.22232142857143,365.12857142857143,2595.4,268.22232142857143,365.12857142857143,2696.9,268.22232142857143,365.12857142857143,2796.9,268.22232142857143,365.12857142857143,2897.5,268.22232142857143,365.12857142857143,2998.6,268.22232142857143,365.12857142857143,3103,268.22232142857143,365.12857142857143,3209.2,268.22232142857143,365.12857142857143,3313.7,268.22232142857143,365.12857142857143,3418.6,268.22232142857143,365.12857142857143,3532.4,268.22232142857143,365.12857142857143,3633.7,268.22232142857143,365.12857142857143,3739,268.22232142857143,365.12857142857143,3843.2,268.22232142857143,365.12857142857143,3946,268.22232142857143,365.12857142857143,4048,268.22232142857143,365.12857142857143,4148.4,268.22232142857143,365.12857142857143,4249.1,268.22232142857143,365.12857142857143,4353.2,268.22232142857143,365.12857142857143,4464,268.22232142857143,365.12857142857143,4564.3,268.22232142857143,365.12857142857143,4667.9,268.22232142857143,365.12857142857143,4768.7,268.22232142857143,365.12857142857143,4881.1,268.22232142857143,365.12857142857143,4985.7]","[8835.5,8835.5,2912,5449,474.5,""smooth"",""left"",""left"",""good_move"",11755.2,2919.2,2350.1,8836,569.1,""oops"",""left"",""right"",""bad_move"",14689.1,2933.6,2537.7,11755.5,395.9,""smooth"",""left"",""left"",""good_move"",20926.1,6236.4,2294.3,18205.9,425.9,""oops"",""left"",""right"",""bad_move"",26934.7,6007.9,2224.8,24278.8,431.1,""smooth"",""left"",""left"",""good_move"",29960.8,3025.6,2512.4,26935.2,513.2,""oops"",""left"",""down"",""bad_move""]","",""
"5012","","<div style=""width:500px;"">
  <p>What determined the result of this run?</p>
  </div>","9","html-slider-response","35","1654783","0.0-5.0-1.5","263","1","2025-07-30 08:42:39","1f75c3e559b7213887762d5229550c2b","94.10.147.75","Mozilla/5.0 (Windows NT 10.0; Win64; x64) AppleWebKit/537.36 (KHTML, like Gecko) Chrome/138.0.0.0 Safari/537.36 Edg/138.0.0.0","WebKit","Edge","138.0.0.0","Windows","10.0","https://app.prolific.com/","en-GB,en;q=0.9,en-US;q=0.8","6702f60844f21087e0840e3d","6877631c9844ddd5501205fc","6889d9c2e89f5ee146047f38","3","1","6702f60844f21087e0840e3d","3","1","2025-07-30T09:10:15.612Z","","","","","","","","","","","AttribQ","","50","","","","","","","","","","","","","","","","","","","","","","","","","","","","",""
"3321","","<div style=""width:500px;"">
  <p>How much control did you have over the ball?</p>
  </div>","0","html-slider-response","36","1658108","0.0-5.0-2.5","263","1","2025-07-30 08:42:39","1f75c3e559b7213887762d5229550c2b","94.10.147.75","Mozilla/5.0 (Windows NT 10.0; Win64; x64) AppleWebKit/537.36 (KHTML, like Gecko) Chrome/138.0.0.0 Safari/537.36 Edg/138.0.0.0","WebKit","Edge","138.0.0.0","Windows","10.0","https://app.prolific.com/","en-GB,en;q=0.9,en-US;q=0.8","6702f60844f21087e0840e3d","6877631c9844ddd5501205fc","6889d9c2e89f5ee146047f38","3","1","6702f60844f21087e0840e3d","3","1","2025-07-30T09:10:18.937Z","","","","","","","","","","","ControlQ","","50","","","","","","","","","","","","","","","","","","","","","","","","","","","","",""
"3944","","<div style=""width:500px;"">
  <p>How would you describe your current emotional state?</p>
  </div>","52","html-slider-response","37","1662056","0.0-5.0-3.5","263","1","2025-07-30 08:42:39","1f75c3e559b7213887762d5229550c2b","94.10.147.75","Mozilla/5.0 (Windows NT 10.0; Win64; x64) AppleWebKit/537.36 (KHTML, like Gecko) Chrome/138.0.0.0 Safari/537.36 Edg/138.0.0.0","WebKit","Edge","138.0.0.0","Windows","10.0","https://app.prolific.com/","en-GB,en;q=0.9,en-US;q=0.8","6702f60844f21087e0840e3d","6877631c9844ddd5501205fc","6889d9c2e89f5ee146047f38","3","1","6702f60844f21087e0840e3d","3","1","2025-07-30T09:10:22.885Z","","","","","","","","","","","StressQ","","50","","","","","","","","","","","","","","","","","","","","","","","","","","","","",""
"4184","","<div style=""width:500px;"">
  <p>What best describes how you currently feel?</p>
  </div>","58","html-slider-response","38","1666242","0.0-5.0-4.5","263","1","2025-07-30 08:42:39","1f75c3e559b7213887762d5229550c2b","94.10.147.75","Mozilla/5.0 (Windows NT 10.0; Win64; x64) AppleWebKit/537.36 (KHTML, like Gecko) Chrome/138.0.0.0 Safari/537.36 Edg/138.0.0.0","WebKit","Edge","138.0.0.0","Windows","10.0","https://app.prolific.com/","en-GB,en;q=0.9,en-US;q=0.8","6702f60844f21087e0840e3d","6877631c9844ddd5501205fc","6889d9c2e89f5ee146047f38","3","1","6702f60844f21087e0840e3d","3","1","2025-07-30T09:10:27.071Z","","","","","","","","","","","MotivationQ","","50","","","","","","","","","","","","","","","","","","","","","","","","","","","","",""
"","","","","ctl-task-cpt","39","1702803","0.0-5.0-0.6","263","1","2025-07-30 08:42:39","1f75c3e559b7213887762d5229550c2b","94.10.147.75","Mozilla/5.0 (Windows NT 10.0; Win64; x64) AppleWebKit/537.36 (KHTML, like Gecko) Chrome/138.0.0.0 Safari/537.36 Edg/138.0.0.0","WebKit","Edge","138.0.0.0","Windows","10.0","https://app.prolific.com/","en-GB,en;q=0.9,en-US;q=0.8","6702f60844f21087e0840e3d","6877631c9844ddd5501205fc","6889d9c2e89f5ee146047f38","3","1","6702f60844f21087e0840e3d","3","1","2025-07-30T09:11:03.632Z","","","","","","","","","","","","","","win-only","0","g1:NW,g2:SE","0.4","7","0","1667821.6","1325.8","6326.9","33537.3","1","4","8","6","2","-8","-8","0","5","0","5001","3000","-3000","[""down"",""right""]","{""num_key_presses"":7,""num_perfect"":3,""num_errors"":0,""num_randdir"":4,""num_randdir_good_moves"":1,""num_whilered"":0,""num_whileblue"":0,""num_blue"":1,""num_good_moves"":4}","[300.22232142857143,293.12857142857143,0.7,300.22232142857143,293.12857142857143,101,300.22232142857143,293.12857142857143,206.1,300.22232142857143,293.12857142857143,310.8,300.22232142857143,293.12857142857143,410.8,300.22232142857143,293.12857142857143,511.2,300.22232142857143,293.12857142857143,611.6,300.22232142857143,293.12857142857143,713.7,300.22232142857143,293.12857142857143,819.6,300.22232142857143,293.12857142857143,922.5,300.22232142857143,293.12857142857143,1022.5,300.22232142857143,293.12857142857143,1125.1,300.22232142857143,293.12857142857143,1227.1,300.22232142857143,293.12857142857143,1329.7,300.22232142857143,293.12857142857143,1433.4,300.22232142857143,293.12857142857143,1536.8,300.22232142857143,293.12857142857143,1640,300.22232142857143,293.12857142857143,1753.2,300.22232142857143,293.12857142857143,1858.9,281.22232142857143,330.12857142857143,1961.8,234.22232142857143,397.12857142857143,2064.5,214.22232142857143,417.12857142857143,2167.3,196.22232142857143,430.12857142857143,2272,183.22232142857143,433.12857142857143,2372.4,128.22232142857143,447.12857142857143,2477.2,92.22232142857143,447.12857142857143,2581.3,92.22232142857143,447.12857142857143,2686.1,92.22232142857143,447.12857142857143,2791.4,92.22232142857143,447.12857142857143,2893,92.22232142857143,447.12857142857143,2996.4,92.22232142857143,447.12857142857143,3097.6,92.22232142857143,447.12857142857143,3201.5,92.22232142857143,447.12857142857143,3308.6,92.22232142857143,447.12857142857143,3410.8,92.22232142857143,447.12857142857143,3511,92.22232142857143,447.12857142857143,3611.4,92.22232142857143,447.12857142857143,3715.8,92.22232142857143,447.12857142857143,3818.2,92.22232142857143,447.12857142857143,3941.2,92.22232142857143,447.12857142857143,4042.1,92.22232142857143,447.12857142857143,4146.4,92.22232142857143,447.12857142857143,4250.3,92.22232142857143,447.12857142857143,4360.9,92.22232142857143,447.12857142857143,4465.3,92.22232142857143,447.12857142857143,4565.3,92.22232142857143,447.12857142857143,4665.5,92.22232142857143,447.12857142857143,4765.6,92.22232142857143,447.12857142857143,4867,92.22232142857143,447.12857142857143,4969]","[1468.3,1468.4,1000,0,468.4,""smooth"",""right"",""right"",""good_move"",4688,3218.9,2716.9,1469.2,501.9,""oops"",""right"",""right"",""good_move"",7908.1,3219.7,2815.9,4688.5,403.8,""smooth"",""right"",""right"",""good_move"",11297.7,3389.4,3019,7908.3,370.4,""oops"",""down"",""up"",""bad_move"",18354.2,7055.5,2716.9,15179.9,457.4,""oops"",""down"",""left"",""bad_move"",21706.3,3351.9,2957.4,18354.4,394.5,""oops"",""right"",""up"",""bad_move"",24812.2,3104.7,2638,21707.5,466.7,""smooth"",""down"",""down"",""good_move""]","",""
"4580","","<div style=""width:500px;"">
  <p>What determined the result of this run?</p>
  </div>","19","html-slider-response","40","1707385","0.0-5.0-1.6","263","1","2025-07-30 08:42:39","1f75c3e559b7213887762d5229550c2b","94.10.147.75","Mozilla/5.0 (Windows NT 10.0; Win64; x64) AppleWebKit/537.36 (KHTML, like Gecko) Chrome/138.0.0.0 Safari/537.36 Edg/138.0.0.0","WebKit","Edge","138.0.0.0","Windows","10.0","https://app.prolific.com/","en-GB,en;q=0.9,en-US;q=0.8","6702f60844f21087e0840e3d","6877631c9844ddd5501205fc","6889d9c2e89f5ee146047f38","3","1","6702f60844f21087e0840e3d","3","1","2025-07-30T09:11:08.214Z","","","","","","","","","","","AttribQ","","50","","","","","","","","","","","","","","","","","","","","","","","","","","","","",""
"5121","","<div style=""width:500px;"">
  <p>How much control did you have over the ball?</p>
  </div>","0","html-slider-response","41","1712507","0.0-5.0-2.6","263","1","2025-07-30 08:42:39","1f75c3e559b7213887762d5229550c2b","94.10.147.75","Mozilla/5.0 (Windows NT 10.0; Win64; x64) AppleWebKit/537.36 (KHTML, like Gecko) Chrome/138.0.0.0 Safari/537.36 Edg/138.0.0.0","WebKit","Edge","138.0.0.0","Windows","10.0","https://app.prolific.com/","en-GB,en;q=0.9,en-US;q=0.8","6702f60844f21087e0840e3d","6877631c9844ddd5501205fc","6889d9c2e89f5ee146047f38","3","1","6702f60844f21087e0840e3d","3","1","2025-07-30T09:11:13.337Z","","","","","","","","","","","ControlQ","","50","","","","","","","","","","","","","","","","","","","","","","","","","","","","",""
"16739","","<div style=""width:500px;"">
  <p>How would you describe your current emotional state?</p>
  </div>","39","html-slider-response","42","1729248","0.0-5.0-3.6","263","1","2025-07-30 08:42:39","1f75c3e559b7213887762d5229550c2b","94.10.147.75","Mozilla/5.0 (Windows NT 10.0; Win64; x64) AppleWebKit/537.36 (KHTML, like Gecko) Chrome/138.0.0.0 Safari/537.36 Edg/138.0.0.0","WebKit","Edge","138.0.0.0","Windows","10.0","https://app.prolific.com/","en-GB,en;q=0.9,en-US;q=0.8","6702f60844f21087e0840e3d","6877631c9844ddd5501205fc","6889d9c2e89f5ee146047f38","3","1","6702f60844f21087e0840e3d","3","1","2025-07-30T09:11:30.077Z","","","","","","","","","","","StressQ","","50","","","","","","","","","","","","","","","","","","","","","","","","","","","","",""
"6166","","<div style=""width:500px;"">
  <p>What best describes how you currently feel?</p>
  </div>","56","html-slider-response","43","1735416","0.0-5.0-4.6","263","1","2025-07-30 08:42:39","1f75c3e559b7213887762d5229550c2b","94.10.147.75","Mozilla/5.0 (Windows NT 10.0; Win64; x64) AppleWebKit/537.36 (KHTML, like Gecko) Chrome/138.0.0.0 Safari/537.36 Edg/138.0.0.0","WebKit","Edge","138.0.0.0","Windows","10.0","https://app.prolific.com/","en-GB,en;q=0.9,en-US;q=0.8","6702f60844f21087e0840e3d","6877631c9844ddd5501205fc","6889d9c2e89f5ee146047f38","3","1","6702f60844f21087e0840e3d","3","1","2025-07-30T09:11:36.246Z","","","","","","","","","","","MotivationQ","","50","","","","","","","","","","","","","","","","","","","","","","","","","","","","",""
"","","","","ctl-task-cpt","44","1777512","0.0-5.0-0.7","263","1","2025-07-30 08:42:39","1f75c3e559b7213887762d5229550c2b","94.10.147.75","Mozilla/5.0 (Windows NT 10.0; Win64; x64) AppleWebKit/537.36 (KHTML, like Gecko) Chrome/138.0.0.0 Safari/537.36 Edg/138.0.0.0","WebKit","Edge","138.0.0.0","Windows","10.0","https://app.prolific.com/","en-GB,en;q=0.9,en-US;q=0.8","6702f60844f21087e0840e3d","6877631c9844ddd5501205fc","6889d9c2e89f5ee146047f38","3","1","6702f60844f21087e0840e3d","3","1","2025-07-30T09:12:18.342Z","","","","","","","","","","","","","","win-only","0","g1:NW,g2:SE","0.3","8","0","1737000","1334.4","6339","39071","1","4","4","6","1","-1","-1","0","0","0","5004.5","3000","-2785","[""left"",""up""]","{""num_key_presses"":6,""num_perfect"":1,""num_errors"":0,""num_randdir"":5,""num_randdir_good_moves"":2,""num_whilered"":0,""num_whileblue"":0,""num_blue"":4,""num_good_moves"":3}","[290.22232142857143,290.12857142857143,0.2,290.22232142857143,290.12857142857143,101.7,290.22232142857143,290.12857142857143,204.7,290.22232142857143,290.12857142857143,311.5,290.22232142857143,290.12857142857143,412.6,290.22232142857143,290.12857142857143,517.2,290.22232142857143,290.12857142857143,621.8,290.22232142857143,290.12857142857143,743.2,314.22232142857143,319.12857142857143,848.3,322.22232142857143,325.12857142857143,951.8,322.22232142857143,325.12857142857143,1056.5,322.22232142857143,325.12857142857143,1162.3,322.22232142857143,325.12857142857143,1265.8,322.22232142857143,325.12857142857143,1367.2,322.22232142857143,325.12857142857143,1473.3,322.22232142857143,325.12857142857143,1573.7,322.22232142857143,325.12857142857143,1676.5,322.22232142857143,325.12857142857143,1777.7,322.22232142857143,325.12857142857143,1880.8,322.22232142857143,325.12857142857143,1981.3,322.22232142857143,325.12857142857143,2082,322.22232142857143,325.12857142857143,2189.4,322.22232142857143,325.12857142857143,2291,322.22232142857143,325.12857142857143,2392.1,322.22232142857143,325.12857142857143,2492.4,322.22232142857143,325.12857142857143,2592.8,322.22232142857143,325.12857142857143,2697.6,322.22232142857143,325.12857142857143,2802.2,322.22232142857143,325.12857142857143,2909.6,322.22232142857143,325.12857142857143,3012,322.22232142857143,325.12857142857143,3116.2,322.22232142857143,325.12857142857143,3217.5,322.22232142857143,325.12857142857143,3325.2,322.22232142857143,325.12857142857143,3426.8,322.22232142857143,325.12857142857143,3532.7,322.22232142857143,325.12857142857143,3638.2,322.22232142857143,325.12857142857143,3742.1,322.22232142857143,325.12857142857143,3846.3,322.22232142857143,325.12857142857143,3947.5,322.22232142857143,325.12857142857143,4047.6,322.22232142857143,325.12857142857143,4152.2,322.22232142857143,325.12857142857143,4253,322.22232142857143,325.12857142857143,4355.6,322.22232142857143,325.12857142857143,4456.8,322.22232142857143,325.12857142857143,4566.9,322.22232142857143,325.12857142857143,4672.4,322.22232142857143,325.12857142857143,4776.4,322.22232142857143,325.12857142857143,4876.5,322.22232142857143,325.12857142857143,4983.7]","[1474.3,1474.3,1000,0,474.3,""oops"",""left"",""right"",""bad_move"",4218,2742.8,2280.5,1475.3,462.3,""oops"",""left"",""up"",""good_move"",7306.6,3088,2617.5,4218.6,470.5,""oops"",""left"",""up"",""good_move"",23516.9,16210.1,1732.7,21317.5,466.7,""oops"",""left"",""right"",""bad_move"",26294.1,2776.8,2242.6,23517.3,534.2,""oops"",""left"",""right"",""bad_move"",29590,3295.3,2740.4,26294.7,554.9,""smooth"",""left"",""left"",""good_move""]","",""
"5191","","<div style=""width:500px;"">
  <p>What determined the result of this run?</p>
  </div>","35","html-slider-response","45","1782705","0.0-5.0-1.7","263","1","2025-07-30 08:42:39","1f75c3e559b7213887762d5229550c2b","94.10.147.75","Mozilla/5.0 (Windows NT 10.0; Win64; x64) AppleWebKit/537.36 (KHTML, like Gecko) Chrome/138.0.0.0 Safari/537.36 Edg/138.0.0.0","WebKit","Edge","138.0.0.0","Windows","10.0","https://app.prolific.com/","en-GB,en;q=0.9,en-US;q=0.8","6702f60844f21087e0840e3d","6877631c9844ddd5501205fc","6889d9c2e89f5ee146047f38","3","1","6702f60844f21087e0840e3d","3","1","2025-07-30T09:12:23.534Z","","","","","","","","","","","AttribQ","","50","","","","","","","","","","","","","","","","","","","","","","","","","","","","",""
"3231","","<div style=""width:500px;"">
  <p>How much control did you have over the ball?</p>
  </div>","0","html-slider-response","46","1785938","0.0-5.0-2.7","263","1","2025-07-30 08:42:39","1f75c3e559b7213887762d5229550c2b","94.10.147.75","Mozilla/5.0 (Windows NT 10.0; Win64; x64) AppleWebKit/537.36 (KHTML, like Gecko) Chrome/138.0.0.0 Safari/537.36 Edg/138.0.0.0","WebKit","Edge","138.0.0.0","Windows","10.0","https://app.prolific.com/","en-GB,en;q=0.9,en-US;q=0.8","6702f60844f21087e0840e3d","6877631c9844ddd5501205fc","6889d9c2e89f5ee146047f38","3","1","6702f60844f21087e0840e3d","3","1","2025-07-30T09:12:26.767Z","","","","","","","","","","","ControlQ","","50","","","","","","","","","","","","","","","","","","","","","","","","","","","","",""
"4186","","<div style=""width:500px;"">
  <p>How would you describe your current emotional state?</p>
  </div>","40","html-slider-response","47","1790126","0.0-5.0-3.7","263","1","2025-07-30 08:42:39","1f75c3e559b7213887762d5229550c2b","94.10.147.75","Mozilla/5.0 (Windows NT 10.0; Win64; x64) AppleWebKit/537.36 (KHTML, like Gecko) Chrome/138.0.0.0 Safari/537.36 Edg/138.0.0.0","WebKit","Edge","138.0.0.0","Windows","10.0","https://app.prolific.com/","en-GB,en;q=0.9,en-US;q=0.8","6702f60844f21087e0840e3d","6877631c9844ddd5501205fc","6889d9c2e89f5ee146047f38","3","1","6702f60844f21087e0840e3d","3","1","2025-07-30T09:12:30.956Z","","","","","","","","","","","StressQ","","50","","","","","","","","","","","","","","","","","","","","","","","","","","","","",""
"4471","","<div style=""width:500px;"">
  <p>What best describes how you currently feel?</p>
  </div>","56","html-slider-response","48","1794601","0.0-5.0-4.7","263","1","2025-07-30 08:42:39","1f75c3e559b7213887762d5229550c2b","94.10.147.75","Mozilla/5.0 (Windows NT 10.0; Win64; x64) AppleWebKit/537.36 (KHTML, like Gecko) Chrome/138.0.0.0 Safari/537.36 Edg/138.0.0.0","WebKit","Edge","138.0.0.0","Windows","10.0","https://app.prolific.com/","en-GB,en;q=0.9,en-US;q=0.8","6702f60844f21087e0840e3d","6877631c9844ddd5501205fc","6889d9c2e89f5ee146047f38","3","1","6702f60844f21087e0840e3d","3","1","2025-07-30T09:12:35.431Z","","","","","","","","","","","MotivationQ","","50","","","","","","","","","","","","","","","","","","","","","","","","","","","","",""
"","","","","ctl-task-cpt","49","1824171","0.0-5.0-0.8","263","1","2025-07-30 08:42:39","1f75c3e559b7213887762d5229550c2b","94.10.147.75","Mozilla/5.0 (Windows NT 10.0; Win64; x64) AppleWebKit/537.36 (KHTML, like Gecko) Chrome/138.0.0.0 Safari/537.36 Edg/138.0.0.0","WebKit","Edge","138.0.0.0","Windows","10.0","https://app.prolific.com/","en-GB,en;q=0.9,en-US;q=0.8","6702f60844f21087e0840e3d","6877631c9844ddd5501205fc","6889d9c2e89f5ee146047f38","3","1","6702f60844f21087e0840e3d","3","1","2025-07-30T09:13:05.000Z","","","","","","","","","","","","","","win-only","0","g1:NW,g2:SE","0.2","9","0","1796183.7","1448.6","6452.9","26546.4","1","4","4","6","1","1","1","1","0","0.007575757575757576","5004.3","3000","460","[""left"",""up""]","{""num_key_presses"":6,""num_perfect"":1,""num_errors"":0,""num_randdir"":5,""num_randdir_good_moves"":4,""num_whilered"":0,""num_whileblue"":0,""num_blue"":1,""num_good_moves"":5}","[294.22232142857143,294.12857142857143,0.2,294.22232142857143,294.12857142857143,102.4,294.22232142857143,294.12857142857143,206.8,294.22232142857143,294.12857142857143,307.7,294.22232142857143,294.12857142857143,407.7,294.22232142857143,294.12857142857143,515.6,294.22232142857143,294.12857142857143,617,291.22232142857143,314.12857142857143,717.6,301.22232142857143,351.12857142857143,825.5,295.22232142857143,407.12857142857143,927.7,248.22232142857143,439.12857142857143,1029.2,212.22232142857143,456.12857142857143,1134.2,212.22232142857143,456.12857142857143,1237.5,212.22232142857143,456.12857142857143,1337.6,212.22232142857143,456.12857142857143,1442.2,212.22232142857143,456.12857142857143,1544.8,212.22232142857143,456.12857142857143,1651.6,212.22232142857143,456.12857142857143,1752.6,212.22232142857143,456.12857142857143,1853.1,212.22232142857143,456.12857142857143,1953.5,212.22232142857143,456.12857142857143,2057.1,212.22232142857143,456.12857142857143,2164.4,212.22232142857143,456.12857142857143,2266.1,212.22232142857143,456.12857142857143,2366.8,212.22232142857143,456.12857142857143,2467.6,212.22232142857143,456.12857142857143,2571.9,212.22232142857143,456.12857142857143,2673.4,212.22232142857143,456.12857142857143,2781,212.22232142857143,456.12857142857143,2882.4,212.22232142857143,456.12857142857143,2983.1,212.22232142857143,456.12857142857143,3086.7,212.22232142857143,456.12857142857143,3187.1,212.22232142857143,456.12857142857143,3287.6,212.22232142857143,456.12857142857143,3389.7,212.22232142857143,456.12857142857143,3494.4,212.22232142857143,456.12857142857143,3597.9,212.22232142857143,456.12857142857143,3699.2,212.22232142857143,456.12857142857143,3802.4,212.22232142857143,456.12857142857143,3905.4,212.22232142857143,456.12857142857143,4007.7,212.22232142857143,456.12857142857143,4108.6,212.22232142857143,456.12857142857143,4212.8,212.22232142857143,456.12857142857143,4313.8,212.22232142857143,456.12857142857143,4418.3,212.22232142857143,456.12857142857143,4520.2,212.22232142857143,456.12857142857143,4622.5,212.22232142857143,456.12857142857143,4722.5,212.22232142857143,456.12857142857143,4830.1,212.22232142857143,456.12857142857143,4935.1]","[4763,4763,2315.1,2002.4,445.5,""oops"",""left"",""left"",""good_move"",7394.9,2631,2065.8,4763.9,565.2,""oops"",""left"",""right"",""bad_move"",10162.9,2767.9,2219.7,7395.1,548.2,""oops"",""left"",""up"",""good_move"",13481.9,3318.1,2828.7,10163.8,489.4,""oops"",""left"",""left"",""good_move"",16404.2,2921.9,2501.3,13482.3,420.6,""smooth"",""left"",""left"",""good_move"",19975.2,3570.4,3151.5,16404.8,418.9,""oops"",""up"",""up"",""good_move""]","",""
"6122","","<div style=""width:500px;"">
  <p>What determined the result of this run?</p>
  </div>","54","html-slider-response","50","1830294","0.0-5.0-1.8","263","1","2025-07-30 08:42:39","1f75c3e559b7213887762d5229550c2b","94.10.147.75","Mozilla/5.0 (Windows NT 10.0; Win64; x64) AppleWebKit/537.36 (KHTML, like Gecko) Chrome/138.0.0.0 Safari/537.36 Edg/138.0.0.0","WebKit","Edge","138.0.0.0","Windows","10.0","https://app.prolific.com/","en-GB,en;q=0.9,en-US;q=0.8","6702f60844f21087e0840e3d","6877631c9844ddd5501205fc","6889d9c2e89f5ee146047f38","3","1","6702f60844f21087e0840e3d","3","1","2025-07-30T09:13:11.123Z","","","","","","","","","","","AttribQ","","50","","","","","","","","","","","","","","","","","","","","","","","","","","","","",""
"5498","","<div style=""width:500px;"">
  <p>How much control did you have over the ball?</p>
  </div>","44","html-slider-response","51","1835793","0.0-5.0-2.8","263","1","2025-07-30 08:42:39","1f75c3e559b7213887762d5229550c2b","94.10.147.75","Mozilla/5.0 (Windows NT 10.0; Win64; x64) AppleWebKit/537.36 (KHTML, like Gecko) Chrome/138.0.0.0 Safari/537.36 Edg/138.0.0.0","WebKit","Edge","138.0.0.0","Windows","10.0","https://app.prolific.com/","en-GB,en;q=0.9,en-US;q=0.8","6702f60844f21087e0840e3d","6877631c9844ddd5501205fc","6889d9c2e89f5ee146047f38","3","1","6702f60844f21087e0840e3d","3","1","2025-07-30T09:13:16.622Z","","","","","","","","","","","ControlQ","","50","","","","","","","","","","","","","","","","","","","","","","","","","","","","",""
"19581","","<div style=""width:500px;"">
  <p>How would you describe your current emotional state?</p>
  </div>","42","html-slider-response","52","1855375","0.0-5.0-3.8","263","1","2025-07-30 08:42:39","1f75c3e559b7213887762d5229550c2b","94.10.147.75","Mozilla/5.0 (Windows NT 10.0; Win64; x64) AppleWebKit/537.36 (KHTML, like Gecko) Chrome/138.0.0.0 Safari/537.36 Edg/138.0.0.0","WebKit","Edge","138.0.0.0","Windows","10.0","https://app.prolific.com/","en-GB,en;q=0.9,en-US;q=0.8","6702f60844f21087e0840e3d","6877631c9844ddd5501205fc","6889d9c2e89f5ee146047f38","3","1","6702f60844f21087e0840e3d","3","1","2025-07-30T09:13:36.204Z","","","","","","","","","","","StressQ","","50","","","","","","","","","","","","","","","","","","","","","","","","","","","","",""
"4675","","<div style=""width:500px;"">
  <p>What best describes how you currently feel?</p>
  </div>","54","html-slider-response","53","1860052","0.0-5.0-4.8","263","1","2025-07-30 08:42:39","1f75c3e559b7213887762d5229550c2b","94.10.147.75","Mozilla/5.0 (Windows NT 10.0; Win64; x64) AppleWebKit/537.36 (KHTML, like Gecko) Chrome/138.0.0.0 Safari/537.36 Edg/138.0.0.0","WebKit","Edge","138.0.0.0","Windows","10.0","https://app.prolific.com/","en-GB,en;q=0.9,en-US;q=0.8","6702f60844f21087e0840e3d","6877631c9844ddd5501205fc","6889d9c2e89f5ee146047f38","3","1","6702f60844f21087e0840e3d","3","1","2025-07-30T09:13:40.881Z","","","","","","","","","","","MotivationQ","","50","","","","","","","","","","","","","","","","","","","","","","","","","","","","",""
"","","","","ctl-task-cpt","54","1891903","0.0-5.0-0.9","263","1","2025-07-30 08:42:39","1f75c3e559b7213887762d5229550c2b","94.10.147.75","Mozilla/5.0 (Windows NT 10.0; Win64; x64) AppleWebKit/537.36 (KHTML, like Gecko) Chrome/138.0.0.0 Safari/537.36 Edg/138.0.0.0","WebKit","Edge","138.0.0.0","Windows","10.0","https://app.prolific.com/","en-GB,en;q=0.9,en-US;q=0.8","6702f60844f21087e0840e3d","6877631c9844ddd5501205fc","6889d9c2e89f5ee146047f38","3","1","6702f60844f21087e0840e3d","3","1","2025-07-30T09:14:12.732Z","","","","","","","","","","","","","","win-only","0","g1:NW,g2:SE","0.4","10","0","1861631.3","1893.5","6898","28830.4","1","4","8","6","1","1","1","2","1","0.015151515151515152","5004.5","3000","460","[""left"",""up""]","{""num_key_presses"":6,""num_perfect"":4,""num_errors"":0,""num_randdir"":2,""num_randdir_good_moves"":1,""num_whilered"":0,""num_whileblue"":0,""num_blue"":2,""num_good_moves"":5}","[296.22232142857143,297.12857142857143,0.2,296.22232142857143,297.12857142857143,109.7,296.22232142857143,297.12857142857143,212.2,296.22232142857143,297.12857142857143,312.5,296.22232142857143,297.12857142857143,416.8,296.22232142857143,297.12857142857143,519.9,296.22232142857143,297.12857142857143,627.4,296.22232142857143,297.12857142857143,728.3,296.22232142857143,297.12857142857143,833.8,296.22232142857143,297.12857142857143,939,296.22232142857143,297.12857142857143,1051.2,296.22232142857143,297.12857142857143,1152.9,296.22232142857143,297.12857142857143,1265.2,296.22232142857143,297.12857142857143,1367.4,296.22232142857143,297.12857142857143,1469.5,296.22232142857143,297.12857142857143,1577.9,258.22232142857143,313.12857142857143,1683.4,200.22232142857143,332.12857142857143,1788.1,200.22232142857143,332.12857142857143,1893.4,200.22232142857143,332.12857142857143,1995.3,200.22232142857143,332.12857142857143,2096.2,200.22232142857143,332.12857142857143,2197.2,200.22232142857143,332.12857142857143,2297.3,200.22232142857143,332.12857142857143,2402.5,200.22232142857143,332.12857142857143,2511.5,200.22232142857143,332.12857142857143,2612.2,200.22232142857143,332.12857142857143,2713.1,200.22232142857143,332.12857142857143,2817.1,200.22232142857143,332.12857142857143,2923.6,200.22232142857143,332.12857142857143,3028.3,200.22232142857143,332.12857142857143,3132,200.22232142857143,332.12857142857143,3237.7,200.22232142857143,332.12857142857143,3338.6,200.22232142857143,332.12857142857143,3445.2,200.22232142857143,332.12857142857143,3547,200.22232142857143,332.12857142857143,3648.2,200.22232142857143,332.12857142857143,3751.8,200.22232142857143,332.12857142857143,3853.6,200.22232142857143,332.12857142857143,3962.2,200.22232142857143,332.12857142857143,4063.4,200.22232142857143,332.12857142857143,4167.1,200.22232142857143,332.12857142857143,4267.9,200.22232142857143,332.12857142857143,4377.2,200.22232142857143,332.12857142857143,4477.9,200.22232142857143,332.12857142857143,4583.4,200.22232142857143,332.12857142857143,4684.9,200.22232142857143,332.12857142857143,4789.3,200.22232142857143,332.12857142857143,4894.5,200.22232142857143,332.12857142857143,4995.5]","[1554.4,1554.4,1000,0,554.4,""smooth"",""left"",""left"",""good_move"",3823.2,2268.3,1794.9,1554.9,473.4,""smooth"",""left"",""left"",""good_move"",7235.7,3412.2,2946,3823.5,466.2,""smooth"",""up"",""up"",""good_move"",9527.6,2291.6,1822.2,7236,469.4,""oops"",""up"",""down"",""bad_move"",15598,6069.9,2506,12619.8,472.2,""smooth"",""up"",""up"",""good_move"",21819.3,6220.7,2390.1,18968.5,460.7,""oops"",""up"",""up"",""good_move""]","",""
"9694","","<div style=""width:500px;"">
  <p>What determined the result of this run?</p>
  </div>","47","html-slider-response","55","1901599","0.0-5.0-1.9","263","1","2025-07-30 08:42:39","1f75c3e559b7213887762d5229550c2b","94.10.147.75","Mozilla/5.0 (Windows NT 10.0; Win64; x64) AppleWebKit/537.36 (KHTML, like Gecko) Chrome/138.0.0.0 Safari/537.36 Edg/138.0.0.0","WebKit","Edge","138.0.0.0","Windows","10.0","https://app.prolific.com/","en-GB,en;q=0.9,en-US;q=0.8","6702f60844f21087e0840e3d","6877631c9844ddd5501205fc","6889d9c2e89f5ee146047f38","3","1","6702f60844f21087e0840e3d","3","1","2025-07-30T09:14:22.428Z","","","","","","","","","","","AttribQ","","50","","","","","","","","","","","","","","","","","","","","","","","","","","","","",""
"4580","","<div style=""width:500px;"">
  <p>How much control did you have over the ball?</p>
  </div>","45","html-slider-response","56","1906181","0.0-5.0-2.9","263","1","2025-07-30 08:42:39","1f75c3e559b7213887762d5229550c2b","94.10.147.75","Mozilla/5.0 (Windows NT 10.0; Win64; x64) AppleWebKit/537.36 (KHTML, like Gecko) Chrome/138.0.0.0 Safari/537.36 Edg/138.0.0.0","WebKit","Edge","138.0.0.0","Windows","10.0","https://app.prolific.com/","en-GB,en;q=0.9,en-US;q=0.8","6702f60844f21087e0840e3d","6877631c9844ddd5501205fc","6889d9c2e89f5ee146047f38","3","1","6702f60844f21087e0840e3d","3","1","2025-07-30T09:14:27.010Z","","","","","","","","","","","ControlQ","","50","","","","","","","","","","","","","","","","","","","","","","","","","","","","",""
"3299","","<div style=""width:500px;"">
  <p>How would you describe your current emotional state?</p>
  </div>","46","html-slider-response","57","1909480","0.0-5.0-3.9","263","1","2025-07-30 08:42:39","1f75c3e559b7213887762d5229550c2b","94.10.147.75","Mozilla/5.0 (Windows NT 10.0; Win64; x64) AppleWebKit/537.36 (KHTML, like Gecko) Chrome/138.0.0.0 Safari/537.36 Edg/138.0.0.0","WebKit","Edge","138.0.0.0","Windows","10.0","https://app.prolific.com/","en-GB,en;q=0.9,en-US;q=0.8","6702f60844f21087e0840e3d","6877631c9844ddd5501205fc","6889d9c2e89f5ee146047f38","3","1","6702f60844f21087e0840e3d","3","1","2025-07-30T09:14:30.310Z","","","","","","","","","","","StressQ","","50","","","","","","","","","","","","","","","","","","","","","","","","","","","","",""
"2597","","<div style=""width:500px;"">
  <p>What best describes how you currently feel?</p>
  </div>","54","html-slider-response","58","1912079","0.0-5.0-4.9","263","1","2025-07-30 08:42:39","1f75c3e559b7213887762d5229550c2b","94.10.147.75","Mozilla/5.0 (Windows NT 10.0; Win64; x64) AppleWebKit/537.36 (KHTML, like Gecko) Chrome/138.0.0.0 Safari/537.36 Edg/138.0.0.0","WebKit","Edge","138.0.0.0","Windows","10.0","https://app.prolific.com/","en-GB,en;q=0.9,en-US;q=0.8","6702f60844f21087e0840e3d","6877631c9844ddd5501205fc","6889d9c2e89f5ee146047f38","3","1","6702f60844f21087e0840e3d","3","1","2025-07-30T09:14:32.909Z","","","","","","","","","","","MotivationQ","","50","","","","","","","","","","","","","","","","","","","","","","","","","","","","",""
"","","","","ctl-task-cpt","59","1947725","0.0-5.0-0.10","263","1","2025-07-30 08:42:39","1f75c3e559b7213887762d5229550c2b","94.10.147.75","Mozilla/5.0 (Windows NT 10.0; Win64; x64) AppleWebKit/537.36 (KHTML, like Gecko) Chrome/138.0.0.0 Safari/537.36 Edg/138.0.0.0","WebKit","Edge","138.0.0.0","Windows","10.0","https://app.prolific.com/","en-GB,en;q=0.9,en-US;q=0.8","6702f60844f21087e0840e3d","6877631c9844ddd5501205fc","6889d9c2e89f5ee146047f38","3","1","6702f60844f21087e0840e3d","3","1","2025-07-30T09:15:08.554Z","","","","","","","","","","","","","","win-only","0","g1:NW,g2:SE","0.5","11","0","1913658.3","1385.4","6386.1","32629.9","1","4","8","6","2","8","8","10","2","0.07575757575757576","5000.7","3000","145","[""down"",""right""]","{""num_key_presses"":8,""num_perfect"":4,""num_errors"":0,""num_randdir"":4,""num_randdir_good_moves"":3,""num_whilered"":0,""num_whileblue"":0,""num_blue"":1,""num_good_moves"":7}","[291.22232142857143,299.12857142857143,0.2,291.22232142857143,299.12857142857143,100.1,291.22232142857143,299.12857142857143,205.2,291.22232142857143,299.12857142857143,312.3,291.22232142857143,299.12857142857143,415.3,296.22232142857143,307.12857142857143,518,334.22232142857143,380.12857142857143,620.9,355.22232142857143,420.12857142857143,727.5,357.22232142857143,422.12857142857143,830,357.22232142857143,422.12857142857143,932,357.22232142857143,422.12857142857143,1037.7,357.22232142857143,422.12857142857143,1141.3,357.22232142857143,422.12857142857143,1241.8,357.22232142857143,422.12857142857143,1346.5,357.22232142857143,422.12857142857143,1453.9,357.22232142857143,422.12857142857143,1556.1,357.22232142857143,422.12857142857143,1656.4,357.22232142857143,422.12857142857143,1764.1,357.22232142857143,422.12857142857143,1865.7,357.22232142857143,422.12857142857143,1967.9,357.22232142857143,422.12857142857143,2071.6,357.22232142857143,422.12857142857143,2175.3,357.22232142857143,422.12857142857143,2275.3,357.22232142857143,422.12857142857143,2383.7,357.22232142857143,422.12857142857143,2487.2,357.22232142857143,422.12857142857143,2592.8,357.22232142857143,422.12857142857143,2700.3,357.22232142857143,422.12857142857143,2802.5,357.22232142857143,422.12857142857143,2905.3,357.22232142857143,422.12857142857143,3006.1,357.22232142857143,422.12857142857143,3112.7,357.22232142857143,422.12857142857143,3219.5,357.22232142857143,422.12857142857143,3322.1,357.22232142857143,422.12857142857143,3431.5,357.22232142857143,422.12857142857143,3535.8,357.22232142857143,422.12857142857143,3639.7,357.22232142857143,422.12857142857143,3741,357.22232142857143,422.12857142857143,3841.3,357.22232142857143,422.12857142857143,3942.4,357.22232142857143,422.12857142857143,4042.6,357.22232142857143,422.12857142857143,4146.6,357.22232142857143,422.12857142857143,4246.6,357.22232142857143,422.12857142857143,4348.5,357.22232142857143,422.12857142857143,4450.1,357.22232142857143,422.12857142857143,4550.5,357.22232142857143,422.12857142857143,4656,357.22232142857143,422.12857142857143,4767.6,357.22232142857143,422.12857142857143,4871.9,357.22232142857143,422.12857142857143,4977.6]","[1404.9,1404.9,1000,0,404.9,""smooth"",""right"",""right"",""good_move"",4722.4,3315.7,2892.1,1406.7,423.6,""smooth"",""right"",""right"",""good_move"",7988.5,3265.4,2844.6,4723.1,420.8,""oops"",""right"",""down"",""good_move"",10750.3,2756.4,2352.7,7994,403.6,""oops"",""right"",""right"",""good_move"",13964.1,3213,2839.8,10751.1,373.2,""oops"",""down"",""up"",""bad_move"",17177.6,3213.1,2782.2,13964.5,430.9,""oops"",""down"",""down"",""good_move"",23396.2,6218.1,2345.5,20585.9,464.8,""smooth"",""down"",""down"",""good_move"",26132.4,2735.9,2301.4,23396.5,434.5,""smooth"",""down"",""down"",""good_move""]","",""
"5362","","<div style=""width:500px;"">
  <p>What determined the result of this run?</p>
  </div>","44","html-slider-response","60","1953088","0.0-5.0-1.10","263","1","2025-07-30 08:42:39","1f75c3e559b7213887762d5229550c2b","94.10.147.75","Mozilla/5.0 (Windows NT 10.0; Win64; x64) AppleWebKit/537.36 (KHTML, like Gecko) Chrome/138.0.0.0 Safari/537.36 Edg/138.0.0.0","WebKit","Edge","138.0.0.0","Windows","10.0","https://app.prolific.com/","en-GB,en;q=0.9,en-US;q=0.8","6702f60844f21087e0840e3d","6877631c9844ddd5501205fc","6889d9c2e89f5ee146047f38","3","1","6702f60844f21087e0840e3d","3","1","2025-07-30T09:15:13.917Z","","","","","","","","","","","AttribQ","","50","","","","","","","","","","","","","","","","","","","","","","","","","","","","",""
"2910","","<div style=""width:500px;"">
  <p>How much control did you have over the ball?</p>
  </div>","41","html-slider-response","61","1956001","0.0-5.0-2.10","263","1","2025-07-30 08:42:39","1f75c3e559b7213887762d5229550c2b","94.10.147.75","Mozilla/5.0 (Windows NT 10.0; Win64; x64) AppleWebKit/537.36 (KHTML, like Gecko) Chrome/138.0.0.0 Safari/537.36 Edg/138.0.0.0","WebKit","Edge","138.0.0.0","Windows","10.0","https://app.prolific.com/","en-GB,en;q=0.9,en-US;q=0.8","6702f60844f21087e0840e3d","6877631c9844ddd5501205fc","6889d9c2e89f5ee146047f38","3","1","6702f60844f21087e0840e3d","3","1","2025-07-30T09:15:16.830Z","","","","","","","","","","","ControlQ","","50","","","","","","","","","","","","","","","","","","","","","","","","","","","","",""
"3057","","<div style=""width:500px;"">
  <p>How would you describe your current emotional state?</p>
  </div>","45","html-slider-response","62","1959063","0.0-5.0-3.10","263","1","2025-07-30 08:42:39","1f75c3e559b7213887762d5229550c2b","94.10.147.75","Mozilla/5.0 (Windows NT 10.0; Win64; x64) AppleWebKit/537.36 (KHTML, like Gecko) Chrome/138.0.0.0 Safari/537.36 Edg/138.0.0.0","WebKit","Edge","138.0.0.0","Windows","10.0","https://app.prolific.com/","en-GB,en;q=0.9,en-US;q=0.8","6702f60844f21087e0840e3d","6877631c9844ddd5501205fc","6889d9c2e89f5ee146047f38","3","1","6702f60844f21087e0840e3d","3","1","2025-07-30T09:15:19.892Z","","","","","","","","","","","StressQ","","50","","","","","","","","","","","","","","","","","","","","","","","","","","","","",""
"2575","","<div style=""width:500px;"">
  <p>What best describes how you currently feel?</p>
  </div>","54","html-slider-response","63","1961640","0.0-5.0-4.10","263","1","2025-07-30 08:42:39","1f75c3e559b7213887762d5229550c2b","94.10.147.75","Mozilla/5.0 (Windows NT 10.0; Win64; x64) AppleWebKit/537.36 (KHTML, like Gecko) Chrome/138.0.0.0 Safari/537.36 Edg/138.0.0.0","WebKit","Edge","138.0.0.0","Windows","10.0","https://app.prolific.com/","en-GB,en;q=0.9,en-US;q=0.8","6702f60844f21087e0840e3d","6877631c9844ddd5501205fc","6889d9c2e89f5ee146047f38","3","1","6702f60844f21087e0840e3d","3","1","2025-07-30T09:15:22.469Z","","","","","","","","","","","MotivationQ","","50","","","","","","","","","","","","","","","","","","","","","","","","","","","","",""
"","","","","ctl-task-cpt","64","2000863","0.0-5.0-0.11","263","1","2025-07-30 08:42:39","1f75c3e559b7213887762d5229550c2b","94.10.147.75","Mozilla/5.0 (Windows NT 10.0; Win64; x64) AppleWebKit/537.36 (KHTML, like Gecko) Chrome/138.0.0.0 Safari/537.36 Edg/138.0.0.0","WebKit","Edge","138.0.0.0","Windows","10.0","https://app.prolific.com/","en-GB,en;q=0.9,en-US;q=0.8","6702f60844f21087e0840e3d","6877631c9844ddd5501205fc","6889d9c2e89f5ee146047f38","3","1","6702f60844f21087e0840e3d","3","1","2025-07-30T09:16:01.692Z","","","","","","","","","","","","","","win-only","2","g1:SE,g2:NW","0.6","12","0","1963223.9","992.3","5993.7","36197","1","4","4","6","2","-4","-4","6","10","0.045454545454545456","5001.4","3000","-2685","[""left"",""up""]","{""num_key_presses"":9,""num_perfect"":6,""num_errors"":0,""num_randdir"":3,""num_randdir_good_moves"":1,""num_whilered"":0,""num_whileblue"":0,""num_blue"":1,""num_good_moves"":7}","[293.22232142857143,295.12857142857143,0.3,293.22232142857143,295.12857142857143,100.1,293.22232142857143,295.12857142857143,201.2,293.22232142857143,295.12857142857143,303.9,283.22232142857143,304.12857142857143,404.2,173.22232142857143,407.12857142857143,519.8,126.22232142857143,439.12857142857143,624.5,-0.7776785714285737,458.12857142857143,735.5,-95.77767857142857,468.12857142857143,836,-111.77767857142857,463.12857142857143,938.4,-111.77767857142857,463.12857142857143,1046,-111.77767857142857,463.12857142857143,1150.3,-111.77767857142857,463.12857142857143,1255.1,-111.77767857142857,463.12857142857143,1359.3,-111.77767857142857,463.12857142857143,1466.8,-111.77767857142857,463.12857142857143,1569.5,-111.77767857142857,463.12857142857143,1670.3,-111.77767857142857,463.12857142857143,1773.3,-111.77767857142857,463.12857142857143,1873.7,-111.77767857142857,463.12857142857143,1986.6,-111.77767857142857,463.12857142857143,2087.1,-111.77767857142857,463.12857142857143,2190.7,-111.77767857142857,463.12857142857143,2295.9,-111.77767857142857,463.12857142857143,2399.5,-111.77767857142857,463.12857142857143,2503.1,-111.77767857142857,463.12857142857143,2606.9,-111.77767857142857,463.12857142857143,2709,-111.77767857142857,463.12857142857143,2817.8,-111.77767857142857,463.12857142857143,2919.4,-111.77767857142857,463.12857142857143,3024.4,-111.77767857142857,463.12857142857143,3130.1,-111.77767857142857,463.12857142857143,3234.9,-111.77767857142857,463.12857142857143,3334.9,-111.77767857142857,463.12857142857143,3439.2,-111.77767857142857,463.12857142857143,3539.7,-111.77767857142857,463.12857142857143,3641.9,-111.77767857142857,463.12857142857143,3747.1,-111.77767857142857,463.12857142857143,3848.4,-111.77767857142857,463.12857142857143,3952.6,-111.77767857142857,463.12857142857143,4053.8,-111.77767857142857,463.12857142857143,4165.9,-111.77767857142857,463.12857142857143,4275.3,-111.77767857142857,463.12857142857143,4375.5,-111.77767857142857,463.12857142857143,4482.7,-111.77767857142857,463.12857142857143,4593.9,-111.77767857142857,463.12857142857143,4700.9,-111.77767857142857,463.12857142857143,4801.2,-111.77767857142857,463.12857142857143,4902.3]","[1379.7,1379.7,1000,0,379.7,""smooth"",""left"",""left"",""good_move"",4314.3,2933.6,2586.9,1380.7,346.7,""smooth"",""left"",""left"",""good_move"",10750.9,6436.5,2806.3,7482.7,461.9,""oops"",""left"",""right"",""bad_move"",13118.6,2367.4,1937.5,10751.2,429.9,""oops"",""left"",""up"",""good_move"",16084.1,2964.9,2564.2,13119.2,400.7,""oops"",""left"",""down"",""bad_move"",19557.7,3473.2,3096.8,16084.5,376.4,""smooth"",""left"",""left"",""good_move"",22236.4,2677.8,2327.8,19558.6,350,""smooth"",""left"",""left"",""good_move"",24914.8,2677.6,2277.7,22237.2,399.9,""smooth"",""up"",""up"",""good_move"",27379.1,2463.7,1981.8,24915.4,481.9,""smooth"",""up"",""up"",""good_move""]","",""
"5661","","<div style=""width:500px;"">
  <p>What determined the result of this run?</p>
  </div>","23","html-slider-response","65","2006526","0.0-5.0-1.11","263","1","2025-07-30 08:42:39","1f75c3e559b7213887762d5229550c2b","94.10.147.75","Mozilla/5.0 (Windows NT 10.0; Win64; x64) AppleWebKit/537.36 (KHTML, like Gecko) Chrome/138.0.0.0 Safari/537.36 Edg/138.0.0.0","WebKit","Edge","138.0.0.0","Windows","10.0","https://app.prolific.com/","en-GB,en;q=0.9,en-US;q=0.8","6702f60844f21087e0840e3d","6877631c9844ddd5501205fc","6889d9c2e89f5ee146047f38","3","1","6702f60844f21087e0840e3d","3","1","2025-07-30T09:16:07.355Z","","","","","","","","","","","AttribQ","","50","","","","","","","","","","","","","","","","","","","","","","","","","","","","",""
"5599","","<div style=""width:500px;"">
  <p>How much control did you have over the ball?</p>
  </div>","5","html-slider-response","66","2012127","0.0-5.0-2.11","263","1","2025-07-30 08:42:39","1f75c3e559b7213887762d5229550c2b","94.10.147.75","Mozilla/5.0 (Windows NT 10.0; Win64; x64) AppleWebKit/537.36 (KHTML, like Gecko) Chrome/138.0.0.0 Safari/537.36 Edg/138.0.0.0","WebKit","Edge","138.0.0.0","Windows","10.0","https://app.prolific.com/","en-GB,en;q=0.9,en-US;q=0.8","6702f60844f21087e0840e3d","6877631c9844ddd5501205fc","6889d9c2e89f5ee146047f38","3","1","6702f60844f21087e0840e3d","3","1","2025-07-30T09:16:12.956Z","","","","","","","","","","","ControlQ","","50","","","","","","","","","","","","","","","","","","","","","","","","","","","","",""
"3598","","<div style=""width:500px;"">
  <p>How would you describe your current emotional state?</p>
  </div>","45","html-slider-response","67","2015726","0.0-5.0-3.11","263","1","2025-07-30 08:42:39","1f75c3e559b7213887762d5229550c2b","94.10.147.75","Mozilla/5.0 (Windows NT 10.0; Win64; x64) AppleWebKit/537.36 (KHTML, like Gecko) Chrome/138.0.0.0 Safari/537.36 Edg/138.0.0.0","WebKit","Edge","138.0.0.0","Windows","10.0","https://app.prolific.com/","en-GB,en;q=0.9,en-US;q=0.8","6702f60844f21087e0840e3d","6877631c9844ddd5501205fc","6889d9c2e89f5ee146047f38","3","1","6702f60844f21087e0840e3d","3","1","2025-07-30T09:16:16.555Z","","","","","","","","","","","StressQ","","50","","","","","","","","","","","","","","","","","","","","","","","","","","","","",""
"3979","","<div style=""width:500px;"">
  <p>What best describes how you currently feel?</p>
  </div>","55","html-slider-response","68","2019706","0.0-5.0-4.11","263","1","2025-07-30 08:42:39","1f75c3e559b7213887762d5229550c2b","94.10.147.75","Mozilla/5.0 (Windows NT 10.0; Win64; x64) AppleWebKit/537.36 (KHTML, like Gecko) Chrome/138.0.0.0 Safari/537.36 Edg/138.0.0.0","WebKit","Edge","138.0.0.0","Windows","10.0","https://app.prolific.com/","en-GB,en;q=0.9,en-US;q=0.8","6702f60844f21087e0840e3d","6877631c9844ddd5501205fc","6889d9c2e89f5ee146047f38","3","1","6702f60844f21087e0840e3d","3","1","2025-07-30T09:16:20.536Z","","","","","","","","","","","MotivationQ","","50","","","","","","","","","","","","","","","","","","","","","","","","","","","","",""
"","","","","ctl-task-cpt","69","2046120","0.0-5.0-0.12","263","1","2025-07-30 08:42:39","1f75c3e559b7213887762d5229550c2b","94.10.147.75","Mozilla/5.0 (Windows NT 10.0; Win64; x64) AppleWebKit/537.36 (KHTML, like Gecko) Chrome/138.0.0.0 Safari/537.36 Edg/138.0.0.0","WebKit","Edge","138.0.0.0","Windows","10.0","https://app.prolific.com/","en-GB,en;q=0.9,en-US;q=0.8","6702f60844f21087e0840e3d","6877631c9844ddd5501205fc","6889d9c2e89f5ee146047f38","3","1","6702f60844f21087e0840e3d","3","1","2025-07-30T09:16:46.949Z","","","","","","","","","","","","","","win-only","1","g1:NE,g2:SW","0.7","13","0","2021284.8","1339.4","6341.3","23392.8","1","4","8","6","1","1","0","6","6","0.045454545454545456","5001.9","3000","1470","[""up"",""right""]","{""num_key_presses"":5,""num_perfect"":4,""num_errors"":1,""num_randdir"":0,""num_randdir_good_moves"":0,""num_whilered"":0,""num_whileblue"":0,""num_blue"":1,""num_good_moves"":4}","[297.22232142857143,299.12857142857143,0.2,297.22232142857143,299.12857142857143,103.1,297.22232142857143,299.12857142857143,206.1,297.22232142857143,299.12857142857143,310.7,297.22232142857143,299.12857142857143,414.3,297.22232142857143,299.12857142857143,517.7,285.22232142857143,341.12857142857143,619.9,240.22232142857143,428.12857142857143,720.8,216.22232142857143,461.12857142857143,821.5,200.22232142857143,482.12857142857143,930.9,180.22232142857143,505.12857142857143,1033.2,56.222321428571426,515.1285714285714,1137.2,-197.77767857142857,491.12857142857143,1237.2,-219.77767857142857,499.12857142857143,1337.8,-219.77767857142857,499.12857142857143,1443.8,-219.77767857142857,499.12857142857143,1544.7,-219.77767857142857,499.12857142857143,1648.8,-219.77767857142857,499.12857142857143,1749.2,-219.77767857142857,499.12857142857143,1850.1,-219.77767857142857,499.12857142857143,1950.5,-219.77767857142857,499.12857142857143,2052.2,-219.77767857142857,499.12857142857143,2161.5,-219.77767857142857,499.12857142857143,2262.6,-219.77767857142857,499.12857142857143,2363.2,-219.77767857142857,499.12857142857143,2469.4,-219.77767857142857,499.12857142857143,2571.6,-219.77767857142857,499.12857142857143,2672.7,-219.77767857142857,499.12857142857143,2779.3,-219.77767857142857,499.12857142857143,2883.1,-219.77767857142857,499.12857142857143,2983.6,-219.77767857142857,499.12857142857143,3085.4,-219.77767857142857,499.12857142857143,3186.9,-219.77767857142857,499.12857142857143,3292.7,-219.77767857142857,499.12857142857143,3396.4,-219.77767857142857,499.12857142857143,3501.4,-219.77767857142857,499.12857142857143,3604.8,-219.77767857142857,499.12857142857143,3706.8,-219.77767857142857,499.12857142857143,3810.8,-219.77767857142857,499.12857142857143,3918.1,-219.77767857142857,499.12857142857143,4021.3,-219.77767857142857,499.12857142857143,4122.4,-219.77767857142857,499.12857142857143,4223.9,-219.77767857142857,499.12857142857143,4328.2,-219.77767857142857,499.12857142857143,4429,-219.77767857142857,499.12857142857143,4544,-219.77767857142857,499.12857142857143,4647.1,-219.77767857142857,499.12857142857143,4748.8,-219.77767857142857,499.12857142857143,4849,-219.77767857142857,499.12857142857143,4949.3]","[714.4,714.4,1000,0,-285.6,""error"",""-"",""-"",""no_move"",4735.9,4021.3,2630.7,1719.3,385.9,""smooth"",""right"",""right"",""good_move"",7992.1,3255.5,2845.9,4736.6,409.6,""smooth"",""right"",""right"",""good_move"",14524.7,6531.7,2629.1,11414.2,481.4,""smooth"",""up"",""up"",""good_move"",16929.2,2403.5,1911,14525.7,492.5,""smooth"",""up"",""up"",""good_move""]","",""
"4412","","<div style=""width:500px;"">
  <p>What determined the result of this run?</p>
  </div>","82","html-slider-response","70","2050533","0.0-5.0-1.12","263","1","2025-07-30 08:42:39","1f75c3e559b7213887762d5229550c2b","94.10.147.75","Mozilla/5.0 (Windows NT 10.0; Win64; x64) AppleWebKit/537.36 (KHTML, like Gecko) Chrome/138.0.0.0 Safari/537.36 Edg/138.0.0.0","WebKit","Edge","138.0.0.0","Windows","10.0","https://app.prolific.com/","en-GB,en;q=0.9,en-US;q=0.8","6702f60844f21087e0840e3d","6877631c9844ddd5501205fc","6889d9c2e89f5ee146047f38","3","1","6702f60844f21087e0840e3d","3","1","2025-07-30T09:16:51.362Z","","","","","","","","","","","AttribQ","","50","","","","","","","","","","","","","","","","","","","","","","","","","","","","",""
"2920","","<div style=""width:500px;"">
  <p>How much control did you have over the ball?</p>
  </div>","88","html-slider-response","71","2053455","0.0-5.0-2.12","263","1","2025-07-30 08:42:39","1f75c3e559b7213887762d5229550c2b","94.10.147.75","Mozilla/5.0 (Windows NT 10.0; Win64; x64) AppleWebKit/537.36 (KHTML, like Gecko) Chrome/138.0.0.0 Safari/537.36 Edg/138.0.0.0","WebKit","Edge","138.0.0.0","Windows","10.0","https://app.prolific.com/","en-GB,en;q=0.9,en-US;q=0.8","6702f60844f21087e0840e3d","6877631c9844ddd5501205fc","6889d9c2e89f5ee146047f38","3","1","6702f60844f21087e0840e3d","3","1","2025-07-30T09:16:54.284Z","","","","","","","","","","","ControlQ","","50","","","","","","","","","","","","","","","","","","","","","","","","","","","","",""
"2755","","<div style=""width:500px;"">
  <p>How would you describe your current emotional state?</p>
  </div>","45","html-slider-response","72","2056211","0.0-5.0-3.12","263","1","2025-07-30 08:42:39","1f75c3e559b7213887762d5229550c2b","94.10.147.75","Mozilla/5.0 (Windows NT 10.0; Win64; x64) AppleWebKit/537.36 (KHTML, like Gecko) Chrome/138.0.0.0 Safari/537.36 Edg/138.0.0.0","WebKit","Edge","138.0.0.0","Windows","10.0","https://app.prolific.com/","en-GB,en;q=0.9,en-US;q=0.8","6702f60844f21087e0840e3d","6877631c9844ddd5501205fc","6889d9c2e89f5ee146047f38","3","1","6702f60844f21087e0840e3d","3","1","2025-07-30T09:16:57.040Z","","","","","","","","","","","StressQ","","50","","","","","","","","","","","","","","","","","","","","","","","","","","","","",""
"2623","","<div style=""width:500px;"">
  <p>What best describes how you currently feel?</p>
  </div>","59","html-slider-response","73","2058834","0.0-5.0-4.12","263","1","2025-07-30 08:42:39","1f75c3e559b7213887762d5229550c2b","94.10.147.75","Mozilla/5.0 (Windows NT 10.0; Win64; x64) AppleWebKit/537.36 (KHTML, like Gecko) Chrome/138.0.0.0 Safari/537.36 Edg/138.0.0.0","WebKit","Edge","138.0.0.0","Windows","10.0","https://app.prolific.com/","en-GB,en;q=0.9,en-US;q=0.8","6702f60844f21087e0840e3d","6877631c9844ddd5501205fc","6889d9c2e89f5ee146047f38","3","1","6702f60844f21087e0840e3d","3","1","2025-07-30T09:16:59.663Z","","","","","","","","","","","MotivationQ","","50","","","","","","","","","","","","","","","","","","","","","","","","","","","","",""
"","","","","ctl-task-cpt","74","2098170","0.0-5.0-0.13","263","1","2025-07-30 08:42:39","1f75c3e559b7213887762d5229550c2b","94.10.147.75","Mozilla/5.0 (Windows NT 10.0; Win64; x64) AppleWebKit/537.36 (KHTML, like Gecko) Chrome/138.0.0.0 Safari/537.36 Edg/138.0.0.0","WebKit","Edge","138.0.0.0","Windows","10.0","https://app.prolific.com/","en-GB,en;q=0.9,en-US;q=0.8","6702f60844f21087e0840e3d","6877631c9844ddd5501205fc","6889d9c2e89f5ee146047f38","3","1","6702f60844f21087e0840e3d","3","1","2025-07-30T09:17:38.999Z","","","","","","","","","","","","","","win-only","2","g1:SE,g2:NW","0.8","14","0","2060412.4","1199.5","6200.6","36315.8","1","4","4","6","2","4","4","10","6","0.07575757575757576","5001.1","3000","270","[""left"",""up""]","{""num_key_presses"":8,""num_perfect"":7,""num_errors"":0,""num_randdir"":1,""num_randdir_good_moves"":0,""num_whilered"":0,""num_whileblue"":0,""num_blue"":2,""num_good_moves"":7}","[293.22232142857143,299.12857142857143,0.2,293.22232142857143,299.12857142857143,101.3,293.22232142857143,299.12857142857143,209,293.22232142857143,299.12857142857143,311.1,293.22232142857143,299.12857142857143,411.2,463.22232142857143,311.12857142857143,511.2,538.2223214285714,333.12857142857143,621.2,547.2223214285714,342.12857142857143,727.1,547.2223214285714,342.12857142857143,827.9,547.2223214285714,342.12857142857143,939.1,600.2223214285714,332.12857142857143,1041.5,812.2223214285714,307.12857142857143,1147.9,809.2223214285714,309.12857142857143,1249,809.2223214285714,309.12857142857143,1351.2,809.2223214285714,309.12857142857143,1456.3,809.2223214285714,309.12857142857143,1557.8,809.2223214285714,309.12857142857143,1663.5,809.2223214285714,309.12857142857143,1767.3,809.2223214285714,309.12857142857143,1867.6,809.2223214285714,309.12857142857143,1970,809.2223214285714,309.12857142857143,2073.7,809.2223214285714,309.12857142857143,2178.4,809.2223214285714,309.12857142857143,2278.6,809.2223214285714,309.12857142857143,2386.5,809.2223214285714,309.12857142857143,2486.6,809.2223214285714,309.12857142857143,2587.9,809.2223214285714,309.12857142857143,2690.5,809.2223214285714,309.12857142857143,2791.7,809.2223214285714,309.12857142857143,2893.3,809.2223214285714,309.12857142857143,2996.8,809.2223214285714,309.12857142857143,3104.3,809.2223214285714,309.12857142857143,3204.9,809.2223214285714,309.12857142857143,3305,809.2223214285714,309.12857142857143,3411.3,809.2223214285714,309.12857142857143,3519.1,809.2223214285714,309.12857142857143,3620.9,809.2223214285714,309.12857142857143,3720.9,809.2223214285714,309.12857142857143,3822.9,809.2223214285714,309.12857142857143,3927.7,809.2223214285714,309.12857142857143,4030,809.2223214285714,309.12857142857143,4135.5,809.2223214285714,309.12857142857143,4240.6,809.2223214285714,309.12857142857143,4342.4,809.2223214285714,309.12857142857143,4448.8,809.2223214285714,309.12857142857143,4554.5,809.2223214285714,309.12857142857143,4657.2,809.2223214285714,309.12857142857143,4762.9,809.2223214285714,309.12857142857143,4865,809.2223214285714,309.12857142857143,4967.7]","[1424.1,1424.1,1000,0,424.1,""smooth"",""left"",""left"",""good_move"",4575.8,3151.3,2697.7,1424.5,453.6,""oops"",""left"",""right"",""bad_move"",7365.8,2789.6,2405.1,4576.2,384.6,""smooth"",""left"",""left"",""good_move"",10426.1,3059.6,2681.2,7366.5,378.4,""smooth"",""left"",""left"",""good_move"",13244,2817.3,2425.5,10426.7,391.9,""smooth"",""left"",""left"",""good_move"",23346,10101.5,2792.8,20084.3,468.9,""smooth"",""up"",""up"",""good_move"",26359.4,3012.9,2563.9,23346.5,449,""smooth"",""up"",""up"",""good_move"",30012.6,3652.8,3242.8,26359.8,410,""smooth"",""up"",""up"",""good_move""]","",""
"4872","","<div style=""width:500px;"">
  <p>What determined the result of this run?</p>
