"rt","response_timestamp","stimulus","response","trial_type","trial_index","time_elapsed","internal_node_id","run_id","condition","recorded_at","source_code_version","ip","user_agent","device","browser","browser_version","platform","platform_version","referer","accept_language","PROLIFIC_PID","STUDY_ID","SESSION_ID","WEEK","BATCH","prolific_id","week","batch","realtime","success","responses","item_order","radio_event_ids","radio_event_times","key_event_times","mouse_event_times","straightlining","zigzagging","honeypot","eventType","view_history","slider_start","which_type","canvas_config","goals_layout","control_level","trial_number","tutorial_trial_number","trial_start_time","phase1_start_time","phase2_start_time","phase3_start_time","goal_1_value","goal_1_distance","goal_2_value","goal_2_distance","goal_selected","outcome","outcome_total","participant_final_score","participant_initial_score","participant_final_score_prop","goal_choice_rt","allocated_time","allocated_time_remaining","goal_direction","counts","mouse_movements","key_presses","question_order","question_id"
"12223","1753997757582","<p style='font-size:40px;line-height:1.25'><strong>Welcome to the experiment!</strong></p><p style='font-size:1.1em;line-height:1.25'>Thank you for participanting in our experiment again! You will be asked to play the Dysfunctional Ball Game again. We will briefly recap the rules before we start.</p><p style='font-size:1.1em;line-height:1.25'>Press <strong>Next</strong> to continue.</p>","0","custom-html-button-response","0","12225","0.0-0.0","308","1","2025-07-31 21:35:35","1f75c3e559b7213887762d5229550c2b","51.19.161.91","Mozilla/5.0 (Windows NT 10.0; Win64; x64) AppleWebKit/537.36 (KHTML, like Gecko) Chrome/138.0.0.0 Safari/537.36","WebKit","Chrome","138.0.0.0","Windows","10.0","https://app.prolific.com/","en-GB,en-US;q=0.9,en;q=0.8","59dd90f6e75b450001a68dac","6877631c9844ddd5501205fc","688be16abdd31e42339eba58","3","1","59dd90f6e75b450001a68dac","3","1","2025-07-31T21:35:57.583Z","","","","","","","","","","","","","","","","","","","","","","","","","","","","","","","","","","","","","","","","","",""
"14640","","","","fullscreen","1","27875","0.0-1.0","308","1","2025-07-31 21:35:35","1f75c3e559b7213887762d5229550c2b","51.19.161.91","Mozilla/5.0 (Windows NT 10.0; Win64; x64) AppleWebKit/537.36 (KHTML, like Gecko) Chrome/138.0.0.0 Safari/537.36","WebKit","Chrome","138.0.0.0","Windows","10.0","https://app.prolific.com/","en-GB,en-US;q=0.9,en;q=0.8","59dd90f6e75b450001a68dac","6877631c9844ddd5501205fc","688be16abdd31e42339eba58","3","1","59dd90f6e75b450001a68dac","3","1","","true","","","","","","","","","","","","","","","","","","","","","","","","","","","","","","","","","","","","","","","","",""
"1852","1753997775085","<p style='font-size:1.1em;line-height:1.25'>In the following, we will ask you a few questions relating to your feelings in the last 24 hours.<br></p><p style='font-size:1.1em;line-height:1.25'>Press the <strong>Next</strong> button to continue.</p>","0","custom-html-button-response","2","29728","0.0-2.0-0.0","308","1","2025-07-31 21:35:35","1f75c3e559b7213887762d5229550c2b","51.19.161.91","Mozilla/5.0 (Windows NT 10.0; Win64; x64) AppleWebKit/537.36 (KHTML, like Gecko) Chrome/138.0.0.0 Safari/537.36","WebKit","Chrome","138.0.0.0","Windows","10.0","https://app.prolific.com/","en-GB,en-US;q=0.9,en;q=0.8","59dd90f6e75b450001a68dac","6877631c9844ddd5501205fc","688be16abdd31e42339eba58","3","1","59dd90f6e75b450001a68dac","3","1","2025-07-31T21:36:15.086Z","","","","","","","","","","","","","","","","","","","","","","","","","","","","","","","","","","","","","","","","","",""
"56160.299999999814","","","","survey-template","3","85891","0.0-2.0-1.0","308","1","2025-07-31 21:35:35","1f75c3e559b7213887762d5229550c2b","51.19.161.91","Mozilla/5.0 (Windows NT 10.0; Win64; x64) AppleWebKit/537.36 (KHTML, like Gecko) Chrome/138.0.0.0 Safari/537.36","WebKit","Chrome","138.0.0.0","Windows","10.0","https://app.prolific.com/","en-GB,en-US;q=0.9,en;q=0.8","59dd90f6e75b450001a68dac","6877631c9844ddd5501205fc","688be16abdd31e42339eba58","3","1","59dd90f6e75b450001a68dac","3","1","2025-07-31T21:37:11.249Z","","{""Q01"":""4"",""Q02"":""4"",""Q03"":""4"",""Q04"":""3"",""Q05"":""2"",""Q06"":""4"",""Q07"":""2"",""Q08"":""1"",""Q09"":""3"",""Q10"":""3"",""Q11"":""4"",""Q12"":""3"",""Q13"":""5"",""Q14"":""4"",""Q15"":""2"",""Q16"":""0"",""Q17"":""4"",""Q18"":""4"",""Q19"":""0"",""Q20"":""4"",""Q21"":""4"",""Q22"":""2""}","[0,1,2,3,4,5,6,7,8,9,10,11,12,13,14,15,16,17,18,19,20,21]","[""Q01"",""Q02"",""Q03"",""Q04"",""Q05"",""Q05"",""Q06"",""Q07"",""Q08"",""Q08"",""Q09"",""Q10"",""Q11"",""Q12"",""Q13"",""Q14"",""Q15"",""Q15"",""Q16"",""Q17"",""Q17"",""Q18"",""Q19"",""Q20"",""Q21"",""Q22""]","[1990.1000000000931,3212.899999999907,4708.5,6542.5,9028.100000000093,9617.700000000186,11534.600000000093,14188.399999999907,15918.100000000093,17578.5,19456.399999999907,21354.5,25588,27904.200000000186,28896.399999999907,31060,34112.299999999814,38043.39999999991,38936.299999999814,40621.700000000186,42801.89999999991,44436.700000000186,45878.10000000009,49771.60000000009,53388.10000000009,54580.39999999991]","[]","[0.20000000018626451,1990.1000000000931,3212.899999999907,4708.5,6542.5,9028.100000000093,9617.700000000186,11534.600000000093,14188.399999999907,15918.100000000093,17578.5,19456.399999999907,20996.200000000186,21354.5,25588,27904.200000000186,28896.399999999907,30550,31060,34112.299999999814,38043.39999999991,38936.299999999814,40621.700000000186,42801.89999999991,44436.700000000186,45878.10000000009,49771.60000000009,51689.89999999991,53388.10000000009,54580.39999999991,56156.10000000009]","0.45454545454545453","0.2857142857142857","0","drsp","","","","","","","","","","","","","","","","","","","","","","","","","","","","","","",""
"8000.5","","","","survey-template","4","93893","0.0-2.0-2.0","308","1","2025-07-31 21:35:35","1f75c3e559b7213887762d5229550c2b","51.19.161.91","Mozilla/5.0 (Windows NT 10.0; Win64; x64) AppleWebKit/537.36 (KHTML, like Gecko) Chrome/138.0.0.0 Safari/537.36","WebKit","Chrome","138.0.0.0","Windows","10.0","https://app.prolific.com/","en-GB,en-US;q=0.9,en;q=0.8","59dd90f6e75b450001a68dac","6877631c9844ddd5501205fc","688be16abdd31e42339eba58","3","1","59dd90f6e75b450001a68dac","3","1","2025-07-31T21:37:19.251Z","","{""Q01"":""4"",""Q02"":""5"",""Q03"":""5""}","[0,1,2]","[""Q01"",""Q02"",""Q03""]","[2249.1999999997206,6689.699999999721,7483.299999999814]","[]","[2249.1999999997206,6689.699999999721,7483.299999999814,7999.699999999721]","0.3333333333333333","0.5","0","stress","","","","","","","","","","","","","","","","","","","","","","","","","","","","","","",""
"7760","","","","instructions","5","101654","0.0-3.0-0.0","308","1","2025-07-31 21:35:35","1f75c3e559b7213887762d5229550c2b","51.19.161.91","Mozilla/5.0 (Windows NT 10.0; Win64; x64) AppleWebKit/537.36 (KHTML, like Gecko) Chrome/138.0.0.0 Safari/537.36","WebKit","Chrome","138.0.0.0","Windows","10.0","https://app.prolific.com/","en-GB,en-US;q=0.9,en;q=0.8","59dd90f6e75b450001a68dac","6877631c9844ddd5501205fc","688be16abdd31e42339eba58","3","1","59dd90f6e75b450001a68dac","3","1","","","","","","","","","","","","","[{""page_index"":0,""viewing_time"":7760}]","","","","","","","","","","","","","","","","","","","","","","","","","","","","","",""
"24555","","<p>Before you start with this game please answer the following three questions yourself. </p>
  <p>Through this game, we measure several aspects of your cognitive performance, such as reaction times, multi-tasking capabilities </p>
  <p>and the ability to assess the situation you are in.</p>
  <p></p>
  <p><b>How good do you usually are in such tasks?</b></p>","45","html-slider-response","6","126212","0.0-4.0-0.0","308","1","2025-07-31 21:35:35","1f75c3e559b7213887762d5229550c2b","51.19.161.91","Mozilla/5.0 (Windows NT 10.0; Win64; x64) AppleWebKit/537.36 (KHTML, like Gecko) Chrome/138.0.0.0 Safari/537.36","WebKit","Chrome","138.0.0.0","Windows","10.0","https://app.prolific.com/","en-GB,en-US;q=0.9,en;q=0.8","59dd90f6e75b450001a68dac","6877631c9844ddd5501205fc","688be16abdd31e42339eba58","3","1","59dd90f6e75b450001a68dac","3","1","2025-07-31T21:37:51.570Z","","","","","","","","","","","PreSkillQ","","50","","","","","","","","","","","","","","","","","","","","","","","","","","","","",""
"2269","","<div style=""width:500px;"">
  <p>How well do you think you will perform in this task compared to other participants?</p>
  </div>","43","html-slider-response","7","128482","0.0-4.0-1.0","308","1","2025-07-31 21:35:35","1f75c3e559b7213887762d5229550c2b","51.19.161.91","Mozilla/5.0 (Windows NT 10.0; Win64; x64) AppleWebKit/537.36 (KHTML, like Gecko) Chrome/138.0.0.0 Safari/537.36","WebKit","Chrome","138.0.0.0","Windows","10.0","https://app.prolific.com/","en-GB,en-US;q=0.9,en;q=0.8","59dd90f6e75b450001a68dac","6877631c9844ddd5501205fc","688be16abdd31e42339eba58","3","1","59dd90f6e75b450001a68dac","3","1","2025-07-31T21:37:53.840Z","","","","","","","","","","","PrePerfQ","","50","","","","","","","","","","","","","","","","","","","","","","","","","","","","",""
"3128","","<div style=""width:500px;"">
  <p>What best describes how you currently feel?</p>
  </div>","22","html-slider-response","8","131611","0.0-4.0-2.0","308","1","2025-07-31 21:35:35","1f75c3e559b7213887762d5229550c2b","51.19.161.91","Mozilla/5.0 (Windows NT 10.0; Win64; x64) AppleWebKit/537.36 (KHTML, like Gecko) Chrome/138.0.0.0 Safari/537.36","WebKit","Chrome","138.0.0.0","Windows","10.0","https://app.prolific.com/","en-GB,en-US;q=0.9,en;q=0.8","59dd90f6e75b450001a68dac","6877631c9844ddd5501205fc","688be16abdd31e42339eba58","3","1","59dd90f6e75b450001a68dac","3","1","2025-07-31T21:37:56.969Z","","","","","","","","","","","PreMotivationQ","","50","","","","","","","","","","","","","","","","","","","","","","","","","","","","",""
"","","","","ctl-task-cpt","9","151240","0.0-5.0-0.0","308","1","2025-07-31 21:35:35","1f75c3e559b7213887762d5229550c2b","51.19.161.91","Mozilla/5.0 (Windows NT 10.0; Win64; x64) AppleWebKit/537.36 (KHTML, like Gecko) Chrome/138.0.0.0 Safari/537.36","WebKit","Chrome","138.0.0.0","Windows","10.0","https://app.prolific.com/","en-GB,en-US;q=0.9,en;q=0.8","59dd90f6e75b450001a68dac","6877631c9844ddd5501205fc","688be16abdd31e42339eba58","3","1","59dd90f6e75b450001a68dac","3","1","2025-07-31T21:38:16.598Z","","","","","","","","","","","","","","win-only","0","g1:NW,g2:SE","1","1","0","144836","1303.9","6306.9","16623.7","1","4","4","6","1","1","1","1","0","0.007575757575757576","1057.7","3000","1460","[""left"",""up""]","{""num_key_presses"":4,""num_perfect"":4,""num_errors"":0,""num_randdir"":0,""num_randdir_good_moves"":0,""num_whilered"":0,""num_whileblue"":0,""num_blue"":0,""num_good_moves"":4}","[412.57142857142856,414.47767857142856,0.3,412.57142857142856,414.47767857142856,102.4,412.57142857142856,414.47767857142856,206.6,412.57142857142856,414.47767857142856,311.7,412.57142857142856,414.47767857142856,412.5,412.57142857142856,414.47767857142856,513.1,319.57142857142856,327.47767857142856,617.1,297.57142857142856,299.47767857142856,721.8,203.57142857142856,200.47767857142856,822.3,105.57142857142857,132.47767857142856,927.8,105.57142857142857,124.47767857142857,1028.6,105.57142857142857,124.47767857142857,1131.9,105.57142857142857,124.47767857142857,1237.3,105.57142857142857,124.47767857142857,1337.5,105.57142857142857,124.47767857142857,1438.3,105.57142857142857,124.47767857142857,1542.2,105.57142857142857,124.47767857142857,1642.3,105.57142857142857,124.47767857142857,1743,105.57142857142857,124.47767857142857,1847.1,105.57142857142857,124.47767857142857,1947.5,105.57142857142857,124.47767857142857,2053.1,105.57142857142857,124.47767857142857,2157.3,105.57142857142857,124.47767857142857,2263.3,105.57142857142857,124.47767857142857,2366.9,105.57142857142857,124.47767857142857,2472.5,105.57142857142857,124.47767857142857,2576.9,105.57142857142857,124.47767857142857,2677.5,105.57142857142857,124.47767857142857,2778,105.57142857142857,124.47767857142857,2881.7,105.57142857142857,124.47767857142857,2982.1,105.57142857142857,124.47767857142857,3087,105.57142857142857,124.47767857142857,3187.2,105.57142857142857,124.47767857142857,3287.2,105.57142857142857,124.47767857142857,3391.7,105.57142857142857,124.47767857142857,3491.8,105.57142857142857,124.47767857142857,3591.9,105.57142857142857,124.47767857142857,3697.2,105.57142857142857,124.47767857142857,3802.5,105.57142857142857,124.47767857142857,3906.9,105.57142857142857,124.47767857142857,4011.6,105.57142857142857,124.47767857142857,4112.5,105.57142857142857,124.47767857142857,4218,105.57142857142857,124.47767857142857,4321.6,105.57142857142857,124.47767857142857,4421.8,105.57142857142857,124.47767857142857,4522.1,105.57142857142857,124.47767857142857,4627.5,105.57142857142857,124.47767857142857,4731.8,105.57142857142857,124.47767857142857,4836.9,105.57142857142857,124.47767857142857,4937.4]","[1406.7,1406.7,1000,0,406.7,""smooth"",""up"",""up"",""good_move"",4941.7,3534.6,3082.8,1407.1,451.8,""smooth"",""up"",""up"",""good_move"",7773.6,2831.6,2461.2,4942,370.4,""smooth"",""left"",""left"",""good_move"",10221.8,2447.8,2092.8,7774,355,""smooth"",""left"",""left"",""good_move""]","",""
"5369","","<div style=""width:500px;"">
  <p>What determined the result of this run?</p>
  </div>","61","html-slider-response","10","156610","0.0-5.0-1.0","308","1","2025-07-31 21:35:35","1f75c3e559b7213887762d5229550c2b","51.19.161.91","Mozilla/5.0 (Windows NT 10.0; Win64; x64) AppleWebKit/537.36 (KHTML, like Gecko) Chrome/138.0.0.0 Safari/537.36","WebKit","Chrome","138.0.0.0","Windows","10.0","https://app.prolific.com/","en-GB,en-US;q=0.9,en;q=0.8","59dd90f6e75b450001a68dac","6877631c9844ddd5501205fc","688be16abdd31e42339eba58","3","1","59dd90f6e75b450001a68dac","3","1","2025-07-31T21:38:21.968Z","","","","","","","","","","","AttribQ","","50","","","","","","","","","","","","","","","","","","","","","","","","","","","","",""
"1643","","<div style=""width:500px;"">
  <p>How much control did you have over the ball?</p>
  </div>","100","html-slider-response","11","158253","0.0-5.0-2.0","308","1","2025-07-31 21:35:35","1f75c3e559b7213887762d5229550c2b","51.19.161.91","Mozilla/5.0 (Windows NT 10.0; Win64; x64) AppleWebKit/537.36 (KHTML, like Gecko) Chrome/138.0.0.0 Safari/537.36","WebKit","Chrome","138.0.0.0","Windows","10.0","https://app.prolific.com/","en-GB,en-US;q=0.9,en;q=0.8","59dd90f6e75b450001a68dac","6877631c9844ddd5501205fc","688be16abdd31e42339eba58","3","1","59dd90f6e75b450001a68dac","3","1","2025-07-31T21:38:23.612Z","","","","","","","","","","","ControlQ","","50","","","","","","","","","","","","","","","","","","","","","","","","","","","","",""
"6111","","<div style=""width:500px;"">
  <p>How would you describe your current emotional state?</p>
  </div>","63","html-slider-response","12","164365","0.0-5.0-3.0","308","1","2025-07-31 21:35:35","1f75c3e559b7213887762d5229550c2b","51.19.161.91","Mozilla/5.0 (Windows NT 10.0; Win64; x64) AppleWebKit/537.36 (KHTML, like Gecko) Chrome/138.0.0.0 Safari/537.36","WebKit","Chrome","138.0.0.0","Windows","10.0","https://app.prolific.com/","en-GB,en-US;q=0.9,en;q=0.8","59dd90f6e75b450001a68dac","6877631c9844ddd5501205fc","688be16abdd31e42339eba58","3","1","59dd90f6e75b450001a68dac","3","1","2025-07-31T21:38:29.724Z","","","","","","","","","","","StressQ","","50","","","","","","","","","","","","","","","","","","","","","","","","","","","","",""
"6055","","<div style=""width:500px;"">
  <p>What best describes how you currently feel?</p>
  </div>","27","html-slider-response","13","170422","0.0-5.0-4.0","308","1","2025-07-31 21:35:35","1f75c3e559b7213887762d5229550c2b","51.19.161.91","Mozilla/5.0 (Windows NT 10.0; Win64; x64) AppleWebKit/537.36 (KHTML, like Gecko) Chrome/138.0.0.0 Safari/537.36","WebKit","Chrome","138.0.0.0","Windows","10.0","https://app.prolific.com/","en-GB,en-US;q=0.9,en;q=0.8","59dd90f6e75b450001a68dac","6877631c9844ddd5501205fc","688be16abdd31e42339eba58","3","1","59dd90f6e75b450001a68dac","3","1","2025-07-31T21:38:35.780Z","","","","","","","","","","","MotivationQ","","50","","","","","","","","","","","","","","","","","","","","","","","","","","","","",""
"","","","","ctl-task-cpt","14","195754","0.0-5.0-0.1","308","1","2025-07-31 21:35:35","1f75c3e559b7213887762d5229550c2b","51.19.161.91","Mozilla/5.0 (Windows NT 10.0; Win64; x64) AppleWebKit/537.36 (KHTML, like Gecko) Chrome/138.0.0.0 Safari/537.36","WebKit","Chrome","138.0.0.0","Windows","10.0","https://app.prolific.com/","en-GB,en-US;q=0.9,en;q=0.8","59dd90f6e75b450001a68dac","6877631c9844ddd5501205fc","688be16abdd31e42339eba58","3","1","59dd90f6e75b450001a68dac","3","1","2025-07-31T21:39:01.112Z","","","","","","","","","","","","","","win-only","1","g1:NE,g2:SW","0.9","2","0","183645.9","887.6","5890.4","22325.5","1","4","8","6","2","8","8","9","1","0.06818181818181818","1068.4","3000","745","[""down"",""left""]","{""num_key_presses"":6,""num_perfect"":6,""num_errors"":0,""num_randdir"":0,""num_randdir_good_moves"":0,""num_whilered"":0,""num_whileblue"":0,""num_blue"":0,""num_good_moves"":6}","[417.57142857142856,421.47767857142856,0.1,417.57142857142856,421.47767857142856,103.9,417.57142857142856,421.47767857142856,208,417.57142857142856,421.47767857142856,308,417.57142857142856,421.47767857142856,413.8,415.57142857142856,421.47767857142856,518.4,195.57142857142856,576.4776785714286,618.8,119.57142857142857,700.4776785714286,723.2,115.57142857142857,740.4776785714286,823.4,108.57142857142857,767.4776785714286,928.6,94.57142857142857,771.4776785714286,1028.9,94.57142857142857,771.4776785714286,1133.9,75.57142857142857,754.4776785714286,1238.6,-252.42857142857144,324.47767857142856,1343.3,-433.42857142857144,147.47767857142856,1443.6,-450.42857142857144,129.47767857142856,1543.8,-449.42857142857144,129.47767857142856,1645,-449.42857142857144,129.47767857142856,1748.8,-449.42857142857144,129.47767857142856,1849,-449.42857142857144,129.47767857142856,1953.4,-449.42857142857144,129.47767857142856,2053.5,-449.42857142857144,129.47767857142856,2153.8,-449.42857142857144,129.47767857142856,2254,-449.42857142857144,129.47767857142856,2357.9,-449.42857142857144,129.47767857142856,2463.1,-449.42857142857144,129.47767857142856,2563.1,-449.42857142857144,129.47767857142856,2664.2,-449.42857142857144,129.47767857142856,2768.4,-449.42857142857144,129.47767857142856,2872.8,-449.42857142857144,129.47767857142856,2973.6,-449.42857142857144,129.47767857142856,3078.4,-449.42857142857144,129.47767857142856,3178.6,-449.42857142857144,129.47767857142856,3283.8,-449.42857142857144,129.47767857142856,3388.1,-449.42857142857144,129.47767857142856,3488.1,-449.42857142857144,129.47767857142856,3593,-449.42857142857144,129.47767857142856,3693.1,-449.42857142857144,129.47767857142856,3797.8,-449.42857142857144,129.47767857142856,3898.3,-449.42857142857144,129.47767857142856,3998.7,-449.42857142857144,129.47767857142856,4098.8,-449.42857142857144,129.47767857142856,4198.8,-449.42857142857144,129.47767857142856,4298.8,-449.42857142857144,129.47767857142856,4402.8,-449.42857142857144,129.47767857142856,4503.9,-449.42857142857144,129.47767857142856,4607.7,-449.42857142857144,129.47767857142856,4708,-449.42857142857144,129.47767857142856,4813.1,-449.42857142857144,129.47767857142856,4918.2]","[1396.6,1396.6,1000,0,396.6,""smooth"",""left"",""left"",""good_move"",4588.7,3191.8,2788.5,1396.9,403.3,""smooth"",""left"",""left"",""good_move"",7517.9,2929,2552,4589,376.9,""smooth"",""left"",""left"",""good_move"",10523.7,3005.6,2627.1,7518.3,378.4,""smooth"",""down"",""down"",""good_move"",13604.3,3080.2,2711.4,10524.1,368.8,""smooth"",""down"",""down"",""good_move"",16340.2,2735.7,2370.3,13604.5,365.4,""smooth"",""down"",""down"",""good_move""]","",""
"1563","","<div style=""width:500px;"">
  <p>What determined the result of this run?</p>
  </div>","9","html-slider-response","15","197317","0.0-5.0-1.1","308","1","2025-07-31 21:35:35","1f75c3e559b7213887762d5229550c2b","51.19.161.91","Mozilla/5.0 (Windows NT 10.0; Win64; x64) AppleWebKit/537.36 (KHTML, like Gecko) Chrome/138.0.0.0 Safari/537.36","WebKit","Chrome","138.0.0.0","Windows","10.0","https://app.prolific.com/","en-GB,en-US;q=0.9,en;q=0.8","59dd90f6e75b450001a68dac","6877631c9844ddd5501205fc","688be16abdd31e42339eba58","3","1","59dd90f6e75b450001a68dac","3","1","2025-07-31T21:39:02.676Z","","","","","","","","","","","AttribQ","","50","","","","","","","","","","","","","","","","","","","","","","","","","","","","",""
"2215","","<div style=""width:500px;"">
  <p>How much control did you have over the ball?</p>
  </div>","100","html-slider-response","16","199534","0.0-5.0-2.1","308","1","2025-07-31 21:35:35","1f75c3e559b7213887762d5229550c2b","51.19.161.91","Mozilla/5.0 (Windows NT 10.0; Win64; x64) AppleWebKit/537.36 (KHTML, like Gecko) Chrome/138.0.0.0 Safari/537.36","WebKit","Chrome","138.0.0.0","Windows","10.0","https://app.prolific.com/","en-GB,en-US;q=0.9,en;q=0.8","59dd90f6e75b450001a68dac","6877631c9844ddd5501205fc","688be16abdd31e42339eba58","3","1","59dd90f6e75b450001a68dac","3","1","2025-07-31T21:39:04.892Z","","","","","","","","","","","ControlQ","","50","","","","","","","","","","","","","","","","","","","","","","","","","","","","",""
"2563","","<div style=""width:500px;"">
  <p>How would you describe your current emotional state?</p>
  </div>","67","html-slider-response","17","202098","0.0-5.0-3.1","308","1","2025-07-31 21:35:35","1f75c3e559b7213887762d5229550c2b","51.19.161.91","Mozilla/5.0 (Windows NT 10.0; Win64; x64) AppleWebKit/537.36 (KHTML, like Gecko) Chrome/138.0.0.0 Safari/537.36","WebKit","Chrome","138.0.0.0","Windows","10.0","https://app.prolific.com/","en-GB,en-US;q=0.9,en;q=0.8","59dd90f6e75b450001a68dac","6877631c9844ddd5501205fc","688be16abdd31e42339eba58","3","1","59dd90f6e75b450001a68dac","3","1","2025-07-31T21:39:07.456Z","","","","","","","","","","","StressQ","","50","","","","","","","","","","","","","","","","","","","","","","","","","","","","",""
"1791","","<div style=""width:500px;"">
  <p>What best describes how you currently feel?</p>
  </div>","23","html-slider-response","18","203890","0.0-5.0-4.1","308","1","2025-07-31 21:35:35","1f75c3e559b7213887762d5229550c2b","51.19.161.91","Mozilla/5.0 (Windows NT 10.0; Win64; x64) AppleWebKit/537.36 (KHTML, like Gecko) Chrome/138.0.0.0 Safari/537.36","WebKit","Chrome","138.0.0.0","Windows","10.0","https://app.prolific.com/","en-GB,en-US;q=0.9,en;q=0.8","59dd90f6e75b450001a68dac","6877631c9844ddd5501205fc","688be16abdd31e42339eba58","3","1","59dd90f6e75b450001a68dac","3","1","2025-07-31T21:39:09.248Z","","","","","","","","","","","MotivationQ","","50","","","","","","","","","","","","","","","","","","","","","","","","","","","","",""
"","","","","ctl-task-cpt","19","231500","0.0-5.0-0.2","308","1","2025-07-31 21:35:35","1f75c3e559b7213887762d5229550c2b","51.19.161.91","Mozilla/5.0 (Windows NT 10.0; Win64; x64) AppleWebKit/537.36 (KHTML, like Gecko) Chrome/138.0.0.0 Safari/537.36","WebKit","Chrome","138.0.0.0","Windows","10.0","https://app.prolific.com/","en-GB,en-US;q=0.9,en;q=0.8","59dd90f6e75b450001a68dac","6877631c9844ddd5501205fc","688be16abdd31e42339eba58","3","1","59dd90f6e75b450001a68dac","3","1","2025-07-31T21:39:36.858Z","","","","","","","","","","","","","","win-only","2","g1:SE,g2:NW","0.8","3","0","217114.6","785","5786.9","24591.1","1","4","8","6","2","8","8","17","9","0.12878787878787878","963.6","3000","700","[""left"",""up""]","{""num_key_presses"":6,""num_perfect"":6,""num_errors"":0,""num_randdir"":0,""num_randdir_good_moves"":0,""num_whilered"":0,""num_whileblue"":0,""num_blue"":1,""num_good_moves"":6}","[410.57142857142856,414.47767857142856,1.7,410.57142857142856,414.47767857142856,101.3,410.57142857142856,414.47767857142856,205.3,410.57142857142856,414.47767857142856,305.3,410.57142857142856,414.47767857142856,405.3,401.57142857142856,400.47767857142856,505.8,172.57142857142856,203.47767857142856,611,119.57142857142857,127.47767857142857,712.7,112.57142857142857,122.47767857142857,816,86.57142857142857,92.47767857142857,916.4,85.57142857142857,91.47767857142857,1021.1,81.57142857142857,96.47767857142857,1121.9,-281.42857142857144,114.47767857142857,1225.3,-543.4285714285714,148.47767857142856,1326,-543.4285714285714,148.47767857142856,1431,-543.4285714285714,148.47767857142856,1532.3,-543.4285714285714,148.47767857142856,1636.1,-543.4285714285714,148.47767857142856,1740.7,-543.4285714285714,148.47767857142856,1840.9,-543.4285714285714,148.47767857142856,1946.5,-543.4285714285714,148.47767857142856,2051.6,-543.4285714285714,148.47767857142856,2156.5,-543.4285714285714,148.47767857142856,2261,-543.4285714285714,148.47767857142856,2361.4,-543.4285714285714,148.47767857142856,2461.5,-543.4285714285714,148.47767857142856,2561.5,-543.4285714285714,148.47767857142856,2666,-543.4285714285714,148.47767857142856,2766.4,-543.4285714285714,148.47767857142856,2871.2,-543.4285714285714,148.47767857142856,2971.2,-543.4285714285714,148.47767857142856,3076.6,-543.4285714285714,148.47767857142856,3181,-543.4285714285714,148.47767857142856,3281.3,-543.4285714285714,148.47767857142856,3381.4,-543.4285714285714,148.47767857142856,3486,-543.4285714285714,148.47767857142856,3591.1,-543.4285714285714,148.47767857142856,3696,-543.4285714285714,148.47767857142856,3801.5,-543.4285714285714,148.47767857142856,3905.8,-543.4285714285714,148.47767857142856,4011.2,-543.4285714285714,148.47767857142856,4112.2,-543.4285714285714,148.47767857142856,4216.2,-543.4285714285714,148.47767857142856,4321,-543.4285714285714,148.47767857142856,4421,-543.4285714285714,148.47767857142856,4521.5,-543.4285714285714,148.47767857142856,4627.2,-543.4285714285714,148.47767857142856,4731.2,-543.4285714285714,148.47767857142856,4836.1,-543.4285714285714,148.47767857142856,4936.3]","[1383.6,1383.6,1000,0,383.6,""smooth"",""left"",""left"",""good_move"",4110.7,2726.8,2354.1,1384,372.6,""smooth"",""left"",""left"",""good_move"",10111,6000.1,2436.7,7223.6,450.7,""smooth"",""up"",""up"",""good_move"",13167,3055.8,2710.8,10111.2,345,""smooth"",""up"",""up"",""good_move"",15295.5,2128.1,1732.6,13167.4,395.5,""smooth"",""up"",""up"",""good_move"",18710.8,3415.1,3029,15295.7,386.1,""smooth"",""left"",""left"",""good_move""]","",""
"4135","","<div style=""width:500px;"">
  <p>What determined the result of this run?</p>
  </div>","13","html-slider-response","20","235636","0.0-5.0-1.2","308","1","2025-07-31 21:35:35","1f75c3e559b7213887762d5229550c2b","51.19.161.91","Mozilla/5.0 (Windows NT 10.0; Win64; x64) AppleWebKit/537.36 (KHTML, like Gecko) Chrome/138.0.0.0 Safari/537.36","WebKit","Chrome","138.0.0.0","Windows","10.0","https://app.prolific.com/","en-GB,en-US;q=0.9,en;q=0.8","59dd90f6e75b450001a68dac","6877631c9844ddd5501205fc","688be16abdd31e42339eba58","3","1","59dd90f6e75b450001a68dac","3","1","2025-07-31T21:39:40.994Z","","","","","","","","","","","AttribQ","","50","","","","","","","","","","","","","","","","","","","","","","","","","","","","",""
"1888","","<div style=""width:500px;"">
  <p>How much control did you have over the ball?</p>
  </div>","100","html-slider-response","21","237524","0.0-5.0-2.2","308","1","2025-07-31 21:35:35","1f75c3e559b7213887762d5229550c2b","51.19.161.91","Mozilla/5.0 (Windows NT 10.0; Win64; x64) AppleWebKit/537.36 (KHTML, like Gecko) Chrome/138.0.0.0 Safari/537.36","WebKit","Chrome","138.0.0.0","Windows","10.0","https://app.prolific.com/","en-GB,en-US;q=0.9,en;q=0.8","59dd90f6e75b450001a68dac","6877631c9844ddd5501205fc","688be16abdd31e42339eba58","3","1","59dd90f6e75b450001a68dac","3","1","2025-07-31T21:39:42.882Z","","","","","","","","","","","ControlQ","","50","","","","","","","","","","","","","","","","","","","","","","","","","","","","",""
"1865","","<div style=""width:500px;"">
  <p>How would you describe your current emotional state?</p>
  </div>","65","html-slider-response","22","239389","0.0-5.0-3.2","308","1","2025-07-31 21:35:35","1f75c3e559b7213887762d5229550c2b","51.19.161.91","Mozilla/5.0 (Windows NT 10.0; Win64; x64) AppleWebKit/537.36 (KHTML, like Gecko) Chrome/138.0.0.0 Safari/537.36","WebKit","Chrome","138.0.0.0","Windows","10.0","https://app.prolific.com/","en-GB,en-US;q=0.9,en;q=0.8","59dd90f6e75b450001a68dac","6877631c9844ddd5501205fc","688be16abdd31e42339eba58","3","1","59dd90f6e75b450001a68dac","3","1","2025-07-31T21:39:44.748Z","","","","","","","","","","","StressQ","","50","","","","","","","","","","","","","","","","","","","","","","","","","","","","",""
"2213","","<div style=""width:500px;"">
  <p>What best describes how you currently feel?</p>
  </div>","16","html-slider-response","23","241604","0.0-5.0-4.2","308","1","2025-07-31 21:35:35","1f75c3e559b7213887762d5229550c2b","51.19.161.91","Mozilla/5.0 (Windows NT 10.0; Win64; x64) AppleWebKit/537.36 (KHTML, like Gecko) Chrome/138.0.0.0 Safari/537.36","WebKit","Chrome","138.0.0.0","Windows","10.0","https://app.prolific.com/","en-GB,en-US;q=0.9,en;q=0.8","59dd90f6e75b450001a68dac","6877631c9844ddd5501205fc","688be16abdd31e42339eba58","3","1","59dd90f6e75b450001a68dac","3","1","2025-07-31T21:39:46.962Z","","","","","","","","","","","MotivationQ","","50","","","","","","","","","","","","","","","","","","","","","","","","","","","","",""
"","","","","ctl-task-cpt","24","263334","0.0-5.0-0.3","308","1","2025-07-31 21:35:35","1f75c3e559b7213887762d5229550c2b","51.19.161.91","Mozilla/5.0 (Windows NT 10.0; Win64; x64) AppleWebKit/537.36 (KHTML, like Gecko) Chrome/138.0.0.0 Safari/537.36","WebKit","Chrome","138.0.0.0","Windows","10.0","https://app.prolific.com/","en-GB,en-US;q=0.9,en;q=0.8","59dd90f6e75b450001a68dac","6877631c9844ddd5501205fc","688be16abdd31e42339eba58","3","1","59dd90f6e75b450001a68dac","3","1","2025-07-31T21:40:08.692Z","","","","","","","","","","","","","","win-only","0","g1:NW,g2:SE","0.7","4","0","254828.4","823.6","5826.5","18711.6","1","4","4","6","1","1","1","18","17","0.13636363636363635","1752.2","3000","1380","[""left"",""up""]","{""num_key_presses"":4,""num_perfect"":4,""num_errors"":0,""num_randdir"":0,""num_randdir_good_moves"":0,""num_whilered"":0,""num_whileblue"":0,""num_blue"":1,""num_good_moves"":4}","[409.57142857142856,421.47767857142856,0.2,409.57142857142856,421.47767857142856,104.7,409.57142857142856,422.47767857142856,207.3,409.57142857142856,422.47767857142856,307.4,409.57142857142856,422.47767857142856,412.5,409.57142857142856,422.47767857142856,512.5,409.57142857142856,422.47767857142856,618.2,387.57142857142856,416.47767857142856,723.2,210.57142857142856,260.47767857142856,827.6,106.57142857142857,160.47767857142856,931.9,92.57142857142857,130.47767857142856,1032.9,82.57142857142857,111.47767857142857,1133.7,81.57142857142857,108.47767857142857,1237.4,81.57142857142857,108.47767857142857,1337.4,81.57142857142857,108.47767857142857,1441.9,81.57142857142857,108.47767857142857,1542.1,81.57142857142857,108.47767857142857,1642.4,81.57142857142857,108.47767857142857,1742.5,81.57142857142857,108.47767857142857,1853.7,90.57142857142857,140.47767857142856,1957.7,-330.42857142857144,159.47767857142856,2057.8,-543.4285714285714,149.47767857142856,2162,-543.4285714285714,149.47767857142856,2262.4,-543.4285714285714,149.47767857142856,2366.9,-543.4285714285714,149.47767857142856,2467.9,-543.4285714285714,149.47767857142856,2573.4,-543.4285714285714,149.47767857142856,2673.6,-543.4285714285714,149.47767857142856,2777.8,-543.4285714285714,149.47767857142856,2877.9,-543.4285714285714,149.47767857142856,2981.9,-543.4285714285714,149.47767857142856,3082.3,-543.4285714285714,149.47767857142856,3186.7,-543.4285714285714,149.47767857142856,3287.6,-543.4285714285714,149.47767857142856,3387.6,-543.4285714285714,149.47767857142856,3491.6,-543.4285714285714,149.47767857142856,3591.7,-543.4285714285714,149.47767857142856,3692.8,-543.4285714285714,149.47767857142856,3797.3,-543.4285714285714,149.47767857142856,3897.6,-543.4285714285714,149.47767857142856,3997.7,-543.4285714285714,149.47767857142856,4097.8,-543.4285714285714,149.47767857142856,4202.8,-543.4285714285714,149.47767857142856,4307.4,-543.4285714285714,149.47767857142856,4407.4,-543.4285714285714,149.47767857142856,4512,-543.4285714285714,149.47767857142856,4612.4,-543.4285714285714,149.47767857142856,4712.4,-543.4285714285714,149.47767857142856,4812.5,-543.4285714285714,149.47767857142856,4918]","[4166.6,4166.7,1684.7,2004.6,477.4,""smooth"",""up"",""up"",""good_move"",7037.1,2870.1,2485.4,4167,384.7,""smooth"",""up"",""up"",""good_move"",9949.2,2911.9,2521.4,7037.3,390.5,""smooth"",""left"",""left"",""good_move"",12797.2,2847.6,2458.8,9949.6,388.8,""smooth"",""left"",""left"",""good_move""]","",""
"5332","","<div style=""width:500px;"">
  <p>What determined the result of this run?</p>
  </div>","53","html-slider-response","25","268666","0.0-5.0-1.3","308","1","2025-07-31 21:35:35","1f75c3e559b7213887762d5229550c2b","51.19.161.91","Mozilla/5.0 (Windows NT 10.0; Win64; x64) AppleWebKit/537.36 (KHTML, like Gecko) Chrome/138.0.0.0 Safari/537.36","WebKit","Chrome","138.0.0.0","Windows","10.0","https://app.prolific.com/","en-GB,en-US;q=0.9,en;q=0.8","59dd90f6e75b450001a68dac","6877631c9844ddd5501205fc","688be16abdd31e42339eba58","3","1","59dd90f6e75b450001a68dac","3","1","2025-07-31T21:40:14.024Z","","","","","","","","","","","AttribQ","","50","","","","","","","","","","","","","","","","","","","","","","","","","","","","",""
"1644","","<div style=""width:500px;"">
  <p>How much control did you have over the ball?</p>
  </div>","100","html-slider-response","26","270312","0.0-5.0-2.3","308","1","2025-07-31 21:35:35","1f75c3e559b7213887762d5229550c2b","51.19.161.91","Mozilla/5.0 (Windows NT 10.0; Win64; x64) AppleWebKit/537.36 (KHTML, like Gecko) Chrome/138.0.0.0 Safari/537.36","WebKit","Chrome","138.0.0.0","Windows","10.0","https://app.prolific.com/","en-GB,en-US;q=0.9,en;q=0.8","59dd90f6e75b450001a68dac","6877631c9844ddd5501205fc","688be16abdd31e42339eba58","3","1","59dd90f6e75b450001a68dac","3","1","2025-07-31T21:40:15.670Z","","","","","","","","","","","ControlQ","","50","","","","","","","","","","","","","","","","","","","","","","","","","","","","",""
"2541","","<div style=""width:500px;"">
  <p>How would you describe your current emotional state?</p>
  </div>","67","html-slider-response","27","272854","0.0-5.0-3.3","308","1","2025-07-31 21:35:35","1f75c3e559b7213887762d5229550c2b","51.19.161.91","Mozilla/5.0 (Windows NT 10.0; Win64; x64) AppleWebKit/537.36 (KHTML, like Gecko) Chrome/138.0.0.0 Safari/537.36","WebKit","Chrome","138.0.0.0","Windows","10.0","https://app.prolific.com/","en-GB,en-US;q=0.9,en;q=0.8","59dd90f6e75b450001a68dac","6877631c9844ddd5501205fc","688be16abdd31e42339eba58","3","1","59dd90f6e75b450001a68dac","3","1","2025-07-31T21:40:18.212Z","","","","","","","","","","","StressQ","","50","","","","","","","","","","","","","","","","","","","","","","","","","","","","",""
"2273","","<div style=""width:500px;"">
  <p>What best describes how you currently feel?</p>
  </div>","14","html-slider-response","28","275128","0.0-5.0-4.3","308","1","2025-07-31 21:35:35","1f75c3e559b7213887762d5229550c2b","51.19.161.91","Mozilla/5.0 (Windows NT 10.0; Win64; x64) AppleWebKit/537.36 (KHTML, like Gecko) Chrome/138.0.0.0 Safari/537.36","WebKit","Chrome","138.0.0.0","Windows","10.0","https://app.prolific.com/","en-GB,en-US;q=0.9,en;q=0.8","59dd90f6e75b450001a68dac","6877631c9844ddd5501205fc","688be16abdd31e42339eba58","3","1","59dd90f6e75b450001a68dac","3","1","2025-07-31T21:40:20.486Z","","","","","","","","","","","MotivationQ","","50","","","","","","","","","","","","","","","","","","","","","","","","","","","","",""
"","","","","ctl-task-cpt","29","318185","0.0-5.0-0.4","308","1","2025-07-31 21:35:35","1f75c3e559b7213887762d5229550c2b","51.19.161.91","Mozilla/5.0 (Windows NT 10.0; Win64; x64) AppleWebKit/537.36 (KHTML, like Gecko) Chrome/138.0.0.0 Safari/537.36","WebKit","Chrome","138.0.0.0","Windows","10.0","https://app.prolific.com/","en-GB,en-US;q=0.9,en;q=0.8","59dd90f6e75b450001a68dac","6877631c9844ddd5501205fc","688be16abdd31e42339eba58","3","1","59dd90f6e75b450001a68dac","3","1","2025-07-31T21:41:03.543Z","","","","","","","","","","","","","","win-only","2","g1:SE,g2:NW","0.6","5","0","288352.6","737.8","5741.1","40045.8","1","4","8","6","2","8","8","26","18","0.19696969696969696","1584.7","3000","135","[""left"",""up""]","{""num_key_presses"":8,""num_perfect"":5,""num_errors"":0,""num_randdir"":3,""num_randdir_good_moves"":2,""num_whilered"":0,""num_whileblue"":0,""num_blue"":4,""num_good_moves"":7}","[412.57142857142856,417.47767857142856,0.1,412.57142857142856,417.47767857142856,101.2,412.57142857142856,417.47767857142856,202.1,412.57142857142856,417.47767857142856,302.8,412.57142857142856,417.47767857142856,403.3,412.57142857142856,417.47767857142856,507.9,412.57142857142856,417.47767857142856,619.1,412.57142857142856,417.47767857142856,719.6,412.57142857142856,417.47767857142856,823.7,412.57142857142856,417.47767857142856,929,326.57142857142856,305.47767857142856,1036.3,33.57142857142857,63.47767857142857,1137.8,31.57142857142857,61.47767857142857,1238.1,31.57142857142857,61.47767857142857,1338.2,72.57142857142857,77.47767857142857,1438.3,76.57142857142857,78.47767857142857,1542.6,76.57142857142857,78.47767857142857,1643.1,33.57142857142857,86.47767857142857,1752.8,-543.4285714285714,-14.52232142857143,1852.8,-491.42857142857144,-82.52232142857143,1958,-491.42857142857144,-82.52232142857143,2058.2,-491.42857142857144,-82.52232142857143,2167.4,-491.42857142857144,-82.52232142857143,2268.6,-491.42857142857144,-82.52232142857143,2372.9,-491.42857142857144,-82.52232142857143,2478,-491.42857142857144,-82.52232142857143,2585.4,-491.42857142857144,-82.52232142857143,2687.5,-491.42857142857144,-82.52232142857143,2788.2,-491.42857142857144,-82.52232142857143,2888.5,-491.42857142857144,-82.52232142857143,2993.2,-491.42857142857144,-82.52232142857143,3093.9,-491.42857142857144,-82.52232142857143,3194.1,-491.42857142857144,-82.52232142857143,3301.1,-491.42857142857144,-82.52232142857143,3401.8,-491.42857142857144,-82.52232142857143,3502.3,-491.42857142857144,-82.52232142857143,3604,-491.42857142857144,-82.52232142857143,3708.5,-491.42857142857144,-82.52232142857143,3818.5,-491.42857142857144,-82.52232142857143,3923.2,-491.42857142857144,-82.52232142857143,4029.3,-491.42857142857144,-82.52232142857143,4135.9,-491.42857142857144,-82.52232142857143,4236.4,-491.42857142857144,-82.52232142857143,4337.9,-491.42857142857144,-82.52232142857143,4438.1,-491.42857142857144,-82.52232142857143,4542.6,-491.42857142857144,-82.52232142857143,4643.2,-491.42857142857144,-82.52232142857143,4743.3,-491.42857142857144,-82.52232142857143,4852.6,-491.42857142857144,-82.52232142857143,4952.6]","[1530.3,1530.3,1000,0,530.3,""oops"",""left"",""right"",""bad_move"",7238.6,5707.7,1913.9,4901.3,423.4,""smooth"",""up"",""up"",""good_move"",9930.5,2691.7,2261.7,7238.8,430,""smooth"",""up"",""up"",""good_move"",13296.6,3365.9,3002.3,9930.8,363.5,""smooth"",""up"",""up"",""good_move"",15350.6,2053.7,1700.3,13296.9,353.4,""oops"",""left"",""left"",""good_move"",28513.2,13162.3,2044.6,26089.2,379.4,""smooth"",""left"",""left"",""good_move"",31550.5,3037.1,2668.3,28513.4,368.8,""oops"",""left"",""left"",""good_move"",34214.3,2663.4,2269.1,31550.9,394.3,""smooth"",""left"",""left"",""good_move""]","",""
"1978","","<div style=""width:500px;"">
  <p>What determined the result of this run?</p>
  </div>","0","html-slider-response","30","320163","0.0-5.0-1.4","308","1","2025-07-31 21:35:35","1f75c3e559b7213887762d5229550c2b","51.19.161.91","Mozilla/5.0 (Windows NT 10.0; Win64; x64) AppleWebKit/537.36 (KHTML, like Gecko) Chrome/138.0.0.0 Safari/537.36","WebKit","Chrome","138.0.0.0","Windows","10.0","https://app.prolific.com/","en-GB,en-US;q=0.9,en;q=0.8","59dd90f6e75b450001a68dac","6877631c9844ddd5501205fc","688be16abdd31e42339eba58","3","1","59dd90f6e75b450001a68dac","3","1","2025-07-31T21:41:05.522Z","","","","","","","","","","","AttribQ","","50","","","","","","","","","","","","","","","","","","","","","","","","","","","","",""
"2727","","<div style=""width:500px;"">
  <p>How much control did you have over the ball?</p>
  </div>","83","html-slider-response","31","322891","0.0-5.0-2.4","308","1","2025-07-31 21:35:35","1f75c3e559b7213887762d5229550c2b","51.19.161.91","Mozilla/5.0 (Windows NT 10.0; Win64; x64) AppleWebKit/537.36 (KHTML, like Gecko) Chrome/138.0.0.0 Safari/537.36","WebKit","Chrome","138.0.0.0","Windows","10.0","https://app.prolific.com/","en-GB,en-US;q=0.9,en;q=0.8","59dd90f6e75b450001a68dac","6877631c9844ddd5501205fc","688be16abdd31e42339eba58","3","1","59dd90f6e75b450001a68dac","3","1","2025-07-31T21:41:08.250Z","","","","","","","","","","","ControlQ","","50","","","","","","","","","","","","","","","","","","","","","","","","","","","","",""
"2321","","<div style=""width:500px;"">
  <p>How would you describe your current emotional state?</p>
  </div>","81","html-slider-response","32","325213","0.0-5.0-3.4","308","1","2025-07-31 21:35:35","1f75c3e559b7213887762d5229550c2b","51.19.161.91","Mozilla/5.0 (Windows NT 10.0; Win64; x64) AppleWebKit/537.36 (KHTML, like Gecko) Chrome/138.0.0.0 Safari/537.36","WebKit","Chrome","138.0.0.0","Windows","10.0","https://app.prolific.com/","en-GB,en-US;q=0.9,en;q=0.8","59dd90f6e75b450001a68dac","6877631c9844ddd5501205fc","688be16abdd31e42339eba58","3","1","59dd90f6e75b450001a68dac","3","1","2025-07-31T21:41:10.572Z","","","","","","","","","","","StressQ","","50","","","","","","","","","","","","","","","","","","","","","","","","","","","","",""
"2575","","<div style=""width:500px;"">
  <p>What best describes how you currently feel?</p>
  </div>","34","html-slider-response","33","327790","0.0-5.0-4.4","308","1","2025-07-31 21:35:35","1f75c3e559b7213887762d5229550c2b","51.19.161.91","Mozilla/5.0 (Windows NT 10.0; Win64; x64) AppleWebKit/537.36 (KHTML, like Gecko) Chrome/138.0.0.0 Safari/537.36","WebKit","Chrome","138.0.0.0","Windows","10.0","https://app.prolific.com/","en-GB,en-US;q=0.9,en;q=0.8","59dd90f6e75b450001a68dac","6877631c9844ddd5501205fc","688be16abdd31e42339eba58","3","1","59dd90f6e75b450001a68dac","3","1","2025-07-31T21:41:13.148Z","","","","","","","","","","","MotivationQ","","50","","","","","","","","","","","","","","","","","","","","","","","","","","","","",""
"","","","","ctl-task-cpt","34","379085","0.0-5.0-0.5","308","1","2025-07-31 21:35:35","1f75c3e559b7213887762d5229550c2b","51.19.161.91","Mozilla/5.0 (Windows NT 10.0; Win64; x64) AppleWebKit/537.36 (KHTML, like Gecko) Chrome/138.0.0.0 Safari/537.36","WebKit","Chrome","138.0.0.0","Windows","10.0","https://app.prolific.com/","en-GB,en-US;q=0.9,en;q=0.8","59dd90f6e75b450001a68dac","6877631c9844ddd5501205fc","688be16abdd31e42339eba58","3","1","59dd90f6e75b450001a68dac","3","1","2025-07-31T21:42:04.443Z","","","","","","","","","","","","","","win-only","0","g1:NW,g2:SE","0.5","6","0","341014.4","713","5716","48277.4","1","4","4","6","2","-4","-5","21","26","0.1590909090909091","2268.8","3000","-2715","[""down"",""right""]","{""num_key_presses"":9,""num_perfect"":4,""num_errors"":1,""num_randdir"":4,""num_randdir_good_moves"":2,""num_whilered"":0,""num_whileblue"":0,""num_blue"":4,""num_good_moves"":6}","[422.57142857142856,414.47767857142856,0.2,422.57142857142856,414.47767857142856,102.4,422.57142857142856,414.47767857142856,204.2,422.57142857142856,414.47767857142856,307.7,422.57142857142856,414.47767857142856,415.1,422.57142857142856,414.47767857142856,518,422.57142857142856,414.47767857142856,622.2,301.57142857142856,314.47767857142856,724.1,58.57142857142857,141.47767857142856,832.2,58.57142857142857,127.47767857142857,937.3,61.57142857142857,118.47767857142857,1037.5,66.57142857142857,113.47767857142857,1148.6,66.57142857142857,113.47767857142857,1248.6,66.57142857142857,113.47767857142857,1353.2,66.57142857142857,113.47767857142857,1457.6,66.57142857142857,113.47767857142857,1558.4,66.57142857142857,113.47767857142857,1658.5,235.57142857142856,254.47767857142856,1765.8,916.5714285714286,787.4776785714286,1866.3,885.5714285714286,819.4776785714286,1968,885.5714285714286,819.4776785714286,2073.4,786.5714285714286,760.4776785714286,2182,775.5714285714286,760.4776785714286,2283.2,775.5714285714286,760.4776785714286,2388.8,682.5714285714286,762.4776785714286,2492.6,-164.42857142857144,495.47767857142856,2598.4,-367.42857142857144,379.47767857142856,2702.2,-367.42857142857144,379.47767857142856,2802.3,-367.42857142857144,379.47767857142856,2904.3,-367.42857142857144,379.47767857142856,3008.1,-367.42857142857144,379.47767857142856,3108.3,-367.42857142857144,379.47767857142856,3214.7,-367.42857142857144,379.47767857142856,3315.2,-367.42857142857144,379.47767857142856,3415.3,-367.42857142857144,379.47767857142856,3516,-367.42857142857144,379.47767857142856,3616.4,-367.42857142857144,379.47767857142856,3717.8,-367.42857142857144,379.47767857142856,3823.2,-367.42857142857144,379.47767857142856,3933.2,-367.42857142857144,379.47767857142856,4037.9,-367.42857142857144,379.47767857142856,4149.4,-367.42857142857144,379.47767857142856,4250.7,-367.42857142857144,379.47767857142856,4352.4,-367.42857142857144,379.47767857142856,4453,-367.42857142857144,379.47767857142856,4554,-367.42857142857144,379.47767857142856,4657.8,-367.42857142857144,379.47767857142856,4764.7,-367.42857142857144,379.47767857142856,4866.7,-367.42857142857144,379.47767857142856,4967.6]","[1426.8,1426.8,1000,0,426.8,""oops"",""down"",""down"",""good_move"",8570.1,7143,3031.1,5119.9,419.1,""oops"",""down"",""down"",""good_move"",11761.7,3191.6,2764.5,8570.1,427.1,""oops"",""right"",""left"",""bad_move"",14481.9,2719.9,2360.1,11762,359.8,""smooth"",""right"",""right"",""good_move"",21129.7,6647.5,2417.1,18312.4,400.2,""smooth"",""right"",""right"",""good_move"",27801.7,6671.8,2788.6,24620.5,392.6,""smooth"",""right"",""right"",""good_move"",30697.4,2895.6,2419.8,27801.8,475.8,""smooth"",""right"",""right"",""good_move"",37593.9,6896.3,3240.2,33919.4,434.3,""oops"",""down"",""up"",""bad_move"",38093,498.8,2511.8,37594.2,-2013,""error"",""-"",""-"",""no_move""]","",""
"2758","","<div style=""width:500px;"">
  <p>What determined the result of this run?</p>
  </div>","64","html-slider-response","35","381843","0.0-5.0-1.5","308","1","2025-07-31 21:35:35","1f75c3e559b7213887762d5229550c2b","51.19.161.91","Mozilla/5.0 (Windows NT 10.0; Win64; x64) AppleWebKit/537.36 (KHTML, like Gecko) Chrome/138.0.0.0 Safari/537.36","WebKit","Chrome","138.0.0.0","Windows","10.0","https://app.prolific.com/","en-GB,en-US;q=0.9,en;q=0.8","59dd90f6e75b450001a68dac","6877631c9844ddd5501205fc","688be16abdd31e42339eba58","3","1","59dd90f6e75b450001a68dac","3","1","2025-07-31T21:42:07.201Z","","","","","","","","","","","AttribQ","","50","","","","","","","","","","","","","","","","","","","","","","","","","","","","",""
"3349","","<div style=""width:500px;"">
  <p>How much control did you have over the ball?</p>
  </div>","57","html-slider-response","36","385193","0.0-5.0-2.5","308","1","2025-07-31 21:35:35","1f75c3e559b7213887762d5229550c2b","51.19.161.91","Mozilla/5.0 (Windows NT 10.0; Win64; x64) AppleWebKit/537.36 (KHTML, like Gecko) Chrome/138.0.0.0 Safari/537.36","WebKit","Chrome","138.0.0.0","Windows","10.0","https://app.prolific.com/","en-GB,en-US;q=0.9,en;q=0.8","59dd90f6e75b450001a68dac","6877631c9844ddd5501205fc","688be16abdd31e42339eba58","3","1","59dd90f6e75b450001a68dac","3","1","2025-07-31T21:42:10.551Z","","","","","","","","","","","ControlQ","","50","","","","","","","","","","","","","","","","","","","","","","","","","","","","",""
"2381","","<div style=""width:500px;"">
  <p>How would you describe your current emotional state?</p>
  </div>","98","html-slider-response","37","387575","0.0-5.0-3.5","308","1","2025-07-31 21:35:35","1f75c3e559b7213887762d5229550c2b","51.19.161.91","Mozilla/5.0 (Windows NT 10.0; Win64; x64) AppleWebKit/537.36 (KHTML, like Gecko) Chrome/138.0.0.0 Safari/537.36","WebKit","Chrome","138.0.0.0","Windows","10.0","https://app.prolific.com/","en-GB,en-US;q=0.9,en;q=0.8","59dd90f6e75b450001a68dac","6877631c9844ddd5501205fc","688be16abdd31e42339eba58","3","1","59dd90f6e75b450001a68dac","3","1","2025-07-31T21:42:12.934Z","","","","","","","","","","","StressQ","","50","","","","","","","","","","","","","","","","","","","","","","","","","","","","",""
"2245","","<div style=""width:500px;"">
  <p>What best describes how you currently feel?</p>
  </div>","28","html-slider-response","38","389822","0.0-5.0-4.5","308","1","2025-07-31 21:35:35","1f75c3e559b7213887762d5229550c2b","51.19.161.91","Mozilla/5.0 (Windows NT 10.0; Win64; x64) AppleWebKit/537.36 (KHTML, like Gecko) Chrome/138.0.0.0 Safari/537.36","WebKit","Chrome","138.0.0.0","Windows","10.0","https://app.prolific.com/","en-GB,en-US;q=0.9,en;q=0.8","59dd90f6e75b450001a68dac","6877631c9844ddd5501205fc","688be16abdd31e42339eba58","3","1","59dd90f6e75b450001a68dac","3","1","2025-07-31T21:42:15.180Z","","","","","","","","","","","MotivationQ","","50","","","","","","","","","","","","","","","","","","","","","","","","","","","","",""
"","","","","ctl-task-cpt","39","428252","0.0-5.0-0.6","308","1","2025-07-31 21:35:35","1f75c3e559b7213887762d5229550c2b","51.19.161.91","Mozilla/5.0 (Windows NT 10.0; Win64; x64) AppleWebKit/537.36 (KHTML, like Gecko) Chrome/138.0.0.0 Safari/537.36","WebKit","Chrome","138.0.0.0","Windows","10.0","https://app.prolific.com/","en-GB,en-US;q=0.9,en;q=0.8","59dd90f6e75b450001a68dac","6877631c9844ddd5501205fc","688be16abdd31e42339eba58","3","1","59dd90f6e75b450001a68dac","3","1","2025-07-31T21:42:53.610Z","","","","","","","","","","","","","","win-only","3","g1:SW,g2:NE","0.4","7","0","403046.2","861.1","5866.9","35411.6","1","4","8","6","1","-1","-1","20","21","0.15151515151515152","1454.1","3000","-3010","[""down"",""left""]","{""num_key_presses"":7,""num_perfect"":3,""num_errors"":0,""num_randdir"":4,""num_randdir_good_moves"":2,""num_whilered"":0,""num_whileblue"":0,""num_blue"":3,""num_good_moves"":5}","[415.57142857142856,416.47767857142856,0.1,415.57142857142856,416.47767857142856,100.2,415.57142857142856,416.47767857142856,200.3,415.57142857142856,416.47767857142856,304.7,415.57142857142856,416.47767857142856,410,415.57142857142856,416.47767857142856,514.9,415.57142857142856,416.47767857142856,615.3,444.57142857142856,399.47767857142856,715.9,490.57142857142856,377.47767857142856,819.1,229.57142857142856,592.4776785714286,921,77.57142857142857,768.4776785714286,1026,48.57142857142857,817.4776785714286,1130.2,42.57142857142857,824.4776785714286,1234.6,67.57142857142857,790.4776785714286,1336,69.57142857142857,779.4776785714286,1441,69.57142857142857,779.4776785714286,1544.6,16.57142857142857,766.4776785714286,1645.4,-543.4285714285714,555.4776785714286,1749.7,-543.4285714285714,532.4776785714286,1849.7,-543.4285714285714,532.4776785714286,1949.9,-543.4285714285714,532.4776785714286,2050.2,-543.4285714285714,532.4776785714286,2150.8,-543.4285714285714,532.4776785714286,2255.5,-543.4285714285714,532.4776785714286,2355.5,-543.4285714285714,532.4776785714286,2460.5,-543.4285714285714,532.4776785714286,2566.1,-543.4285714285714,532.4776785714286,2669.6,-543.4285714285714,532.4776785714286,2771.5,-543.4285714285714,532.4776785714286,2875.7,-543.4285714285714,532.4776785714286,2981.1,-543.4285714285714,532.4776785714286,3086.2,-543.4285714285714,532.4776785714286,3190.7,-543.4285714285714,532.4776785714286,3290.8,-543.4285714285714,532.4776785714286,3395.2,-543.4285714285714,532.4776785714286,3499.5,-543.4285714285714,532.4776785714286,3600.8,-543.4285714285714,532.4776785714286,3705.3,-543.4285714285714,532.4776785714286,3806.3,-543.4285714285714,532.4776785714286,3910.1,-543.4285714285714,532.4776785714286,4010.9,-543.4285714285714,532.4776785714286,4110.9,-543.4285714285714,532.4776785714286,4215.1,-543.4285714285714,532.4776785714286,4320.2,-543.4285714285714,532.4776785714286,4425.3,-543.4285714285714,532.4776785714286,4530.5,-543.4285714285714,532.4776785714286,4635.8,-543.4285714285714,532.4776785714286,4736.3,-543.4285714285714,532.4776785714286,4840.5,-543.4285714285714,532.4776785714286,4944.8]","[1403.2,1403.2,1000,0,403.2,""smooth"",""left"",""left"",""good_move"",3691.1,2287.5,1922,1403.6,365.5,""oops"",""left"",""up"",""bad_move"",13283.3,9592,2369.5,10499.2,414.6,""smooth"",""down"",""down"",""good_move"",18594.8,5311.4,1874.6,16313.6,406.6,""oops"",""down"",""right"",""bad_move"",21235,2640,2255.8,18595,384.2,""oops"",""down"",""down"",""good_move"",24011.7,2776.6,2224.4,21235.2,552.1,""smooth"",""down"",""down"",""good_move"",26922.9,2910.9,2560.9,24012,350,""oops"",""left"",""left"",""good_move""]","",""
"1533","","<div style=""width:500px;"">
  <p>What determined the result of this run?</p>
  </div>","0","html-slider-response","40","429786","0.0-5.0-1.6","308","1","2025-07-31 21:35:35","1f75c3e559b7213887762d5229550c2b","51.19.161.91","Mozilla/5.0 (Windows NT 10.0; Win64; x64) AppleWebKit/537.36 (KHTML, like Gecko) Chrome/138.0.0.0 Safari/537.36","WebKit","Chrome","138.0.0.0","Windows","10.0","https://app.prolific.com/","en-GB,en-US;q=0.9,en;q=0.8","59dd90f6e75b450001a68dac","6877631c9844ddd5501205fc","688be16abdd31e42339eba58","3","1","59dd90f6e75b450001a68dac","3","1","2025-07-31T21:42:55.144Z","","","","","","","","","","","AttribQ","","50","","","","","","","","","","","","","","","","","","","","","","","","","","","","",""
"3766","","<div style=""width:500px;"">
  <p>How much control did you have over the ball?</p>
  </div>","58","html-slider-response","41","433553","0.0-5.0-2.6","308","1","2025-07-31 21:35:35","1f75c3e559b7213887762d5229550c2b","51.19.161.91","Mozilla/5.0 (Windows NT 10.0; Win64; x64) AppleWebKit/537.36 (KHTML, like Gecko) Chrome/138.0.0.0 Safari/537.36","WebKit","Chrome","138.0.0.0","Windows","10.0","https://app.prolific.com/","en-GB,en-US;q=0.9,en;q=0.8","59dd90f6e75b450001a68dac","6877631c9844ddd5501205fc","688be16abdd31e42339eba58","3","1","59dd90f6e75b450001a68dac","3","1","2025-07-31T21:42:58.911Z","","","","","","","","","","","ControlQ","","50","","","","","","","","","","","","","","","","","","","","","","","","","","","","",""
"1904","","<div style=""width:500px;"">
  <p>How would you describe your current emotional state?</p>
  </div>","83","html-slider-response","42","435458","0.0-5.0-3.6","308","1","2025-07-31 21:35:35","1f75c3e559b7213887762d5229550c2b","51.19.161.91","Mozilla/5.0 (Windows NT 10.0; Win64; x64) AppleWebKit/537.36 (KHTML, like Gecko) Chrome/138.0.0.0 Safari/537.36","WebKit","Chrome","138.0.0.0","Windows","10.0","https://app.prolific.com/","en-GB,en-US;q=0.9,en;q=0.8","59dd90f6e75b450001a68dac","6877631c9844ddd5501205fc","688be16abdd31e42339eba58","3","1","59dd90f6e75b450001a68dac","3","1","2025-07-31T21:43:00.816Z","","","","","","","","","","","StressQ","","50","","","","","","","","","","","","","","","","","","","","","","","","","","","","",""
"1917","","<div style=""width:500px;"">
  <p>What best describes how you currently feel?</p>
  </div>","17","html-slider-response","43","437375","0.0-5.0-4.6","308","1","2025-07-31 21:35:35","1f75c3e559b7213887762d5229550c2b","51.19.161.91","Mozilla/5.0 (Windows NT 10.0; Win64; x64) AppleWebKit/537.36 (KHTML, like Gecko) Chrome/138.0.0.0 Safari/537.36","WebKit","Chrome","138.0.0.0","Windows","10.0","https://app.prolific.com/","en-GB,en-US;q=0.9,en;q=0.8","59dd90f6e75b450001a68dac","6877631c9844ddd5501205fc","688be16abdd31e42339eba58","3","1","59dd90f6e75b450001a68dac","3","1","2025-07-31T21:43:02.734Z","","","","","","","","","","","MotivationQ","","50","","","","","","","","","","","","","","","","","","","","","","","","","","","","",""
"","","","","ctl-task-cpt","44","474004","0.0-5.0-0.7","308","1","2025-07-31 21:35:35","1f75c3e559b7213887762d5229550c2b","51.19.161.91","Mozilla/5.0 (Windows NT 10.0; Win64; x64) AppleWebKit/537.36 (KHTML, like Gecko) Chrome/138.0.0.0 Safari/537.36","WebKit","Chrome","138.0.0.0","Windows","10.0","https://app.prolific.com/","en-GB,en-US;q=0.9,en;q=0.8","59dd90f6e75b450001a68dac","6877631c9844ddd5501205fc","688be16abdd31e42339eba58","3","1","59dd90f6e75b450001a68dac","3","1","2025-07-31T21:43:39.362Z","","","","","","","","","","","","","","win-only","0","g1:NW,g2:SE","0.3","8","0","450600.3","585.4","5592.9","33615.9","1","4","4","6","2","-4","-4","16","20","0.12121212121212122","1339.8","3000","-2700","[""down"",""right""]","{""num_key_presses"":8,""num_perfect"":2,""num_errors"":0,""num_randdir"":6,""num_randdir_good_moves"":4,""num_whilered"":0,""num_whileblue"":0,""num_blue"":1,""num_good_moves"":6}","[419.57142857142856,411.47767857142856,0.1,417.57142857142856,411.47767857142856,100.4,417.57142857142856,411.47767857142856,206.9,417.57142857142856,411.47767857142856,307.1,417.57142857142856,411.47767857142856,408,417.57142857142856,411.47767857142856,508.1,417.57142857142856,411.47767857142856,611.2,417.57142857142856,411.47767857142856,715,417.57142857142856,411.47767857142856,815,499.57142857142856,447.47767857142856,916.7,756.5714285714286,692.4776785714286,1023.8,772.5714285714286,731.4776785714286,1125,771.5714285714286,748.4776785714286,1225.3,770.5714285714286,761.4776785714286,1325.6,770.5714285714286,761.4776785714286,1430.4,664.5714285714286,739.4776785714286,1530.6,-213.42857142857144,445.47767857142856,1641,-340.42857142857144,367.47767857142856,1746.4,-361.42857142857144,367.47767857142856,1851.1,-361.42857142857144,367.47767857142856,1957.7,-361.42857142857144,367.47767857142856,2058.1,-361.42857142857144,367.47767857142856,2160.5,-361.42857142857144,367.47767857142856,2265.5,-361.42857142857144,367.47767857142856,2366,-361.42857142857144,367.47767857142856,2472.7,-361.42857142857144,367.47767857142856,2573.6,-361.42857142857144,367.47767857142856,2675,-361.42857142857144,367.47767857142856,2775.8,-361.42857142857144,367.47767857142856,2880,-361.42857142857144,367.47767857142856,2980,-361.42857142857144,367.47767857142856,3090.1,-361.42857142857144,367.47767857142856,3194.8,-361.42857142857144,367.47767857142856,3295.6,-361.42857142857144,367.47767857142856,3395.9,-361.42857142857144,367.47767857142856,3499.9,-361.42857142857144,367.47767857142856,3600.2,-361.42857142857144,367.47767857142856,3700.5,-361.42857142857144,367.47767857142856,3807.2,-361.42857142857144,367.47767857142856,3910.2,-361.42857142857144,367.47767857142856,4011.1,-361.42857142857144,367.47767857142856,4115.1,-361.42857142857144,367.47767857142856,4223.2,-361.42857142857144,367.47767857142856,4325.2,-361.42857142857144,367.47767857142856,4426,-361.42857142857144,367.47767857142856,4526.6,-361.42857142857144,367.47767857142856,4630.3,-361.42857142857144,367.47767857142856,4730.5,-361.42857142857144,367.47767857142856,4840.3,-361.42857142857144,367.47767857142856,4946.6]","[1414.1,1414.1,1000,0,414.1,""oops"",""right"",""right"",""good_move"",4464.1,3049.5,2641.8,1414.6,407.7,""smooth"",""right"",""right"",""good_move"",7080.8,2616.5,2228.3,4464.3,388.3,""oops"",""right"",""down"",""good_move"",10666.7,3585.4,3180.5,7081.3,404.9,""oops"",""right"",""right"",""good_move"",13314.9,2648.1,2269,10666.8,379.2,""oops"",""down"",""left"",""bad_move"",16564.2,3249,2842.9,13315.2,406.1,""oops"",""down"",""left"",""bad_move"",23080.5,6516,2748.7,19773.2,558.6,""smooth"",""down"",""down"",""good_move"",25939.3,2858.4,2439.6,23080.9,418.8,""oops"",""down"",""down"",""good_move""]","",""
"1678","","<div style=""width:500px;"">
  <p>What determined the result of this run?</p>
  </div>","56","html-slider-response","45","475683","0.0-5.0-1.7","308","1","2025-07-31 21:35:35","1f75c3e559b7213887762d5229550c2b","51.19.161.91","Mozilla/5.0 (Windows NT 10.0; Win64; x64) AppleWebKit/537.36 (KHTML, like Gecko) Chrome/138.0.0.0 Safari/537.36","WebKit","Chrome","138.0.0.0","Windows","10.0","https://app.prolific.com/","en-GB,en-US;q=0.9,en;q=0.8","59dd90f6e75b450001a68dac","6877631c9844ddd5501205fc","688be16abdd31e42339eba58","3","1","59dd90f6e75b450001a68dac","3","1","2025-07-31T21:43:41.041Z","","","","","","","","","","","AttribQ","","50","","","","","","","","","","","","","","","","","","","","","","","","","","","","",""
"3108","","<div style=""width:500px;"">
  <p>How much control did you have over the ball?</p>
  </div>","27","html-slider-response","46","478792","0.0-5.0-2.7","308","1","2025-07-31 21:35:35","1f75c3e559b7213887762d5229550c2b","51.19.161.91","Mozilla/5.0 (Windows NT 10.0; Win64; x64) AppleWebKit/537.36 (KHTML, like Gecko) Chrome/138.0.0.0 Safari/537.36","WebKit","Chrome","138.0.0.0","Windows","10.0","https://app.prolific.com/","en-GB,en-US;q=0.9,en;q=0.8","59dd90f6e75b450001a68dac","6877631c9844ddd5501205fc","688be16abdd31e42339eba58","3","1","59dd90f6e75b450001a68dac","3","1","2025-07-31T21:43:44.150Z","","","","","","","","","","","ControlQ","","50","","","","","","","","","","","","","","","","","","","","","","","","","","","","",""
"2169","","<div style=""width:500px;"">
  <p>How would you describe your current emotional state?</p>
  </div>","94","html-slider-response","47","480961","0.0-5.0-3.7","308","1","2025-07-31 21:35:35","1f75c3e559b7213887762d5229550c2b","51.19.161.91","Mozilla/5.0 (Windows NT 10.0; Win64; x64) AppleWebKit/537.36 (KHTML, like Gecko) Chrome/138.0.0.0 Safari/537.36","WebKit","Chrome","138.0.0.0","Windows","10.0","https://app.prolific.com/","en-GB,en-US;q=0.9,en;q=0.8","59dd90f6e75b450001a68dac","6877631c9844ddd5501205fc","688be16abdd31e42339eba58","3","1","59dd90f6e75b450001a68dac","3","1","2025-07-31T21:43:46.320Z","","","","","","","","","","","StressQ","","50","","","","","","","","","","","","","","","","","","","","","","","","","","","","",""
"4301","","<div style=""width:500px;"">
  <p>What best describes how you currently feel?</p>
  </div>","53","html-slider-response","48","485264","0.0-5.0-4.7","308","1","2025-07-31 21:35:35","1f75c3e559b7213887762d5229550c2b","51.19.161.91","Mozilla/5.0 (Windows NT 10.0; Win64; x64) AppleWebKit/537.36 (KHTML, like Gecko) Chrome/138.0.0.0 Safari/537.36","WebKit","Chrome","138.0.0.0","Windows","10.0","https://app.prolific.com/","en-GB,en-US;q=0.9,en;q=0.8","59dd90f6e75b450001a68dac","6877631c9844ddd5501205fc","688be16abdd31e42339eba58","3","1","59dd90f6e75b450001a68dac","3","1","2025-07-31T21:43:50.622Z","","","","","","","","","","","MotivationQ","","50","","","","","","","","","","","","","","","","","","","","","","","","","","","","",""
"","","","","ctl-task-cpt","49","521693","0.0-5.0-0.8","308","1","2025-07-31 21:35:35","1f75c3e559b7213887762d5229550c2b","51.19.161.91","Mozilla/5.0 (Windows NT 10.0; Win64; x64) AppleWebKit/537.36 (KHTML, like Gecko) Chrome/138.0.0.0 Safari/537.36","WebKit","Chrome","138.0.0.0","Windows","10.0","https://app.prolific.com/","en-GB,en-US;q=0.9,en;q=0.8","59dd90f6e75b450001a68dac","6877631c9844ddd5501205fc","688be16abdd31e42339eba58","3","1","59dd90f6e75b450001a68dac","3","1","2025-07-31T21:44:27.052Z","","","","","","","","","","","","","","win-only","1","g1:NE,g2:SW","0.2","9","0","498488.6","852.5","5855.6","33411.7","1","4","8","6","1","-1","-2","14","16","0.10606060606060606","1598.5","3000","-3000","[""up"",""right""]","{""num_key_presses"":8,""num_perfect"":2,""num_errors"":1,""num_randdir"":5,""num_randdir_good_moves"":1,""num_whilered"":0,""num_whileblue"":0,""num_blue"":1,""num_good_moves"":3}","[413.57142857142856,418.47767857142856,0.2,413.57142857142856,418.47767857142856,103.5,413.57142857142856,418.47767857142856,203.8,411.57142857142856,415.47767857142856,304.7,422.57142857142856,402.47767857142856,408.3,424.57142857142856,399.47767857142856,509.9,424.57142857142856,399.47767857142856,612.9,424.57142857142856,399.47767857142856,713.1,425.57142857142856,398.47767857142856,813.4,425.57142857142856,398.47767857142856,918.3,425.57142857142856,397.47767857142856,1024.9,425.57142857142856,396.47767857142856,1128.3,457.57142857142856,367.47767857142856,1229.3,731.5714285714286,153.47767857142856,1333.3,753.5714285714286,135.47767857142856,1433.6,762.5714285714286,127.47767857142857,1539.7,762.5714285714286,127.47767857142857,1643.3,762.5714285714286,127.47767857142857,1743.6,758.5714285714286,128.47767857142856,1848.4,757.5714285714286,131.47767857142856,1948.8,757.5714285714286,131.47767857142856,2049.2,757.5714285714286,131.47767857142856,2153.9,757.5714285714286,131.47767857142856,2258.3,757.5714285714286,131.47767857142856,2358.4,757.5714285714286,131.47767857142856,2463.3,757.5714285714286,131.47767857142856,2568.5,757.5714285714286,131.47767857142856,2668.6,757.5714285714286,131.47767857142856,2773.3,757.5714285714286,131.47767857142856,2877.9,757.5714285714286,131.47767857142856,2978.4,757.5714285714286,131.47767857142856,3078.5,757.5714285714286,131.47767857142856,3179,757.5714285714286,131.47767857142856,3282.7,757.5714285714286,131.47767857142856,3383,757.5714285714286,131.47767857142856,3488.7,757.5714285714286,131.47767857142856,3588.9,757.5714285714286,131.47767857142856,3693.4,757.5714285714286,131.47767857142856,3794.8,757.5714285714286,131.47767857142856,3899,757.5714285714286,131.47767857142856,4003.9,757.5714285714286,131.47767857142856,4104.2,757.5714285714286,131.47767857142856,4204.8,757.5714285714286,131.47767857142856,4307.9,757.5714285714286,131.47767857142856,4408.6,757.5714285714286,131.47767857142856,4508.8,757.5714285714286,131.47767857142856,4613.4,757.5714285714286,131.47767857142856,4714.9,757.5714285714286,131.47767857142856,4819.6,757.5714285714286,131.47767857142856,4922.8]","[1420.3,1420.3,1000,0,420.3,""oops"",""up"",""up"",""good_move"",3628.3,2207.5,1820.7,1420.8,386.8,""oops"",""up"",""down"",""bad_move"",6771.8,3143.1,2718.6,3628.7,424.5,""oops"",""up"",""down"",""bad_move"",9709.7,2937.7,2525.6,6772,412.1,""smooth"",""up"",""up"",""good_move"",15916,6205.8,2195.3,13240.1,480.6,""oops"",""up"",""down"",""bad_move"",19323.7,3407.3,2966.3,15916.4,441,""oops"",""right"",""down"",""bad_move"",19843.8,519.9,2202.6,19323.9,-1682.7,""error"",""-"",""-"",""no_move"",24116.5,4272.5,2809.5,20844.6,462.4,""smooth"",""right"",""right"",""good_move""]","",""
"2020","","<div style=""width:500px;"">
  <p>What determined the result of this run?</p>
  </div>","0","html-slider-response","50","523714","0.0-5.0-1.8","308","1","2025-07-31 21:35:35","1f75c3e559b7213887762d5229550c2b","51.19.161.91","Mozilla/5.0 (Windows NT 10.0; Win64; x64) AppleWebKit/537.36 (KHTML, like Gecko) Chrome/138.0.0.0 Safari/537.36","WebKit","Chrome","138.0.0.0","Windows","10.0","https://app.prolific.com/","en-GB,en-US;q=0.9,en;q=0.8","59dd90f6e75b450001a68dac","6877631c9844ddd5501205fc","688be16abdd31e42339eba58","3","1","59dd90f6e75b450001a68dac","3","1","2025-07-31T21:44:29.072Z","","","","","","","","","","","AttribQ","","50","","","","","","","","","","","","","","","","","","","","","","","","","","","","",""
"3569","","<div style=""width:500px;"">
  <p>How much control did you have over the ball?</p>
  </div>","17","html-slider-response","51","527283","0.0-5.0-2.8","308","1","2025-07-31 21:35:35","1f75c3e559b7213887762d5229550c2b","51.19.161.91","Mozilla/5.0 (Windows NT 10.0; Win64; x64) AppleWebKit/537.36 (KHTML, like Gecko) Chrome/138.0.0.0 Safari/537.36","WebKit","Chrome","138.0.0.0","Windows","10.0","https://app.prolific.com/","en-GB,en-US;q=0.9,en;q=0.8","59dd90f6e75b450001a68dac","6877631c9844ddd5501205fc","688be16abdd31e42339eba58","3","1","59dd90f6e75b450001a68dac","3","1","2025-07-31T21:44:32.642Z","","","","","","","","","","","ControlQ","","50","","","","","","","","","","","","","","","","","","","","","","","","","","","","",""
"1959","","<div style=""width:500px;"">
  <p>How would you describe your current emotional state?</p>
  </div>","69","html-slider-response","52","529243","0.0-5.0-3.8","308","1","2025-07-31 21:35:35","1f75c3e559b7213887762d5229550c2b","51.19.161.91","Mozilla/5.0 (Windows NT 10.0; Win64; x64) AppleWebKit/537.36 (KHTML, like Gecko) Chrome/138.0.0.0 Safari/537.36","WebKit","Chrome","138.0.0.0","Windows","10.0","https://app.prolific.com/","en-GB,en-US;q=0.9,en;q=0.8","59dd90f6e75b450001a68dac","6877631c9844ddd5501205fc","688be16abdd31e42339eba58","3","1","59dd90f6e75b450001a68dac","3","1","2025-07-31T21:44:34.601Z","","","","","","","","","","","StressQ","","50","","","","","","","","","","","","","","","","","","","","","","","","","","","","",""
"2146","","<div style=""width:500px;"">
  <p>What best describes how you currently feel?</p>
  </div>","27","html-slider-response","53","531389","0.0-5.0-4.8","308","1","2025-07-31 21:35:35","1f75c3e559b7213887762d5229550c2b","51.19.161.91","Mozilla/5.0 (Windows NT 10.0; Win64; x64) AppleWebKit/537.36 (KHTML, like Gecko) Chrome/138.0.0.0 Safari/537.36","WebKit","Chrome","138.0.0.0","Windows","10.0","https://app.prolific.com/","en-GB,en-US;q=0.9,en;q=0.8","59dd90f6e75b450001a68dac","6877631c9844ddd5501205fc","688be16abdd31e42339eba58","3","1","59dd90f6e75b450001a68dac","3","1","2025-07-31T21:44:36.748Z","","","","","","","","","","","MotivationQ","","50","","","","","","","","","","","","","","","","","","","","","","","","","","","","",""
"","","","","ctl-task-cpt","54","564470","0.0-5.0-0.9","308","1","2025-07-31 21:35:35","1f75c3e559b7213887762d5229550c2b","51.19.161.91","Mozilla/5.0 (Windows NT 10.0; Win64; x64) AppleWebKit/537.36 (KHTML, like Gecko) Chrome/138.0.0.0 Safari/537.36","WebKit","Chrome","138.0.0.0","Windows","10.0","https://app.prolific.com/","en-GB,en-US;q=0.9,en;q=0.8","59dd90f6e75b450001a68dac","6877631c9844ddd5501205fc","688be16abdd31e42339eba58","3","1","59dd90f6e75b450001a68dac","3","1","2025-07-31T21:45:09.828Z","","","","","","","","","","","","","","win-only","3","g1:SW,g2:NE","0.4","10","0","544614.5","658.5","5660.8","30070.9","1","4","4","6","1","-1","-1","13","14","0.09848484848484848","1283","3000","-2690","[""down"",""left""]","{""num_key_presses"":7,""num_perfect"":3,""num_errors"":0,""num_randdir"":4,""num_randdir_good_moves"":1,""num_whilered"":0,""num_whileblue"":0,""num_blue"":1,""num_good_moves"":4}","[413.57142857142856,410.47767857142856,0.2,413.57142857142856,410.47767857142856,102.3,413.57142857142856,410.47767857142856,204.1,413.57142857142856,410.47767857142856,306.7,413.57142857142856,410.47767857142856,406.9,413.57142857142856,410.47767857142856,508.3,413.57142857142856,410.47767857142856,612.7,413.57142857142856,410.47767857142856,713.2,413.57142857142856,410.47767857142856,816.8,206.57142857142856,671.4776785714286,916.9,125.57142857142857,760.4776785714286,1016.9,115.57142857142857,765.4776785714286,1117.9,112.57142857142857,763.4776785714286,1222.2,112.57142857142857,761.4776785714286,1328.7,-8.42857142857143,727.4776785714286,1432.9,-428.42857142857144,406.47767857142856,1539.1,-534.4285714285714,341.47767857142856,1643.6,-464.42857142857144,342.47767857142856,1746.9,-464.42857142857144,342.47767857142856,1848.7,-464.42857142857144,342.47767857142856,1952.7,-464.42857142857144,342.47767857142856,2053.8,-464.42857142857144,342.47767857142856,2157.2,-464.42857142857144,342.47767857142856,2262.1,-464.42857142857144,342.47767857142856,2362.6,-464.42857142857144,342.47767857142856,2463.7,-464.42857142857144,342.47767857142856,2568.3,-464.42857142857144,342.47767857142856,2672,-464.42857142857144,342.47767857142856,2772.7,-464.42857142857144,342.47767857142856,2873.2,-464.42857142857144,342.47767857142856,2973.2,-464.42857142857144,342.47767857142856,3077.2,-464.42857142857144,342.47767857142856,3177.3,-464.42857142857144,342.47767857142856,3282.5,-464.42857142857144,342.47767857142856,3387.2,-464.42857142857144,342.47767857142856,3487.2,-464.42857142857144,342.47767857142856,3592,-464.42857142857144,342.47767857142856,3692.3,-464.42857142857144,342.47767857142856,3798.1,-464.42857142857144,342.47767857142856,3898.1,-464.42857142857144,342.47767857142856,3998.2,-464.42857142857144,342.47767857142856,4101.9,-464.42857142857144,342.47767857142856,4201.9,-464.42857142857144,342.47767857142856,4304.5,-464.42857142857144,342.47767857142856,4407,-464.42857142857144,342.47767857142856,4512.6,-464.42857142857144,342.47767857142856,4618.2,-464.42857142857144,342.47767857142856,4718.6,-464.42857142857144,342.47767857142856,4822.7,-464.42857142857144,342.47767857142856,4927.7]","[1400.5,1400.5,1000,0,400.5,""oops"",""down"",""up"",""bad_move"",3728.9,2328,1933.7,1400.9,394.3,""oops"",""down"",""down"",""good_move"",6561,2831.5,2404.6,3729.5,426.9,""oops"",""down"",""up"",""bad_move"",12480.9,5919.7,1812.9,10139.8,528.2,""smooth"",""down"",""down"",""good_move"",15409.8,2928.7,2451,12481.2,477.7,""smooth"",""down"",""down"",""good_move"",18514.9,3104.9,2709.8,15410,395.1,""smooth"",""down"",""down"",""good_move"",21704.6,3189.3,2785.3,18515.3,404,""oops"",""left"",""up"",""bad_move""]","",""
"16528","","<div style=""width:500px;"">
  <p>What determined the result of this run?</p>
  </div>","20","html-slider-response","55","580999","0.0-5.0-1.9","308","1","2025-07-31 21:35:35","1f75c3e559b7213887762d5229550c2b","51.19.161.91","Mozilla/5.0 (Windows NT 10.0; Win64; x64) AppleWebKit/537.36 (KHTML, like Gecko) Chrome/138.0.0.0 Safari/537.36","WebKit","Chrome","138.0.0.0","Windows","10.0","https://app.prolific.com/","en-GB,en-US;q=0.9,en;q=0.8","59dd90f6e75b450001a68dac","6877631c9844ddd5501205fc","688be16abdd31e42339eba58","3","1","59dd90f6e75b450001a68dac","3","1","2025-07-31T21:45:26.358Z","","","","","","","","","","","AttribQ","","50","","","","","","","","","","","","","","","","","","","","","","","","","","","","",""
"3494","","<div style=""width:500px;"">
  <p>How much control did you have over the ball?</p>
  </div>","23","html-slider-response","56","584495","0.0-5.0-2.9","308","1","2025-07-31 21:35:35","1f75c3e559b7213887762d5229550c2b","51.19.161.91","Mozilla/5.0 (Windows NT 10.0; Win64; x64) AppleWebKit/537.36 (KHTML, like Gecko) Chrome/138.0.0.0 Safari/537.36","WebKit","Chrome","138.0.0.0","Windows","10.0","https://app.prolific.com/","en-GB,en-US;q=0.9,en;q=0.8","59dd90f6e75b450001a68dac","6877631c9844ddd5501205fc","688be16abdd31e42339eba58","3","1","59dd90f6e75b450001a68dac","3","1","2025-07-31T21:45:29.853Z","","","","","","","","","","","ControlQ","","50","","","","","","","","","","","","","","","","","","","","","","","","","","","","",""
"2803","","<div style=""width:500px;"">
  <p>How would you describe your current emotional state?</p>
  </div>","67","html-slider-response","57","587300","0.0-5.0-3.9","308","1","2025-07-31 21:35:35","1f75c3e559b7213887762d5229550c2b","51.19.161.91","Mozilla/5.0 (Windows NT 10.0; Win64; x64) AppleWebKit/537.36 (KHTML, like Gecko) Chrome/138.0.0.0 Safari/537.36","WebKit","Chrome","138.0.0.0","Windows","10.0","https://app.prolific.com/","en-GB,en-US;q=0.9,en;q=0.8","59dd90f6e75b450001a68dac","6877631c9844ddd5501205fc","688be16abdd31e42339eba58","3","1","59dd90f6e75b450001a68dac","3","1","2025-07-31T21:45:32.658Z","","","","","","","","","","","StressQ","","50","","","","","","","","","","","","","","","","","","","","","","","","","","","","",""
"1693","","<div style=""width:500px;"">
  <p>What best describes how you currently feel?</p>
  </div>","23","html-slider-response","58","588993","0.0-5.0-4.9","308","1","2025-07-31 21:35:35","1f75c3e559b7213887762d5229550c2b","51.19.161.91","Mozilla/5.0 (Windows NT 10.0; Win64; x64) AppleWebKit/537.36 (KHTML, like Gecko) Chrome/138.0.0.0 Safari/537.36","WebKit","Chrome","138.0.0.0","Windows","10.0","https://app.prolific.com/","en-GB,en-US;q=0.9,en;q=0.8","59dd90f6e75b450001a68dac","6877631c9844ddd5501205fc","688be16abdd31e42339eba58","3","1","59dd90f6e75b450001a68dac","3","1","2025-07-31T21:45:34.351Z","","","","","","","","","","","MotivationQ","","50","","","","","","","","","","","","","","","","","","","","","","","","","","","","",""
"","","","","ctl-task-cpt","59","624003","0.0-5.0-0.10","308","1","2025-07-31 21:35:35","1f75c3e559b7213887762d5229550c2b","51.19.161.91","Mozilla/5.0 (Windows NT 10.0; Win64; x64) AppleWebKit/537.36 (KHTML, like Gecko) Chrome/138.0.0.0 Safari/537.36","WebKit","Chrome","138.0.0.0","Windows","10.0","https://app.prolific.com/","en-GB,en-US;q=0.9,en;q=0.8","59dd90f6e75b450001a68dac","6877631c9844ddd5501205fc","688be16abdd31e42339eba58","3","1","59dd90f6e75b450001a68dac","3","1","2025-07-31T21:46:09.362Z","","","","","","","","","","","","","","win-only","1","g1:NE,g2:SW","0.5","11","0","602217.8","690","5691.9","31996.4","1","4","4","6","2","-4","-4","9","13","0.06818181818181818","1867.4","3000","-2655","[""down"",""left""]","{""num_key_presses"":7,""num_perfect"":3,""num_errors"":0,""num_randdir"":4,""num_randdir_good_moves"":2,""num_whilered"":0,""num_whileblue"":0,""num_blue"":2,""num_good_moves"":5}","[410.57142857142856,413.47767857142856,0.2,410.57142857142856,414.47767857142856,104.1,410.57142857142856,414.47767857142856,206.1,410.57142857142856,414.47767857142856,310.6,410.57142857142856,414.47767857142856,411.8,410.57142857142856,414.47767857142856,519.3,410.57142857142856,414.47767857142856,621.2,410.57142857142856,414.47767857142856,725.2,490.57142857142856,382.47767857142856,827.1,561.5714285714286,337.47767857142856,935.5,672.5714285714286,230.47767857142856,1036,769.5714285714286,154.47767857142856,1141,766.5714285714286,153.47767857142856,1242.4,234.57142857142856,523.4776785714286,1345.8,29.57142857142857,765.4776785714286,1454.1,28.57142857142857,778.4776785714286,1556,49.57142857142857,769.4776785714286,1660.5,64.57142857142857,765.4776785714286,1760.7,78.57142857142857,763.4776785714286,1861.4,78.57142857142857,763.4776785714286,1969,77.57142857142857,763.4776785714286,2069.8,-320.42857142857144,582.4776785714286,2170.3,-369.42857142857144,558.4776785714286,2270.8,-367.42857142857144,558.4776785714286,2376,-367.42857142857144,558.4776785714286,2484.8,-367.42857142857144,558.4776785714286,2585.4,-367.42857142857144,558.4776785714286,2690.4,-367.42857142857144,558.4776785714286,2791.9,-367.42857142857144,558.4776785714286,2895.2,-367.42857142857144,558.4776785714286,2997.1,-367.42857142857144,558.4776785714286,3102.3,-367.42857142857144,558.4776785714286,3202.6,-367.42857142857144,558.4776785714286,3305.5,-367.42857142857144,558.4776785714286,3407.3,-367.42857142857144,558.4776785714286,3510.5,-367.42857142857144,558.4776785714286,3610.7,-367.42857142857144,558.4776785714286,3710.8,-367.42857142857144,558.4776785714286,3810.9,-367.42857142857144,558.4776785714286,3919.1,-367.42857142857144,558.4776785714286,4022.3,-367.42857142857144,558.4776785714286,4125.8,-367.42857142857144,558.4776785714286,4227.6,-367.42857142857144,558.4776785714286,4334.6,-367.42857142857144,558.4776785714286,4435.2,-367.42857142857144,558.4776785714286,4535.5,-367.42857142857144,558.4776785714286,4636.9,-367.42857142857144,558.4776785714286,4742.1,-367.42857142857144,558.4776785714286,4842.4,-367.42857142857144,558.4776785714286,4948.1]","[1431.3,1431.3,1000,0,431.3,""smooth"",""down"",""down"",""good_move"",3498.7,2067.2,1676,1431.6,391.2,""oops"",""down"",""down"",""good_move"",6831.6,3332.7,2908.6,3498.9,424.1,""oops"",""down"",""up"",""bad_move"",9422.3,2590.3,2185.7,6832,404.6,""smooth"",""down"",""down"",""good_move"",12348.4,2926,2460,9422.4,466,""oops"",""left"",""right"",""bad_move"",15248.9,2900.1,2469.2,12348.8,430.9,""oops"",""left"",""left"",""good_move"",24407.7,9158.6,2295.6,21608.7,503.4,""smooth"",""left"",""left"",""good_move""]","",""
"4129","","<div style=""width:500px;"">
  <p>What determined the result of this run?</p>
  </div>","56","html-slider-response","60","628133","0.0-5.0-1.10","308","1","2025-07-31 21:35:35","1f75c3e559b7213887762d5229550c2b","51.19.161.91","Mozilla/5.0 (Windows NT 10.0; Win64; x64) AppleWebKit/537.36 (KHTML, like Gecko) Chrome/138.0.0.0 Safari/537.36","WebKit","Chrome","138.0.0.0","Windows","10.0","https://app.prolific.com/","en-GB,en-US;q=0.9,en;q=0.8","59dd90f6e75b450001a68dac","6877631c9844ddd5501205fc","688be16abdd31e42339eba58","3","1","59dd90f6e75b450001a68dac","3","1","2025-07-31T21:46:13.491Z","","","","","","","","","","","AttribQ","","50","","","","","","","","","","","","","","","","","","","","","","","","","","","","",""
"1961","","<div style=""width:500px;"">
  <p>How much control did you have over the ball?</p>
  </div>","19","html-slider-response","61","630095","0.0-5.0-2.10","308","1","2025-07-31 21:35:35","1f75c3e559b7213887762d5229550c2b","51.19.161.91","Mozilla/5.0 (Windows NT 10.0; Win64; x64) AppleWebKit/537.36 (KHTML, like Gecko) Chrome/138.0.0.0 Safari/537.36","WebKit","Chrome","138.0.0.0","Windows","10.0","https://app.prolific.com/","en-GB,en-US;q=0.9,en;q=0.8","59dd90f6e75b450001a68dac","6877631c9844ddd5501205fc","688be16abdd31e42339eba58","3","1","59dd90f6e75b450001a68dac","3","1","2025-07-31T21:46:15.453Z","","","","","","","","","","","ControlQ","","50","","","","","","","","","","","","","","","","","","","","","","","","","","","","",""
"2957","","<div style=""width:500px;"">
  <p>How would you describe your current emotional state?</p>
  </div>","71","html-slider-response","62","633053","0.0-5.0-3.10","308","1","2025-07-31 21:35:35","1f75c3e559b7213887762d5229550c2b","51.19.161.91","Mozilla/5.0 (Windows NT 10.0; Win64; x64) AppleWebKit/537.36 (KHTML, like Gecko) Chrome/138.0.0.0 Safari/537.36","WebKit","Chrome","138.0.0.0","Windows","10.0","https://app.prolific.com/","en-GB,en-US;q=0.9,en;q=0.8","59dd90f6e75b450001a68dac","6877631c9844ddd5501205fc","688be16abdd31e42339eba58","3","1","59dd90f6e75b450001a68dac","3","1","2025-07-31T21:46:18.411Z","","","","","","","","","","","StressQ","","50","","","","","","","","","","","","","","","","","","","","","","","","","","","","",""
"1647","","<div style=""width:500px;"">
  <p>What best describes how you currently feel?</p>
  </div>","23","html-slider-response","63","634701","0.0-5.0-4.10","308","1","2025-07-31 21:35:35","1f75c3e559b7213887762d5229550c2b","51.19.161.91","Mozilla/5.0 (Windows NT 10.0; Win64; x64) AppleWebKit/537.36 (KHTML, like Gecko) Chrome/138.0.0.0 Safari/537.36","WebKit","Chrome","138.0.0.0","Windows","10.0","https://app.prolific.com/","en-GB,en-US;q=0.9,en;q=0.8","59dd90f6e75b450001a68dac","6877631c9844ddd5501205fc","688be16abdd31e42339eba58","3","1","59dd90f6e75b450001a68dac","3","1","2025-07-31T21:46:20.059Z","","","","","","","","","","","MotivationQ","","50","","","","","","","","","","","","","","","","","","","","","","","","","","","","",""
"","","","","ctl-task-cpt","64","654719","0.0-5.0-0.11","308","1","2025-07-31 21:35:35","1f75c3e559b7213887762d5229550c2b","51.19.161.91","Mozilla/5.0 (Windows NT 10.0; Win64; x64) AppleWebKit/537.36 (KHTML, like Gecko) Chrome/138.0.0.0 Safari/537.36","WebKit","Chrome","138.0.0.0","Windows","10.0","https://app.prolific.com/","en-GB,en-US;q=0.9,en;q=0.8","59dd90f6e75b450001a68dac","6877631c9844ddd5501205fc","688be16abdd31e42339eba58","3","1","59dd90f6e75b450001a68dac","3","1","2025-07-31T21:46:40.077Z","","","","","","","","","","","","","","win-only","1","g1:NE,g2:SW","0.6","12","0","647925.5","1680.6","6680.9","17000.9","1","4","8","6","1","1","1","10","9","0.07575757575757576","1623.2","3000","1280","[""up"",""right""]","{""num_key_presses"":4,""num_perfect"":3,""num_errors"":0,""num_randdir"":1,""num_randdir_good_moves"":1,""num_whilered"":0,""num_whileblue"":0,""num_blue"":0,""num_good_moves"":4}","[411.57142857142856,411.47767857142856,0.3,411.57142857142856,411.47767857142856,105,409.57142857142856,426.47767857142856,205.7,409.57142857142856,426.47767857142856,305.9,409.57142857142856,426.47767857142856,410.5,340.57142857142856,474.47767857142856,515.9,127.57142857142857,796.4776785714286,619,122.57142857142857,812.4776785714286,720.2,122.57142857142857,812.4776785714286,821,374.57142857142856,591.4776785714286,924.8,714.5714285714286,248.47767857142856,1024.9,734.5714285714286,215.47767857142856,1127.2,745.5714285714286,205.47767857142856,1229.7,768.5714285714286,136.47767857142856,1329.8,772.5714285714286,114.47767857142857,1429.8,772.5714285714286,114.47767857142857,1535,772.5714285714286,114.47767857142857,1635.1,772.5714285714286,114.47767857142857,1736.2,772.5714285714286,114.47767857142857,1839.6,301.57142857142856,131.47767857142856,1939.9,-543.4285714285714,185.47767857142856,2040,-543.4285714285714,185.47767857142856,2140.4,-543.4285714285714,185.47767857142856,2244.7,-543.4285714285714,185.47767857142856,2351.1,-543.4285714285714,185.47767857142856,2454.8,-543.4285714285714,185.47767857142856,2554.8,-543.4285714285714,185.47767857142856,2660,-543.4285714285714,185.47767857142856,2760.9,-543.4285714285714,185.47767857142856,2864.6,-543.4285714285714,185.47767857142856,2966,-543.4285714285714,185.47767857142856,3066.1,-543.4285714285714,185.47767857142856,3170.7,-543.4285714285714,185.47767857142856,3275,-543.4285714285714,185.47767857142856,3380.1,-543.4285714285714,185.47767857142856,3485.6,-543.4285714285714,185.47767857142856,3589.7,-543.4285714285714,185.47767857142856,3691,-543.4285714285714,185.47767857142856,3794.9,-543.4285714285714,185.47767857142856,3897,-543.4285714285714,185.47767857142856,4003.3,-543.4285714285714,185.47767857142856,4104.7,-543.4285714285714,185.47767857142856,4206.2,-543.4285714285714,185.47767857142856,4309.8,-543.4285714285714,185.47767857142856,4417.8,-543.4285714285714,185.47767857142856,4520.2,-543.4285714285714,185.47767857142856,4620.8,-543.4285714285714,185.47767857142856,4725.7,-543.4285714285714,185.47767857142856,4830.4,-543.4285714285714,185.47767857142856,4935.9]","[1453.9,1453.9,1000,0,453.9,""smooth"",""up"",""up"",""good_move"",4726,3271.6,2797.7,1454.4,473.9,""oops"",""up"",""right"",""good_move"",7850.1,3123.7,2701.9,4726.4,421.8,""smooth"",""up"",""up"",""good_move"",10221.4,2370.8,1970.3,7850.6,400.5,""smooth"",""right"",""right"",""good_move""]","",""
"2130","","<div style=""width:500px;"">
  <p>What determined the result of this run?</p>
  </div>","89","html-slider-response","65","656849","0.0-5.0-1.11","308","1","2025-07-31 21:35:35","1f75c3e559b7213887762d5229550c2b","51.19.161.91","Mozilla/5.0 (Windows NT 10.0; Win64; x64) AppleWebKit/537.36 (KHTML, like Gecko) Chrome/138.0.0.0 Safari/537.36","WebKit","Chrome","138.0.0.0","Windows","10.0","https://app.prolific.com/","en-GB,en-US;q=0.9,en;q=0.8","59dd90f6e75b450001a68dac","6877631c9844ddd5501205fc","688be16abdd31e42339eba58","3","1","59dd90f6e75b450001a68dac","3","1","2025-07-31T21:46:42.207Z","","","","","","","","","","","AttribQ","","50","","","","","","","","","","","","","","","","","","","","","","","","","","","","",""
"1854","","<div style=""width:500px;"">
  <p>How much control did you have over the ball?</p>
  </div>","67","html-slider-response","66","658704","0.0-5.0-2.11","308","1","2025-07-31 21:35:35","1f75c3e559b7213887762d5229550c2b","51.19.161.91","Mozilla/5.0 (Windows NT 10.0; Win64; x64) AppleWebKit/537.36 (KHTML, like Gecko) Chrome/138.0.0.0 Safari/537.36","WebKit","Chrome","138.0.0.0","Windows","10.0","https://app.prolific.com/","en-GB,en-US;q=0.9,en;q=0.8","59dd90f6e75b450001a68dac","6877631c9844ddd5501205fc","688be16abdd31e42339eba58","3","1","59dd90f6e75b450001a68dac","3","1","2025-07-31T21:46:44.062Z","","","","","","","","","","","ControlQ","","50","","","","","","","","","","","","","","","","","","","","","","","","","","","","",""
"1918","","<div style=""width:500px;"">
  <p>How would you describe your current emotional state?</p>
  </div>","63","html-slider-response","67","660623","0.0-5.0-3.11","308","1","2025-07-31 21:35:35","1f75c3e559b7213887762d5229550c2b","51.19.161.91","Mozilla/5.0 (Windows NT 10.0; Win64; x64) AppleWebKit/537.36 (KHTML, like Gecko) Chrome/138.0.0.0 Safari/537.36","WebKit","Chrome","138.0.0.0","Windows","10.0","https://app.prolific.com/","en-GB,en-US;q=0.9,en;q=0.8","59dd90f6e75b450001a68dac","6877631c9844ddd5501205fc","688be16abdd31e42339eba58","3","1","59dd90f6e75b450001a68dac","3","1","2025-07-31T21:46:45.981Z","","","","","","","","","","","StressQ","","50","","","","","","","","","","","","","","","","","","","","","","","","","","","","",""
"2105","","<div style=""width:500px;"">
  <p>What best describes how you currently feel?</p>
  </div>","16","html-slider-response","68","662729","0.0-5.0-4.11","308","1","2025-07-31 21:35:35","1f75c3e559b7213887762d5229550c2b","51.19.161.91","Mozilla/5.0 (Windows NT 10.0; Win64; x64) AppleWebKit/537.36 (KHTML, like Gecko) Chrome/138.0.0.0 Safari/537.36","WebKit","Chrome","138.0.0.0","Windows","10.0","https://app.prolific.com/","en-GB,en-US;q=0.9,en;q=0.8","59dd90f6e75b450001a68dac","6877631c9844ddd5501205fc","688be16abdd31e42339eba58","3","1","59dd90f6e75b450001a68dac","3","1","2025-07-31T21:46:48.087Z","","","","","","","","","","","MotivationQ","","50","","","","","","","","","","","","","","","","","","","","","","","","","","","","",""
"","","","","ctl-task-cpt","69","682103","0.0-5.0-0.12","308","1","2025-07-31 21:35:35","1f75c3e559b7213887762d5229550c2b","51.19.161.91","Mozilla/5.0 (Windows NT 10.0; Win64; x64) AppleWebKit/537.36 (KHTML, like Gecko) Chrome/138.0.0.0 Safari/537.36","WebKit","Chrome","138.0.0.0","Windows","10.0","https://app.prolific.com/","en-GB,en-US;q=0.9,en;q=0.8","59dd90f6e75b450001a68dac","6877631c9844ddd5501205fc","688be16abdd31e42339eba58","3","1","59dd90f6e75b450001a68dac","3","1","2025-07-31T21:47:07.461Z","","","","","","","","","","","","","","win-only","3","g1:SW,g2:NE","0.7","13","0","675953.7","720.9","5724.5","16355.5","1","4","8","6","1","1","1","11","10","0.08333333333333333","1195.1","3000","1455","[""down"",""left""]","{""num_key_presses"":4,""num_perfect"":3,""num_errors"":0,""num_randdir"":1,""num_randdir_good_moves"":1,""num_whilered"":0,""num_whileblue"":0,""num_blue"":0,""num_good_moves"":4}","[413.57142857142856,410.47767857142856,0.1,416.57142857142856,410.47767857142856,100.9,416.57142857142856,410.47767857142856,205.1,416.57142857142856,410.47767857142856,309.7,416.57142857142856,410.47767857142856,409.8,416.57142857142856,410.47767857142856,515,416.57142857142856,410.47767857142856,619.5,394.57142857142856,437.47767857142856,720.7,163.57142857142856,643.4776785714286,826.2,127.57142857142857,700.4776785714286,931,96.57142857142857,718.4776785714286,1031.2,84.57142857142857,742.4776785714286,1131.2,82.57142857142857,751.4776785714286,1236.2,79.57142857142857,751.4776785714286,1340.8,-59.42857142857143,629.4776785714286,1445.1,-495.42857142857144,460.47767857142856,1545.9,-529.4285714285714,468.47767857142856,1646.6,-529.4285714285714,468.47767857142856,1749.8,-529.4285714285714,468.47767857142856,1854.5,-529.4285714285714,468.47767857142856,1954.9,-529.4285714285714,468.47767857142856,2055.4,-529.4285714285714,468.47767857142856,2159.7,-529.4285714285714,468.47767857142856,2264.6,-529.4285714285714,468.47767857142856,2365.2,-529.4285714285714,468.47767857142856,2466.4,-529.4285714285714,468.47767857142856,2570.1,-529.4285714285714,468.47767857142856,2670.2,-529.4285714285714,468.47767857142856,2775.3,-529.4285714285714,468.47767857142856,2875.6,-529.4285714285714,468.47767857142856,2982.4,-529.4285714285714,468.47767857142856,3085.3,-529.4285714285714,468.47767857142856,3185.4,-529.4285714285714,468.47767857142856,3289.8,-529.4285714285714,468.47767857142856,3396.2,-529.4285714285714,468.47767857142856,3499.8,-529.4285714285714,468.47767857142856,3601.1,-529.4285714285714,468.47767857142856,3704.9,-529.4285714285714,468.47767857142856,3811.8,-529.4285714285714,468.47767857142856,3914.7,-529.4285714285714,468.47767857142856,4019.8,-529.4285714285714,468.47767857142856,4119.9,-529.4285714285714,468.47767857142856,4220.9,-529.4285714285714,468.47767857142856,4321.3,-529.4285714285714,468.47767857142856,4424.5,-529.4285714285714,468.47767857142856,4526,-529.4285714285714,468.47767857142856,4630.4,-529.4285714285714,468.47767857142856,4734.7,-529.4285714285714,468.47767857142856,4834.9,-529.4285714285714,468.47767857142856,4937.1]","[1389.9,1389.9,1000,0,389.9,""oops"",""down"",""down"",""good_move"",4422,3031.6,2655.7,1390.4,375.9,""smooth"",""down"",""down"",""good_move"",7165.7,2743.5,2351.8,4422.2,391.7,""smooth"",""left"",""left"",""good_move"",10533.6,3367.7,2949.6,7165.9,418.1,""smooth"",""left"",""left"",""good_move""]","",""
"2632","","<div style=""width:500px;"">
  <p>What determined the result of this run?</p>
  </div>","71","html-slider-response","70","684735","0.0-5.0-1.12","308","1","2025-07-31 21:35:35","1f75c3e559b7213887762d5229550c2b","51.19.161.91","Mozilla/5.0 (Windows NT 10.0; Win64; x64) AppleWebKit/537.36 (KHTML, like Gecko) Chrome/138.0.0.0 Safari/537.36","WebKit","Chrome","138.0.0.0","Windows","10.0","https://app.prolific.com/","en-GB,en-US;q=0.9,en;q=0.8","59dd90f6e75b450001a68dac","6877631c9844ddd5501205fc","688be16abdd31e42339eba58","3","1","59dd90f6e75b450001a68dac","3","1","2025-07-31T21:47:10.093Z","","","","","","","","","","","AttribQ","","50","","","","","","","","","","","","","","","","","","","","","","","","","","","","",""
"1551","","<div style=""width:500px;"">
  <p>How much control did you have over the ball?</p>
  </div>","100","html-slider-response","71","686287","0.0-5.0-2.12","308","1","2025-07-31 21:35:35","1f75c3e559b7213887762d5229550c2b","51.19.161.91","Mozilla/5.0 (Windows NT 10.0; Win64; x64) AppleWebKit/537.36 (KHTML, like Gecko) Chrome/138.0.0.0 Safari/537.36","WebKit","Chrome","138.0.0.0","Windows","10.0","https://app.prolific.com/","en-GB,en-US;q=0.9,en;q=0.8","59dd90f6e75b450001a68dac","6877631c9844ddd5501205fc","688be16abdd31e42339eba58","3","1","59dd90f6e75b450001a68dac","3","1","2025-07-31T21:47:11.646Z","","","","","","","","","","","ControlQ","","50","","","","","","","","","","","","","","","","","","","","","","","","","","","","",""
"3695","","<div style=""width:500px;"">
  <p>How would you describe your current emotional state?</p>
  </div>","63","html-slider-response","72","689983","0.0-5.0-3.12","308","1","2025-07-31 21:35:35","1f75c3e559b7213887762d5229550c2b","51.19.161.91","Mozilla/5.0 (Windows NT 10.0; Win64; x64) AppleWebKit/537.36 (KHTML, like Gecko) Chrome/138.0.0.0 Safari/537.36","WebKit","Chrome","138.0.0.0","Windows","10.0","https://app.prolific.com/","en-GB,en-US;q=0.9,en;q=0.8","59dd90f6e75b450001a68dac","6877631c9844ddd5501205fc","688be16abdd31e42339eba58","3","1","59dd90f6e75b450001a68dac","3","1","2025-07-31T21:47:15.341Z","","","","","","","","","","","StressQ","","50","","","","","","","","","","","","","","","","","","","","","","","","","","","","",""
"2285","","<div style=""width:500px;"">
  <p>What best describes how you currently feel?</p>
  </div>","8","html-slider-response","73","692269","0.0-5.0-4.12","308","1","2025-07-31 21:35:35","1f75c3e559b7213887762d5229550c2b","51.19.161.91","Mozilla/5.0 (Windows NT 10.0; Win64; x64) AppleWebKit/537.36 (KHTML, like Gecko) Chrome/138.0.0.0 Safari/537.36","WebKit","Chrome","138.0.0.0","Windows","10.0","https://app.prolific.com/","en-GB,en-US;q=0.9,en;q=0.8","59dd90f6e75b450001a68dac","6877631c9844ddd5501205fc","688be16abdd31e42339eba58","3","1","59dd90f6e75b450001a68dac","3","1","2025-07-31T21:47:17.627Z","","","","","","","","","","","MotivationQ","","50","","","","","","","","","","","","","","","","","","","","","","","","","","","","",""
"","","","","ctl-task-cpt","74","711243","0.0-5.0-0.13","308","1","2025-07-31 21:35:35","1f75c3e559b7213887762d5229550c2b","51.19.161.91","Mozilla/5.0 (Windows NT 10.0; Win64; x64) AppleWebKit/537.36 (KHTML, like Gecko) Chrome/138.0.0.0 Safari/537.36","WebKit","Chrome","138.0.0.0","Windows","10.0","https://app.prolific.com/","en-GB,en-US;q=0.9,en;q=0.8","59dd90f6e75b450001a68dac","6877631c9844ddd5501205fc","688be16abdd31e42339eba58","3","1","59dd90f6e75b450001a68dac","3","1","2025-07-31T21:47:36.601Z","","","","","","","","","","","","","","win-only","2","g1:SE,g2:NW","0.8","14","0","705493.9","618.8","5622.3","15955.7","1","4","4","6","1","1","1","12","11","0.09090909090909091","1146.5","3000","1005","[""down"",""right""]","{""num_key_presses"":4,""num_perfect"":4,""num_errors"":0,""num_randdir"":0,""num_randdir_good_moves"":0,""num_whilered"":0,""num_whileblue"":0,""num_blue"":0,""num_good_moves"":4}","[417.57142857142856,425.47767857142856,0.2,417.57142857142856,425.47767857142856,101.8,417.57142857142856,425.47767857142856,207,417.57142857142856,425.47767857142856,312.2,417.57142857142856,425.47767857142856,412.2,417.57142857142856,425.47767857142856,520.6,501.57142857142856,541.4776785714286,621.9,648.5714285714286,713.4776785714286,727.5,677.5714285714286,745.4776785714286,828.2,698.5714285714286,754.4776785714286,930.4,738.5714285714286,754.4776785714286,1033.1,755.5714285714286,754.4776785714286,1137.3,755.5714285714286,754.4776785714286,1242,755.5714285714286,753.4776785714286,1342.5,739.5714285714286,732.4776785714286,1443.3,652.5714285714286,646.4776785714286,1547.6,847.5714285714286,447.47767857142856,1652.1,1042.5714285714287,359.47767857142856,1757,1038.5714285714287,355.47767857142856,1858.1,1038.5714285714287,355.47767857142856,1965.3,1038.5714285714287,355.47767857142856,2067.4,1038.5714285714287,355.47767857142856,2171.5,1038.5714285714287,355.47767857142856,2271.8,1038.5714285714287,355.47767857142856,2373.1,1038.5714285714287,355.47767857142856,2477.9,1038.5714285714287,355.47767857142856,2583.6,1038.5714285714287,355.47767857142856,2687.4,1038.5714285714287,355.47767857142856,2787.4,1038.5714285714287,355.47767857142856,2887.7,1038.5714285714287,355.47767857142856,2988.8,1038.5714285714287,355.47767857142856,3093.9,1038.5714285714287,355.47767857142856,3196.9,1038.5714285714287,355.47767857142856,3297,1038.5714285714287,355.47767857142856,3402,1038.5714285714287,355.47767857142856,3509.1,1038.5714285714287,355.47767857142856,3613.3,1038.5714285714287,355.47767857142856,3713.9,1038.5714285714287,355.47767857142856,3814.6,1038.5714285714287,355.47767857142856,3917.1,1038.5714285714287,355.47767857142856,4017.3,1038.5714285714287,355.47767857142856,4121.6,1038.5714285714287,355.47767857142856,4228.1,1038.5714285714287,355.47767857142856,4331.5,1038.5714285714287,355.47767857142856,4432.4,1038.5714285714287,355.47767857142856,4533.4,1038.5714285714287,355.47767857142856,4633.5,1038.5714285714287,355.47767857142856,4736.8,1038.5714285714287,355.47767857142856,4841.5,1038.5714285714287,355.47767857142856,4942]","[1471.9,1471.9,1000,0,471.9,""smooth"",""down"",""down"",""good_move"",3737.6,2265.2,1768.2,1472.5,497,""smooth"",""down"",""down"",""good_move"",7193.3,3455.4,2859.8,3738,595.5,""smooth"",""right"",""right"",""good_move"",10242.4,3048.6,2593.8,7193.8,454.8,""smooth"",""right"",""right"",""good_move""]","",""
"4923","","<div style=""width:500px;"">
  <p>What determined the result of this run?</p>
  </div>","66","html-slider-response","75","716167","0.0-5.0-1.13","308","1","2025-07-31 21:35:35","1f75c3e559b7213887762d5229550c2b","51.19.161.91","Mozilla/5.0 (Windows NT 10.0; Win64; x64) AppleWebKit/537.36 (KHTML, like Gecko) Chrome/138.0.0.0 Safari/537.36","WebKit","Chrome","138.0.0.0","Windows","10.0","https://app.prolific.com/","en-GB,en-US;q=0.9,en;q=0.8","59dd90f6e75b450001a68dac","6877631c9844ddd5501205fc","688be16abdd31e42339eba58","3","1","59dd90f6e75b450001a68dac","3","1","2025-07-31T21:47:41.525Z","","","","","","","","","","","AttribQ","","50","","","","","","","","","","","","","","","","","","","","","","","","","","","","",""
"1623","","<div style=""width:500px;"">
  <p>How much control did you have over the ball?</p>
