"rt","response_timestamp","stimulus","response","trial_type","trial_index","time_elapsed","internal_node_id","run_id","condition","recorded_at","source_code_version","ip","user_agent","device","browser","browser_version","platform","platform_version","referer","accept_language","PROLIFIC_PID","STUDY_ID","SESSION_ID","WEEK","BATCH","prolific_id","week","batch","realtime","success","responses","item_order","radio_event_ids","radio_event_times","key_event_times","mouse_event_times","straightlining","zigzagging","honeypot","eventType","view_history","slider_start","which_type","canvas_config","goals_layout","control_level","trial_number","tutorial_trial_number","trial_start_time","phase1_start_time","phase2_start_time","phase3_start_time","goal_1_value","goal_1_distance","goal_2_value","goal_2_distance","goal_selected","outcome","outcome_total","participant_final_score","participant_initial_score","participant_final_score_prop","goal_choice_rt","allocated_time","allocated_time_remaining","goal_direction","counts","mouse_movements","key_presses","question_order","question_id"
"48848","1752653851759","<p style='font-size:40px;line-height:1.25'><strong>Welcome to the experiment!</strong></p><p style='font-size:1.1em;line-height:1.25'>Thank you for participanting in our experiment again! You will be asked to play the Dysfunctional Ball Game again. We will briefly recap the rules before we start.</p><p style='font-size:1.1em;line-height:1.25'>Press <strong>Next</strong> to continue.</p>","0","custom-html-button-response","0","48854","0.0-0.0","46","1","2025-07-16 08:18:11","1f75c3e559b7213887762d5229550c2b","41.122.12.0","Mozilla/5.0 (Windows NT 10.0; Win64; x64) AppleWebKit/537.36 (KHTML, like Gecko) Chrome/138.0.0.0 Safari/537.36","WebKit","Chrome","138.0.0.0","Windows","10.0","https://app.prolific.com/","en-GB,en-US;q=0.9,en;q=0.8","67e074f58a5ea7d9897f3223","686e379bc37a29ffa5cdc956","68776030fe1f00d491682163","1","1","67e074f58a5ea7d9897f3223","1","1","2025-07-16T08:17:31.764Z","","","","","","","","","","","","","","","","","","","","","","","","","","","","","","","","","","","","","","","","","",""
"69241","","","","fullscreen","1","119110","0.0-1.0","46","1","2025-07-16 08:18:11","1f75c3e559b7213887762d5229550c2b","41.122.12.0","Mozilla/5.0 (Windows NT 10.0; Win64; x64) AppleWebKit/537.36 (KHTML, like Gecko) Chrome/138.0.0.0 Safari/537.36","WebKit","Chrome","138.0.0.0","Windows","10.0","https://app.prolific.com/","en-GB,en-US;q=0.9,en;q=0.8","67e074f58a5ea7d9897f3223","686e379bc37a29ffa5cdc956","68776030fe1f00d491682163","1","1","67e074f58a5ea7d9897f3223","1","1","","true","","","","","","","","","","","","","","","","","","","","","","","","","","","","","","","","","","","","","","","","",""
"64407","1752653986431","<p style='font-size:1.1em;line-height:1.25'>In the following, we will ask you a few questions relating to your feelings in the last 24 hours.<br></p><p style='font-size:1.1em;line-height:1.25'>Press the <strong>Next</strong> button to continue.</p>","0","custom-html-button-response","2","183524","0.0-2.0-0.0","46","1","2025-07-16 08:18:11","1f75c3e559b7213887762d5229550c2b","41.122.12.0","Mozilla/5.0 (Windows NT 10.0; Win64; x64) AppleWebKit/537.36 (KHTML, like Gecko) Chrome/138.0.0.0 Safari/537.36","WebKit","Chrome","138.0.0.0","Windows","10.0","https://app.prolific.com/","en-GB,en-US;q=0.9,en;q=0.8","67e074f58a5ea7d9897f3223","686e379bc37a29ffa5cdc956","68776030fe1f00d491682163","1","1","67e074f58a5ea7d9897f3223","1","1","2025-07-16T08:19:46.433Z","","","","","","","","","","","","","","","","","","","","","","","","","","","","","","","","","","","","","","","","","",""
"324854.10000002384","","","","survey-template","3","508396","0.0-2.0-1.0","46","1","2025-07-16 08:18:11","1f75c3e559b7213887762d5229550c2b","41.122.12.0","Mozilla/5.0 (Windows NT 10.0; Win64; x64) AppleWebKit/537.36 (KHTML, like Gecko) Chrome/138.0.0.0 Safari/537.36","WebKit","Chrome","138.0.0.0","Windows","10.0","https://app.prolific.com/","en-GB,en-US;q=0.9,en;q=0.8","67e074f58a5ea7d9897f3223","686e379bc37a29ffa5cdc956","68776030fe1f00d491682163","1","1","67e074f58a5ea7d9897f3223","1","1","2025-07-16T08:25:11.307Z","","{""Q01"":""0"",""Q02"":""0"",""Q03"":""0"",""Q04"":""2"",""Q05"":""3"",""Q06"":""1"",""Q07"":""1"",""Q08"":""0"",""Q09"":""3"",""Q10"":""1"",""Q11"":""1"",""Q12"":""4"",""Q13"":""5"",""Q14"":""5"",""Q15"":""1"",""Q16"":""1"",""Q17"":""3"",""Q18"":""2"",""Q19"":""0"",""Q20"":""3"",""Q21"":""2"",""Q22"":""1""}","[0,1,2,3,4,5,6,7,8,9,10,11,12,13,14,15,16,17,18,19,20,21]","[""Q01"",""Q02"",""Q03"",""Q01"",""Q04"",""Q05"",""Q06"",""Q07"",""Q07"",""Q08"",""Q09"",""Q10"",""Q11"",""Q12"",""Q13"",""Q14"",""Q15"",""Q16"",""Q15"",""Q15"",""Q15"",""Q17"",""Q18"",""Q19"",""Q16"",""Q20"",""Q20"",""Q21"",""Q22""]","[29268.600000023842,36286.800000071526,41580.200000047684,49226.39999997616,53390.60000002384,57816.300000071526,150557.80000007153,156973.20000004768,162794,165834,170631.70000004768,178346.39999997616,183712.10000002384,187363.5,191257.80000007153,198899.60000002384,214535.89999997616,221588.80000007153,224085.30000007153,226927.89999997616,229886.70000004768,237624.89999997616,260366,278553,285371.60000002384,295303.7000000477,306245.3000000715,312143.5,321949.3000000715]","[]","[4.399999976158142,29268.600000023842,36286.800000071526,40629,41580.200000047684,48442.5,49226.39999997616,53390.60000002384,57816.300000071526,150557.80000007153,156973.20000004768,162794,165834,170631.70000004768,178346.39999997616,183712.10000002384,187363.5,191257.80000007153,197518.5,198899.60000002384,214535.89999997616,219578.30000007153,221588.80000007153,224085.30000007153,226927.89999997616,229213,229886.70000004768,237624.89999997616,260366,278553,283587.60000002384,285371.60000002384,295303.7000000477,306245.3000000715,312143.5,321949.3000000715,324832.10000002384]","0.3181818181818182","0.2857142857142857","0","drsp","","","","","","","","","","","","","","","","","","","","","","","","","","","","","","",""
"29118.899999976158","","","","survey-template","4","537526","0.0-2.0-2.0","46","1","2025-07-16 08:18:11","1f75c3e559b7213887762d5229550c2b","41.122.12.0","Mozilla/5.0 (Windows NT 10.0; Win64; x64) AppleWebKit/537.36 (KHTML, like Gecko) Chrome/138.0.0.0 Safari/537.36","WebKit","Chrome","138.0.0.0","Windows","10.0","https://app.prolific.com/","en-GB,en-US;q=0.9,en;q=0.8","67e074f58a5ea7d9897f3223","686e379bc37a29ffa5cdc956","68776030fe1f00d491682163","1","1","67e074f58a5ea7d9897f3223","1","1","2025-07-16T08:25:40.436Z","","{""Q01"":""3"",""Q02"":""2"",""Q03"":""1""}","[0,1,2]","[""Q01"",""Q01"",""Q02"",""Q03""]","[7150.799999952316,14292,19957,28023.699999928474]","[]","[7150.799999952316,14292,19957,28023.699999928474,29112.699999928474]","0.6666666666666666","0","0","stress","","","","","","","","","","","","","","","","","","","","","","","","","","","","","","",""
"80246","","","","instructions","5","617777","0.0-3.0-0.0","46","1","2025-07-16 08:18:11","1f75c3e559b7213887762d5229550c2b","41.122.12.0","Mozilla/5.0 (Windows NT 10.0; Win64; x64) AppleWebKit/537.36 (KHTML, like Gecko) Chrome/138.0.0.0 Safari/537.36","WebKit","Chrome","138.0.0.0","Windows","10.0","https://app.prolific.com/","en-GB,en-US;q=0.9,en;q=0.8","67e074f58a5ea7d9897f3223","686e379bc37a29ffa5cdc956","68776030fe1f00d491682163","1","1","67e074f58a5ea7d9897f3223","1","1","","","","","","","","","","","","","[{""page_index"":0,""viewing_time"":80245}]","","","","","","","","","","","","","","","","","","","","","","","","","","","","","",""
"39535","","<p>Before you start with this game please answer the following three questions yourself. </p>
  <p>Through this game, we measure several aspects of your cognitive performance, such as reaction times, multi-tasking capabilities </p>
  <p>and the ability to assess the situation you are in.</p>
  <p></p>
  <p><b>How good do you usually are in such tasks?</b></p>","86","html-slider-response","6","657318","0.0-4.0-0.0","46","1","2025-07-16 08:18:11","1f75c3e559b7213887762d5229550c2b","41.122.12.0","Mozilla/5.0 (Windows NT 10.0; Win64; x64) AppleWebKit/537.36 (KHTML, like Gecko) Chrome/138.0.0.0 Safari/537.36","WebKit","Chrome","138.0.0.0","Windows","10.0","https://app.prolific.com/","en-GB,en-US;q=0.9,en;q=0.8","67e074f58a5ea7d9897f3223","686e379bc37a29ffa5cdc956","68776030fe1f00d491682163","1","1","67e074f58a5ea7d9897f3223","1","1","2025-07-16T08:27:40.228Z","","","","","","","","","","","PreSkillQ","","50","","","","","","","","","","","","","","","","","","","","","","","","","","","","",""
"7004","","<div style=""width:500px;"">
  <p>How well do you think you will perform in this task compared to other participants?</p>
  </div>","75","html-slider-response","7","664326","0.0-4.0-1.0","46","1","2025-07-16 08:18:11","1f75c3e559b7213887762d5229550c2b","41.122.12.0","Mozilla/5.0 (Windows NT 10.0; Win64; x64) AppleWebKit/537.36 (KHTML, like Gecko) Chrome/138.0.0.0 Safari/537.36","WebKit","Chrome","138.0.0.0","Windows","10.0","https://app.prolific.com/","en-GB,en-US;q=0.9,en;q=0.8","67e074f58a5ea7d9897f3223","686e379bc37a29ffa5cdc956","68776030fe1f00d491682163","1","1","67e074f58a5ea7d9897f3223","1","1","2025-07-16T08:27:47.235Z","","","","","","","","","","","PrePerfQ","","50","","","","","","","","","","","","","","","","","","","","","","","","","","","","",""
"9713","","<div style=""width:500px;"">
  <p>What best describes how you currently feel?</p>
  </div>","100","html-slider-response","8","674044","0.0-4.0-2.0","46","1","2025-07-16 08:18:11","1f75c3e559b7213887762d5229550c2b","41.122.12.0","Mozilla/5.0 (Windows NT 10.0; Win64; x64) AppleWebKit/537.36 (KHTML, like Gecko) Chrome/138.0.0.0 Safari/537.36","WebKit","Chrome","138.0.0.0","Windows","10.0","https://app.prolific.com/","en-GB,en-US;q=0.9,en;q=0.8","67e074f58a5ea7d9897f3223","686e379bc37a29ffa5cdc956","68776030fe1f00d491682163","1","1","67e074f58a5ea7d9897f3223","1","1","2025-07-16T08:27:56.954Z","","","","","","","","","","","PreMotivationQ","","50","","","","","","","","","","","","","","","","","","","","","","","","","","","","",""
"","","","","ctl-task-cpt","9","693432","0.0-5.0-0.0","46","1","2025-07-16 08:18:11","1f75c3e559b7213887762d5229550c2b","41.122.12.0","Mozilla/5.0 (Windows NT 10.0; Win64; x64) AppleWebKit/537.36 (KHTML, like Gecko) Chrome/138.0.0.0 Safari/537.36","WebKit","Chrome","138.0.0.0","Windows","10.0","https://app.prolific.com/","en-GB,en-US;q=0.9,en;q=0.8","67e074f58a5ea7d9897f3223","686e379bc37a29ffa5cdc956","68776030fe1f00d491682163","1","1","67e074f58a5ea7d9897f3223","1","1","2025-07-16T08:28:16.342Z","","","","","","","","","","","","","","win-only","2","g1:SE,g2:NW","1","1","0","678719.6","5992.6","11000.1","16356.5","1","4","8","6","1","-1","-1","0","0","0","5007.3","3000","-2170","[""down"",""right""]","{""num_key_presses"":0,""num_perfect"":0,""num_errors"":0,""num_randdir"":0,""num_randdir_good_moves"":0,""num_whilered"":0,""num_whileblue"":0,""num_blue"":0,""num_good_moves"":0}","[410.3214133126395,410.32142761775424,2.9,410.3214133126395,410.32142761775424,103.5,410.3214133126395,410.32142761775424,206.6,410.3214133126395,410.32142761775424,310,410.3214133126395,410.32142761775424,416.5,401.5714133126395,414.07142761775424,518.2,401.5714133126395,414.07142761775424,621.7,401.5714133126395,414.07142761775424,727.5,386.5714133126395,426.57142761775424,831,320.3214133126395,441.57142761775424,934.7,141.5714133126395,391.57142761775424,1037.4,136.5714133126395,382.82142761775424,1139.6,139.0714133126395,386.57142761775424,1246.7,139.0714133126395,386.57142761775424,1348.6,142.8214133126395,380.32142761775424,1448.8,131.5714133126395,275.32142761775424,1555.9,76.5714133126395,137.82142761775424,1656.1,90.3214133126395,146.57142761775424,1766.1,127.8214133126395,249.07142761775424,1866.3,179.0714133126395,299.07142761775424,1968.8,179.0714133126395,299.07142761775424,2070.5,210.3214133126395,316.57142761775424,2179.4,239.0714133126395,331.57142761775424,2282.2,239.0714133126395,331.57142761775424,2382.4,240.3214133126395,331.57142761775424,2505.5,240.3214133126395,331.57142761775424,2609.4,240.3214133126395,331.57142761775424,2715.7,240.3214133126395,331.57142761775424,2820.7,232.8214133126395,327.82142761775424,2924.7,232.8214133126395,327.82142761775424,3031.7,232.8214133126395,327.82142761775424,3147.2,232.8214133126395,327.82142761775424,3252.4,232.8214133126395,327.82142761775424,3356.4,232.8214133126395,327.82142761775424,3457.9,232.8214133126395,327.82142761775424,3559.8,232.8214133126395,327.82142761775424,3661,232.8214133126395,327.82142761775424,3768.3,232.8214133126395,327.82142761775424,3871.5,232.8214133126395,327.82142761775424,3973.5,232.8214133126395,327.82142761775424,4082.4,232.8214133126395,327.82142761775424,4187.5,232.8214133126395,327.82142761775424,4288.8,232.8214133126395,327.82142761775424,4396.6,232.8214133126395,327.82142761775424,4499.4,232.8214133126395,327.82142761775424,4604.8,232.8214133126395,327.82142761775424,4705.9,232.8214133126395,327.82142761775424,4813.1,232.8214133126395,327.82142761775424,4914.3]","[]","",""
"24290","","<div style=""width:500px;"">
  <p>What determined the result of this run?</p>
  </div>","59","html-slider-response","10","717728","0.0-5.0-1.0","46","1","2025-07-16 08:18:11","1f75c3e559b7213887762d5229550c2b","41.122.12.0","Mozilla/5.0 (Windows NT 10.0; Win64; x64) AppleWebKit/537.36 (KHTML, like Gecko) Chrome/138.0.0.0 Safari/537.36","WebKit","Chrome","138.0.0.0","Windows","10.0","https://app.prolific.com/","en-GB,en-US;q=0.9,en;q=0.8","67e074f58a5ea7d9897f3223","686e379bc37a29ffa5cdc956","68776030fe1f00d491682163","1","1","67e074f58a5ea7d9897f3223","1","1","2025-07-16T08:28:40.637Z","","","","","","","","","","","AttribQ","","50","","","","","","","","","","","","","","","","","","","","","","","","","","","","",""
"8628","","<div style=""width:500px;"">
  <p>How much control did you have over the ball?</p>
  </div>","0","html-slider-response","11","726362","0.0-5.0-2.0","46","1","2025-07-16 08:18:11","1f75c3e559b7213887762d5229550c2b","41.122.12.0","Mozilla/5.0 (Windows NT 10.0; Win64; x64) AppleWebKit/537.36 (KHTML, like Gecko) Chrome/138.0.0.0 Safari/537.36","WebKit","Chrome","138.0.0.0","Windows","10.0","https://app.prolific.com/","en-GB,en-US;q=0.9,en;q=0.8","67e074f58a5ea7d9897f3223","686e379bc37a29ffa5cdc956","68776030fe1f00d491682163","1","1","67e074f58a5ea7d9897f3223","1","1","2025-07-16T08:28:49.271Z","","","","","","","","","","","ControlQ","","50","","","","","","","","","","","","","","","","","","","","","","","","","","","","",""
"8708","","<div style=""width:500px;"">
  <p>How would you describe your current emotional state?</p>
  </div>","48","html-slider-response","12","735075","0.0-5.0-3.0","46","1","2025-07-16 08:18:11","1f75c3e559b7213887762d5229550c2b","41.122.12.0","Mozilla/5.0 (Windows NT 10.0; Win64; x64) AppleWebKit/537.36 (KHTML, like Gecko) Chrome/138.0.0.0 Safari/537.36","WebKit","Chrome","138.0.0.0","Windows","10.0","https://app.prolific.com/","en-GB,en-US;q=0.9,en;q=0.8","67e074f58a5ea7d9897f3223","686e379bc37a29ffa5cdc956","68776030fe1f00d491682163","1","1","67e074f58a5ea7d9897f3223","1","1","2025-07-16T08:28:57.984Z","","","","","","","","","","","StressQ","","50","","","","","","","","","","","","","","","","","","","","","","","","","","","","",""
"8016","","<div style=""width:500px;"">
  <p>What best describes how you currently feel?</p>
  </div>","47","html-slider-response","13","743097","0.0-5.0-4.0","46","1","2025-07-16 08:18:11","1f75c3e559b7213887762d5229550c2b","41.122.12.0","Mozilla/5.0 (Windows NT 10.0; Win64; x64) AppleWebKit/537.36 (KHTML, like Gecko) Chrome/138.0.0.0 Safari/537.36","WebKit","Chrome","138.0.0.0","Windows","10.0","https://app.prolific.com/","en-GB,en-US;q=0.9,en;q=0.8","67e074f58a5ea7d9897f3223","686e379bc37a29ffa5cdc956","68776030fe1f00d491682163","1","1","67e074f58a5ea7d9897f3223","1","1","2025-07-16T08:29:06.006Z","","","","","","","","","","","MotivationQ","","50","","","","","","","","","","","","","","","","","","","","","","","","","","","","",""
"","","","","ctl-task-cpt","14","762255","0.0-5.0-0.1","46","1","2025-07-16 08:18:11","1f75c3e559b7213887762d5229550c2b","41.122.12.0","Mozilla/5.0 (Windows NT 10.0; Win64; x64) AppleWebKit/537.36 (KHTML, like Gecko) Chrome/138.0.0.0 Safari/537.36","WebKit","Chrome","138.0.0.0","Windows","10.0","https://app.prolific.com/","en-GB,en-US;q=0.9,en;q=0.8","67e074f58a5ea7d9897f3223","686e379bc37a29ffa5cdc956","68776030fe1f00d491682163","1","1","67e074f58a5ea7d9897f3223","1","1","2025-07-16T08:29:25.164Z","","","","","","","","","","","","","","win-only","0","g1:NW,g2:SE","0.9","2","0","747769.7","5417.1","10423.4","16143.5","1","4","4","6","2","-4","-4","0","0","0","5006","3000","-2010","[""down"",""right""]","{""num_key_presses"":0,""num_perfect"":0,""num_errors"":0,""num_randdir"":0,""num_randdir_good_moves"":0,""num_whilered"":0,""num_whileblue"":0,""num_blue"":0,""num_good_moves"":0}","[424.0714133126395,415.32142761775424,1.3,424.0714133126395,415.32142761775424,101.3,424.0714133126395,415.32142761775424,203.2,424.0714133126395,415.32142761775424,310.6,417.8214133126395,419.07142761775424,411.7,420.3214133126395,430.32142761775424,521.4,434.0714133126395,442.82142761775424,624.4,437.8214133126395,440.32142761775424,725.2,447.8214133126395,436.57142761775424,827.6,447.8214133126395,436.57142761775424,933.5,447.8214133126395,436.57142761775424,1042.8,447.8214133126395,436.57142761775424,1148.4,447.8214133126395,436.57142761775424,1251.6,447.8214133126395,436.57142761775424,1353,447.8214133126395,436.57142761775424,1458,447.8214133126395,436.57142761775424,1567,447.8214133126395,436.57142761775424,1667.4,447.8214133126395,436.57142761775424,1773.1,447.8214133126395,436.57142761775424,1880.2,447.8214133126395,436.57142761775424,1982.9,447.8214133126395,436.57142761775424,2088.1,447.8214133126395,436.57142761775424,2190.3,447.8214133126395,436.57142761775424,2297.5,447.8214133126395,436.57142761775424,2397.8,447.8214133126395,436.57142761775424,2507.5,447.8214133126395,436.57142761775424,2610.9,447.8214133126395,436.57142761775424,2713,447.8214133126395,436.57142761775424,2826.6,447.8214133126395,436.57142761775424,2941.2,447.8214133126395,436.57142761775424,3049.7,447.8214133126395,436.57142761775424,3157.2,447.8214133126395,436.57142761775424,3257.6,447.8214133126395,436.57142761775424,3364.7,447.8214133126395,436.57142761775424,3482.5,447.8214133126395,436.57142761775424,3590.5,447.8214133126395,436.57142761775424,3692.1,447.8214133126395,436.57142761775424,3793,447.8214133126395,436.57142761775424,3908.3,447.8214133126395,436.57142761775424,4013,447.8214133126395,436.57142761775424,4125.1,447.8214133126395,436.57142761775424,4233.6,447.8214133126395,436.57142761775424,4339.6,447.8214133126395,436.57142761775424,4442.9,447.8214133126395,436.57142761775424,4544.8,447.8214133126395,436.57142761775424,4647,447.8214133126395,436.57142761775424,4748,447.8214133126395,436.57142761775424,4858.9,447.8214133126395,436.57142761775424,4963.8]","[]","",""
"8140","","<div style=""width:500px;"">
  <p>What determined the result of this run?</p>
  </div>","20","html-slider-response","15","770400","0.0-5.0-1.1","46","1","2025-07-16 08:18:11","1f75c3e559b7213887762d5229550c2b","41.122.12.0","Mozilla/5.0 (Windows NT 10.0; Win64; x64) AppleWebKit/537.36 (KHTML, like Gecko) Chrome/138.0.0.0 Safari/537.36","WebKit","Chrome","138.0.0.0","Windows","10.0","https://app.prolific.com/","en-GB,en-US;q=0.9,en;q=0.8","67e074f58a5ea7d9897f3223","686e379bc37a29ffa5cdc956","68776030fe1f00d491682163","1","1","67e074f58a5ea7d9897f3223","1","1","2025-07-16T08:29:33.314Z","","","","","","","","","","","AttribQ","","50","","","","","","","","","","","","","","","","","","","","","","","","","","","","",""
"7734","","<div style=""width:500px;"">
  <p>How much control did you have over the ball?</p>
  </div>","2","html-slider-response","16","778149","0.0-5.0-2.1","46","1","2025-07-16 08:18:11","1f75c3e559b7213887762d5229550c2b","41.122.12.0","Mozilla/5.0 (Windows NT 10.0; Win64; x64) AppleWebKit/537.36 (KHTML, like Gecko) Chrome/138.0.0.0 Safari/537.36","WebKit","Chrome","138.0.0.0","Windows","10.0","https://app.prolific.com/","en-GB,en-US;q=0.9,en;q=0.8","67e074f58a5ea7d9897f3223","686e379bc37a29ffa5cdc956","68776030fe1f00d491682163","1","1","67e074f58a5ea7d9897f3223","1","1","2025-07-16T08:29:41.058Z","","","","","","","","","","","ControlQ","","50","","","","","","","","","","","","","","","","","","","","","","","","","","","","",""
"7628","","<div style=""width:500px;"">
  <p>How would you describe your current emotional state?</p>
  </div>","100","html-slider-response","17","785781","0.0-5.0-3.1","46","1","2025-07-16 08:18:11","1f75c3e559b7213887762d5229550c2b","41.122.12.0","Mozilla/5.0 (Windows NT 10.0; Win64; x64) AppleWebKit/537.36 (KHTML, like Gecko) Chrome/138.0.0.0 Safari/537.36","WebKit","Chrome","138.0.0.0","Windows","10.0","https://app.prolific.com/","en-GB,en-US;q=0.9,en;q=0.8","67e074f58a5ea7d9897f3223","686e379bc37a29ffa5cdc956","68776030fe1f00d491682163","1","1","67e074f58a5ea7d9897f3223","1","1","2025-07-16T08:29:48.690Z","","","","","","","","","","","StressQ","","50","","","","","","","","","","","","","","","","","","","","","","","","","","","","",""
"12997","","<div style=""width:500px;"">
  <p>What best describes how you currently feel?</p>
  </div>","27","html-slider-response","18","798783","0.0-5.0-4.1","46","1","2025-07-16 08:18:11","1f75c3e559b7213887762d5229550c2b","41.122.12.0","Mozilla/5.0 (Windows NT 10.0; Win64; x64) AppleWebKit/537.36 (KHTML, like Gecko) Chrome/138.0.0.0 Safari/537.36","WebKit","Chrome","138.0.0.0","Windows","10.0","https://app.prolific.com/","en-GB,en-US;q=0.9,en;q=0.8","67e074f58a5ea7d9897f3223","686e379bc37a29ffa5cdc956","68776030fe1f00d491682163","1","1","67e074f58a5ea7d9897f3223","1","1","2025-07-16T08:30:01.693Z","","","","","","","","","","","MotivationQ","","50","","","","","","","","","","","","","","","","","","","","","","","","","","","","",""
"","","","","ctl-task-cpt","19","822799","0.0-5.0-0.2","46","1","2025-07-16 08:18:11","1f75c3e559b7213887762d5229550c2b","41.122.12.0","Mozilla/5.0 (Windows NT 10.0; Win64; x64) AppleWebKit/537.36 (KHTML, like Gecko) Chrome/138.0.0.0 Safari/537.36","WebKit","Chrome","138.0.0.0","Windows","10.0","https://app.prolific.com/","en-GB,en-US;q=0.9,en;q=0.8","67e074f58a5ea7d9897f3223","686e379bc37a29ffa5cdc956","68776030fe1f00d491682163","1","1","67e074f58a5ea7d9897f3223","1","1","2025-07-16T08:30:25.708Z","","","","","","","","","","","","","","win-only","3","g1:SW,g2:NE","0.8","3","0","803454.7","10369","15381","20996.8","1","4","8","6","2","-8","-8","0","0","0","2150.4","3000","-1955","[""up"",""right""]","{""num_key_presses"":0,""num_perfect"":0,""num_errors"":0,""num_randdir"":0,""num_randdir_good_moves"":0,""num_whilered"":0,""num_whileblue"":0,""num_blue"":0,""num_good_moves"":0}","[421.5714133126395,414.07142761775424,1.4,421.5714133126395,414.07142761775424,103.4,421.5714133126395,414.07142761775424,205.1,421.5714133126395,414.07142761775424,323.5,421.5714133126395,414.07142761775424,423.9,402.8214133126395,416.57142761775424,526.4,379.0714133126395,426.57142761775424,630.2,370.3214133126395,415.32142761775424,736.5,371.5714133126395,401.57142761775424,846.9,374.0714133126395,392.82142761775424,954.6,374.0714133126395,391.57142761775424,1061.3,374.0714133126395,401.57142761775424,1166.1,374.0714133126395,405.32142761775424,1276,451.5714133126395,342.82142761775424,1379.5,651.5714133126395,166.57142761775424,1486.4,732.8214133126395,52.82142761775425,1591.4,736.5714133126395,31.571427617754253,1702.1,736.5714133126395,30.321427617754253,1804.1,735.3214133126395,49.07142761775425,1908,735.3214133126395,49.07142761775425,2017,734.0714133126395,49.07142761775425,2118.1,734.0714133126395,49.07142761775425,2218.3,734.0714133126395,49.07142761775425,2318.8,709.0714133126395,77.82142761775425,2427.7,626.5714133126395,175.32142761775424,2536.7,430.3214133126395,585.3214276177542,2644.6,281.5714133126395,759.0714276177542,2748.7,231.5714133126395,762.8214276177542,2850,280.3214133126395,695.3214276177542,2953.6,336.5714133126395,670.3214276177542,3066.2,341.5714133126395,647.8214276177542,3166.2,341.5714133126395,647.8214276177542,3269.6,351.5714133126395,631.5714276177542,3380.5,355.3214133126395,600.3214276177542,3482,346.5714133126395,559.0714276177542,3582.2,344.0714133126395,541.5714276177542,3688.3,347.8214133126395,551.5714276177542,3793.7,349.0714133126395,555.3214276177542,3894.3,351.5714133126395,551.5714276177542,3995.2,354.0714133126395,544.0714276177542,4098.1,361.5714133126395,529.0714276177542,4199.8,366.5714133126395,506.57142761775424,4302.2,371.5714133126395,492.82142761775424,4404.7,371.5714133126395,492.82142761775424,4505,371.5714133126395,494.07142761775424,4605.6,371.5714133126395,494.07142761775424,4715.7,371.5714133126395,494.07142761775424,4815.7,371.5714133126395,494.07142761775424,4930.3]","[]","",""
"7174","","<div style=""width:500px;"">
  <p>What determined the result of this run?</p>
  </div>","0","html-slider-response","20","829979","0.0-5.0-1.2","46","1","2025-07-16 08:18:11","1f75c3e559b7213887762d5229550c2b","41.122.12.0","Mozilla/5.0 (Windows NT 10.0; Win64; x64) AppleWebKit/537.36 (KHTML, like Gecko) Chrome/138.0.0.0 Safari/537.36","WebKit","Chrome","138.0.0.0","Windows","10.0","https://app.prolific.com/","en-GB,en-US;q=0.9,en;q=0.8","67e074f58a5ea7d9897f3223","686e379bc37a29ffa5cdc956","68776030fe1f00d491682163","1","1","67e074f58a5ea7d9897f3223","1","1","2025-07-16T08:30:32.888Z","","","","","","","","","","","AttribQ","","50","","","","","","","","","","","","","","","","","","","","","","","","","","","","",""
"5026","","<div style=""width:500px;"">
  <p>How much control did you have over the ball?</p>
  </div>","0","html-slider-response","21","835015","0.0-5.0-2.2","46","1","2025-07-16 08:18:11","1f75c3e559b7213887762d5229550c2b","41.122.12.0","Mozilla/5.0 (Windows NT 10.0; Win64; x64) AppleWebKit/537.36 (KHTML, like Gecko) Chrome/138.0.0.0 Safari/537.36","WebKit","Chrome","138.0.0.0","Windows","10.0","https://app.prolific.com/","en-GB,en-US;q=0.9,en;q=0.8","67e074f58a5ea7d9897f3223","686e379bc37a29ffa5cdc956","68776030fe1f00d491682163","1","1","67e074f58a5ea7d9897f3223","1","1","2025-07-16T08:30:37.924Z","","","","","","","","","","","ControlQ","","50","","","","","","","","","","","","","","","","","","","","","","","","","","","","",""
"4380","","<div style=""width:500px;"">
  <p>How would you describe your current emotional state?</p>
  </div>","100","html-slider-response","22","839400","0.0-5.0-3.2","46","1","2025-07-16 08:18:11","1f75c3e559b7213887762d5229550c2b","41.122.12.0","Mozilla/5.0 (Windows NT 10.0; Win64; x64) AppleWebKit/537.36 (KHTML, like Gecko) Chrome/138.0.0.0 Safari/537.36","WebKit","Chrome","138.0.0.0","Windows","10.0","https://app.prolific.com/","en-GB,en-US;q=0.9,en;q=0.8","67e074f58a5ea7d9897f3223","686e379bc37a29ffa5cdc956","68776030fe1f00d491682163","1","1","67e074f58a5ea7d9897f3223","1","1","2025-07-16T08:30:42.310Z","","","","","","","","","","","StressQ","","50","","","","","","","","","","","","","","","","","","","","","","","","","","","","",""
"8774","","<div style=""width:500px;"">
  <p>What best describes how you currently feel?</p>
  </div>","24","html-slider-response","23","848182","0.0-5.0-4.2","46","1","2025-07-16 08:18:11","1f75c3e559b7213887762d5229550c2b","41.122.12.0","Mozilla/5.0 (Windows NT 10.0; Win64; x64) AppleWebKit/537.36 (KHTML, like Gecko) Chrome/138.0.0.0 Safari/537.36","WebKit","Chrome","138.0.0.0","Windows","10.0","https://app.prolific.com/","en-GB,en-US;q=0.9,en;q=0.8","67e074f58a5ea7d9897f3223","686e379bc37a29ffa5cdc956","68776030fe1f00d491682163","1","1","67e074f58a5ea7d9897f3223","1","1","2025-07-16T08:30:51.093Z","","","","","","","","","","","MotivationQ","","50","","","","","","","","","","","","","","","","","","","","","","","","","","","","",""
"","","","","ctl-task-cpt","24","871974","0.0-5.0-0.3","46","1","2025-07-16 08:18:11","1f75c3e559b7213887762d5229550c2b","41.122.12.0","Mozilla/5.0 (Windows NT 10.0; Win64; x64) AppleWebKit/537.36 (KHTML, like Gecko) Chrome/138.0.0.0 Safari/537.36","WebKit","Chrome","138.0.0.0","Windows","10.0","https://app.prolific.com/","en-GB,en-US;q=0.9,en;q=0.8","67e074f58a5ea7d9897f3223","686e379bc37a29ffa5cdc956","68776030fe1f00d491682163","1","1","67e074f58a5ea7d9897f3223","1","1","2025-07-16T08:31:14.883Z","","","","","","","","","","","","","","win-only","0","g1:NW,g2:SE","0.7","4","0","852855.2","5415.6","10420.1","20776.8","1","4","4","6","1","-1","-1","0","0","0","2710.2","3000","-1760","[""left"",""up""]","{""num_key_presses"":0,""num_perfect"":0,""num_errors"":0,""num_randdir"":0,""num_randdir_good_moves"":0,""num_whilered"":0,""num_whileblue"":0,""num_blue"":1,""num_good_moves"":0}","[417.8214133126395,412.82142761775424,1,417.8214133126395,412.82142761775424,101.1,417.8214133126395,412.82142761775424,211.3,417.8214133126395,412.82142761775424,318.5,417.8214133126395,412.82142761775424,424.9,417.8214133126395,412.82142761775424,527.6,416.5714133126395,412.82142761775424,632.2,414.0714133126395,406.57142761775424,743.3,444.0714133126395,456.57142761775424,852.2,449.0714133126395,456.57142761775424,964.9,447.8214133126395,459.07142761775424,1066.6,422.8214133126395,485.32142761775424,1174.6,426.5714133126395,487.82142761775424,1285.6,342.8214133126395,409.07142761775424,1386.8,-315.9285866873605,-103.42857238224575,1508.8,-315.9285866873605,-103.42857238224575,1613,-398.4285866873605,-95.92857238224575,1715.1,-392.1785866873605,-77.17857238224575,1819.9,-438.4285866873605,-52.17857238224575,1933.5,-328.4285866873605,-8.428572382245747,2038,-142.1785866873605,-23.428572382245747,2141.6,-144.6785866873605,-33.42857238224575,2249.4,-65.9285866873605,49.07142761775425,2361.1,112.8214133126395,129.07142761775424,2466.5,114.0714133126395,94.07142761775425,2568.4,112.8214133126395,92.82142761775425,2671.4,112.8214133126395,92.82142761775425,2775.8,111.5714133126395,91.57142761775425,2891.1,95.3214133126395,101.57142761775425,2996,66.5714133126395,221.57142761775424,3099.3,85.3214133126395,351.57142761775424,3199.3,87.8214133126395,380.32142761775424,3301,154.0714133126395,385.32142761775424,3410.7,225.3214133126395,379.07142761775424,3513.2,241.5714133126395,371.57142761775424,3613.8,241.5714133126395,371.57142761775424,3722.1,241.5714133126395,371.57142761775424,3824,242.8214133126395,370.32142761775424,3926.9,310.3214133126395,417.82142761775424,4027.3,315.3214133126395,421.57142761775424,4140.2,316.5714133126395,422.82142761775424,4248.5,317.8214133126395,426.57142761775424,4358.3,309.0714133126395,467.82142761775424,4461.1,311.5714133126395,485.32142761775424,4568.5,337.8214133126395,461.57142761775424,4668.9,344.0714133126395,456.57142761775424,4769.2,344.0714133126395,459.07142761775424,4870.2,341.5714133126395,474.07142761775424,4970.4]","[]","",""
"15316","","<div style=""width:500px;"">
  <p>What determined the result of this run?</p>
  </div>","48","html-slider-response","25","887292","0.0-5.0-1.3","46","1","2025-07-16 08:18:11","1f75c3e559b7213887762d5229550c2b","41.122.12.0","Mozilla/5.0 (Windows NT 10.0; Win64; x64) AppleWebKit/537.36 (KHTML, like Gecko) Chrome/138.0.0.0 Safari/537.36","WebKit","Chrome","138.0.0.0","Windows","10.0","https://app.prolific.com/","en-GB,en-US;q=0.9,en;q=0.8","67e074f58a5ea7d9897f3223","686e379bc37a29ffa5cdc956","68776030fe1f00d491682163","1","1","67e074f58a5ea7d9897f3223","1","1","2025-07-16T08:31:30.201Z","","","","","","","","","","","AttribQ","","50","","","","","","","","","","","","","","","","","","","","","","","","","","","","",""
"9953","","<div style=""width:500px;"">
  <p>How much control did you have over the ball?</p>
  </div>","0","html-slider-response","26","897252","0.0-5.0-2.3","46","1","2025-07-16 08:18:11","1f75c3e559b7213887762d5229550c2b","41.122.12.0","Mozilla/5.0 (Windows NT 10.0; Win64; x64) AppleWebKit/537.36 (KHTML, like Gecko) Chrome/138.0.0.0 Safari/537.36","WebKit","Chrome","138.0.0.0","Windows","10.0","https://app.prolific.com/","en-GB,en-US;q=0.9,en;q=0.8","67e074f58a5ea7d9897f3223","686e379bc37a29ffa5cdc956","68776030fe1f00d491682163","1","1","67e074f58a5ea7d9897f3223","1","1","2025-07-16T08:31:40.161Z","","","","","","","","","","","ControlQ","","50","","","","","","","","","","","","","","","","","","","","","","","","","","","","",""
"7306","","<div style=""width:500px;"">
  <p>How would you describe your current emotional state?</p>
  </div>","100","html-slider-response","27","904572","0.0-5.0-3.3","46","1","2025-07-16 08:18:11","1f75c3e559b7213887762d5229550c2b","41.122.12.0","Mozilla/5.0 (Windows NT 10.0; Win64; x64) AppleWebKit/537.36 (KHTML, like Gecko) Chrome/138.0.0.0 Safari/537.36","WebKit","Chrome","138.0.0.0","Windows","10.0","https://app.prolific.com/","en-GB,en-US;q=0.9,en;q=0.8","67e074f58a5ea7d9897f3223","686e379bc37a29ffa5cdc956","68776030fe1f00d491682163","1","1","67e074f58a5ea7d9897f3223","1","1","2025-07-16T08:31:47.482Z","","","","","","","","","","","StressQ","","50","","","","","","","","","","","","","","","","","","","","","","","","","","","","",""
"10195","","<div style=""width:500px;"">
  <p>What best describes how you currently feel?</p>
  </div>","4","html-slider-response","28","914771","0.0-5.0-4.3","46","1","2025-07-16 08:18:11","1f75c3e559b7213887762d5229550c2b","41.122.12.0","Mozilla/5.0 (Windows NT 10.0; Win64; x64) AppleWebKit/537.36 (KHTML, like Gecko) Chrome/138.0.0.0 Safari/537.36","WebKit","Chrome","138.0.0.0","Windows","10.0","https://app.prolific.com/","en-GB,en-US;q=0.9,en;q=0.8","67e074f58a5ea7d9897f3223","686e379bc37a29ffa5cdc956","68776030fe1f00d491682163","1","1","67e074f58a5ea7d9897f3223","1","1","2025-07-16T08:31:57.680Z","","","","","","","","","","","MotivationQ","","50","","","","","","","","","","","","","","","","","","","","","","","","","","","","",""
"","","","","ctl-task-cpt","29","933753","0.0-5.0-0.4","46","1","2025-07-16 08:18:11","1f75c3e559b7213887762d5229550c2b","41.122.12.0","Mozilla/5.0 (Windows NT 10.0; Win64; x64) AppleWebKit/537.36 (KHTML, like Gecko) Chrome/138.0.0.0 Safari/537.36","WebKit","Chrome","138.0.0.0","Windows","10.0","https://app.prolific.com/","en-GB,en-US;q=0.9,en;q=0.8","67e074f58a5ea7d9897f3223","686e379bc37a29ffa5cdc956","68776030fe1f00d491682163","1","1","67e074f58a5ea7d9897f3223","1","1","2025-07-16T08:32:16.662Z","","","","","","","","","","","","","","win-only","0","g1:NW,g2:SE","0.6","5","0","919442","4999.2","10007.4","15946.1","1","4","8","6","2","-8","-8","0","0","0","1936.5","3000","-1885","[""down"",""right""]","{""num_key_presses"":0,""num_perfect"":0,""num_errors"":0,""num_randdir"":0,""num_randdir_good_moves"":0,""num_whilered"":0,""num_whileblue"":0,""num_blue"":0,""num_good_moves"":0}","[416.5714133126395,414.07142761775424,2,416.5714133126395,414.07142761775424,108.9,416.5714133126395,414.07142761775424,218.5,416.5714133126395,414.07142761775424,319.8,416.5714133126395,414.07142761775424,429.7,416.5714133126395,414.07142761775424,544.1,416.5714133126395,414.07142761775424,651,414.0714133126395,415.32142761775424,752,411.5714133126395,431.57142761775424,854.2,419.0714133126395,436.57142761775424,956.5,430.3214133126395,459.07142761775424,1062.2,475.3214133126395,530.3214276177542,1169.4,541.5714133126395,575.3214276177542,1274.8,686.5714133126395,679.0714276177542,1375.1,737.8214133126395,696.5714276177542,1489.4,737.8214133126395,696.5714276177542,1591,737.8214133126395,697.8214276177542,1693.7,737.8214133126395,706.5714276177542,1796.8,740.3214133126395,707.8214276177542,1905.1,740.3214133126395,707.8214276177542,2007,740.3214133126395,707.8214276177542,2107.4,740.3214133126395,707.8214276177542,2215.8,740.3214133126395,707.8214276177542,2317.8,740.3214133126395,707.8214276177542,2419.1,714.0714133126395,666.5714276177542,2521.8,686.5714133126395,614.0714276177542,2624,614.0714133126395,491.57142761775424,2725.7,530.3214133126395,404.07142761775424,2829.2,530.3214133126395,404.07142761775424,2930.6,530.3214133126395,401.57142761775424,3038.1,531.5714133126395,385.32142761775424,3139.5,531.5714133126395,385.32142761775424,3247.3,531.5714133126395,385.32142761775424,3352.4,531.5714133126395,390.32142761775424,3452.9,515.3214133126395,391.57142761775424,3553.2,466.5714133126395,380.32142761775424,3657.7,440.3214133126395,374.07142761775424,3770.7,431.5714133126395,376.57142761775424,3884.3,430.3214133126395,377.82142761775424,3986.3,430.3214133126395,377.82142761775424,4087.6,414.0714133126395,384.07142761775424,4195.8,414.0714133126395,384.07142761775424,4295.8,414.0714133126395,380.32142761775424,4401.3,391.5714133126395,354.07142761775424,4502.4,382.8214133126395,354.07142761775424,4608.6,380.3214133126395,356.57142761775424,4711.7,380.3214133126395,356.57142761775424,4822.1,380.3214133126395,356.57142761775424,4928.2]","[]","",""
"36955","","<div style=""width:500px;"">
  <p>What determined the result of this run?</p>
  </div>","0","html-slider-response","30","970710","0.0-5.0-1.4","46","1","2025-07-16 08:18:11","1f75c3e559b7213887762d5229550c2b","41.122.12.0","Mozilla/5.0 (Windows NT 10.0; Win64; x64) AppleWebKit/537.36 (KHTML, like Gecko) Chrome/138.0.0.0 Safari/537.36","WebKit","Chrome","138.0.0.0","Windows","10.0","https://app.prolific.com/","en-GB,en-US;q=0.9,en;q=0.8","67e074f58a5ea7d9897f3223","686e379bc37a29ffa5cdc956","68776030fe1f00d491682163","1","1","67e074f58a5ea7d9897f3223","1","1","2025-07-16T08:32:53.619Z","","","","","","","","","","","AttribQ","","50","","","","","","","","","","","","","","","","","","","","","","","","","","","","",""
"6747","","<div style=""width:500px;"">
  <p>How much control did you have over the ball?</p>
  </div>","0","html-slider-response","31","977461","0.0-5.0-2.4","46","1","2025-07-16 08:18:11","1f75c3e559b7213887762d5229550c2b","41.122.12.0","Mozilla/5.0 (Windows NT 10.0; Win64; x64) AppleWebKit/537.36 (KHTML, like Gecko) Chrome/138.0.0.0 Safari/537.36","WebKit","Chrome","138.0.0.0","Windows","10.0","https://app.prolific.com/","en-GB,en-US;q=0.9,en;q=0.8","67e074f58a5ea7d9897f3223","686e379bc37a29ffa5cdc956","68776030fe1f00d491682163","1","1","67e074f58a5ea7d9897f3223","1","1","2025-07-16T08:33:00.370Z","","","","","","","","","","","ControlQ","","50","","","","","","","","","","","","","","","","","","","","","","","","","","","","",""
"12547","","<div style=""width:500px;"">
  <p>How would you describe your current emotional state?</p>
  </div>","100","html-slider-response","32","990013","0.0-5.0-3.4","46","1","2025-07-16 08:18:11","1f75c3e559b7213887762d5229550c2b","41.122.12.0","Mozilla/5.0 (Windows NT 10.0; Win64; x64) AppleWebKit/537.36 (KHTML, like Gecko) Chrome/138.0.0.0 Safari/537.36","WebKit","Chrome","138.0.0.0","Windows","10.0","https://app.prolific.com/","en-GB,en-US;q=0.9,en;q=0.8","67e074f58a5ea7d9897f3223","686e379bc37a29ffa5cdc956","68776030fe1f00d491682163","1","1","67e074f58a5ea7d9897f3223","1","1","2025-07-16T08:33:12.922Z","","","","","","","","","","","StressQ","","50","","","","","","","","","","","","","","","","","","","","","","","","","","","","",""
"13462","","<div style=""width:500px;"">
  <p>What best describes how you currently feel?</p>
  </div>","0","html-slider-response","33","1003479","0.0-5.0-4.4","46","1","2025-07-16 08:18:11","1f75c3e559b7213887762d5229550c2b","41.122.12.0","Mozilla/5.0 (Windows NT 10.0; Win64; x64) AppleWebKit/537.36 (KHTML, like Gecko) Chrome/138.0.0.0 Safari/537.36","WebKit","Chrome","138.0.0.0","Windows","10.0","https://app.prolific.com/","en-GB,en-US;q=0.9,en;q=0.8","67e074f58a5ea7d9897f3223","686e379bc37a29ffa5cdc956","68776030fe1f00d491682163","1","1","67e074f58a5ea7d9897f3223","1","1","2025-07-16T08:33:26.388Z","","","","","","","","","","","MotivationQ","","50","","","","","","","","","","","","","","","","","","","","","","","","","","","","",""
"","","","","ctl-task-cpt","34","1023809","0.0-5.0-0.5","46","1","2025-07-16 08:18:11","1f75c3e559b7213887762d5229550c2b","41.122.12.0","Mozilla/5.0 (Windows NT 10.0; Win64; x64) AppleWebKit/537.36 (KHTML, like Gecko) Chrome/138.0.0.0 Safari/537.36","WebKit","Chrome","138.0.0.0","Windows","10.0","https://app.prolific.com/","en-GB,en-US;q=0.9,en;q=0.8","67e074f58a5ea7d9897f3223","686e379bc37a29ffa5cdc956","68776030fe1f00d491682163","1","1","67e074f58a5ea7d9897f3223","1","1","2025-07-16T08:33:46.718Z","","","","","","","","","","","","","","win-only","2","g1:SE,g2:NW","0.5","6","0","1008150.6","5668.2","10683.8","17301.5","1","4","4","6","2","-4","-4","0","0","0","2645.3","3000","-1740","[""left"",""up""]","{""num_key_presses"":0,""num_perfect"":0,""num_errors"":0,""num_randdir"":0,""num_randdir_good_moves"":0,""num_whilered"":0,""num_whileblue"":0,""num_blue"":0,""num_good_moves"":0}","[419.0714133126395,414.07142761775424,1.1,419.0714133126395,414.07142761775424,107.8,419.0714133126395,414.07142761775424,214.7,419.0714133126395,414.07142761775424,324.3,419.0714133126395,414.07142761775424,424.6,424.0714133126395,417.82142761775424,530.2,426.5714133126395,449.07142761775424,633,429.0714133126395,460.32142761775424,738.7,439.0714133126395,490.32142761775424,841.7,456.5714133126395,517.8214276177542,948,509.0714133126395,582.8214276177542,1054.4,647.8214133126395,666.5714276177542,1157.6,647.8214133126395,666.5714276177542,1258.6,671.5714133126395,721.5714276177542,1372.7,707.8214133126395,771.5714276177542,1472.9,724.0714133126395,764.0714276177542,1573.7,725.3214133126395,761.5714276177542,1690.1,725.3214133126395,761.5714276177542,1790.3,480.3214133126395,636.5714276177542,1894.3,42.82141331263951,14.071427617754253,1999.6,-5.928586687360493,-110.92857238224575,2101.4,-5.928586687360493,-110.92857238224575,2208.5,12.821413312639507,-85.92857238224575,2310.5,51.57141331263951,49.07142761775425,2428.2,62.82141331263951,56.57142761775425,2545,62.82141331263951,52.82142761775425,2648.5,62.82141331263951,52.82142761775425,2749,62.82141331263951,52.82142761775425,2849.1,62.82141331263951,52.82142761775425,2950.7,64.0714133126395,69.07142761775425,3059.1,65.3214133126395,75.32142761775425,3161.4,76.5714133126395,125.32142761775425,3277.9,117.8214133126395,211.57142761775424,3384.2,122.8214133126395,226.57142761775424,3484.5,125.3214133126395,249.07142761775424,3590.1,126.5714133126395,252.82142761775424,3696.2,126.5714133126395,252.82142761775424,3796.4,126.5714133126395,252.82142761775424,3906.8,126.5714133126395,252.82142761775424,4008.3,126.5714133126395,252.82142761775424,4114.4,126.5714133126395,252.82142761775424,4214.4,126.5714133126395,252.82142761775424,4314.4,126.5714133126395,252.82142761775424,4423.7,126.5714133126395,252.82142761775424,4528.7,126.5714133126395,252.82142761775424,4629.3,126.5714133126395,255.32142761775424,4735.3,126.5714133126395,255.32142761775424,4842.4,129.0714133126395,255.32142761775424,4944.8]","[]","",""
"9502","","<div style=""width:500px;"">
  <p>What determined the result of this run?</p>
  </div>","50","html-slider-response","35","1033313","0.0-5.0-1.5","46","1","2025-07-16 08:18:11","1f75c3e559b7213887762d5229550c2b","41.122.12.0","Mozilla/5.0 (Windows NT 10.0; Win64; x64) AppleWebKit/537.36 (KHTML, like Gecko) Chrome/138.0.0.0 Safari/537.36","WebKit","Chrome","138.0.0.0","Windows","10.0","https://app.prolific.com/","en-GB,en-US;q=0.9,en;q=0.8","67e074f58a5ea7d9897f3223","686e379bc37a29ffa5cdc956","68776030fe1f00d491682163","1","1","67e074f58a5ea7d9897f3223","1","1","2025-07-16T08:33:56.222Z","","","","","","","","","","","AttribQ","","50","","","","","","","","","","","","","","","","","","","","","","","","","","","","",""
"6136","","<div style=""width:500px;"">
  <p>How much control did you have over the ball?</p>
  </div>","0","html-slider-response","36","1039452","0.0-5.0-2.5","46","1","2025-07-16 08:18:11","1f75c3e559b7213887762d5229550c2b","41.122.12.0","Mozilla/5.0 (Windows NT 10.0; Win64; x64) AppleWebKit/537.36 (KHTML, like Gecko) Chrome/138.0.0.0 Safari/537.36","WebKit","Chrome","138.0.0.0","Windows","10.0","https://app.prolific.com/","en-GB,en-US;q=0.9,en;q=0.8","67e074f58a5ea7d9897f3223","686e379bc37a29ffa5cdc956","68776030fe1f00d491682163","1","1","67e074f58a5ea7d9897f3223","1","1","2025-07-16T08:34:02.361Z","","","","","","","","","","","ControlQ","","50","","","","","","","","","","","","","","","","","","","","","","","","","","","","",""
"7419","","<div style=""width:500px;"">
  <p>How would you describe your current emotional state?</p>
  </div>","70","html-slider-response","37","1046874","0.0-5.0-3.5","46","1","2025-07-16 08:18:11","1f75c3e559b7213887762d5229550c2b","41.122.12.0","Mozilla/5.0 (Windows NT 10.0; Win64; x64) AppleWebKit/537.36 (KHTML, like Gecko) Chrome/138.0.0.0 Safari/537.36","WebKit","Chrome","138.0.0.0","Windows","10.0","https://app.prolific.com/","en-GB,en-US;q=0.9,en;q=0.8","67e074f58a5ea7d9897f3223","686e379bc37a29ffa5cdc956","68776030fe1f00d491682163","1","1","67e074f58a5ea7d9897f3223","1","1","2025-07-16T08:34:09.783Z","","","","","","","","","","","StressQ","","50","","","","","","","","","","","","","","","","","","","","","","","","","","","","",""
"8342","","<div style=""width:500px;"">
  <p>What best describes how you currently feel?</p>
  </div>","24","html-slider-response","38","1055222","0.0-5.0-4.5","46","1","2025-07-16 08:18:11","1f75c3e559b7213887762d5229550c2b","41.122.12.0","Mozilla/5.0 (Windows NT 10.0; Win64; x64) AppleWebKit/537.36 (KHTML, like Gecko) Chrome/138.0.0.0 Safari/537.36","WebKit","Chrome","138.0.0.0","Windows","10.0","https://app.prolific.com/","en-GB,en-US;q=0.9,en;q=0.8","67e074f58a5ea7d9897f3223","686e379bc37a29ffa5cdc956","68776030fe1f00d491682163","1","1","67e074f58a5ea7d9897f3223","1","1","2025-07-16T08:34:18.131Z","","","","","","","","","","","MotivationQ","","50","","","","","","","","","","","","","","","","","","","","","","","","","","","","",""
"","","","","ctl-task-cpt","39","1094284","0.0-5.0-0.6","46","1","2025-07-16 08:18:11","1f75c3e559b7213887762d5229550c2b","41.122.12.0","Mozilla/5.0 (Windows NT 10.0; Win64; x64) AppleWebKit/537.36 (KHTML, like Gecko) Chrome/138.0.0.0 Safari/537.36","WebKit","Chrome","138.0.0.0","Windows","10.0","https://app.prolific.com/","en-GB,en-US;q=0.9,en;q=0.8","67e074f58a5ea7d9897f3223","686e379bc37a29ffa5cdc956","68776030fe1f00d491682163","1","1","67e074f58a5ea7d9897f3223","1","1","2025-07-16T08:34:57.193Z","","","","","","","","","","","","","","win-only","3","g1:SW,g2:NE","0.4","7","0","1059893.1","19334","24347.7","36039.4","1","4","4","6","2","-4","-4","0","0","0","1433","3000","-1050","[""up"",""right""]","{""num_key_presses"":0,""num_perfect"":0,""num_errors"":0,""num_randdir"":0,""num_randdir_good_moves"":0,""num_whilered"":0,""num_whileblue"":0,""num_blue"":1,""num_good_moves"":0}","[426.5714133126395,420.32142761775424,1,426.5714133126395,420.32142761775424,100.1,426.5714133126395,420.32142761775424,216.9,426.5714133126395,420.32142761775424,319.3,426.5714133126395,420.32142761775424,424.9,437.8214133126395,381.57142761775424,527.3,511.5714133126395,224.07142761775424,642.8,582.8214133126395,165.32142761775424,750.7,606.5714133126395,131.57142761775424,858.3,646.5714133126395,114.07142761775425,973.5,695.3214133126395,84.07142761775425,1079.1,695.3214133126395,84.07142761775425,1183.2,724.0714133126395,61.57142761775425,1284.3,731.5714133126395,59.07142761775425,1385.8,730.3214133126395,56.57142761775425,1498.4,730.3214133126395,56.57142761775425,1600.7,717.8214133126395,59.07142761775425,1703.4,687.8214133126395,91.57142761775425,1815.1,651.5714133126395,147.82142761775424,1918.6,630.3214133126395,226.57142761775424,2027.4,620.3214133126395,324.07142761775424,2136,600.3214133126395,370.32142761775424,2236.4,600.3214133126395,370.32142761775424,2344.6,600.3214133126395,370.32142761775424,2458.7,600.3214133126395,370.32142761775424,2560.2,600.3214133126395,370.32142761775424,2661.2,600.3214133126395,370.32142761775424,2762.1,600.3214133126395,371.57142761775424,2869.4,607.8214133126395,375.32142761775424,2980.3,607.8214133126395,375.32142761775424,3085.6,607.8214133126395,375.32142761775424,3193.3,607.8214133126395,375.32142761775424,3297.9,611.5714133126395,376.57142761775424,3397.9,615.3214133126395,377.82142761775424,3498,627.8214133126395,385.32142761775424,3600.5,619.0714133126395,401.57142761775424,3709.5,545.3214133126395,425.32142761775424,3818.7,501.5714133126395,425.32142761775424,3922.9,497.8214133126395,427.82142761775424,4024.3,490.3214133126395,431.57142761775424,4125.2,484.0714133126395,434.07142761775424,4232.7,471.5714133126395,441.57142761775424,4338.4,469.0714133126395,442.82142761775424,4440.8,469.0714133126395,442.82142761775424,4548.6,469.0714133126395,442.82142761775424,4651.5,452.8214133126395,451.57142761775424,4755.8,452.8214133126395,451.57142761775424,4855.9,452.8214133126395,451.57142761775424,4959.6]","[]","",""
"45628","","<div style=""width:500px;"">
  <p>What determined the result of this run?</p>
  </div>","100","html-slider-response","40","1139916","0.0-5.0-1.6","46","1","2025-07-16 08:18:11","1f75c3e559b7213887762d5229550c2b","41.122.12.0","Mozilla/5.0 (Windows NT 10.0; Win64; x64) AppleWebKit/537.36 (KHTML, like Gecko) Chrome/138.0.0.0 Safari/537.36","WebKit","Chrome","138.0.0.0","Windows","10.0","https://app.prolific.com/","en-GB,en-US;q=0.9,en;q=0.8","67e074f58a5ea7d9897f3223","686e379bc37a29ffa5cdc956","68776030fe1f00d491682163","1","1","67e074f58a5ea7d9897f3223","1","1","2025-07-16T08:35:42.825Z","","","","","","","","","","","AttribQ","","50","","","","","","","","","","","","","","","","","","","","","","","","","","","","",""
"4703","","<div style=""width:500px;"">
  <p>How much control did you have over the ball?</p>
  </div>","50","html-slider-response","41","1144623","0.0-5.0-2.6","46","1","2025-07-16 08:18:11","1f75c3e559b7213887762d5229550c2b","41.122.12.0","Mozilla/5.0 (Windows NT 10.0; Win64; x64) AppleWebKit/537.36 (KHTML, like Gecko) Chrome/138.0.0.0 Safari/537.36","WebKit","Chrome","138.0.0.0","Windows","10.0","https://app.prolific.com/","en-GB,en-US;q=0.9,en;q=0.8","67e074f58a5ea7d9897f3223","686e379bc37a29ffa5cdc956","68776030fe1f00d491682163","1","1","67e074f58a5ea7d9897f3223","1","1","2025-07-16T08:35:47.533Z","","","","","","","","","","","ControlQ","","50","","","","","","","","","","","","","","","","","","","","","","","","","","","","",""
"3472","","<div style=""width:500px;"">
  <p>How would you describe your current emotional state?</p>
  </div>","100","html-slider-response","42","1148100","0.0-5.0-3.6","46","1","2025-07-16 08:18:11","1f75c3e559b7213887762d5229550c2b","41.122.12.0","Mozilla/5.0 (Windows NT 10.0; Win64; x64) AppleWebKit/537.36 (KHTML, like Gecko) Chrome/138.0.0.0 Safari/537.36","WebKit","Chrome","138.0.0.0","Windows","10.0","https://app.prolific.com/","en-GB,en-US;q=0.9,en;q=0.8","67e074f58a5ea7d9897f3223","686e379bc37a29ffa5cdc956","68776030fe1f00d491682163","1","1","67e074f58a5ea7d9897f3223","1","1","2025-07-16T08:35:51.010Z","","","","","","","","","","","StressQ","","50","","","","","","","","","","","","","","","","","","","","","","","","","","","","",""
"10022","","<div style=""width:500px;"">
  <p>What best describes how you currently feel?</p>
  </div>","0","html-slider-response","43","1158131","0.0-5.0-4.6","46","1","2025-07-16 08:18:11","1f75c3e559b7213887762d5229550c2b","41.122.12.0","Mozilla/5.0 (Windows NT 10.0; Win64; x64) AppleWebKit/537.36 (KHTML, like Gecko) Chrome/138.0.0.0 Safari/537.36","WebKit","Chrome","138.0.0.0","Windows","10.0","https://app.prolific.com/","en-GB,en-US;q=0.9,en;q=0.8","67e074f58a5ea7d9897f3223","686e379bc37a29ffa5cdc956","68776030fe1f00d491682163","1","1","67e074f58a5ea7d9897f3223","1","1","2025-07-16T08:36:01.040Z","","","","","","","","","","","MotivationQ","","50","","","","","","","","","","","","","","","","","","","","","","","","","","","","",""
"","","","","ctl-task-cpt","44","1231342","0.0-5.0-0.7","46","1","2025-07-16 08:18:11","1f75c3e559b7213887762d5229550c2b","41.122.12.0","Mozilla/5.0 (Windows NT 10.0; Win64; x64) AppleWebKit/537.36 (KHTML, like Gecko) Chrome/138.0.0.0 Safari/537.36","WebKit","Chrome","138.0.0.0","Windows","10.0","https://app.prolific.com/","en-GB,en-US;q=0.9,en;q=0.8","67e074f58a5ea7d9897f3223","686e379bc37a29ffa5cdc956","68776030fe1f00d491682163","1","1","67e074f58a5ea7d9897f3223","1","1","2025-07-16T08:37:14.251Z","","","","","","","","","","","","","","win-only","1","g1:NE,g2:SW","0.3","8","0","1162803.9","5675.7","10694.5","70146.6","1","4","8","6","2","8","7","7","0","0.05303030303030303","1648.9","3000","2500","[""down"",""left""]","{""num_key_presses"":11,""num_perfect"":3,""num_errors"":1,""num_randdir"":7,""num_randdir_good_moves"":5,""num_whilered"":0,""num_whileblue"":0,""num_blue"":2,""num_good_moves"":8}","[420.3214133126395,424.07142761775424,0.7,420.3214133126395,424.07142761775424,128,420.3214133126395,424.07142761775424,255,420.3214133126395,424.07142761775424,372.2,529.0714133126395,437.82142761775424,510.7,719.0714133126395,436.57142761775424,618.8,719.0714133126395,436.57142761775424,746.2,731.5714133126395,446.57142761775424,849,721.5714133126395,451.57142761775424,976.1,360.3214133126395,544.0714276177542,1103.6,230.3214133126395,630.3214276177542,1225,216.5714133126395,662.8214276177542,1335.6,81.5714133126395,741.5714276177542,1449.5,76.5714133126395,742.8214276177542,1571.2,76.5714133126395,742.8214276177542,1696.2,76.5714133126395,742.8214276177542,1798.8,105.3214133126395,744.0714276177542,1916.6,867.8214133126395,839.0714276177542,2031.9,997.8214133126395,889.0714276177542,2151.5,997.8214133126395,889.0714276177542,2272.5,997.8214133126395,889.0714276177542,2396.6,997.8214133126395,889.0714276177542,2512.4,997.8214133126395,889.0714276177542,2643.7,997.8214133126395,889.0714276177542,2753.3,997.8214133126395,889.0714276177542,2867,997.8214133126395,889.0714276177542,2981,997.8214133126395,889.0714276177542,3088,997.8214133126395,889.0714276177542,3198.4,997.8214133126395,889.0714276177542,3309.3,997.8214133126395,889.0714276177542,3418.8,997.8214133126395,889.0714276177542,3531.8,997.8214133126395,889.0714276177542,3665.4,997.8214133126395,889.0714276177542,3765.9,997.8214133126395,889.0714276177542,3872.3,997.8214133126395,889.0714276177542,3984.3,997.8214133126395,889.0714276177542,4110.5,997.8214133126395,889.0714276177542,4272.7,997.8214133126395,889.0714276177542,4420.7,997.8214133126395,889.0714276177542,4528,997.8214133126395,889.0714276177542,4655.6,997.8214133126395,889.0714276177542,4794.3,997.8214133126395,889.0714276177542,4926.4]","[1510.9,1510.9,1000,0,510.9,""oops"",""left"",""down"",""good_move"",4359.1,2845.8,2352.6,1513.3,493.2,""oops"",""left"",""up"",""bad_move"",13009.8,8648.9,2610.5,4361,6038.3,""oops"",""down"",""left"",""good_move"",21624.6,8613.2,1948.5,13011.4,6664.7,""smooth"",""down"",""down"",""good_move"",24591.8,2966.4,2353.2,21625.4,613.2,""smooth"",""down"",""down"",""good_move"",25054.4,461.4,2723.7,24593.2,-2262.4,""error"",""-"",""-"",""no_move"",32872.6,7816.7,2469.5,29956.5,446.6,""oops"",""down"",""up"",""bad_move"",41605,8731.4,3030.3,32873.7,5701.1,""oops"",""left"",""down"",""good_move"",47298,5691.9,1596.8,45182.5,518.7,""oops"",""left"",""down"",""good_move"",50016.8,2718,2190.4,47298.8,527.6,""oops"",""left"",""left"",""good_move"",58512.3,8494.1,2125.4,50018.2,6368.7,""smooth"",""left"",""left"",""good_move""]","",""
"5247","","<div style=""width:500px;"">
  <p>What determined the result of this run?</p>
  </div>","100","html-slider-response","45","1236596","0.0-5.0-1.7","46","1","2025-07-16 08:18:11","1f75c3e559b7213887762d5229550c2b","41.122.12.0","Mozilla/5.0 (Windows NT 10.0; Win64; x64) AppleWebKit/537.36 (KHTML, like Gecko) Chrome/138.0.0.0 Safari/537.36","WebKit","Chrome","138.0.0.0","Windows","10.0","https://app.prolific.com/","en-GB,en-US;q=0.9,en;q=0.8","67e074f58a5ea7d9897f3223","686e379bc37a29ffa5cdc956","68776030fe1f00d491682163","1","1","67e074f58a5ea7d9897f3223","1","1","2025-07-16T08:37:19.505Z","","","","","","","","","","","AttribQ","","50","","","","","","","","","","","","","","","","","","","","","","","","","","","","",""
"4282","","<div style=""width:500px;"">
  <p>How much control did you have over the ball?</p>
  </div>","73","html-slider-response","46","1240884","0.0-5.0-2.7","46","1","2025-07-16 08:18:11","1f75c3e559b7213887762d5229550c2b","41.122.12.0","Mozilla/5.0 (Windows NT 10.0; Win64; x64) AppleWebKit/537.36 (KHTML, like Gecko) Chrome/138.0.0.0 Safari/537.36","WebKit","Chrome","138.0.0.0","Windows","10.0","https://app.prolific.com/","en-GB,en-US;q=0.9,en;q=0.8","67e074f58a5ea7d9897f3223","686e379bc37a29ffa5cdc956","68776030fe1f00d491682163","1","1","67e074f58a5ea7d9897f3223","1","1","2025-07-16T08:37:23.793Z","","","","","","","","","","","ControlQ","","50","","","","","","","","","","","","","","","","","","","","","","","","","","","","",""
"4418","","<div style=""width:500px;"">
  <p>How would you describe your current emotional state?</p>
  </div>","0","html-slider-response","47","1245311","0.0-5.0-3.7","46","1","2025-07-16 08:18:11","1f75c3e559b7213887762d5229550c2b","41.122.12.0","Mozilla/5.0 (Windows NT 10.0; Win64; x64) AppleWebKit/537.36 (KHTML, like Gecko) Chrome/138.0.0.0 Safari/537.36","WebKit","Chrome","138.0.0.0","Windows","10.0","https://app.prolific.com/","en-GB,en-US;q=0.9,en;q=0.8","67e074f58a5ea7d9897f3223","686e379bc37a29ffa5cdc956","68776030fe1f00d491682163","1","1","67e074f58a5ea7d9897f3223","1","1","2025-07-16T08:37:28.220Z","","","","","","","","","","","StressQ","","50","","","","","","","","","","","","","","","","","","","","","","","","","","","","",""
"4175","","<div style=""width:500px;"">
  <p>What best describes how you currently feel?</p>
  </div>","100","html-slider-response","48","1249497","0.0-5.0-4.7","46","1","2025-07-16 08:18:11","1f75c3e559b7213887762d5229550c2b","41.122.12.0","Mozilla/5.0 (Windows NT 10.0; Win64; x64) AppleWebKit/537.36 (KHTML, like Gecko) Chrome/138.0.0.0 Safari/537.36","WebKit","Chrome","138.0.0.0","Windows","10.0","https://app.prolific.com/","en-GB,en-US;q=0.9,en;q=0.8","67e074f58a5ea7d9897f3223","686e379bc37a29ffa5cdc956","68776030fe1f00d491682163","1","1","67e074f58a5ea7d9897f3223","1","1","2025-07-16T08:37:32.406Z","","","","","","","","","","","MotivationQ","","50","","","","","","","","","","","","","","","","","","","","","","","","","","","","",""
"","","","","ctl-task-cpt","49","1661427","0.0-5.0-0.8","46","1","2025-07-16 08:18:11","1f75c3e559b7213887762d5229550c2b","41.122.12.0","Mozilla/5.0 (Windows NT 10.0; Win64; x64) AppleWebKit/537.36 (KHTML, like Gecko) Chrome/138.0.0.0 Safari/537.36","WebKit","Chrome","138.0.0.0","Windows","10.0","https://app.prolific.com/","en-GB,en-US;q=0.9,en;q=0.8","67e074f58a5ea7d9897f3223","686e379bc37a29ffa5cdc956","68776030fe1f00d491682163","1","1","67e074f58a5ea7d9897f3223","1","1","2025-07-16T08:44:24.336Z","","","","","","","","","","","","","","win-only","1","g1:NE,g2:SW","0.2","9","0","1254170.5","2483.1","7490.3","408816.7","1","4","8","6","2","-8","-12","0","7","0","1475.9","3000","-135","[""down"",""left""]","{""num_key_presses"":50,""num_perfect"":10,""num_errors"":4,""num_randdir"":34,""num_randdir_good_moves"":15,""num_whilered"":2,""num_whileblue"":1,""num_blue"":5,""num_good_moves"":25}","[414.0714133126395,416.57142761775424,1.7,414.0714133126395,416.57142761775424,141.8,414.0714133126395,416.57142761775424,268.7,414.0714133126395,416.57142761775424,388.6,414.0714133126395,416.57142761775424,501.1,414.0714133126395,416.57142761775424,614.6,286.5714133126395,494.07142761775424,767.7,-20.928586687360493,612.8214276177542,902.8,-42.17858668736049,667.8214276177542,1034.6,20.321413312639507,786.5714276177542,1178.7,86.5714133126395,796.5714276177542,1306.1,96.5714133126395,785.3214276177542,1419.6,96.5714133126395,784.0714276177542,1551,96.5714133126395,784.0714276177542,1715.2,199.0714133126395,821.5714276177542,1870.7,636.5714133126395,915.3214276177542,2011.4,1371.5714133126396,907.8214276177542,2152.6,1375.3214133126396,886.5714276177542,2262.3,1375.3214133126396,886.5714276177542,2365.4,1375.3214133126396,886.5714276177542,2483.6,1375.3214133126396,886.5714276177542,2611.4,1375.3214133126396,886.5714276177542,2729,1375.3214133126396,886.5714276177542,2834.2,1375.3214133126396,886.5714276177542,2954.9,1375.3214133126396,886.5714276177542,3083.1,1375.3214133126396,886.5714276177542,3208.7,1375.3214133126396,886.5714276177542,3333.1,1375.3214133126396,886.5714276177542,3475.6,1375.3214133126396,886.5714276177542,3599.5,1375.3214133126396,886.5714276177542,3732,1375.3214133126396,886.5714276177542,3867.2,1375.3214133126396,886.5714276177542,3983,1375.3214133126396,886.5714276177542,4096.5,1375.3214133126396,886.5714276177542,4213.8,1375.3214133126396,886.5714276177542,4327.3,1375.3214133126396,886.5714276177542,4443.3,1375.3214133126396,886.5714276177542,4559.5,1375.3214133126396,886.5714276177542,4675,1366.5714133126396,895.3214276177542,4799.5,1344.0714133126396,896.5714276177542,4937.5]","[1796.7,1796.7,1000,0,796.7,""oops"",""left"",""right"",""bad_move"",5166,3367.4,2811.7,1798.6,555.7,""smooth"",""left"",""left"",""good_move"",16006.6,10838.7,2551.5,5168.4,8286.7,""oops"",""left"",""up"",""bad_move"",31013.9,15006.3,2689.5,16007.6,12316.8,""oops"",""left"",""down"",""good_move"",38946,7931.2,2003.7,31014.8,5927.5,""oops"",""down"",""right"",""bad_move"",42522.2,3575.5,2641,38946.8,934.4,""oops"",""down"",""left"",""good_move"",53372.6,10849.2,3044.3,42523.4,7804.9,""oops"",""down"",""up"",""bad_move"",64719.5,11346.1,2760.2,53373.5,8585.8,""smooth"",""down"",""down"",""good_move"",64877.4,157,2446.2,64720.4,-2289.2,""error"",""-"",""-"",""no_move"",64935.1,56.7,2446.2,64720.4,-2231.5,""while_red"",""-"",""-"",""no_move"",69180.4,4302,2686.4,65892.4,601.6,""oops"",""down"",""up"",""bad_move"",80431.9,11250.4,2652.9,69181.5,8597.5,""oops"",""left"",""right"",""bad_move"",83318.1,2880.4,2272.3,80437.7,608.1,""oops"",""down"",""up"",""bad_move"",83648.5,329.2,2134.3,83319.3,-1805.1,""error"",""-"",""-"",""no_move"",83801.6,152.2,2134.3,83319.3,-1652,""while_red"",""-"",""-"",""no_move"",95070.9,11421.5,2750.9,84669.5,7650.5,""smooth"",""down"",""down"",""good_move"",98932.1,3860.4,3208.2,95071.9,652.1,""smooth"",""down"",""down"",""good_move"",102755.2,3821.2,3179.4,98934,641.9,""oops"",""down"",""right"",""bad_move"",106936.5,4179,3521.7,102757.5,657.3,""oops"",""down"",""up"",""bad_move"",118448.7,11510.9,2825.1,106937.8,8685.8,""oops"",""left"",""left"",""good_move"",129919.1,11469.5,3038.7,118449.7,8430.7,""oops"",""left"",""up"",""bad_move"",141873.7,11953.7,2559.1,129920,9394.6,""oops"",""left"",""left"",""good_move"",143352.6,1478.3,2405.2,141874.4,-926.9,""error"",""-"",""-"",""no_move"",153706.3,10352.8,2025,144378.4,7302.9,""oops"",""left"",""down"",""good_move"",156743.8,3036.4,2317.5,153707.4,718.9,""oops"",""left"",""down"",""good_move"",159760.8,3015.9,2359,156744.9,656.9,""oops"",""left"",""down"",""good_move"",162493.8,2731.7,2137,159762.1,594.7,""oops"",""left"",""left"",""good_move"",177525.5,15030.4,3310.8,162495.1,11719.6,""oops"",""left"",""right"",""bad_move"",181103.9,3577.7,2768.2,177526.2,809.5,""oops"",""left"",""down"",""good_move"",184517,3410.1,2699.4,181107,710.6,""oops"",""left"",""up"",""bad_move"",200701.3,16179.7,3110.9,184521.6,13068.8,""oops"",""down"",""up"",""bad_move"",221021.4,20319.1,2630.1,200702.3,17689,""oops"",""down"",""left"",""good_move"",237102.3,16078.5,2419.3,221023.8,13659.2,""oops"",""down"",""left"",""good_move"",253270.4,16167.5,15663.1,237103,504.4,""while_blue"",""down"",""down"",""good_move"",256778.1,3506.9,2334.3,253271.3,1172.5,""smooth"",""down"",""down"",""good_move"",260514.1,3735.3,3048.9,256778.8,686.4,""smooth"",""down"",""down"",""good_move"",263785.6,3269.9,2563.2,260515.7,706.7,""oops"",""down"",""down"",""good_move"",270209.6,6422.7,2622.8,266899.1,687.7,""oops"",""down"",""right"",""bad_move"",274225.9,4015.4,2331.5,270210.5,1683.9,""smooth"",""down"",""down"",""good_move"",277733.3,3506.3,2410.6,274227,1095.7,""smooth"",""down"",""right"",""bad_move"",281168.8,3434,2765.4,277734.8,668.6,""oops"",""left"",""up"",""bad_move"",297803.1,16633.1,2272.8,281170,14360.3,""oops"",""left"",""down"",""good_move"",300891.4,3087.5,2154.3,297803.9,933.2,""oops"",""left"",""up"",""bad_move"",319538.1,18645.4,2785,300892.7,15860.4,""oops"",""left"",""right"",""bad_move"",322683.1,3143.4,2208.3,319539.7,935.1,""oops"",""down"",""up"",""bad_move"",340405.6,17721.2,2445.9,322684.4,15275.3,""oops"",""left"",""left"",""good_move"",358414.1,18007.4,3383.6,340406.8,14623.7,""smooth"",""left"",""left"",""good_move"",388041.2,29626.3,2832.1,384064.8,1144.3,""oops"",""down"",""down"",""good_move"",391554.9,3512.4,2154.3,388042.5,1358.1,""smooth"",""down"",""down"",""good_move"",398768.7,7212.8,3176.7,391555.9,4036.1,""oops"",""down"",""right"",""bad_move""]","",""
"10172","","<div style=""width:500px;"">
  <p>What determined the result of this run?</p>
  </div>","0","html-slider-response","50","1671611","0.0-5.0-1.8","46","1","2025-07-16 08:18:11","1f75c3e559b7213887762d5229550c2b","41.122.12.0","Mozilla/5.0 (Windows NT 10.0; Win64; x64) AppleWebKit/537.36 (KHTML, like Gecko) Chrome/138.0.0.0 Safari/537.36","WebKit","Chrome","138.0.0.0","Windows","10.0","https://app.prolific.com/","en-GB,en-US;q=0.9,en;q=0.8","67e074f58a5ea7d9897f3223","686e379bc37a29ffa5cdc956","68776030fe1f00d491682163","1","1","67e074f58a5ea7d9897f3223","1","1","2025-07-16T08:44:34.521Z","","","","","","","","","","","AttribQ","","50","","","","","","","","","","","","","","","","","","","","","","","","","","","","",""
"7043","","<div style=""width:500px;"">
  <p>How much control did you have over the ball?</p>
  </div>","0","html-slider-response","51","1678679","0.0-5.0-2.8","46","1","2025-07-16 08:18:11","1f75c3e559b7213887762d5229550c2b","41.122.12.0","Mozilla/5.0 (Windows NT 10.0; Win64; x64) AppleWebKit/537.36 (KHTML, like Gecko) Chrome/138.0.0.0 Safari/537.36","WebKit","Chrome","138.0.0.0","Windows","10.0","https://app.prolific.com/","en-GB,en-US;q=0.9,en;q=0.8","67e074f58a5ea7d9897f3223","686e379bc37a29ffa5cdc956","68776030fe1f00d491682163","1","1","67e074f58a5ea7d9897f3223","1","1","2025-07-16T08:44:41.588Z","","","","","","","","","","","ControlQ","","50","","","","","","","","","","","","","","","","","","","","","","","","","","","","",""
"5731","","<div style=""width:500px;"">
  <p>How would you describe your current emotional state?</p>
  </div>","100","html-slider-response","52","1684421","0.0-5.0-3.8","46","1","2025-07-16 08:18:11","1f75c3e559b7213887762d5229550c2b","41.122.12.0","Mozilla/5.0 (Windows NT 10.0; Win64; x64) AppleWebKit/537.36 (KHTML, like Gecko) Chrome/138.0.0.0 Safari/537.36","WebKit","Chrome","138.0.0.0","Windows","10.0","https://app.prolific.com/","en-GB,en-US;q=0.9,en;q=0.8","67e074f58a5ea7d9897f3223","686e379bc37a29ffa5cdc956","68776030fe1f00d491682163","1","1","67e074f58a5ea7d9897f3223","1","1","2025-07-16T08:44:47.330Z","","","","","","","","","","","StressQ","","50","","","","","","","","","","","","","","","","","","","","","","","","","","","","",""
"4153","","<div style=""width:500px;"">
  <p>What best describes how you currently feel?</p>
  </div>","0","html-slider-response","53","1688585","0.0-5.0-4.8","46","1","2025-07-16 08:18:11","1f75c3e559b7213887762d5229550c2b","41.122.12.0","Mozilla/5.0 (Windows NT 10.0; Win64; x64) AppleWebKit/537.36 (KHTML, like Gecko) Chrome/138.0.0.0 Safari/537.36","WebKit","Chrome","138.0.0.0","Windows","10.0","https://app.prolific.com/","en-GB,en-US;q=0.9,en;q=0.8","67e074f58a5ea7d9897f3223","686e379bc37a29ffa5cdc956","68776030fe1f00d491682163","1","1","67e074f58a5ea7d9897f3223","1","1","2025-07-16T08:44:51.495Z","","","","","","","","","","","MotivationQ","","50","","","","","","","","","","","","","","","","","","","","","","","","","","","","",""
"","","","","ctl-task-cpt","54","1858409","0.0-5.0-0.9","46","1","2025-07-16 08:18:11","1f75c3e559b7213887762d5229550c2b","41.122.12.0","Mozilla/5.0 (Windows NT 10.0; Win64; x64) AppleWebKit/537.36 (KHTML, like Gecko) Chrome/138.0.0.0 Safari/537.36","WebKit","Chrome","138.0.0.0","Windows","10.0","https://app.prolific.com/","en-GB,en-US;q=0.9,en;q=0.8","67e074f58a5ea7d9897f3223","686e379bc37a29ffa5cdc956","68776030fe1f00d491682163","1","1","67e074f58a5ea7d9897f3223","1","1","2025-07-16T08:47:41.318Z","","","","","","","","","","","","","","win-only","3","g1:SW,g2:NE","0.4","10","0","1693262.7","1768","6876.3","166671.1","1","4","4","6","2","4","3","3","0","0.022727272727272728","1659.3","3000","2200","[""up"",""right""]","{""num_key_presses"":14,""num_perfect"":6,""num_errors"":1,""num_randdir"":7,""num_randdir_good_moves"":4,""num_whilered"":0,""num_whileblue"":0,""num_blue"":3,""num_good_moves"":10}","[416.5714133126395,411.57142761775424,1,416.5714133126395,411.57142761775424,114.6,416.5714133126395,411.57142761775424,231.1,416.5714133126395,411.57142761775424,400.6,412.8214133126395,420.32142761775424,525.9,412.8214133126395,426.57142761775424,650.1,521.5714133126395,396.57142761775424,789.4,700.3214133126395,276.57142761775424,924.2,722.8214133126395,231.57142761775424,1055.8,730.3214133126395,221.57142761775424,1191.8,825.3214133126395,77.82142761775425,1321.8,794.0714133126395,26.571427617754253,1493.4,791.5714133126395,36.57142761775425,1685.2,791.5714133126395,36.57142761775425,1840.9,784.0714133126395,56.57142761775425,1968.6,784.0714133126395,56.57142761775425,2090,782.8214133126395,179.07142761775424,2310.5,786.5714133126395,206.57142761775424,2441.9,789.0714133126395,216.57142761775424,2567.2,804.0714133126395,286.57142761775424,2693.3,769.0714133126395,301.57142761775424,2823.3,741.5714133126395,316.57142761775424,2942.7,746.5714133126395,311.57142761775424,3066.5,760.3214133126395,310.32142761775424,3179.6,760.3214133126395,310.32142761775424,3293.4,761.5714133126395,310.32142761775424,3404.5,761.5714133126395,310.32142761775424,3526.4,761.5714133126395,310.32142761775424,3643.9,761.5714133126395,310.32142761775424,3765.6,761.5714133126395,310.32142761775424,3878.2,761.5714133126395,310.32142761775424,3991.9,761.5714133126395,310.32142761775424,4104.8,761.5714133126395,310.32142761775424,4219.3,761.5714133126395,310.32142761775424,4331,761.5714133126395,310.32142761775424,4442.2,761.5714133126395,310.32142761775424,4555,761.5714133126395,310.32142761775424,4667.5,761.5714133126395,310.32142761775424,4774.8,761.5714133126395,310.32142761775424,4884.6,761.5714133126395,310.32142761775424,4993.7]","[1910.3,1910.3,1000,0,910.3,""oops"",""up"",""left"",""bad_move"",16843.4,14932.2,2685.7,1911.2,12246.5,""error"",""-"",""-"",""no_move"",30754.1,13907.4,2194.7,17857.2,10702.2,""oops"",""right"",""right"",""good_move"",36883.5,6128.1,2037.4,34026.2,819.9,""oops"",""right"",""down"",""bad_move"",40788.9,3904.6,2589.6,36884.3,1315,""oops"",""right"",""right"",""good_move"",44707.9,3917.7,2997.8,40790.2,919.9,""oops"",""right"",""left"",""bad_move"",69003.4,24294.1,2776.3,65353.5,873.6,""smooth"",""up"",""up"",""good_move"",90505.4,21501.1,3029.2,69004.3,18471.9,""smooth"",""up"",""up"",""good_move"",111649.1,21141.7,2017.6,90507.4,19124.1,""oops"",""up"",""right"",""good_move"",114860.2,3210.4,2078,111649.9,1132.3,""smooth"",""up"",""up"",""good_move"",137500.2,22638.8,2013.4,114861.5,20625.4,""smooth"",""right"",""right"",""good_move"",144980.8,7479.8,2743.5,140979.4,1257.9,""smooth"",""right"",""right"",""good_move"",148612.1,3630.6,1884,144981.5,1746.6,""oops"",""right"",""right"",""good_move"",158597.9,9984.7,2387.5,148613.2,7597.2,""smooth"",""up"",""up"",""good_move""]","",""
"6473","","<div style=""width:500px;"">
  <p>What determined the result of this run?</p>
  </div>","100","html-slider-response","55","1864894","0.0-5.0-1.9","46","1","2025-07-16 08:18:11","1f75c3e559b7213887762d5229550c2b","41.122.12.0","Mozilla/5.0 (Windows NT 10.0; Win64; x64) AppleWebKit/537.36 (KHTML, like Gecko) Chrome/138.0.0.0 Safari/537.36","WebKit","Chrome","138.0.0.0","Windows","10.0","https://app.prolific.com/","en-GB,en-US;q=0.9,en;q=0.8","67e074f58a5ea7d9897f3223","686e379bc37a29ffa5cdc956","68776030fe1f00d491682163","1","1","67e074f58a5ea7d9897f3223","1","1","2025-07-16T08:47:47.803Z","","","","","","","","","","","AttribQ","","50","","","","","","","","","","","","","","","","","","","","","","","","","","","","",""
"8255","","<div style=""width:500px;"">
  <p>How much control did you have over the ball?</p>
  </div>","36","html-slider-response","56","1873161","0.0-5.0-2.9","46","1","2025-07-16 08:18:11","1f75c3e559b7213887762d5229550c2b","41.122.12.0","Mozilla/5.0 (Windows NT 10.0; Win64; x64) AppleWebKit/537.36 (KHTML, like Gecko) Chrome/138.0.0.0 Safari/537.36","WebKit","Chrome","138.0.0.0","Windows","10.0","https://app.prolific.com/","en-GB,en-US;q=0.9,en;q=0.8","67e074f58a5ea7d9897f3223","686e379bc37a29ffa5cdc956","68776030fe1f00d491682163","1","1","67e074f58a5ea7d9897f3223","1","1","2025-07-16T08:47:56.070Z","","","","","","","","","","","ControlQ","","50","","","","","","","","","","","","","","","","","","","","","","","","","","","","",""
"6582","","<div style=""width:500px;"">
  <p>How would you describe your current emotional state?</p>
  </div>","30","html-slider-response","57","1879756","0.0-5.0-3.9","46","1","2025-07-16 08:18:11","1f75c3e559b7213887762d5229550c2b","41.122.12.0","Mozilla/5.0 (Windows NT 10.0; Win64; x64) AppleWebKit/537.36 (KHTML, like Gecko) Chrome/138.0.0.0 Safari/537.36","WebKit","Chrome","138.0.0.0","Windows","10.0","https://app.prolific.com/","en-GB,en-US;q=0.9,en;q=0.8","67e074f58a5ea7d9897f3223","686e379bc37a29ffa5cdc956","68776030fe1f00d491682163","1","1","67e074f58a5ea7d9897f3223","1","1","2025-07-16T08:48:02.665Z","","","","","","","","","","","StressQ","","50","","","","","","","","","","","","","","","","","","","","","","","","","","","","",""
"4783","","<div style=""width:500px;"">
  <p>What best describes how you currently feel?</p>
  </div>","66","html-slider-response","58","1884551","0.0-5.0-4.9","46","1","2025-07-16 08:18:11","1f75c3e559b7213887762d5229550c2b","41.122.12.0","Mozilla/5.0 (Windows NT 10.0; Win64; x64) AppleWebKit/537.36 (KHTML, like Gecko) Chrome/138.0.0.0 Safari/537.36","WebKit","Chrome","138.0.0.0","Windows","10.0","https://app.prolific.com/","en-GB,en-US;q=0.9,en;q=0.8","67e074f58a5ea7d9897f3223","686e379bc37a29ffa5cdc956","68776030fe1f00d491682163","1","1","67e074f58a5ea7d9897f3223","1","1","2025-07-16T08:48:07.460Z","","","","","","","","","","","MotivationQ","","50","","","","","","","","","","","","","","","","","","","","","","","","","","","","",""
"","","","","ctl-task-cpt","59","2195349","0.0-5.0-0.10","46","1","2025-07-16 08:18:11","1f75c3e559b7213887762d5229550c2b","41.122.12.0","Mozilla/5.0 (Windows NT 10.0; Win64; x64) AppleWebKit/537.36 (KHTML, like Gecko) Chrome/138.0.0.0 Safari/537.36","WebKit","Chrome","138.0.0.0","Windows","10.0","https://app.prolific.com/","en-GB,en-US;q=0.9,en;q=0.8","67e074f58a5ea7d9897f3223","686e379bc37a29ffa5cdc956","68776030fe1f00d491682163","1","1","67e074f58a5ea7d9897f3223","1","1","2025-07-16T08:53:18.258Z","","","","","","","","","","","","","","win-only","1","g1:NE,g2:SW","0.5","11","0","1889228.6","1947.7","7042.2","307621.4","1","4","4","6","2","4","4","7","3","0.05303030303030303","1474.2","3000","2190","[""down"",""left""]","{""num_key_presses"":22,""num_perfect"":10,""num_errors"":0,""num_randdir"":12,""num_randdir_good_moves"":5,""num_whilered"":0,""num_whileblue"":0,""num_blue"":4,""num_good_moves"":15}","[410.3214133126395,411.57142761775424,1,410.3214133126395,411.57142761775424,245.8,411.5714133126395,430.32142761775424,392.9,437.8214133126395,381.57142761775424,645.3,315.3214133126395,445.32142761775424,906,147.8214133126395,522.8214276177542,1077.4,52.82141331263951,746.5714276177542,1245,55.32141331263951,751.5714276177542,1386.4,56.57141331263951,754.0714276177542,1524.7,56.57141331263951,754.0714276177542,1657.4,69.0714133126395,741.5714276177542,1824.2,184.0714133126395,704.0714276177542,1997.7,242.8214133126395,642.8214276177542,2155.1,364.0714133126395,649.0714276177542,2341.5,871.5714133126395,692.8214276177542,2526,955.3214133126395,701.5714276177542,2697.9,985.3214133126395,715.3214276177542,2842.3,985.3214133126395,715.3214276177542,2980,985.3214133126395,715.3214276177542,3118.1,985.3214133126395,715.3214276177542,3261.3,985.3214133126395,715.3214276177542,3401.4,985.3214133126395,715.3214276177542,3539,985.3214133126395,715.3214276177542,3680.5,985.3214133126395,715.3214276177542,3815.2,985.3214133126395,715.3214276177542,3955.7,985.3214133126395,715.3214276177542,4094.8,985.3214133126395,715.3214276177542,4234.7,985.3214133126395,715.3214276177542,4379.9,985.3214133126395,715.3214276177542,4521.7,985.3214133126395,715.3214276177542,4659.8,985.3214133126395,715.3214276177542,4801.2,985.3214133126395,715.3214276177542,4939.8]","[1882.4,1882.4,1000,0,882.4,""oops"",""down"",""up"",""bad_move"",26625.4,24742.1,2552,1883.3,22190.1,""oops"",""left"",""up"",""bad_move"",55406.5,28780,2980.5,51690.5,735.5,""oops"",""left"",""down"",""good_move"",58531,3123.6,1923.9,55407.4,1199.7,""oops"",""left"",""up"",""bad_move"",87814.8,29282.2,2958.9,84189.2,666.7,""oops"",""left"",""right"",""bad_move"",91768.2,3947.9,3246.6,87820.3,701.3,""smooth"",""down"",""down"",""good_move"",95091.5,3321.5,2664,91770,657.5,""smooth"",""down"",""down"",""good_move"",98531.7,3438.9,2737.5,95092.9,701.3,""smooth"",""down"",""down"",""good_move"",104706.7,6173.7,1405.8,102331.9,969,""smooth"",""down"",""down"",""good_move"",108091,3383.5,2549.6,104707.5,833.9,""smooth"",""down"",""down"",""good_move"",115050.1,6957.5,2274.3,112034.3,741.5,""smooth"",""down"",""down"",""good_move"",120213.8,5162.9,2676.7,115050.9,2486.2,""smooth"",""left"",""left"",""good_move"",146016.7,25801.6,3254.7,120215.1,22546.9,""oops"",""left"",""up"",""bad_move"",172465.1,26447.2,2455.3,146017.9,23991.9,""smooth"",""down"",""down"",""good_move"",176004.9,3539,2105.1,172465.9,1433.9,""oops"",""down"",""up"",""bad_move"",201896.2,25890.2,2100.2,176006,23790,""smooth"",""left"",""left"",""good_move"",227772.5,25875.4,2777.4,201897.1,23098,""smooth"",""left"",""left"",""good_move"",253977.8,26204.4,2376.2,227773.4,23828.2,""oops"",""down"",""down"",""good_move"",257673.9,3695.1,2931,253978.8,764.1,""oops"",""down"",""right"",""bad_move"",261705.3,4030,2627,257675.5,1402.9,""oops"",""left"",""left"",""good_move"",290704.6,28996.1,1915.7,261708.5,27080.4,""oops"",""down"",""down"",""good_move"",294867.2,4161.8,2637.4,290705.4,1524.4,""oops"",""down"",""down"",""good_move""]","",""
"4533","","<div style=""width:500px;"">
  <p>What determined the result of this run?</p>
  </div>","100","html-slider-response","60","2199896","0.0-5.0-1.10","46","1","2025-07-16 08:18:11","1f75c3e559b7213887762d5229550c2b","41.122.12.0","Mozilla/5.0 (Windows NT 10.0; Win64; x64) AppleWebKit/537.36 (KHTML, like Gecko) Chrome/138.0.0.0 Safari/537.36","WebKit","Chrome","138.0.0.0","Windows","10.0","https://app.prolific.com/","en-GB,en-US;q=0.9,en;q=0.8","67e074f58a5ea7d9897f3223","686e379bc37a29ffa5cdc956","68776030fe1f00d491682163","1","1","67e074f58a5ea7d9897f3223","1","1","2025-07-16T08:53:22.805Z","","","","","","","","","","","AttribQ","","50","","","","","","","","","","","","","","","","","","","","","","","","","","","","",""
"7176","","<div style=""width:500px;"">
  <p>How much control did you have over the ball?</p>
  </div>","61","html-slider-response","61","2207086","0.0-5.0-2.10","46","1","2025-07-16 08:18:11","1f75c3e559b7213887762d5229550c2b","41.122.12.0","Mozilla/5.0 (Windows NT 10.0; Win64; x64) AppleWebKit/537.36 (KHTML, like Gecko) Chrome/138.0.0.0 Safari/537.36","WebKit","Chrome","138.0.0.0","Windows","10.0","https://app.prolific.com/","en-GB,en-US;q=0.9,en;q=0.8","67e074f58a5ea7d9897f3223","686e379bc37a29ffa5cdc956","68776030fe1f00d491682163","1","1","67e074f58a5ea7d9897f3223","1","1","2025-07-16T08:53:29.995Z","","","","","","","","","","","ControlQ","","50","","","","","","","","","","","","","","","","","","","","","","","","","","","","",""
"3954","","<div style=""width:500px;"">
  <p>How would you describe your current emotional state?</p>
  </div>","0","html-slider-response","62","2211054","0.0-5.0-3.10","46","1","2025-07-16 08:18:11","1f75c3e559b7213887762d5229550c2b","41.122.12.0","Mozilla/5.0 (Windows NT 10.0; Win64; x64) AppleWebKit/537.36 (KHTML, like Gecko) Chrome/138.0.0.0 Safari/537.36","WebKit","Chrome","138.0.0.0","Windows","10.0","https://app.prolific.com/","en-GB,en-US;q=0.9,en;q=0.8","67e074f58a5ea7d9897f3223","686e379bc37a29ffa5cdc956","68776030fe1f00d491682163","1","1","67e074f58a5ea7d9897f3223","1","1","2025-07-16T08:53:33.963Z","","","","","","","","","","","StressQ","","50","","","","","","","","","","","","","","","","","","","","","","","","","","","","",""
"3586","","<div style=""width:500px;"">
  <p>What best describes how you currently feel?</p>
  </div>","63","html-slider-response","63","2214654","0.0-5.0-4.10","46","1","2025-07-16 08:18:11","1f75c3e559b7213887762d5229550c2b","41.122.12.0","Mozilla/5.0 (Windows NT 10.0; Win64; x64) AppleWebKit/537.36 (KHTML, like Gecko) Chrome/138.0.0.0 Safari/537.36","WebKit","Chrome","138.0.0.0","Windows","10.0","https://app.prolific.com/","en-GB,en-US;q=0.9,en;q=0.8","67e074f58a5ea7d9897f3223","686e379bc37a29ffa5cdc956","68776030fe1f00d491682163","1","1","67e074f58a5ea7d9897f3223","1","1","2025-07-16T08:53:37.563Z","","","","","","","","","","","MotivationQ","","50","","","","","","","","","","","","","","","","","","","","","","","","","","","","",""
"","","","","ctl-task-cpt","64","2431205","0.0-5.0-0.11","46","1","2025-07-16 08:18:11","1f75c3e559b7213887762d5229550c2b","41.122.12.0","Mozilla/5.0 (Windows NT 10.0; Win64; x64) AppleWebKit/537.36 (KHTML, like Gecko) Chrome/138.0.0.0 Safari/537.36","WebKit","Chrome","138.0.0.0","Windows","10.0","https://app.prolific.com/","en-GB,en-US;q=0.9,en;q=0.8","67e074f58a5ea7d9897f3223","686e379bc37a29ffa5cdc956","68776030fe1f00d491682163","1","1","67e074f58a5ea7d9897f3223","1","1","2025-07-16T08:57:14.114Z","","","","","","","","","","","","","","win-only","1","g1:NE,g2:SW","0.6","12","0","2219333","1493.1","6536.8","213214.8","1","4","8","6","2","8","8","15","7","0.11363636363636363","1431.2","3000","2435","[""down"",""left""]","{""num_key_presses"":11,""num_perfect"":7,""num_errors"":0,""num_randdir"":4,""num_randdir_good_moves"":2,""num_whilered"":0,""num_whileblue"":0,""num_blue"":4,""num_good_moves"":9}","[414.0714133126395,412.82142761775424,1,414.0714133126395,412.82142761775424,177.5,414.0714133126395,412.82142761775424,344,414.0714133126395,412.82142761775424,514.2,196.5714133126395,594.0714276177542,836.4,111.5714133126395,665.3214276177542,1030.5,111.5714133126395,711.5714276177542,1232.7,96.5714133126395,722.8214276177542,1416.5,96.5714133126395,721.5714276177542,1592.1,96.5714133126395,721.5714276177542,1764.9,101.5714133126395,727.8214276177542,1953.3,556.5714133126395,750.3214276177542,2298.3,686.5714133126395,727.8214276177542,2508,785.3214133126395,724.0714276177542,2690.7,785.3214133126395,724.0714276177542,2856.5,789.0714133126395,721.5714276177542,3036.8,854.0714133126395,690.3214276177542,3216.1,852.8214133126395,676.5714276177542,3388.7,852.8214133126395,676.5714276177542,3552.6,852.8214133126395,676.5714276177542,3724.2,852.8214133126395,676.5714276177542,3884,852.8214133126395,676.5714276177542,4050.9,852.8214133126395,676.5714276177542,4213.8,852.8214133126395,676.5714276177542,4378.7,852.8214133126395,676.5714276177542,4545.5,852.8214133126395,676.5714276177542,4709.8,852.8214133126395,676.5714276177542,4878.2]","[1838.9,1838.9,1000,0,838.9,""smooth"",""down"",""down"",""good_move"",9168.4,7327.8,2696.5,5315.7,1156.2,""smooth"",""down"",""down"",""good_move"",12790.6,3620.8,2153.6,9170.9,1466.1,""oops"",""left"",""up"",""bad_move"",50241.1,37449.5,2892.6,12791.6,34556.9,""smooth"",""down"",""down"",""good_move"",54680.9,4438.8,2898.8,50242.1,1540,""oops"",""down"",""left"",""good_move"",89020.8,34338.7,3347.8,84732.8,940.2,""smooth"",""down"",""down"",""good_move"",96940.7,7919,3055,93079.5,806.2,""oops"",""down"",""up"",""bad_move"",128335.4,31393.8,2771.8,96941.6,28622,""smooth"",""left"",""left"",""good_move"",160016.9,31680.5,2977.8,128336.4,28702.7,""oops"",""left"",""left"",""good_move"",190799.4,30781.6,3356.9,160017.8,27424.7,""smooth"",""down"",""down"",""good_move"",197369.2,6567.6,1954.8,194273.6,1140.8,""smooth"",""down"",""down"",""good_move""]","",""
"5400","","<div style=""width:500px;"">
  <p>What determined the result of this run?</p>
  </div>","100","html-slider-response","65","2436620","0.0-5.0-1.11","46","1","2025-07-16 08:18:11","1f75c3e559b7213887762d5229550c2b","41.122.12.0","Mozilla/5.0 (Windows NT 10.0; Win64; x64) AppleWebKit/537.36 (KHTML, like Gecko) Chrome/138.0.0.0 Safari/537.36","WebKit","Chrome","138.0.0.0","Windows","10.0","https://app.prolific.com/","en-GB,en-US;q=0.9,en;q=0.8","67e074f58a5ea7d9897f3223","686e379bc37a29ffa5cdc956","68776030fe1f00d491682163","1","1","67e074f58a5ea7d9897f3223","1","1","2025-07-16T08:57:19.529Z","","","","","","","","","","","AttribQ","","50","","","","","","","","","","","","","","","","","","","","","","","","","","","","",""
"4777","","<div style=""width:500px;"">
  <p>How much control did you have over the ball?</p>
  </div>","49","html-slider-response","66","2441412","0.0-5.0-2.11","46","1","2025-07-16 08:18:11","1f75c3e559b7213887762d5229550c2b","41.122.12.0","Mozilla/5.0 (Windows NT 10.0; Win64; x64) AppleWebKit/537.36 (KHTML, like Gecko) Chrome/138.0.0.0 Safari/537.36","WebKit","Chrome","138.0.0.0","Windows","10.0","https://app.prolific.com/","en-GB,en-US;q=0.9,en;q=0.8","67e074f58a5ea7d9897f3223","686e379bc37a29ffa5cdc956","68776030fe1f00d491682163","1","1","67e074f58a5ea7d9897f3223","1","1","2025-07-16T08:57:24.321Z","","","","","","","","","","","ControlQ","","50","","","","","","","","","","","","","","","","","","","","","","","","","","","","",""
"3972","","<div style=""width:500px;"">
  <p>How would you describe your current emotional state?</p>
  </div>","0","html-slider-response","67","2445399","0.0-5.0-3.11","46","1","2025-07-16 08:18:11","1f75c3e559b7213887762d5229550c2b","41.122.12.0","Mozilla/5.0 (Windows NT 10.0; Win64; x64) AppleWebKit/537.36 (KHTML, like Gecko) Chrome/138.0.0.0 Safari/537.36","WebKit","Chrome","138.0.0.0","Windows","10.0","https://app.prolific.com/","en-GB,en-US;q=0.9,en;q=0.8","67e074f58a5ea7d9897f3223","686e379bc37a29ffa5cdc956","68776030fe1f00d491682163","1","1","67e074f58a5ea7d9897f3223","1","1","2025-07-16T08:57:28.308Z","","","","","","","","","","","StressQ","","50","","","","","","","","","","","","","","","","","","","","","","","","","","","","",""
"3762","","<div style=""width:500px;"">
  <p>What best describes how you currently feel?</p>
  </div>","100","html-slider-response","68","2449181","0.0-5.0-4.11","46","1","2025-07-16 08:18:11","1f75c3e559b7213887762d5229550c2b","41.122.12.0","Mozilla/5.0 (Windows NT 10.0; Win64; x64) AppleWebKit/537.36 (KHTML, like Gecko) Chrome/138.0.0.0 Safari/537.36","WebKit","Chrome","138.0.0.0","Windows","10.0","https://app.prolific.com/","en-GB,en-US;q=0.9,en;q=0.8","67e074f58a5ea7d9897f3223","686e379bc37a29ffa5cdc956","68776030fe1f00d491682163","1","1","67e074f58a5ea7d9897f3223","1","1","2025-07-16T08:57:32.090Z","","","","","","","","","","","MotivationQ","","50","","","","","","","","","","","","","","","","","","","","","","","","","","","","",""
"","","","","ctl-task-cpt","69","2491577","0.0-5.0-0.12","46","1","2025-07-16 08:18:11","1f75c3e559b7213887762d5229550c2b","41.122.12.0","Mozilla/5.0 (Windows NT 10.0; Win64; x64) AppleWebKit/537.36 (KHTML, like Gecko) Chrome/138.0.0.0 Safari/537.36","WebKit","Chrome","138.0.0.0","Windows","10.0","https://app.prolific.com/","en-GB,en-US;q=0.9,en;q=0.8","67e074f58a5ea7d9897f3223","686e379bc37a29ffa5cdc956","68776030fe1f00d491682163","1","1","67e074f58a5ea7d9897f3223","1","1","2025-07-16T08:58:14.486Z","","","","","","","","","","","","","","win-only","0","g1:NW,g2:SE","0.7","13","0","2453866.6","1925.2","6943.9","39324.2","1","4","8","6","2","8","8","23","15","0.17424242424242425","2257.8","3000","1905","[""down"",""right""]","{""num_key_presses"":6,""num_perfect"":6,""num_errors"":0,""num_randdir"":0,""num_randdir_good_moves"":0,""num_whilered"":0,""num_whileblue"":0,""num_blue"":3,""num_good_moves"":6}","[419.0714133126395,406.57142761775424,0.7,419.0714133126395,406.57142761775424,142,419.0714133126395,406.57142761775424,483.8,419.0714133126395,406.57142761775424,745.1,436.5714133126395,367.82142761775424,1044.4,704.0714133126395,599.0714276177542,1802.6,711.5714133126395,636.5714276177542,1924.3,736.5714133126395,714.0714276177542,2035.4,746.5714133126395,782.8214276177542,2142.9,754.0714133126395,759.0714276177542,2243.7,746.5714133126395,760.3214276177542,2432.1,742.8214133126395,762.8214276177542,2535.2,731.5714133126395,772.8214276177542,2642.9,731.5714133126395,776.5714276177542,2745.8,731.5714133126395,776.5714276177542,2848.4,731.5714133126395,776.5714276177542,2966,742.8214133126395,762.8214276177542,3080,767.8214133126395,726.5714276177542,3196.5,794.0714133126395,659.0714276177542,3309.3,802.8214133126395,619.0714276177542,3427.3,810.3214133126395,580.3214276177542,3539.6,810.3214133126395,562.8214276177542,3645.5,810.3214133126395,562.8214276177542,3749.4,810.3214133126395,562.8214276177542,3853,810.3214133126395,562.8214276177542,3958.7,810.3214133126395,562.8214276177542,4061.7,810.3214133126395,562.8214276177542,4171.3,810.3214133126395,562.8214276177542,4275.5,810.3214133126395,562.8214276177542,4391.2,810.3214133126395,562.8214276177542,4493.3,810.3214133126395,562.8214276177542,4595.2,810.3214133126395,562.8214276177542,4702.6,810.3214133126395,562.8214276177542,4815.8,810.3214133126395,562.8214276177542,4927.3]","[2575.5,2575.5,1000,0,1575.5,""smooth"",""right"",""right"",""good_move"",6344.3,3767.1,2825.6,2577.2,941.5,""smooth"",""right"",""right"",""good_move"",13672.9,7326.8,3086.9,9646.4,939.6,""smooth"",""right"",""right"",""good_move"",19932.3,6258.8,2187.5,16982.3,762.6,""smooth"",""down"",""down"",""good_move"",23646,3713,2543.2,19933.1,1169.7,""smooth"",""down"",""down"",""good_move"",31591.3,7943.7,2917,27679.9,994.4,""smooth"",""down"",""down"",""good_move""]","",""
"6941","","<div style=""width:500px;"">
  <p>What determined the result of this run?</p>
  </div>","100","html-slider-response","70","2498522","0.0-5.0-1.12","46","1","2025-07-16 08:18:11","1f75c3e559b7213887762d5229550c2b","41.122.12.0","Mozilla/5.0 (Windows NT 10.0; Win64; x64) AppleWebKit/537.36 (KHTML, like Gecko) Chrome/138.0.0.0 Safari/537.36","WebKit","Chrome","138.0.0.0","Windows","10.0","https://app.prolific.com/","en-GB,en-US;q=0.9,en;q=0.8","67e074f58a5ea7d9897f3223","686e379bc37a29ffa5cdc956","68776030fe1f00d491682163","1","1","67e074f58a5ea7d9897f3223","1","1","2025-07-16T08:58:21.431Z","","","","","","","","","","","AttribQ","","50","","","","","","","","","","","","","","","","","","","","","","","","","","","","",""
"4361","","<div style=""width:500px;"">
  <p>How much control did you have over the ball?</p>
  </div>","100","html-slider-response","71","2502892","0.0-5.0-2.12","46","1","2025-07-16 08:18:11","1f75c3e559b7213887762d5229550c2b","41.122.12.0","Mozilla/5.0 (Windows NT 10.0; Win64; x64) AppleWebKit/537.36 (KHTML, like Gecko) Chrome/138.0.0.0 Safari/537.36","WebKit","Chrome","138.0.0.0","Windows","10.0","https://app.prolific.com/","en-GB,en-US;q=0.9,en;q=0.8","67e074f58a5ea7d9897f3223","686e379bc37a29ffa5cdc956","68776030fe1f00d491682163","1","1","67e074f58a5ea7d9897f3223","1","1","2025-07-16T08:58:25.801Z","","","","","","","","","","","ControlQ","","50","","","","","","","","","","","","","","","","","","","","","","","","","","","","",""
"8289","","<div style=""width:500px;"">
  <p>How would you describe your current emotional state?</p>
  </div>","0","html-slider-response","72","2511187","0.0-5.0-3.12","46","1","2025-07-16 08:18:11","1f75c3e559b7213887762d5229550c2b","41.122.12.0","Mozilla/5.0 (Windows NT 10.0; Win64; x64) AppleWebKit/537.36 (KHTML, like Gecko) Chrome/138.0.0.0 Safari/537.36","WebKit","Chrome","138.0.0.0","Windows","10.0","https://app.prolific.com/","en-GB,en-US;q=0.9,en;q=0.8","67e074f58a5ea7d9897f3223","686e379bc37a29ffa5cdc956","68776030fe1f00d491682163","1","1","67e074f58a5ea7d9897f3223","1","1","2025-07-16T08:58:34.096Z","","","","","","","","","","","StressQ","","50","","","","","","","","","","","","","","","","","","","","","","","","","","","","",""
"9927","","<div style=""width:500px;"">
  <p>What best describes how you currently feel?</p>
  </div>","100","html-slider-response","73","2521117","0.0-5.0-4.12","46","1","2025-07-16 08:18:11","1f75c3e559b7213887762d5229550c2b","41.122.12.0","Mozilla/5.0 (Windows NT 10.0; Win64; x64) AppleWebKit/537.36 (KHTML, like Gecko) Chrome/138.0.0.0 Safari/537.36","WebKit","Chrome","138.0.0.0","Windows","10.0","https://app.prolific.com/","en-GB,en-US;q=0.9,en;q=0.8","67e074f58a5ea7d9897f3223","686e379bc37a29ffa5cdc956","68776030fe1f00d491682163","1","1","67e074f58a5ea7d9897f3223","1","1","2025-07-16T08:58:44.026Z","","","","","","","","","","","MotivationQ","","50","","","","","","","","","","","","","","","","","","","","","","","","","","","","",""
"","","","","ctl-task-cpt","74","2612698","0.0-5.0-0.13","46","1","2025-07-16 08:18:11","1f75c3e559b7213887762d5229550c2b","41.122.12.0","Mozilla/5.0 (Windows NT 10.0; Win64; x64) AppleWebKit/537.36 (KHTML, like Gecko) Chrome/138.0.0.0 Safari/537.36","WebKit","Chrome","138.0.0.0","Windows","10.0","https://app.prolific.com/","en-GB,en-US;q=0.9,en;q=0.8","67e074f58a5ea7d9897f3223","686e379bc37a29ffa5cdc956","68776030fe1f00d491682163","1","1","67e074f58a5ea7d9897f3223","1","1","2025-07-16T09:00:15.607Z","","","","","","","","","","","","","","win-only","2","g1:SE,g2:NW","0.8","14","0","2525784.8","1984.1","7007.7","88548.3","1","4","4","6","2","4","4","27","23","0.20454545454545456","1390.7","3000","2225","[""left"",""up""]","{""num_key_presses"":8,""num_perfect"":6,""num_errors"":0,""num_randdir"":2,""num_randdir_good_moves"":1,""num_whilered"":0,""num_whileblue"":0,""num_blue"":5,""num_good_moves"":7}","[411.5714133126395,415.32142761775424,0.6,411.5714133126395,415.32142761775424,105.6,411.5714133126395,415.32142761775424,207.9,410.3214133126395,419.07142761775424,334.9,406.5714133126395,462.82142761775424,452.9,411.5714133126395,467.82142761775424,557.6,87.8214133126395,191.57142761775424,660.1,9.071413312639507,-3.428572382245747,787.8,11.571413312639507,-8.428572382245747,941.6,16.571413312639507,64.07142761775425,1068.9,64.0714133126395,71.57142761775425,1176.4,65.3214133126395,61.57142761775425,1284.4,65.3214133126395,56.57142761775425,1386,65.3214133126395,56.57142761775425,1493.6,84.0714133126395,80.32142761775425,1625.4,217.8214133126395,127.82142761775425,1755,511.5714133126395,176.57142761775424,1935.4,827.8214133126395,236.57142761775424,2036.8,889.0714133126395,236.57142761775424,2148.7,889.0714133126395,236.57142761775424,2262.4,889.0714133126395,236.57142761775424,2363.6,889.0714133126395,236.57142761775424,2467.6,889.0714133126395,236.57142761775424,2567.6,889.0714133126395,236.57142761775424,2669.9,889.0714133126395,236.57142761775424,2773.8,889.0714133126395,236.57142761775424,2902.6,889.0714133126395,236.57142761775424,3028.9,889.0714133126395,236.57142761775424,3137.6,889.0714133126395,236.57142761775424,3271.8,889.0714133126395,236.57142761775424,3387.7,889.0714133126395,236.57142761775424,3514.7,889.0714133126395,236.57142761775424,3637.2,889.0714133126395,236.57142761775424,3737.6,889.0714133126395,236.57142761775424,3839.6,889.0714133126395,236.57142761775424,3965.7,889.0714133126395,236.57142761775424,4067,889.0714133126395,236.57142761775424,4174.2,889.0714133126395,236.57142761775424,4274.6,889.0714133126395,236.57142761775424,4379.6,889.0714133126395,236.57142761775424,4479.8,889.0714133126395,236.57142761775424,4639.8,889.0714133126395,236.57142761775424,4751.1,889.0714133126395,236.57142761775424,4896]","[2109.2,2109.2,1000,0,1109.2,""smooth"",""up"",""up"",""good_move"",16130.6,14020.6,2308.5,12964.3,857.8,""oops"",""up"",""up"",""good_move"",31011.4,14876.1,2318.1,27683.7,1009.6,""smooth"",""up"",""up"",""good_move"",44584.3,13571,2228.8,41646.1,709.4,""oops"",""left"",""right"",""bad_move"",48985.9,4400.6,3696.5,44585.3,704.1,""smooth"",""left"",""left"",""good_move"",60087.1,11099.9,2330.2,48987.2,8769.7,""smooth"",""left"",""left"",""good_move"",71213.7,11125.3,3708.8,60088.4,7416.5,""smooth"",""left"",""left"",""good_move"",81148,9933.6,2708.2,71214.4,7225.4,""smooth"",""left"",""left"",""good_move""]","",""
"5092","","<div style=""width:500px;"">
  <p>What determined the result of this run?</p>
  </div>","100","html-slider-response","75","2617793","0.0-5.0-1.13","46","1","2025-07-16 08:18:11","1f75c3e559b7213887762d5229550c2b","41.122.12.0","Mozilla/5.0 (Windows NT 10.0; Win64; x64) AppleWebKit/537.36 (KHTML, like Gecko) Chrome/138.0.0.0 Safari/537.36","WebKit","Chrome","138.0.0.0","Windows","10.0","https://app.prolific.com/","en-GB,en-US;q=0.9,en;q=0.8","67e074f58a5ea7d9897f3223","686e379bc37a29ffa5cdc956","68776030fe1f00d491682163","1","1","67e074f58a5ea7d9897f3223","1","1","2025-07-16T09:00:20.703Z","","","","","","","","","","","AttribQ","","50","","","","","","","","","","","","","","","","","","","","","","","","","","","","",""
"3715","","<div style=""width:500px;"">
  <p>How much control did you have over the ball?</p>
  </div>","100","html-slider-response","76","2621515","0.0-5.0-2.13","46","1","2025-07-16 08:18:11","1f75c3e559b7213887762d5229550c2b","41.122.12.0","Mozilla/5.0 (Windows NT 10.0; Win64; x64) AppleWebKit/537.36 (KHTML, like Gecko) Chrome/138.0.0.0 Safari/537.36","WebKit","Chrome","138.0.0.0","Windows","10.0","https://app.prolific.com/","en-GB,en-US;q=0.9,en;q=0.8","67e074f58a5ea7d9897f3223","686e379bc37a29ffa5cdc956","68776030fe1f00d491682163","1","1","67e074f58a5ea7d9897f3223","1","1","2025-07-16T09:00:24.424Z","","","","","","","","","","","ControlQ","","50","","","","","","","","","","","","","","","","","","","","","","","","","","","","",""
"3395","","<div style=""width:500px;"">
  <p>How would you describe your current emotional state?</p>
  </div>","0","html-slider-response","77","2624919","0.0-5.0-3.13","46","1","2025-07-16 08:18:11","1f75c3e559b7213887762d5229550c2b","41.122.12.0","Mozilla/5.0 (Windows NT 10.0; Win64; x64) AppleWebKit/537.36 (KHTML, like Gecko) Chrome/138.0.0.0 Safari/537.36","WebKit","Chrome","138.0.0.0","Windows","10.0","https://app.prolific.com/","en-GB,en-US;q=0.9,en;q=0.8","67e074f58a5ea7d9897f3223","686e379bc37a29ffa5cdc956","68776030fe1f00d491682163","1","1","67e074f58a5ea7d9897f3223","1","1","2025-07-16T09:00:27.828Z","","","","","","","","","","","StressQ","","50","","","","","","","","","","","","","","","","","","","","","","","","","","","","",""
"3687","","<div style=""width:500px;"">
  <p>What best describes how you currently feel?</p>
  </div>","100","html-slider-response","78","2628609","0.0-5.0-4.13","46","1","2025-07-16 08:18:11","1f75c3e559b7213887762d5229550c2b","41.122.12.0","Mozilla/5.0 (Windows NT 10.0; Win64; x64) AppleWebKit/537.36 (KHTML, like Gecko) Chrome/138.0.0.0 Safari/537.36","WebKit","Chrome","138.0.0.0","Windows","10.0","https://app.prolific.com/","en-GB,en-US;q=0.9,en;q=0.8","67e074f58a5ea7d9897f3223","686e379bc37a29ffa5cdc956","68776030fe1f00d491682163","1","1","67e074f58a5ea7d9897f3223","1","1","2025-07-16T09:00:31.518Z","","","","","","","","","","","MotivationQ","","50","","","","","","","","","","","","","","","","","","","","","","","","","","","","",""
