"rt","response_timestamp","stimulus","response","trial_type","trial_index","time_elapsed","internal_node_id","run_id","condition","recorded_at","source_code_version","ip","user_agent","device","browser","browser_version","platform","platform_version","referer","accept_language","PROLIFIC_PID","STUDY_ID","SESSION_ID","WEEK","BATCH","prolific_id","week","batch","realtime","success","responses","item_order","radio_event_ids","radio_event_times","key_event_times","mouse_event_times","straightlining","zigzagging","honeypot","eventType","view_history","slider_start","which_type","canvas_config","goals_layout","control_level","trial_number","tutorial_trial_number","trial_start_time","phase1_start_time","phase2_start_time","phase3_start_time","goal_1_value","goal_1_distance","goal_2_value","goal_2_distance","goal_selected","outcome","outcome_total","participant_final_score","participant_initial_score","participant_final_score_prop","goal_choice_rt","allocated_time","allocated_time_remaining","goal_direction","counts","mouse_movements","key_presses","question_order","question_id"
"1555","1753297479049","<p style='font-size:40px;line-height:1.25'><strong>Welcome to the experiment!</strong></p><p style='font-size:1.1em;line-height:1.25'>Thank you for participanting in our experiment again! You will be asked to play the Dysfunctional Ball Game again. We will briefly recap the rules before we start.</p><p style='font-size:1.1em;line-height:1.25'>Press <strong>Next</strong> to continue.</p>","0","custom-html-button-response","0","1558","0.0-0.0","231","1","2025-07-23 19:04:40","1f75c3e559b7213887762d5229550c2b","90.208.18.9","Mozilla/5.0 (Windows NT 10.0; Win64; x64) AppleWebKit/537.36 (KHTML, like Gecko) Chrome/136.0.0.0 Safari/537.36","WebKit","Chrome","136.0.0.0","Windows","10.0","https://app.prolific.com/","en-GB,en-US;q=0.9,en;q=0.8","5e203085ac30fa331b586690","683db9eb0562dbf637994deb","6881324035e5f05488dc4f8e","2","1","5e203085ac30fa331b586690","2","1","2025-07-23T19:04:39.050Z","","","","","","","","","","","","","","","","","","","","","","","","","","","","","","","","","","","","","","","","","",""
"1077","","","","fullscreen","1","3637","0.0-1.0","231","1","2025-07-23 19:04:40","1f75c3e559b7213887762d5229550c2b","90.208.18.9","Mozilla/5.0 (Windows NT 10.0; Win64; x64) AppleWebKit/537.36 (KHTML, like Gecko) Chrome/136.0.0.0 Safari/537.36","WebKit","Chrome","136.0.0.0","Windows","10.0","https://app.prolific.com/","en-GB,en-US;q=0.9,en;q=0.8","5e203085ac30fa331b586690","683db9eb0562dbf637994deb","6881324035e5f05488dc4f8e","2","1","5e203085ac30fa331b586690","2","1","","true","","","","","","","","","","","","","","","","","","","","","","","","","","","","","","","","","","","","","","","","",""
"1534","1753297482664","<p style='font-size:1.1em;line-height:1.25'>In the following, we will ask you a few questions relating to your feelings in the last 24 hours.<br></p><p style='font-size:1.1em;line-height:1.25'>Press the <strong>Next</strong> button to continue.</p>","0","custom-html-button-response","2","5172","0.0-2.0-0.0","231","1","2025-07-23 19:04:40","1f75c3e559b7213887762d5229550c2b","90.208.18.9","Mozilla/5.0 (Windows NT 10.0; Win64; x64) AppleWebKit/537.36 (KHTML, like Gecko) Chrome/136.0.0.0 Safari/537.36","WebKit","Chrome","136.0.0.0","Windows","10.0","https://app.prolific.com/","en-GB,en-US;q=0.9,en;q=0.8","5e203085ac30fa331b586690","683db9eb0562dbf637994deb","6881324035e5f05488dc4f8e","2","1","5e203085ac30fa331b586690","2","1","2025-07-23T19:04:42.664Z","","","","","","","","","","","","","","","","","","","","","","","","","","","","","","","","","","","","","","","","","",""
"66107.89999999851","","","","survey-template","3","71285","0.0-2.0-1.0","231","1","2025-07-23 19:04:40","1f75c3e559b7213887762d5229550c2b","90.208.18.9","Mozilla/5.0 (Windows NT 10.0; Win64; x64) AppleWebKit/537.36 (KHTML, like Gecko) Chrome/136.0.0.0 Safari/537.36","WebKit","Chrome","136.0.0.0","Windows","10.0","https://app.prolific.com/","en-GB,en-US;q=0.9,en;q=0.8","5e203085ac30fa331b586690","683db9eb0562dbf637994deb","6881324035e5f05488dc4f8e","2","1","5e203085ac30fa331b586690","2","1","2025-07-23T19:05:48.777Z","","{""Q01"":""1"",""Q02"":""1"",""Q03"":""1"",""Q04"":""0"",""Q05"":""1"",""Q06"":""1"",""Q07"":""1"",""Q08"":""1"",""Q09"":""0"",""Q10"":""1"",""Q11"":""1"",""Q12"":""0"",""Q13"":""5"",""Q14"":""0"",""Q15"":""0"",""Q16"":""0"",""Q17"":""1"",""Q18"":""0"",""Q19"":""0"",""Q20"":""1"",""Q21"":""0"",""Q22"":""0""}","[0,1,2,3,4,5,6,7,8,9,10,11,12,13,14,15,16,17,18,19,20,21]","[""Q01"",""Q02"",""Q03"",""Q04"",""Q05"",""Q06"",""Q07"",""Q08"",""Q09"",""Q10"",""Q11"",""Q12"",""Q13"",""Q14"",""Q15"",""Q16"",""Q17"",""Q18"",""Q19"",""Q20"",""Q22"",""Q20"",""Q21""]","[5745.300000000745,6840,9008.800000000745,10022.800000000745,12183.300000000745,14479.099999997765,15030.89999999851,16551,19815.699999999255,21711.800000000745,23913.5,28320.099999997765,30262.199999999255,32543.300000000745,33343.599999997765,34695.199999999255,36511.599999997765,39678.699999999255,55207.800000000745,56863.5,59031.800000000745,61823.5,64751.599999997765]","[]","[0.5999999977648258,4951.89999999851,5745.300000000745,6840,9008.800000000745,10022.800000000745,12183.300000000745,13663.099999997765,14479.099999997765,15030.89999999851,16551,19815.699999999255,21711.800000000745,23913.5,28320.099999997765,30262.199999999255,32543.300000000745,33343.599999997765,34695.199999999255,36511.599999997765,39678.699999999255,55207.800000000745,56863.5,58016,59031.800000000745,59871.199999999255,61823.5,64751.599999997765,66088.39999999851]","0.5","0.5238095238095238","0","drsp","","","","","","","","","","","","","","","","","","","","","","","","","","","","","","",""
"12318.800000000745","","","","survey-template","4","83607","0.0-2.0-2.0","231","1","2025-07-23 19:04:40","1f75c3e559b7213887762d5229550c2b","90.208.18.9","Mozilla/5.0 (Windows NT 10.0; Win64; x64) AppleWebKit/537.36 (KHTML, like Gecko) Chrome/136.0.0.0 Safari/537.36","WebKit","Chrome","136.0.0.0","Windows","10.0","https://app.prolific.com/","en-GB,en-US;q=0.9,en;q=0.8","5e203085ac30fa331b586690","683db9eb0562dbf637994deb","6881324035e5f05488dc4f8e","2","1","5e203085ac30fa331b586690","2","1","2025-07-23T19:06:01.100Z","","{""Q01"":""0"",""Q02"":""2"",""Q03"":""1""}","[0,1,2]","[""Q02"",""Q03"",""Q01"",""Q01""]","[3853.800000000745,6766,9894.400000002235,11364.900000002235]","[]","[2061.10000000149,3853.800000000745,6766,7519.199999999255,9894.400000002235,10821.5,11364.900000002235,12317.699999999255]","0.3333333333333333","0","0","stress","","","","","","","","","","","","","","","","","","","","","","","","","","","","","","",""
"3692","","","","instructions","5","87302","0.0-3.0-0.0","231","1","2025-07-23 19:04:40","1f75c3e559b7213887762d5229550c2b","90.208.18.9","Mozilla/5.0 (Windows NT 10.0; Win64; x64) AppleWebKit/537.36 (KHTML, like Gecko) Chrome/136.0.0.0 Safari/537.36","WebKit","Chrome","136.0.0.0","Windows","10.0","https://app.prolific.com/","en-GB,en-US;q=0.9,en;q=0.8","5e203085ac30fa331b586690","683db9eb0562dbf637994deb","6881324035e5f05488dc4f8e","2","1","5e203085ac30fa331b586690","2","1","","","","","","","","","","","","","[{""page_index"":0,""viewing_time"":3692}]","","","","","","","","","","","","","","","","","","","","","","","","","","","","","",""
"2408","","<p>Before you start with this game please answer the following three questions yourself. </p>
  <p>Through this game, we measure several aspects of your cognitive performance, such as reaction times, multi-tasking capabilities </p>
  <p>and the ability to assess the situation you are in.</p>
  <p></p>
  <p><b>How good do you usually are in such tasks?</b></p>","53","html-slider-response","6","89717","0.0-4.0-0.0","231","1","2025-07-23 19:04:40","1f75c3e559b7213887762d5229550c2b","90.208.18.9","Mozilla/5.0 (Windows NT 10.0; Win64; x64) AppleWebKit/537.36 (KHTML, like Gecko) Chrome/136.0.0.0 Safari/537.36","WebKit","Chrome","136.0.0.0","Windows","10.0","https://app.prolific.com/","en-GB,en-US;q=0.9,en;q=0.8","5e203085ac30fa331b586690","683db9eb0562dbf637994deb","6881324035e5f05488dc4f8e","2","1","5e203085ac30fa331b586690","2","1","2025-07-23T19:06:07.210Z","","","","","","","","","","","PreSkillQ","","50","","","","","","","","","","","","","","","","","","","","","","","","","","","","",""
"2221","","<div style=""width:500px;"">
  <p>How well do you think you will perform in this task compared to other participants?</p>
  </div>","39","html-slider-response","7","91941","0.0-4.0-1.0","231","1","2025-07-23 19:04:40","1f75c3e559b7213887762d5229550c2b","90.208.18.9","Mozilla/5.0 (Windows NT 10.0; Win64; x64) AppleWebKit/537.36 (KHTML, like Gecko) Chrome/136.0.0.0 Safari/537.36","WebKit","Chrome","136.0.0.0","Windows","10.0","https://app.prolific.com/","en-GB,en-US;q=0.9,en;q=0.8","5e203085ac30fa331b586690","683db9eb0562dbf637994deb","6881324035e5f05488dc4f8e","2","1","5e203085ac30fa331b586690","2","1","2025-07-23T19:06:09.433Z","","","","","","","","","","","PrePerfQ","","50","","","","","","","","","","","","","","","","","","","","","","","","","","","","",""
"2174","","<div style=""width:500px;"">
  <p>What best describes how you currently feel?</p>
  </div>","69","html-slider-response","8","94117","0.0-4.0-2.0","231","1","2025-07-23 19:04:40","1f75c3e559b7213887762d5229550c2b","90.208.18.9","Mozilla/5.0 (Windows NT 10.0; Win64; x64) AppleWebKit/537.36 (KHTML, like Gecko) Chrome/136.0.0.0 Safari/537.36","WebKit","Chrome","136.0.0.0","Windows","10.0","https://app.prolific.com/","en-GB,en-US;q=0.9,en;q=0.8","5e203085ac30fa331b586690","683db9eb0562dbf637994deb","6881324035e5f05488dc4f8e","2","1","5e203085ac30fa331b586690","2","1","2025-07-23T19:06:11.609Z","","","","","","","","","","","PreMotivationQ","","50","","","","","","","","","","","","","","","","","","","","","","","","","","","","",""
"","","","","ctl-task-cpt","9","125257","0.0-5.0-0.0","231","1","2025-07-23 19:04:40","1f75c3e559b7213887762d5229550c2b","90.208.18.9","Mozilla/5.0 (Windows NT 10.0; Win64; x64) AppleWebKit/537.36 (KHTML, like Gecko) Chrome/136.0.0.0 Safari/537.36","WebKit","Chrome","136.0.0.0","Windows","10.0","https://app.prolific.com/","en-GB,en-US;q=0.9,en;q=0.8","5e203085ac30fa331b586690","683db9eb0562dbf637994deb","6881324035e5f05488dc4f8e","2","1","5e203085ac30fa331b586690","2","1","2025-07-23T19:06:42.749Z","","","","","","","","","","","","","","win-only","1","g1:NE,g2:SW","1","1","0","96215.6","841.3","5842.2","28128.5","1","4","4","6","2","4","3","3","0","0.022727272727272728","1170.6","3000","1185","[""down"",""left""]","{""num_key_presses"":7,""num_perfect"":6,""num_errors"":1,""num_randdir"":0,""num_randdir_good_moves"":0,""num_whilered"":0,""num_whileblue"":0,""num_blue"":1,""num_good_moves"":6}","[419.0714133126395,421.57142761775424,1.3,419.0714133126395,421.57142761775424,100,419.0714133126395,419.07142761775424,205.5,417.8214133126395,415.32142761775424,311.7,421.5714133126395,389.07142761775424,415,411.5714133126395,414.07142761775424,519.2,281.5714133126395,642.8214276177542,620.4,249.0714133126395,700.3214276177542,727.4,196.5714133126395,751.5714276177542,829.9,171.5714133126395,756.5714276177542,930.1,135.3214133126395,750.3214276177542,1031.9,135.3214133126395,749.0714276177542,1135.6,135.3214133126395,749.0714276177542,1235.6,131.5714133126395,740.3214276177542,1336.3,120.3214133126395,724.0714276177542,1438.5,120.3214133126395,724.0714276177542,1540.5,117.8214133126395,731.5714276177542,1646.5,116.5714133126395,740.3214276177542,1750.1,115.3214133126395,746.5714276177542,1859.8,185.3214133126395,866.5714276177542,1966.4,217.8214133126395,960.3214276177542,2077.3,217.8214133126395,960.3214276177542,2181.4,376.5714133126395,960.3214276177542,2284.8,396.5714133126395,960.3214276177542,2385.7,397.8214133126395,960.3214276177542,2486.2,397.8214133126395,960.3214276177542,2594.2,399.0714133126395,960.3214276177542,2694.7,400.3214133126395,960.3214276177542,2795.5,400.3214133126395,960.3214276177542,2900.5,496.5714133126395,960.3214276177542,3007.6,422.8214133126395,960.3214276177542,3109.9,422.8214133126395,960.3214276177542,3214.9,422.8214133126395,960.3214276177542,3323.1,422.8214133126395,960.3214276177542,3424.4,422.8214133126395,960.3214276177542,3530.1,422.8214133126395,960.3214276177542,3630.2,424.0714133126395,960.3214276177542,3739,424.0714133126395,960.3214276177542,3839.7,424.0714133126395,960.3214276177542,3939.9,424.0714133126395,960.3214276177542,4039.9,424.0714133126395,960.3214276177542,4145.8,424.0714133126395,960.3214276177542,4249.6,424.0714133126395,960.3214276177542,4349.9,424.0714133126395,960.3214276177542,4456.3,424.0714133126395,960.3214276177542,4559.9,424.0714133126395,960.3214276177542,4659.9,424.0714133126395,960.3214276177542,4765.3,424.0714133126395,960.3214276177542,4871.9,424.0714133126395,960.3214276177542,4974.7]","[506.7,506.7,1000,0,-493.3,""error"",""-"",""-"",""no_move"",4684.4,4177.5,2863.9,1509.1,311.4,""smooth"",""down"",""down"",""good_move"",7650.1,2965.4,2660,4684.7,305.4,""smooth"",""down"",""down"",""good_move"",10362.1,2711.8,2357.4,7650.4,354.3,""smooth"",""down"",""down"",""good_move"",16756.2,6393.7,1626.1,14763.9,366.2,""smooth"",""left"",""left"",""good_move"",19908.5,3152.1,2798.6,16756.5,353.4,""smooth"",""left"",""left"",""good_move"",22188.9,2280,1921.2,19908.9,358.8,""smooth"",""left"",""left"",""good_move""]","",""
"3083","","<div style=""width:500px;"">
  <p>What determined the result of this run?</p>
  </div>","94","html-slider-response","10","128342","0.0-5.0-1.0","231","1","2025-07-23 19:04:40","1f75c3e559b7213887762d5229550c2b","90.208.18.9","Mozilla/5.0 (Windows NT 10.0; Win64; x64) AppleWebKit/537.36 (KHTML, like Gecko) Chrome/136.0.0.0 Safari/537.36","WebKit","Chrome","136.0.0.0","Windows","10.0","https://app.prolific.com/","en-GB,en-US;q=0.9,en;q=0.8","5e203085ac30fa331b586690","683db9eb0562dbf637994deb","6881324035e5f05488dc4f8e","2","1","5e203085ac30fa331b586690","2","1","2025-07-23T19:06:45.834Z","","","","","","","","","","","AttribQ","","50","","","","","","","","","","","","","","","","","","","","","","","","","","","","",""
"2526","","<div style=""width:500px;"">
  <p>How much control did you have over the ball?</p>
  </div>","98","html-slider-response","11","130870","0.0-5.0-2.0","231","1","2025-07-23 19:04:40","1f75c3e559b7213887762d5229550c2b","90.208.18.9","Mozilla/5.0 (Windows NT 10.0; Win64; x64) AppleWebKit/537.36 (KHTML, like Gecko) Chrome/136.0.0.0 Safari/537.36","WebKit","Chrome","136.0.0.0","Windows","10.0","https://app.prolific.com/","en-GB,en-US;q=0.9,en;q=0.8","5e203085ac30fa331b586690","683db9eb0562dbf637994deb","6881324035e5f05488dc4f8e","2","1","5e203085ac30fa331b586690","2","1","2025-07-23T19:06:48.362Z","","","","","","","","","","","ControlQ","","50","","","","","","","","","","","","","","","","","","","","","","","","","","","","",""
"2743","","<div style=""width:500px;"">
  <p>How would you describe your current emotional state?</p>
  </div>","20","html-slider-response","12","133614","0.0-5.0-3.0","231","1","2025-07-23 19:04:40","1f75c3e559b7213887762d5229550c2b","90.208.18.9","Mozilla/5.0 (Windows NT 10.0; Win64; x64) AppleWebKit/537.36 (KHTML, like Gecko) Chrome/136.0.0.0 Safari/537.36","WebKit","Chrome","136.0.0.0","Windows","10.0","https://app.prolific.com/","en-GB,en-US;q=0.9,en;q=0.8","5e203085ac30fa331b586690","683db9eb0562dbf637994deb","6881324035e5f05488dc4f8e","2","1","5e203085ac30fa331b586690","2","1","2025-07-23T19:06:51.106Z","","","","","","","","","","","StressQ","","50","","","","","","","","","","","","","","","","","","","","","","","","","","","","",""
"2336","","<div style=""width:500px;"">
  <p>What best describes how you currently feel?</p>
  </div>","76","html-slider-response","13","135951","0.0-5.0-4.0","231","1","2025-07-23 19:04:40","1f75c3e559b7213887762d5229550c2b","90.208.18.9","Mozilla/5.0 (Windows NT 10.0; Win64; x64) AppleWebKit/537.36 (KHTML, like Gecko) Chrome/136.0.0.0 Safari/537.36","WebKit","Chrome","136.0.0.0","Windows","10.0","https://app.prolific.com/","en-GB,en-US;q=0.9,en;q=0.8","5e203085ac30fa331b586690","683db9eb0562dbf637994deb","6881324035e5f05488dc4f8e","2","1","5e203085ac30fa331b586690","2","1","2025-07-23T19:06:53.443Z","","","","","","","","","","","MotivationQ","","50","","","","","","","","","","","","","","","","","","","","","","","","","","","","",""
"","","","","ctl-task-cpt","14","182752","0.0-5.0-0.1","231","1","2025-07-23 19:04:40","1f75c3e559b7213887762d5229550c2b","90.208.18.9","Mozilla/5.0 (Windows NT 10.0; Win64; x64) AppleWebKit/537.36 (KHTML, like Gecko) Chrome/136.0.0.0 Safari/537.36","WebKit","Chrome","136.0.0.0","Windows","10.0","https://app.prolific.com/","en-GB,en-US;q=0.9,en;q=0.8","5e203085ac30fa331b586690","683db9eb0562dbf637994deb","6881324035e5f05488dc4f8e","2","1","5e203085ac30fa331b586690","2","1","2025-07-23T19:07:40.244Z","","","","","","","","","","","","","","win-only","2","g1:SE,g2:NW","0.9","2","0","138043.6","1276.6","6284.6","43791.1","1","4","8","6","2","-8","-11","0","3","0","1043","3000","-2700","[""left"",""up""]","{""num_key_presses"":12,""num_perfect"":8,""num_errors"":3,""num_randdir"":1,""num_randdir_good_moves"":0,""num_whilered"":0,""num_whileblue"":3,""num_blue"":4,""num_good_moves"":8}","[417.8214133126395,420.32142761775424,10.1,420.3214133126395,421.57142761775424,108,422.8214133126395,420.32142761775424,210.6,422.8214133126395,420.32142761775424,314.2,404.0714133126395,414.07142761775424,414.5,385.3214133126395,411.57142761775424,519.4,234.0714133126395,304.07142761775424,619.5,84.0714133126395,150.32142761775424,720.7,86.5714133126395,121.57142761775425,827.6,91.5714133126395,116.57142761775425,929.7,91.5714133126395,114.07142761775425,1034,91.5714133126395,111.57142761775425,1134.6,91.5714133126395,109.07142761775425,1243.5,91.5714133126395,109.07142761775425,1344.3,91.5714133126395,109.07142761775425,1449.3,91.5714133126395,109.07142761775425,1549.6,91.5714133126395,109.07142761775425,1649.8,91.5714133126395,109.07142761775425,1750.4,91.5714133126395,109.07142761775425,1859.8,91.5714133126395,109.07142761775425,1964.6,81.5714133126395,117.82142761775425,2069.2,71.5714133126395,130.32142761775424,2171,66.5714133126395,136.57142761775424,2276,64.0714133126395,136.57142761775424,2379.8,64.0714133126395,136.57142761775424,2479.8,62.82141331263951,137.82142761775424,2584.6,61.57141331263951,140.32142761775424,2692.6,56.57141331263951,145.32142761775424,2792.7,55.32141331263951,146.57142761775424,2894.2,55.32141331263951,146.57142761775424,2995.4,55.32141331263951,146.57142761775424,3099.3,54.07141331263951,147.82142761775424,3208.7,36.57141331263951,166.57142761775424,3309.8,-28.428586687360493,232.82142761775424,3415.1,-77.1785866873605,282.82142761775424,3525,-77.1785866873605,282.82142761775424,3628.9,-77.1785866873605,282.82142761775424,3729.7,-77.1785866873605,282.82142761775424,3834.3,-77.1785866873605,282.82142761775424,3940.7,-77.1785866873605,282.82142761775424,4041.9,-77.1785866873605,282.82142761775424,4144.5,-77.1785866873605,282.82142761775424,4244.7,-77.1785866873605,282.82142761775424,4349.5,-77.1785866873605,282.82142761775424,4449.5,-77.1785866873605,282.82142761775424,4549.9,-77.1785866873605,282.82142761775424,4650.6,-77.1785866873605,282.82142761775424,4757.2,-77.1785866873605,282.82142761775424,4857.3,-77.1785866873605,282.82142761775424,4959]","[1629.7,1629.7,1000,0,629.7,""smooth"",""left"",""left"",""good_move"",3960.6,2330.6,2034.9,1630,295.7,""smooth"",""left"",""left"",""good_move"",10588.9,6627.9,2564.4,7681.8,342.7,""while_blue"",""left"",""down"",""bad_move"",13053.7,2464.4,2151.3,10589.3,313.1,""oops"",""left"",""right"",""bad_move"",16110.8,3056.6,2742.1,13054.3,314.4,""smooth"",""left"",""left"",""good_move"",18383,2272,1873.6,16111,398.4,""while_blue"",""left"",""right"",""bad_move"",21518.6,3135.3,2797,18383.3,338.3,""smooth"",""left"",""left"",""good_move"",24509.9,2991.1,2671.4,21518.8,319.7,""smooth"",""left"",""left"",""good_move"",27543.2,3032.9,2756,24510.3,276.9,""while_blue"",""up"",""right"",""bad_move"",29927.2,2383.9,1862.1,27543.4,521.7,""smooth"",""left"",""left"",""good_move"",32952.8,3025.5,2714.9,29927.3,310.6,""smooth"",""up"",""up"",""good_move"",35433.7,2480.4,2161.9,32953.3,318.5,""smooth"",""up"",""up"",""good_move""]","",""
"5492","","<div style=""width:500px;"">
  <p>What determined the result of this run?</p>
  </div>","51","html-slider-response","15","188245","0.0-5.0-1.1","231","1","2025-07-23 19:04:40","1f75c3e559b7213887762d5229550c2b","90.208.18.9","Mozilla/5.0 (Windows NT 10.0; Win64; x64) AppleWebKit/537.36 (KHTML, like Gecko) Chrome/136.0.0.0 Safari/537.36","WebKit","Chrome","136.0.0.0","Windows","10.0","https://app.prolific.com/","en-GB,en-US;q=0.9,en;q=0.8","5e203085ac30fa331b586690","683db9eb0562dbf637994deb","6881324035e5f05488dc4f8e","2","1","5e203085ac30fa331b586690","2","1","2025-07-23T19:07:45.737Z","","","","","","","","","","","AttribQ","","50","","","","","","","","","","","","","","","","","","","","","","","","","","","","",""
"1905","","<div style=""width:500px;"">
  <p>How much control did you have over the ball?</p>
  </div>","66","html-slider-response","16","190151","0.0-5.0-2.1","231","1","2025-07-23 19:04:40","1f75c3e559b7213887762d5229550c2b","90.208.18.9","Mozilla/5.0 (Windows NT 10.0; Win64; x64) AppleWebKit/537.36 (KHTML, like Gecko) Chrome/136.0.0.0 Safari/537.36","WebKit","Chrome","136.0.0.0","Windows","10.0","https://app.prolific.com/","en-GB,en-US;q=0.9,en;q=0.8","5e203085ac30fa331b586690","683db9eb0562dbf637994deb","6881324035e5f05488dc4f8e","2","1","5e203085ac30fa331b586690","2","1","2025-07-23T19:07:47.643Z","","","","","","","","","","","ControlQ","","50","","","","","","","","","","","","","","","","","","","","","","","","","","","","",""
"2382","","<div style=""width:500px;"">
  <p>How would you describe your current emotional state?</p>
  </div>","29","html-slider-response","17","192534","0.0-5.0-3.1","231","1","2025-07-23 19:04:40","1f75c3e559b7213887762d5229550c2b","90.208.18.9","Mozilla/5.0 (Windows NT 10.0; Win64; x64) AppleWebKit/537.36 (KHTML, like Gecko) Chrome/136.0.0.0 Safari/537.36","WebKit","Chrome","136.0.0.0","Windows","10.0","https://app.prolific.com/","en-GB,en-US;q=0.9,en;q=0.8","5e203085ac30fa331b586690","683db9eb0562dbf637994deb","6881324035e5f05488dc4f8e","2","1","5e203085ac30fa331b586690","2","1","2025-07-23T19:07:50.026Z","","","","","","","","","","","StressQ","","50","","","","","","","","","","","","","","","","","","","","","","","","","","","","",""
"2774","","<div style=""width:500px;"">
  <p>What best describes how you currently feel?</p>
  </div>","70","html-slider-response","18","195309","0.0-5.0-4.1","231","1","2025-07-23 19:04:40","1f75c3e559b7213887762d5229550c2b","90.208.18.9","Mozilla/5.0 (Windows NT 10.0; Win64; x64) AppleWebKit/537.36 (KHTML, like Gecko) Chrome/136.0.0.0 Safari/537.36","WebKit","Chrome","136.0.0.0","Windows","10.0","https://app.prolific.com/","en-GB,en-US;q=0.9,en;q=0.8","5e203085ac30fa331b586690","683db9eb0562dbf637994deb","6881324035e5f05488dc4f8e","2","1","5e203085ac30fa331b586690","2","1","2025-07-23T19:07:52.801Z","","","","","","","","","","","MotivationQ","","50","","","","","","","","","","","","","","","","","","","","","","","","","","","","",""
"","","","","ctl-task-cpt","19","221834","0.0-5.0-0.2","231","1","2025-07-23 19:04:40","1f75c3e559b7213887762d5229550c2b","90.208.18.9","Mozilla/5.0 (Windows NT 10.0; Win64; x64) AppleWebKit/537.36 (KHTML, like Gecko) Chrome/136.0.0.0 Safari/537.36","WebKit","Chrome","136.0.0.0","Windows","10.0","https://app.prolific.com/","en-GB,en-US;q=0.9,en;q=0.8","5e203085ac30fa331b586690","683db9eb0562dbf637994deb","6881324035e5f05488dc4f8e","2","1","5e203085ac30fa331b586690","2","1","2025-07-23T19:08:19.327Z","","","","","","","","","","","","","","win-only","0","g1:NW,g2:SE","0.8","3","0","197402.1","911.6","5916.2","23509.4","1","4","8","6","2","8","8","8","0","0.06060606060606061","917.7","3000","1335","[""down"",""right""]","{""num_key_presses"":6,""num_perfect"":5,""num_errors"":0,""num_randdir"":1,""num_randdir_good_moves"":1,""num_whilered"":0,""num_whileblue"":0,""num_blue"":1,""num_good_moves"":6}","[416.5714133126395,424.07142761775424,0.4,416.5714133126395,424.07142761775424,103.8,416.5714133126395,420.32142761775424,206.2,329.0714133126395,321.57142761775424,306.7,341.5714133126395,335.32142761775424,409,507.8214133126395,576.5714276177542,518.3,626.5714133126395,674.0714276177542,619.4,697.8214133126395,705.3214276177542,722.3,745.3214133126395,721.5714276177542,824.9,751.5714133126395,726.5714276177542,929.8,752.8214133126395,726.5714276177542,1035.9,752.8214133126395,725.3214276177542,1138.8,752.8214133126395,725.3214276177542,1239.5,752.8214133126395,725.3214276177542,1349.6,752.8214133126395,725.3214276177542,1449.8,752.8214133126395,725.3214276177542,1549.8,752.8214133126395,725.3214276177542,1654.8,752.8214133126395,725.3214276177542,1759.6,752.8214133126395,725.3214276177542,1860.4,752.8214133126395,725.3214276177542,1960.4,752.8214133126395,725.3214276177542,2065.4,752.8214133126395,725.3214276177542,2167.1,752.8214133126395,725.3214276177542,2268.8,752.8214133126395,725.3214276177542,2369.1,752.8214133126395,725.3214276177542,2469.3,752.8214133126395,725.3214276177542,2574.5,752.8214133126395,725.3214276177542,2681.1,752.8214133126395,725.3214276177542,2781.3,752.8214133126395,725.3214276177542,2882.2,752.8214133126395,725.3214276177542,2985.2,752.8214133126395,725.3214276177542,3089.4,752.8214133126395,725.3214276177542,3189.4,752.8214133126395,725.3214276177542,3295.1,752.8214133126395,725.3214276177542,3397.2,752.8214133126395,725.3214276177542,3499,752.8214133126395,725.3214276177542,3599.4,752.8214133126395,725.3214276177542,3703.7,752.8214133126395,725.3214276177542,3805,752.8214133126395,725.3214276177542,3910.4,752.8214133126395,725.3214276177542,4013.2,752.8214133126395,725.3214276177542,4114.8,752.8214133126395,725.3214276177542,4219.3,752.8214133126395,725.3214276177542,4328.6,752.8214133126395,725.3214276177542,4429.3,752.8214133126395,725.3214276177542,4529.3,752.8214133126395,725.3214276177542,4629.4,752.8214133126395,725.3214276177542,4734.8,752.8214133126395,725.3214276177542,4838.6,752.8214133126395,725.3214276177542,4945.2]","[1344,1344,1000,0,344,""oops"",""down"",""right"",""good_move"",7239.1,5894.8,2063.9,4887.1,288.1,""smooth"",""down"",""down"",""good_move"",10383.7,3144,2828.7,7239.7,315.3,""smooth"",""down"",""down"",""good_move"",12579.8,2195.7,1813.4,10384.2,382.2,""smooth"",""down"",""down"",""good_move"",15220.8,2640.8,2315.1,12580.1,325.7,""smooth"",""right"",""right"",""good_move"",17477.9,2256.8,1949.7,15221.1,307.1,""smooth"",""right"",""right"",""good_move""]","",""
"2366","","<div style=""width:500px;"">
  <p>What determined the result of this run?</p>
  </div>","94","html-slider-response","20","224202","0.0-5.0-1.2","231","1","2025-07-23 19:04:40","1f75c3e559b7213887762d5229550c2b","90.208.18.9","Mozilla/5.0 (Windows NT 10.0; Win64; x64) AppleWebKit/537.36 (KHTML, like Gecko) Chrome/136.0.0.0 Safari/537.36","WebKit","Chrome","136.0.0.0","Windows","10.0","https://app.prolific.com/","en-GB,en-US;q=0.9,en;q=0.8","5e203085ac30fa331b586690","683db9eb0562dbf637994deb","6881324035e5f05488dc4f8e","2","1","5e203085ac30fa331b586690","2","1","2025-07-23T19:08:21.694Z","","","","","","","","","","","AttribQ","","50","","","","","","","","","","","","","","","","","","","","","","","","","","","","",""
"1649","","<div style=""width:500px;"">
  <p>How much control did you have over the ball?</p>
  </div>","94","html-slider-response","21","225853","0.0-5.0-2.2","231","1","2025-07-23 19:04:40","1f75c3e559b7213887762d5229550c2b","90.208.18.9","Mozilla/5.0 (Windows NT 10.0; Win64; x64) AppleWebKit/537.36 (KHTML, like Gecko) Chrome/136.0.0.0 Safari/537.36","WebKit","Chrome","136.0.0.0","Windows","10.0","https://app.prolific.com/","en-GB,en-US;q=0.9,en;q=0.8","5e203085ac30fa331b586690","683db9eb0562dbf637994deb","6881324035e5f05488dc4f8e","2","1","5e203085ac30fa331b586690","2","1","2025-07-23T19:08:23.346Z","","","","","","","","","","","ControlQ","","50","","","","","","","","","","","","","","","","","","","","","","","","","","","","",""
"2031","","<div style=""width:500px;"">
  <p>How would you describe your current emotional state?</p>
  </div>","22","html-slider-response","22","227885","0.0-5.0-3.2","231","1","2025-07-23 19:04:40","1f75c3e559b7213887762d5229550c2b","90.208.18.9","Mozilla/5.0 (Windows NT 10.0; Win64; x64) AppleWebKit/537.36 (KHTML, like Gecko) Chrome/136.0.0.0 Safari/537.36","WebKit","Chrome","136.0.0.0","Windows","10.0","https://app.prolific.com/","en-GB,en-US;q=0.9,en;q=0.8","5e203085ac30fa331b586690","683db9eb0562dbf637994deb","6881324035e5f05488dc4f8e","2","1","5e203085ac30fa331b586690","2","1","2025-07-23T19:08:25.377Z","","","","","","","","","","","StressQ","","50","","","","","","","","","","","","","","","","","","","","","","","","","","","","",""
"1839","","<div style=""width:500px;"">
  <p>What best describes how you currently feel?</p>
  </div>","86","html-slider-response","23","229725","0.0-5.0-4.2","231","1","2025-07-23 19:04:40","1f75c3e559b7213887762d5229550c2b","90.208.18.9","Mozilla/5.0 (Windows NT 10.0; Win64; x64) AppleWebKit/537.36 (KHTML, like Gecko) Chrome/136.0.0.0 Safari/537.36","WebKit","Chrome","136.0.0.0","Windows","10.0","https://app.prolific.com/","en-GB,en-US;q=0.9,en;q=0.8","5e203085ac30fa331b586690","683db9eb0562dbf637994deb","6881324035e5f05488dc4f8e","2","1","5e203085ac30fa331b586690","2","1","2025-07-23T19:08:27.217Z","","","","","","","","","","","MotivationQ","","50","","","","","","","","","","","","","","","","","","","","","","","","","","","","",""
"","","","","ctl-task-cpt","24","270197","0.0-5.0-0.3","231","1","2025-07-23 19:04:40","1f75c3e559b7213887762d5229550c2b","90.208.18.9","Mozilla/5.0 (Windows NT 10.0; Win64; x64) AppleWebKit/537.36 (KHTML, like Gecko) Chrome/136.0.0.0 Safari/537.36","WebKit","Chrome","136.0.0.0","Windows","10.0","https://app.prolific.com/","en-GB,en-US;q=0.9,en;q=0.8","5e203085ac30fa331b586690","683db9eb0562dbf637994deb","6881324035e5f05488dc4f8e","2","1","5e203085ac30fa331b586690","2","1","2025-07-23T19:09:07.690Z","","","","","","","","","","","","","","win-only","2","g1:SE,g2:NW","0.7","4","0","231817.5","907.2","5915.1","37452.5","1","4","4","6","2","4","3","11","8","0.08333333333333333","843.5","3000","815","[""left"",""up""]","{""num_key_presses"":10,""num_perfect"":6,""num_errors"":1,""num_randdir"":3,""num_randdir_good_moves"":2,""num_whilered"":0,""num_whileblue"":1,""num_blue"":2,""num_good_moves"":8}","[425.3214133126395,414.07142761775424,0.5,425.3214133126395,414.07142761775424,113,425.3214133126395,414.07142761775424,217.8,451.5714133126395,459.07142761775424,321.5,256.5714133126395,211.57142761775424,426.6,195.3214133126395,111.57142761775425,535.2,191.5714133126395,111.57142761775425,642.4,110.3214133126395,106.57142761775425,744,96.5714133126395,101.57142761775425,854.7,96.5714133126395,101.57142761775425,960.7,95.3214133126395,101.57142761775425,1061.3,92.8214133126395,101.57142761775425,1162.4,92.8214133126395,101.57142761775425,1262.7,92.8214133126395,101.57142761775425,1363.8,92.8214133126395,101.57142761775425,1470.3,84.0714133126395,115.32142761775425,1579.5,82.8214133126395,116.57142761775425,1680.3,82.8214133126395,116.57142761775425,1783.7,82.8214133126395,116.57142761775425,1891.7,82.8214133126395,116.57142761775425,1994.9,82.8214133126395,116.57142761775425,2098.2,82.8214133126395,116.57142761775425,2198.3,82.8214133126395,116.57142761775425,2298.4,82.8214133126395,116.57142761775425,2407.7,82.8214133126395,116.57142761775425,2508.4,82.8214133126395,116.57142761775425,2609.3,82.8214133126395,116.57142761775425,2709.3,82.8214133126395,116.57142761775425,2809.3,82.8214133126395,116.57142761775425,2913.9,82.8214133126395,116.57142761775425,3014,82.8214133126395,116.57142761775425,3124.4,82.8214133126395,116.57142761775425,3228.3,82.8214133126395,116.57142761775425,3328.5,82.8214133126395,116.57142761775425,3436.4,76.5714133126395,132.82142761775424,3538.2,61.57141331263951,156.57142761775424,3639.2,60.32141331263951,157.82142761775424,3741,56.57141331263951,161.57142761775424,3844.7,51.57141331263951,166.57142761775424,3949.2,51.57141331263951,166.57142761775424,4050,51.57141331263951,166.57142761775424,4154.4,51.57141331263951,166.57142761775424,4263.1,51.57141331263951,166.57142761775424,4364.9,51.57141331263951,166.57142761775424,4473,51.57141331263951,166.57142761775424,4573,51.57141331263951,166.57142761775424,4673.1,51.57141331263951,166.57142761775424,4774.8,51.57141331263951,166.57142761775424,4878.1,51.57141331263951,166.57142761775424,4978.5]","[1321.2,1321.2,1000,0,321.2,""oops"",""left"",""up"",""good_move"",4760.4,3438.6,3078.9,1321.8,359.7,""smooth"",""left"",""left"",""good_move"",7645,2883.8,2590.5,4761.2,293.3,""oops"",""left"",""right"",""bad_move"",11246.1,3598.6,3309.2,7647.5,289.4,""oops"",""left"",""up"",""good_move"",13876.2,2629.6,2304.1,11246.7,325.5,""smooth"",""left"",""left"",""good_move"",20154.2,6277.1,2418.1,17452.6,283.5,""smooth"",""left"",""left"",""good_move"",23427.5,3273.1,3006.6,20154.4,266.5,""while_blue"",""left"",""right"",""bad_move"",25457.1,2028.5,1625.5,23428.6,403,""smooth"",""left"",""left"",""good_move"",28162.3,2704.9,2382.2,25457.4,322.7,""smooth"",""left"",""left"",""good_move"",31417.6,3255.2,2831.4,28162.5,423.7,""smooth"",""up"",""up"",""good_move""]","",""
"3343","","<div style=""width:500px;"">
  <p>What determined the result of this run?</p>
  </div>","85","html-slider-response","25","273542","0.0-5.0-1.3","231","1","2025-07-23 19:04:40","1f75c3e559b7213887762d5229550c2b","90.208.18.9","Mozilla/5.0 (Windows NT 10.0; Win64; x64) AppleWebKit/537.36 (KHTML, like Gecko) Chrome/136.0.0.0 Safari/537.36","WebKit","Chrome","136.0.0.0","Windows","10.0","https://app.prolific.com/","en-GB,en-US;q=0.9,en;q=0.8","5e203085ac30fa331b586690","683db9eb0562dbf637994deb","6881324035e5f05488dc4f8e","2","1","5e203085ac30fa331b586690","2","1","2025-07-23T19:09:11.034Z","","","","","","","","","","","AttribQ","","50","","","","","","","","","","","","","","","","","","","","","","","","","","","","",""
"2158","","<div style=""width:500px;"">
  <p>How much control did you have over the ball?</p>
  </div>","81","html-slider-response","26","275701","0.0-5.0-2.3","231","1","2025-07-23 19:04:40","1f75c3e559b7213887762d5229550c2b","90.208.18.9","Mozilla/5.0 (Windows NT 10.0; Win64; x64) AppleWebKit/537.36 (KHTML, like Gecko) Chrome/136.0.0.0 Safari/537.36","WebKit","Chrome","136.0.0.0","Windows","10.0","https://app.prolific.com/","en-GB,en-US;q=0.9,en;q=0.8","5e203085ac30fa331b586690","683db9eb0562dbf637994deb","6881324035e5f05488dc4f8e","2","1","5e203085ac30fa331b586690","2","1","2025-07-23T19:09:13.193Z","","","","","","","","","","","ControlQ","","50","","","","","","","","","","","","","","","","","","","","","","","","","","","","",""
"3399","","<div style=""width:500px;"">
  <p>How would you describe your current emotional state?</p>
  </div>","25","html-slider-response","27","279101","0.0-5.0-3.3","231","1","2025-07-23 19:04:40","1f75c3e559b7213887762d5229550c2b","90.208.18.9","Mozilla/5.0 (Windows NT 10.0; Win64; x64) AppleWebKit/537.36 (KHTML, like Gecko) Chrome/136.0.0.0 Safari/537.36","WebKit","Chrome","136.0.0.0","Windows","10.0","https://app.prolific.com/","en-GB,en-US;q=0.9,en;q=0.8","5e203085ac30fa331b586690","683db9eb0562dbf637994deb","6881324035e5f05488dc4f8e","2","1","5e203085ac30fa331b586690","2","1","2025-07-23T19:09:16.593Z","","","","","","","","","","","StressQ","","50","","","","","","","","","","","","","","","","","","","","","","","","","","","","",""
"1332","","<div style=""width:500px;"">
  <p>What best describes how you currently feel?</p>
  </div>","79","html-slider-response","28","280435","0.0-5.0-4.3","231","1","2025-07-23 19:04:40","1f75c3e559b7213887762d5229550c2b","90.208.18.9","Mozilla/5.0 (Windows NT 10.0; Win64; x64) AppleWebKit/537.36 (KHTML, like Gecko) Chrome/136.0.0.0 Safari/537.36","WebKit","Chrome","136.0.0.0","Windows","10.0","https://app.prolific.com/","en-GB,en-US;q=0.9,en;q=0.8","5e203085ac30fa331b586690","683db9eb0562dbf637994deb","6881324035e5f05488dc4f8e","2","1","5e203085ac30fa331b586690","2","1","2025-07-23T19:09:17.927Z","","","","","","","","","","","MotivationQ","","50","","","","","","","","","","","","","","","","","","","","","","","","","","","","",""
"","","","","ctl-task-cpt","29","311810","0.0-5.0-0.4","231","1","2025-07-23 19:04:40","1f75c3e559b7213887762d5229550c2b","90.208.18.9","Mozilla/5.0 (Windows NT 10.0; Win64; x64) AppleWebKit/537.36 (KHTML, like Gecko) Chrome/136.0.0.0 Safari/537.36","WebKit","Chrome","136.0.0.0","Windows","10.0","https://app.prolific.com/","en-GB,en-US;q=0.9,en;q=0.8","5e203085ac30fa331b586690","683db9eb0562dbf637994deb","6881324035e5f05488dc4f8e","2","1","5e203085ac30fa331b586690","2","1","2025-07-23T19:09:49.303Z","","","","","","","","","","","","","","win-only","3","g1:SW,g2:NE","0.6","5","0","282531","898.5","5902.1","28360.8","1","4","8","6","2","8","6","17","11","0.12878787878787878","903.4","3000","2230","[""up"",""right""]","{""num_key_presses"":6,""num_perfect"":2,""num_errors"":2,""num_randdir"":2,""num_randdir_good_moves"":2,""num_whilered"":0,""num_whileblue"":2,""num_blue"":4,""num_good_moves"":6}","[425.3214133126395,415.32142761775424,0.4,425.3214133126395,415.32142761775424,102.2,421.5714133126395,414.07142761775424,209.4,420.3214133126395,411.57142761775424,312.7,575.3214133126395,261.57142761775424,420.5,677.8214133126395,110.32142761775425,521.7,691.5714133126395,87.82142761775425,626.1,691.5714133126395,87.82142761775425,731.6,701.5714133126395,81.57142761775425,833.7,705.3214133126395,81.57142761775425,935.2,706.5714133126395,81.57142761775425,1039.9,711.5714133126395,76.57142761775425,1140.4,711.5714133126395,76.57142761775425,1255.4,711.5714133126395,76.57142761775425,1363.6,711.5714133126395,77.82142761775425,1463.6,651.5714133126395,211.57142761775424,1568.6,599.0714133126395,297.82142761775424,1675.8,596.5714133126395,306.57142761775424,1785.6,591.5714133126395,316.57142761775424,1893.5,591.5714133126395,316.57142761775424,2001.3,589.0714133126395,320.32142761775424,2112.2,586.5714133126395,322.82142761775424,2214,586.5714133126395,322.82142761775424,2321.1,586.5714133126395,322.82142761775424,2423.5,586.5714133126395,322.82142761775424,2525.6,586.5714133126395,322.82142761775424,2631.3,586.5714133126395,322.82142761775424,2733.7,586.5714133126395,322.82142761775424,2843.1,586.5714133126395,322.82142761775424,2948,586.5714133126395,322.82142761775424,3050.8,586.5714133126395,322.82142761775424,3155.7,586.5714133126395,322.82142761775424,3260.8,586.5714133126395,322.82142761775424,3365.9,586.5714133126395,322.82142761775424,3468.9,586.5714133126395,322.82142761775424,3580.3,586.5714133126395,322.82142761775424,3681.6,586.5714133126395,322.82142761775424,3791.6,586.5714133126395,322.82142761775424,3895.3,586.5714133126395,322.82142761775424,3998.3,586.5714133126395,322.82142761775424,4100.4,586.5714133126395,322.82142761775424,4205.4,586.5714133126395,322.82142761775424,4314.6,586.5714133126395,322.82142761775424,4420.1,586.5714133126395,322.82142761775424,4524.3,586.5714133126395,322.82142761775424,4631.5,586.5714133126395,322.82142761775424,4742.4,586.5714133126395,322.82142761775424,4853.3,586.5714133126395,322.82142761775424,4958]","[1358.4,1358.4,1000,0,358.4,""oops"",""right"",""right"",""good_move"",7048,5688.7,2397.8,4338.1,312.1,""while_blue"",""right"",""up"",""good_move"",10411.1,3361.1,3066.3,7050,294.8,""while_blue"",""right"",""right"",""good_move"",16418.9,6007.3,2452,13621.1,345.8,""oops"",""right"",""right"",""good_move"",19387.6,2968.2,2642.9,16419.5,325.2,""smooth"",""up"",""up"",""good_move"",22350.9,2962.8,2637.8,19388.1,325,""smooth"",""up"",""up"",""good_move""]","",""
"2521","","<div style=""width:500px;"">
  <p>What determined the result of this run?</p>
  </div>","79","html-slider-response","30","314333","0.0-5.0-1.4","231","1","2025-07-23 19:04:40","1f75c3e559b7213887762d5229550c2b","90.208.18.9","Mozilla/5.0 (Windows NT 10.0; Win64; x64) AppleWebKit/537.36 (KHTML, like Gecko) Chrome/136.0.0.0 Safari/537.36","WebKit","Chrome","136.0.0.0","Windows","10.0","https://app.prolific.com/","en-GB,en-US;q=0.9,en;q=0.8","5e203085ac30fa331b586690","683db9eb0562dbf637994deb","6881324035e5f05488dc4f8e","2","1","5e203085ac30fa331b586690","2","1","2025-07-23T19:09:51.825Z","","","","","","","","","","","AttribQ","","50","","","","","","","","","","","","","","","","","","","","","","","","","","","","",""
"1723","","<div style=""width:500px;"">
  <p>How much control did you have over the ball?</p>
  </div>","81","html-slider-response","31","316057","0.0-5.0-2.4","231","1","2025-07-23 19:04:40","1f75c3e559b7213887762d5229550c2b","90.208.18.9","Mozilla/5.0 (Windows NT 10.0; Win64; x64) AppleWebKit/537.36 (KHTML, like Gecko) Chrome/136.0.0.0 Safari/537.36","WebKit","Chrome","136.0.0.0","Windows","10.0","https://app.prolific.com/","en-GB,en-US;q=0.9,en;q=0.8","5e203085ac30fa331b586690","683db9eb0562dbf637994deb","6881324035e5f05488dc4f8e","2","1","5e203085ac30fa331b586690","2","1","2025-07-23T19:09:53.549Z","","","","","","","","","","","ControlQ","","50","","","","","","","","","","","","","","","","","","","","","","","","","","","","",""
"2291","","<div style=""width:500px;"">
  <p>How would you describe your current emotional state?</p>
  </div>","22","html-slider-response","32","318350","0.0-5.0-3.4","231","1","2025-07-23 19:04:40","1f75c3e559b7213887762d5229550c2b","90.208.18.9","Mozilla/5.0 (Windows NT 10.0; Win64; x64) AppleWebKit/537.36 (KHTML, like Gecko) Chrome/136.0.0.0 Safari/537.36","WebKit","Chrome","136.0.0.0","Windows","10.0","https://app.prolific.com/","en-GB,en-US;q=0.9,en;q=0.8","5e203085ac30fa331b586690","683db9eb0562dbf637994deb","6881324035e5f05488dc4f8e","2","1","5e203085ac30fa331b586690","2","1","2025-07-23T19:09:55.842Z","","","","","","","","","","","StressQ","","50","","","","","","","","","","","","","","","","","","","","","","","","","","","","",""
"2050","","<div style=""width:500px;"">
  <p>What best describes how you currently feel?</p>
  </div>","74","html-slider-response","33","320402","0.0-5.0-4.4","231","1","2025-07-23 19:04:40","1f75c3e559b7213887762d5229550c2b","90.208.18.9","Mozilla/5.0 (Windows NT 10.0; Win64; x64) AppleWebKit/537.36 (KHTML, like Gecko) Chrome/136.0.0.0 Safari/537.36","WebKit","Chrome","136.0.0.0","Windows","10.0","https://app.prolific.com/","en-GB,en-US;q=0.9,en;q=0.8","5e203085ac30fa331b586690","683db9eb0562dbf637994deb","6881324035e5f05488dc4f8e","2","1","5e203085ac30fa331b586690","2","1","2025-07-23T19:09:57.894Z","","","","","","","","","","","MotivationQ","","50","","","","","","","","","","","","","","","","","","","","","","","","","","","","",""
"","","","","ctl-task-cpt","34","378459","0.0-5.0-0.5","231","1","2025-07-23 19:04:40","1f75c3e559b7213887762d5229550c2b","90.208.18.9","Mozilla/5.0 (Windows NT 10.0; Win64; x64) AppleWebKit/537.36 (KHTML, like Gecko) Chrome/136.0.0.0 Safari/537.36","WebKit","Chrome","136.0.0.0","Windows","10.0","https://app.prolific.com/","en-GB,en-US;q=0.9,en;q=0.8","5e203085ac30fa331b586690","683db9eb0562dbf637994deb","6881324035e5f05488dc4f8e","2","1","5e203085ac30fa331b586690","2","1","2025-07-23T19:10:55.951Z","","","","","","","","","","","","","","win-only","3","g1:SW,g2:NE","0.5","6","0","322498.1","911.6","5916.5","55025.2","1","4","4","6","2","-4","-9","8","17","0.06060606060606061","969.7","3000","-2170","[""up"",""right""]","{""num_key_presses"":18,""num_perfect"":6,""num_errors"":5,""num_randdir"":7,""num_randdir_good_moves"":2,""num_whilered"":0,""num_whileblue"":3,""num_blue"":3,""num_good_moves"":10}","[419.0714133126395,412.82142761775424,0.3,419.0714133126395,412.82142761775424,109,419.0714133126395,412.82142761775424,212.5,417.8214133126395,415.32142761775424,318.1,522.8214133126395,271.57142761775424,419.6,671.5714133126395,187.82142761775424,522.7,714.0714133126395,159.07142761775424,633.7,725.3214133126395,144.07142761775424,735.7,726.5714133126395,132.82142761775424,843,727.8214133126395,126.57142761775425,949.1,729.0714133126395,124.07142761775425,1056,729.0714133126395,107.82142761775425,1170.7,729.0714133126395,107.82142761775425,1279.4,729.0714133126395,107.82142761775425,1384.9,729.0714133126395,107.82142761775425,1486.5,729.0714133126395,107.82142761775425,1590.6,726.5714133126395,109.07142761775425,1699.6,726.5714133126395,109.07142761775425,1806.6,726.5714133126395,109.07142761775425,1914.7,726.5714133126395,109.07142761775425,2023.1,726.5714133126395,109.07142761775425,2124.3,726.5714133126395,109.07142761775425,2233.7,726.5714133126395,109.07142761775425,2334.1,726.5714133126395,109.07142761775425,2449.1,726.5714133126395,109.07142761775425,2552.6,726.5714133126395,109.07142761775425,2655.8,726.5714133126395,109.07142761775425,2756,726.5714133126395,109.07142761775425,2862.2,726.5714133126395,109.07142761775425,2974.1,726.5714133126395,109.07142761775425,3076.9,726.5714133126395,109.07142761775425,3177,726.5714133126395,109.07142761775425,3277.4,726.5714133126395,109.07142761775425,3377.5,726.5714133126395,109.07142761775425,3478.4,726.5714133126395,109.07142761775425,3579.5,726.5714133126395,109.07142761775425,3680.3,726.5714133126395,109.07142761775425,3781.2,726.5714133126395,109.07142761775425,3886.3,726.5714133126395,109.07142761775425,3989.3,726.5714133126395,109.07142761775425,4089.4,726.5714133126395,109.07142761775425,4195.2,726.5714133126395,109.07142761775425,4298.3,726.5714133126395,109.07142761775425,4399.4,726.5714133126395,109.07142761775425,4504.8,726.5714133126395,109.07142761775425,4609.1,726.5714133126395,109.07142761775425,4709.4,726.5714133126395,109.07142761775425,4811.3,726.5714133126395,109.07142761775425,4919.9]","[1359.5,1359.5,1000,0,359.5,""oops"",""right"",""left"",""bad_move"",4085.7,2725.9,2376.6,1359.8,349.3,""oops"",""right"",""up"",""good_move"",6938.9,2852.1,2582,4086.8,270.1,""while_blue"",""right"",""up"",""good_move"",10067.9,3128.7,2823.5,6939.2,305.2,""while_blue"",""right"",""right"",""good_move"",12660.5,2592,2264,10068.5,328,""smooth"",""right"",""right"",""good_move"",15722.3,3061.3,2643.5,12661,417.8,""oops"",""right"",""down"",""bad_move"",17857.9,2135.1,1722.2,15722.9,412.9,""smooth"",""right"",""right"",""good_move"",21117.5,3259.1,2921.5,17858.4,337.6,""while_blue"",""right"",""left"",""bad_move"",23936.4,2818.4,2442.3,21118,376.1,""smooth"",""right"",""right"",""good_move"",26614.9,2677.9,2347.7,23937,330.2,""smooth"",""right"",""right"",""good_move"",29236.5,2621,2258.6,26615.5,362.4,""oops"",""up"",""down"",""bad_move"",32022.2,2784.4,2449.8,29237.9,334.6,""oops"",""up"",""left"",""bad_move"",34490.6,2466.9,2147.5,32023.7,319.4,""smooth"",""up"",""up"",""good_move"",36868.1,2377,2054.5,34491.2,322.5,""oops"",""up"",""up"",""good_move"",39968.7,3100.1,2824.8,36868.6,275.3,""smooth"",""up"",""up"",""good_move"",42129.6,2160.4,1848.6,39969.2,311.8,""oops"",""right"",""down"",""bad_move"",44221.8,2091.9,3250.7,42129.9,-1158.8,""error"",""-"",""-"",""no_move"",45626.6,1404.3,2698.5,45234.7,-2306.6,""error"",""-"",""-"",""no_move""]","",""
"3070","","<div style=""width:500px;"">
  <p>What determined the result of this run?</p>
  </div>","54","html-slider-response","35","381534","0.0-5.0-1.5","231","1","2025-07-23 19:04:40","1f75c3e559b7213887762d5229550c2b","90.208.18.9","Mozilla/5.0 (Windows NT 10.0; Win64; x64) AppleWebKit/537.36 (KHTML, like Gecko) Chrome/136.0.0.0 Safari/537.36","WebKit","Chrome","136.0.0.0","Windows","10.0","https://app.prolific.com/","en-GB,en-US;q=0.9,en;q=0.8","5e203085ac30fa331b586690","683db9eb0562dbf637994deb","6881324035e5f05488dc4f8e","2","1","5e203085ac30fa331b586690","2","1","2025-07-23T19:10:59.026Z","","","","","","","","","","","AttribQ","","50","","","","","","","","","","","","","","","","","","","","","","","","","","","","",""
"2114","","<div style=""width:500px;"">
  <p>How much control did you have over the ball?</p>
  </div>","56","html-slider-response","36","383649","0.0-5.0-2.5","231","1","2025-07-23 19:04:40","1f75c3e559b7213887762d5229550c2b","90.208.18.9","Mozilla/5.0 (Windows NT 10.0; Win64; x64) AppleWebKit/537.36 (KHTML, like Gecko) Chrome/136.0.0.0 Safari/537.36","WebKit","Chrome","136.0.0.0","Windows","10.0","https://app.prolific.com/","en-GB,en-US;q=0.9,en;q=0.8","5e203085ac30fa331b586690","683db9eb0562dbf637994deb","6881324035e5f05488dc4f8e","2","1","5e203085ac30fa331b586690","2","1","2025-07-23T19:11:01.142Z","","","","","","","","","","","ControlQ","","50","","","","","","","","","","","","","","","","","","","","","","","","","","","","",""
"3717","","<div style=""width:500px;"">
  <p>How would you describe your current emotional state?</p>
  </div>","30","html-slider-response","37","387368","0.0-5.0-3.5","231","1","2025-07-23 19:04:40","1f75c3e559b7213887762d5229550c2b","90.208.18.9","Mozilla/5.0 (Windows NT 10.0; Win64; x64) AppleWebKit/537.36 (KHTML, like Gecko) Chrome/136.0.0.0 Safari/537.36","WebKit","Chrome","136.0.0.0","Windows","10.0","https://app.prolific.com/","en-GB,en-US;q=0.9,en;q=0.8","5e203085ac30fa331b586690","683db9eb0562dbf637994deb","6881324035e5f05488dc4f8e","2","1","5e203085ac30fa331b586690","2","1","2025-07-23T19:11:04.860Z","","","","","","","","","","","StressQ","","50","","","","","","","","","","","","","","","","","","","","","","","","","","","","",""
"1803","","<div style=""width:500px;"">
  <p>What best describes how you currently feel?</p>
  </div>","72","html-slider-response","38","389173","0.0-5.0-4.5","231","1","2025-07-23 19:04:40","1f75c3e559b7213887762d5229550c2b","90.208.18.9","Mozilla/5.0 (Windows NT 10.0; Win64; x64) AppleWebKit/537.36 (KHTML, like Gecko) Chrome/136.0.0.0 Safari/537.36","WebKit","Chrome","136.0.0.0","Windows","10.0","https://app.prolific.com/","en-GB,en-US;q=0.9,en;q=0.8","5e203085ac30fa331b586690","683db9eb0562dbf637994deb","6881324035e5f05488dc4f8e","2","1","5e203085ac30fa331b586690","2","1","2025-07-23T19:11:06.665Z","","","","","","","","","","","MotivationQ","","50","","","","","","","","","","","","","","","","","","","","","","","","","","","","",""
"","","","","ctl-task-cpt","39","425969","0.0-5.0-0.6","231","1","2025-07-23 19:04:40","1f75c3e559b7213887762d5229550c2b","90.208.18.9","Mozilla/5.0 (Windows NT 10.0; Win64; x64) AppleWebKit/537.36 (KHTML, like Gecko) Chrome/136.0.0.0 Safari/537.36","WebKit","Chrome","136.0.0.0","Windows","10.0","https://app.prolific.com/","en-GB,en-US;q=0.9,en;q=0.8","5e203085ac30fa331b586690","683db9eb0562dbf637994deb","6881324035e5f05488dc4f8e","2","1","5e203085ac30fa331b586690","2","1","2025-07-23T19:11:43.461Z","","","","","","","","","","","","","","win-only","1","g1:NE,g2:SW","0.4","7","0","391265.5","871.1","5871.5","33782.8","1","4","4","6","2","4","3","11","8","0.08333333333333333","929.2","3000","970","[""down"",""left""]","{""num_key_presses"":10,""num_perfect"":3,""num_errors"":1,""num_randdir"":6,""num_randdir_good_moves"":4,""num_whilered"":0,""num_whileblue"":1,""num_blue"":2,""num_good_moves"":8}","[420.3214133126395,411.57142761775424,0.3,420.3214133126395,411.57142761775424,107.5,420.3214133126395,411.57142761775424,214.1,427.8214133126395,411.57142761775424,323.6,432.8214133126395,409.07142761775424,435.4,395.3214133126395,416.57142761775424,540.3,26.571413312639507,692.8214276177542,649.8,24.071413312639507,716.5714276177542,760.2,32.82141331263951,717.8214276177542,863.9,36.57141331263951,719.0714276177542,965.5,37.82141331263951,719.0714276177542,1069.2,37.82141331263951,719.0714276177542,1179.3,37.82141331263951,719.0714276177542,1284.3,37.82141331263951,719.0714276177542,1389.1,37.82141331263951,719.0714276177542,1492.2,37.82141331263951,719.0714276177542,1600.4,37.82141331263951,719.0714276177542,1701,37.82141331263951,719.0714276177542,1814.1,37.82141331263951,719.0714276177542,1914.9,37.82141331263951,719.0714276177542,2015.3,37.82141331263951,719.0714276177542,2124,37.82141331263951,719.0714276177542,2230.2,37.82141331263951,719.0714276177542,2331.8,37.82141331263951,719.0714276177542,2446.6,37.82141331263951,719.0714276177542,2550.3,40.32141331263951,719.0714276177542,2654.2,46.57141331263951,719.0714276177542,2758.7,61.57141331263951,730.3214276177542,2865.4,66.5714133126395,731.5714276177542,2971.5,66.5714133126395,731.5714276177542,3075.8,66.5714133126395,731.5714276177542,3177.1,66.5714133126395,731.5714276177542,3282,66.5714133126395,731.5714276177542,3385.2,66.5714133126395,731.5714276177542,3489.7,66.5714133126395,731.5714276177542,3592,66.5714133126395,731.5714276177542,3696.2,66.5714133126395,731.5714276177542,3796.2,66.5714133126395,731.5714276177542,3911,66.5714133126395,731.5714276177542,4027.5,66.5714133126395,731.5714276177542,4129.9,66.5714133126395,731.5714276177542,4230.2,66.5714133126395,731.5714276177542,4342.5,66.5714133126395,731.5714276177542,4444.2,66.5714133126395,731.5714276177542,4545.9,66.5714133126395,731.5714276177542,4656.7,66.5714133126395,731.5714276177542,4757.3,66.5714133126395,731.5714276177542,4857.8,66.5714133126395,731.5714276177542,4961.4]","[1386.7,1386.8,1000,0,386.8,""oops"",""down"",""down"",""good_move"",3760.4,2373.1,2020.4,1387.4,352.6,""oops"",""down"",""down"",""good_move"",5978.5,2217.6,1876.3,3760.9,341.3,""oops"",""down"",""up"",""bad_move"",11161.4,5179.8,1461.9,9251,448.6,""oops"",""down"",""down"",""good_move"",14363.6,3201.8,2869.6,11161.8,332.2,""smooth"",""down"",""down"",""good_move"",16772,2407.9,2085,14364.2,322.8,""oops"",""left"",""left"",""good_move"",19409.3,2636.8,2292.9,16772.6,343.8,""smooth"",""left"",""left"",""good_move"",22330.5,2920.8,2575.9,19409.7,344.9,""oops"",""left"",""right"",""bad_move"",25146.9,2815.7,2496.4,22331.2,319.3,""smooth"",""left"",""left"",""good_move"",27743.4,2595,2299.4,25148.5,295.5,""while_blue"",""left"",""left"",""good_move""]","",""
"3154","","<div style=""width:500px;"">
  <p>What determined the result of this run?</p>
  </div>","63","html-slider-response","40","429129","0.0-5.0-1.6","231","1","2025-07-23 19:04:40","1f75c3e559b7213887762d5229550c2b","90.208.18.9","Mozilla/5.0 (Windows NT 10.0; Win64; x64) AppleWebKit/537.36 (KHTML, like Gecko) Chrome/136.0.0.0 Safari/537.36","WebKit","Chrome","136.0.0.0","Windows","10.0","https://app.prolific.com/","en-GB,en-US;q=0.9,en;q=0.8","5e203085ac30fa331b586690","683db9eb0562dbf637994deb","6881324035e5f05488dc4f8e","2","1","5e203085ac30fa331b586690","2","1","2025-07-23T19:11:46.621Z","","","","","","","","","","","AttribQ","","50","","","","","","","","","","","","","","","","","","","","","","","","","","","","",""
"1867","","<div style=""width:500px;"">
  <p>How much control did you have over the ball?</p>
  </div>","59","html-slider-response","41","431001","0.0-5.0-2.6","231","1","2025-07-23 19:04:40","1f75c3e559b7213887762d5229550c2b","90.208.18.9","Mozilla/5.0 (Windows NT 10.0; Win64; x64) AppleWebKit/537.36 (KHTML, like Gecko) Chrome/136.0.0.0 Safari/537.36","WebKit","Chrome","136.0.0.0","Windows","10.0","https://app.prolific.com/","en-GB,en-US;q=0.9,en;q=0.8","5e203085ac30fa331b586690","683db9eb0562dbf637994deb","6881324035e5f05488dc4f8e","2","1","5e203085ac30fa331b586690","2","1","2025-07-23T19:11:48.493Z","","","","","","","","","","","ControlQ","","50","","","","","","","","","","","","","","","","","","","","","","","","","","","","",""
"1815","","<div style=""width:500px;"">
  <p>How would you describe your current emotional state?</p>
  </div>","29","html-slider-response","42","432819","0.0-5.0-3.6","231","1","2025-07-23 19:04:40","1f75c3e559b7213887762d5229550c2b","90.208.18.9","Mozilla/5.0 (Windows NT 10.0; Win64; x64) AppleWebKit/537.36 (KHTML, like Gecko) Chrome/136.0.0.0 Safari/537.36","WebKit","Chrome","136.0.0.0","Windows","10.0","https://app.prolific.com/","en-GB,en-US;q=0.9,en;q=0.8","5e203085ac30fa331b586690","683db9eb0562dbf637994deb","6881324035e5f05488dc4f8e","2","1","5e203085ac30fa331b586690","2","1","2025-07-23T19:11:50.311Z","","","","","","","","","","","StressQ","","50","","","","","","","","","","","","","","","","","","","","","","","","","","","","",""
"1787","","<div style=""width:500px;"">
  <p>What best describes how you currently feel?</p>
  </div>","66","html-slider-response","43","434608","0.0-5.0-4.6","231","1","2025-07-23 19:04:40","1f75c3e559b7213887762d5229550c2b","90.208.18.9","Mozilla/5.0 (Windows NT 10.0; Win64; x64) AppleWebKit/537.36 (KHTML, like Gecko) Chrome/136.0.0.0 Safari/537.36","WebKit","Chrome","136.0.0.0","Windows","10.0","https://app.prolific.com/","en-GB,en-US;q=0.9,en;q=0.8","5e203085ac30fa331b586690","683db9eb0562dbf637994deb","6881324035e5f05488dc4f8e","2","1","5e203085ac30fa331b586690","2","1","2025-07-23T19:11:52.100Z","","","","","","","","","","","MotivationQ","","50","","","","","","","","","","","","","","","","","","","","","","","","","","","","",""
"","","","","ctl-task-cpt","44","496255","0.0-5.0-0.7","231","1","2025-07-23 19:04:40","1f75c3e559b7213887762d5229550c2b","90.208.18.9","Mozilla/5.0 (Windows NT 10.0; Win64; x64) AppleWebKit/537.36 (KHTML, like Gecko) Chrome/136.0.0.0 Safari/537.36","WebKit","Chrome","136.0.0.0","Windows","10.0","https://app.prolific.com/","en-GB,en-US;q=0.9,en;q=0.8","5e203085ac30fa331b586690","683db9eb0562dbf637994deb","6881324035e5f05488dc4f8e","2","1","5e203085ac30fa331b586690","2","1","2025-07-23T19:12:53.747Z","","","","","","","","","","","","","","win-only","2","g1:SE,g2:NW","0.3","8","0","436701.4","746.8","5752.7","58632.8","1","4","8","6","2","-8","-10","1","11","0.007575757575757576","815.2","3000","-2130","[""left"",""up""]","{""num_key_presses"":17,""num_perfect"":5,""num_errors"":2,""num_randdir"":10,""num_randdir_good_moves"":5,""num_whilered"":0,""num_whileblue"":2,""num_blue"":3,""num_good_moves"":11}","[415.3214133126395,421.57142761775424,0.5,415.3214133126395,421.57142761775424,110.4,415.3214133126395,421.57142761775424,220.6,412.8214133126395,412.82142761775424,332.7,285.3214133126395,196.57142761775424,441.1,201.5714133126395,111.57142761775425,546.9,176.5714133126395,110.32142761775425,649,101.5714133126395,92.82142761775425,756.6,101.5714133126395,92.82142761775425,858.9,101.5714133126395,92.82142761775425,961.6,102.8214133126395,92.82142761775425,1066.2,96.5714133126395,100.32142761775425,1171.7,95.3214133126395,101.57142761775425,1278.4,95.3214133126395,101.57142761775425,1379.8,95.3214133126395,101.57142761775425,1481.6,95.3214133126395,101.57142761775425,1583.1,95.3214133126395,101.57142761775425,1690.2,95.3214133126395,101.57142761775425,1793.4,90.3214133126395,106.57142761775425,1898.4,86.5714133126395,110.32142761775425,2007.3,86.5714133126395,110.32142761775425,2121.8,86.5714133126395,110.32142761775425,2223,86.5714133126395,110.32142761775425,2324.1,86.5714133126395,110.32142761775425,2429.5,86.5714133126395,110.32142761775425,2536.1,86.5714133126395,110.32142761775425,2639.8,86.5714133126395,110.32142761775425,2741.9,86.5714133126395,110.32142761775425,2847.7,86.5714133126395,110.32142761775425,2952.8,86.5714133126395,110.32142761775425,3053.9,86.5714133126395,110.32142761775425,3155.6,86.5714133126395,110.32142761775425,3256.1,86.5714133126395,110.32142761775425,3364.1,86.5714133126395,110.32142761775425,3464.6,86.5714133126395,110.32142761775425,3575,86.5714133126395,110.32142761775425,3680.2,86.5714133126395,110.32142761775425,3782.4,81.5714133126395,114.07142761775425,3885.8,80.3214133126395,116.57142761775425,3990.7,79.0714133126395,117.82142761775425,4090.9,79.0714133126395,117.82142761775425,4196.8,76.5714133126395,119.07142761775425,4305.4,76.5714133126395,120.32142761775425,4406.6,76.5714133126395,120.32142761775425,4511.4,76.5714133126395,120.32142761775425,4615.8,76.5714133126395,120.32142761775425,4724.8,76.5714133126395,120.32142761775425,4824.9,76.5714133126395,120.32142761775425,4926.4]","[5051.7,5051.6,2641.6,2009.6,400.5,""smooth"",""left"",""left"",""good_move"",8298.9,3246.8,2898.3,5052.1,348.5,""oops"",""left"",""right"",""bad_move"",10991.2,2691.8,2338.2,8299.4,353.6,""oops"",""left"",""right"",""bad_move"",13371.7,2379.8,2034.9,10991.9,344.9,""smooth"",""left"",""left"",""good_move"",17318.8,3946.7,3651.4,13372.1,295.3,""while_blue"",""left"",""down"",""bad_move"",20166.7,2845.6,2387.4,17321.3,458,""oops"",""left"",""right"",""bad_move"",22550.5,2383.3,1942.2,20167.2,441.1,""oops"",""left"",""up"",""good_move"",25080.9,2529.5,2225.4,22551.4,304.1,""oops"",""left"",""up"",""good_move"",27236.2,2154.9,1208.7,25081.3,946.2,""smooth"",""left"",""left"",""good_move"",30900,3663.1,3296.7,27236.9,366.4,""oops"",""left"",""down"",""bad_move"",33371.1,2470.6,2144.7,30900.5,325.9,""while_blue"",""left"",""left"",""good_move"",36450.6,3079.2,2689.8,33371.4,389.4,""oops"",""left"",""up"",""good_move"",39605.2,3153.8,2826.8,36451.4,327,""smooth"",""left"",""left"",""good_move"",43114.3,3507.9,3206,39606.4,301.9,""smooth"",""left"",""left"",""good_move"",45279.3,2164.7,1777.6,43114.6,387.1,""oops"",""up"",""right"",""bad_move"",47630.6,2350.8,2014.1,45279.9,336.7,""oops"",""left"",""left"",""good_move"",49888.3,2256.5,1951.5,47631.8,305,""oops"",""up"",""up"",""good_move""]","",""
"3309","","<div style=""width:500px;"">
  <p>What determined the result of this run?</p>
  </div>","40","html-slider-response","45","499568","0.0-5.0-1.7","231","1","2025-07-23 19:04:40","1f75c3e559b7213887762d5229550c2b","90.208.18.9","Mozilla/5.0 (Windows NT 10.0; Win64; x64) AppleWebKit/537.36 (KHTML, like Gecko) Chrome/136.0.0.0 Safari/537.36","WebKit","Chrome","136.0.0.0","Windows","10.0","https://app.prolific.com/","en-GB,en-US;q=0.9,en;q=0.8","5e203085ac30fa331b586690","683db9eb0562dbf637994deb","6881324035e5f05488dc4f8e","2","1","5e203085ac30fa331b586690","2","1","2025-07-23T19:12:57.060Z","","","","","","","","","","","AttribQ","","50","","","","","","","","","","","","","","","","","","","","","","","","","","","","",""
"1973","","<div style=""width:500px;"">
  <p>How much control did you have over the ball?</p>
  </div>","46","html-slider-response","46","501542","0.0-5.0-2.7","231","1","2025-07-23 19:04:40","1f75c3e559b7213887762d5229550c2b","90.208.18.9","Mozilla/5.0 (Windows NT 10.0; Win64; x64) AppleWebKit/537.36 (KHTML, like Gecko) Chrome/136.0.0.0 Safari/537.36","WebKit","Chrome","136.0.0.0","Windows","10.0","https://app.prolific.com/","en-GB,en-US;q=0.9,en;q=0.8","5e203085ac30fa331b586690","683db9eb0562dbf637994deb","6881324035e5f05488dc4f8e","2","1","5e203085ac30fa331b586690","2","1","2025-07-23T19:12:59.034Z","","","","","","","","","","","ControlQ","","50","","","","","","","","","","","","","","","","","","","","","","","","","","","","",""
"1507","","<div style=""width:500px;"">
  <p>How would you describe your current emotional state?</p>
  </div>","31","html-slider-response","47","503050","0.0-5.0-3.7","231","1","2025-07-23 19:04:40","1f75c3e559b7213887762d5229550c2b","90.208.18.9","Mozilla/5.0 (Windows NT 10.0; Win64; x64) AppleWebKit/537.36 (KHTML, like Gecko) Chrome/136.0.0.0 Safari/537.36","WebKit","Chrome","136.0.0.0","Windows","10.0","https://app.prolific.com/","en-GB,en-US;q=0.9,en;q=0.8","5e203085ac30fa331b586690","683db9eb0562dbf637994deb","6881324035e5f05488dc4f8e","2","1","5e203085ac30fa331b586690","2","1","2025-07-23T19:13:00.542Z","","","","","","","","","","","StressQ","","50","","","","","","","","","","","","","","","","","","","","","","","","","","","","",""
"1626","","<div style=""width:500px;"">
  <p>What best describes how you currently feel?</p>
  </div>","69","html-slider-response","48","504677","0.0-5.0-4.7","231","1","2025-07-23 19:04:40","1f75c3e559b7213887762d5229550c2b","90.208.18.9","Mozilla/5.0 (Windows NT 10.0; Win64; x64) AppleWebKit/537.36 (KHTML, like Gecko) Chrome/136.0.0.0 Safari/537.36","WebKit","Chrome","136.0.0.0","Windows","10.0","https://app.prolific.com/","en-GB,en-US;q=0.9,en;q=0.8","5e203085ac30fa331b586690","683db9eb0562dbf637994deb","6881324035e5f05488dc4f8e","2","1","5e203085ac30fa331b586690","2","1","2025-07-23T19:13:02.169Z","","","","","","","","","","","MotivationQ","","50","","","","","","","","","","","","","","","","","","","","","","","","","","","","",""
"","","","","ctl-task-cpt","49","562035","0.0-5.0-0.8","231","1","2025-07-23 19:04:40","1f75c3e559b7213887762d5229550c2b","90.208.18.9","Mozilla/5.0 (Windows NT 10.0; Win64; x64) AppleWebKit/537.36 (KHTML, like Gecko) Chrome/136.0.0.0 Safari/537.36","WebKit","Chrome","136.0.0.0","Windows","10.0","https://app.prolific.com/","en-GB,en-US;q=0.9,en;q=0.8","5e203085ac30fa331b586690","683db9eb0562dbf637994deb","6881324035e5f05488dc4f8e","2","1","5e203085ac30fa331b586690","2","1","2025-07-23T19:13:59.527Z","","","","","","","","","","","","","","win-only","0","g1:NW,g2:SE","0.2","9","0","506769.9","1015.1","6021.4","54347.2","1","4","4","6","2","-4","-8","0","1","0","959.7","3000","-1990","[""down"",""right""]","{""num_key_presses"":18,""num_perfect"":3,""num_errors"":4,""num_randdir"":11,""num_randdir_good_moves"":6,""num_whilered"":0,""num_whileblue"":3,""num_blue"":3,""num_good_moves"":10}","[422.8214133126395,415.32142761775424,0.3,422.8214133126395,415.32142761775424,100.1,416.5714133126395,410.32142761775424,208.6,266.5714133126395,307.82142761775424,318.9,150.3214133126395,211.57142761775424,431.8,489.0714133126395,477.82142761775424,536.4,676.5714133126395,735.3214276177542,648.8,736.5714133126395,780.3214276177542,749,741.5714133126395,769.0714276177542,854.6,746.5714133126395,744.0714276177542,957,747.8214133126395,742.8214276177542,1064.1,749.0714133126395,741.5714276177542,1181.2,721.5714133126395,770.3214276177542,1282.8,515.3214133126395,960.3214276177542,1400.4,515.3214133126395,960.3214276177542,1501.2,515.3214133126395,960.3214276177542,1603,515.3214133126395,960.3214276177542,1717,515.3214133126395,960.3214276177542,1820.4,515.3214133126395,960.3214276177542,1921.7,515.3214133126395,960.3214276177542,2037.3,515.3214133126395,960.3214276177542,2141.2,515.3214133126395,960.3214276177542,2245.1,515.3214133126395,960.3214276177542,2345.7,515.3214133126395,960.3214276177542,2446.4,515.3214133126395,960.3214276177542,2547,515.3214133126395,960.3214276177542,2660.8,515.3214133126395,960.3214276177542,2763.5,515.3214133126395,960.3214276177542,2878.8,515.3214133126395,960.3214276177542,2983.4,515.3214133126395,960.3214276177542,3087.7,515.3214133126395,960.3214276177542,3193.9,515.3214133126395,960.3214276177542,3298.7,515.3214133126395,960.3214276177542,3401.8,515.3214133126395,960.3214276177542,3502.8,515.3214133126395,960.3214276177542,3610.8,515.3214133126395,960.3214276177542,3712.8,515.3214133126395,960.3214276177542,3815.4,515.3214133126395,960.3214276177542,3924.6,515.3214133126395,960.3214276177542,4027.9,515.3214133126395,960.3214276177542,4131.1,515.3214133126395,960.3214276177542,4232.4,515.3214133126395,960.3214276177542,4339.4,515.3214133126395,960.3214276177542,4444.2,515.3214133126395,960.3214276177542,4546.3,515.3214133126395,960.3214276177542,4648.8,515.3214133126395,960.3214276177542,4762.3,515.3214133126395,960.3214276177542,4868.2,515.3214133126395,960.3214276177542,4976.4]","[1364.5,1364.5,1000,0,364.5,""oops"",""down"",""left"",""bad_move"",4378.6,3013.7,2680.9,1364.9,332.8,""oops"",""down"",""up"",""bad_move"",7015.7,2636.7,2324.4,4379,312.3,""smooth"",""down"",""down"",""good_move"",9749.6,2733.5,2409.4,7016.1,324.1,""oops"",""down"",""right"",""good_move"",12580.2,2828.6,2529.6,9751.7,298.9,""while_blue"",""down"",""left"",""bad_move"",15055.8,2475.2,2102.4,12580.7,372.7,""smooth"",""down"",""down"",""good_move"",17340.2,2284.2,1733.9,15056,550.3,""while_blue"",""down"",""left"",""bad_move"",20266.9,2926.2,2571.7,17340.7,354.5,""oops"",""down"",""up"",""bad_move"",22401,2133.5,1611.8,20267.6,521.7,""oops"",""down"",""right"",""good_move"",25363.6,2962.1,2691,22401.5,271.1,""oops"",""down"",""down"",""good_move"",27879.3,2515.1,2204.6,25364.2,310.5,""oops"",""down"",""left"",""bad_move"",29981.9,2102.3,1791.3,27879.6,311,""oops"",""down"",""down"",""good_move"",32370.1,2388,2458.1,29982.2,-70.1,""error"",""-"",""-"",""no_move"",35449.7,3077.6,1728,33372.3,349.4,""while_blue"",""down"",""down"",""good_move"",38150.5,2700.5,2381.1,35450,319.4,""smooth"",""right"",""right"",""good_move"",40113.1,1962.2,1632.5,38150.9,329.7,""oops"",""right"",""left"",""bad_move"",43113.7,2999.7,2633.6,40114.1,366,""oops"",""right"",""right"",""good_move"",45759,2645.1,2280,43113.9,365.1,""oops"",""right"",""right"",""good_move""]","",""
"4740","","<div style=""width:500px;"">
  <p>What determined the result of this run?</p>
  </div>","36","html-slider-response","50","566776","0.0-5.0-1.8","231","1","2025-07-23 19:04:40","1f75c3e559b7213887762d5229550c2b","90.208.18.9","Mozilla/5.0 (Windows NT 10.0; Win64; x64) AppleWebKit/537.36 (KHTML, like Gecko) Chrome/136.0.0.0 Safari/537.36","WebKit","Chrome","136.0.0.0","Windows","10.0","https://app.prolific.com/","en-GB,en-US;q=0.9,en;q=0.8","5e203085ac30fa331b586690","683db9eb0562dbf637994deb","6881324035e5f05488dc4f8e","2","1","5e203085ac30fa331b586690","2","1","2025-07-23T19:14:04.268Z","","","","","","","","","","","AttribQ","","50","","","","","","","","","","","","","","","","","","","","","","","","","","","","",""
"1861","","<div style=""width:500px;"">
  <p>How much control did you have over the ball?</p>
  </div>","42","html-slider-response","51","568638","0.0-5.0-2.8","231","1","2025-07-23 19:04:40","1f75c3e559b7213887762d5229550c2b","90.208.18.9","Mozilla/5.0 (Windows NT 10.0; Win64; x64) AppleWebKit/537.36 (KHTML, like Gecko) Chrome/136.0.0.0 Safari/537.36","WebKit","Chrome","136.0.0.0","Windows","10.0","https://app.prolific.com/","en-GB,en-US;q=0.9,en;q=0.8","5e203085ac30fa331b586690","683db9eb0562dbf637994deb","6881324035e5f05488dc4f8e","2","1","5e203085ac30fa331b586690","2","1","2025-07-23T19:14:06.130Z","","","","","","","","","","","ControlQ","","50","","","","","","","","","","","","","","","","","","","","","","","","","","","","",""
"1707","","<div style=""width:500px;"">
  <p>How would you describe your current emotional state?</p>
  </div>","33","html-slider-response","52","570346","0.0-5.0-3.8","231","1","2025-07-23 19:04:40","1f75c3e559b7213887762d5229550c2b","90.208.18.9","Mozilla/5.0 (Windows NT 10.0; Win64; x64) AppleWebKit/537.36 (KHTML, like Gecko) Chrome/136.0.0.0 Safari/537.36","WebKit","Chrome","136.0.0.0","Windows","10.0","https://app.prolific.com/","en-GB,en-US;q=0.9,en;q=0.8","5e203085ac30fa331b586690","683db9eb0562dbf637994deb","6881324035e5f05488dc4f8e","2","1","5e203085ac30fa331b586690","2","1","2025-07-23T19:14:07.838Z","","","","","","","","","","","StressQ","","50","","","","","","","","","","","","","","","","","","","","","","","","","","","","",""
"1383","","<div style=""width:500px;"">
  <p>What best describes how you currently feel?</p>
  </div>","63","html-slider-response","53","571731","0.0-5.0-4.8","231","1","2025-07-23 19:04:40","1f75c3e559b7213887762d5229550c2b","90.208.18.9","Mozilla/5.0 (Windows NT 10.0; Win64; x64) AppleWebKit/537.36 (KHTML, like Gecko) Chrome/136.0.0.0 Safari/537.36","WebKit","Chrome","136.0.0.0","Windows","10.0","https://app.prolific.com/","en-GB,en-US;q=0.9,en;q=0.8","5e203085ac30fa331b586690","683db9eb0562dbf637994deb","6881324035e5f05488dc4f8e","2","1","5e203085ac30fa331b586690","2","1","2025-07-23T19:14:09.223Z","","","","","","","","","","","MotivationQ","","50","","","","","","","","","","","","","","","","","","","","","","","","","","","","",""
"","","","","ctl-task-cpt","54","640644","0.0-5.0-0.9","231","1","2025-07-23 19:04:40","1f75c3e559b7213887762d5229550c2b","90.208.18.9","Mozilla/5.0 (Windows NT 10.0; Win64; x64) AppleWebKit/537.36 (KHTML, like Gecko) Chrome/136.0.0.0 Safari/537.36","WebKit","Chrome","136.0.0.0","Windows","10.0","https://app.prolific.com/","en-GB,en-US;q=0.9,en;q=0.8","5e203085ac30fa331b586690","683db9eb0562dbf637994deb","6881324035e5f05488dc4f8e","2","1","5e203085ac30fa331b586690","2","1","2025-07-23T19:15:18.136Z","","","","","","","","","","","","","","win-only","1","g1:NE,g2:SW","0.4","10","0","573828.4","961.6","5965.5","65889","1","4","8","6","2","-8","-11","0","0","0","1001.5","3000","-1820","[""down"",""left""]","{""num_key_presses"":19,""num_perfect"":7,""num_errors"":3,""num_randdir"":9,""num_randdir_good_moves"":3,""num_whilered"":0,""num_whileblue"":3,""num_blue"":5,""num_good_moves"":11}","[415.3214133126395,427.82142761775424,0.4,416.5714133126395,426.57142761775424,109.6,416.5714133126395,426.57142761775424,214.9,416.5714133126395,420.32142761775424,325.9,407.8214133126395,314.07142761775424,436.3,105.3214133126395,507.82142761775424,539.6,81.5714133126395,621.5714276177542,645.1,66.5714133126395,646.5714276177542,749.7,66.5714133126395,666.5714276177542,859.4,70.3214133126395,709.0714276177542,964.3,71.5714133126395,711.5714276177542,1065.9,71.5714133126395,711.5714276177542,1169.7,71.5714133126395,711.5714276177542,1271.7,71.5714133126395,711.5714276177542,1378.4,71.5714133126395,711.5714276177542,1486.4,71.5714133126395,711.5714276177542,1591.3,71.5714133126395,711.5714276177542,1698.6,71.5714133126395,711.5714276177542,1808.7,71.5714133126395,711.5714276177542,1923.8,71.5714133126395,711.5714276177542,2029.4,71.5714133126395,711.5714276177542,2134.9,71.5714133126395,711.5714276177542,2237.8,71.5714133126395,711.5714276177542,2344.6,71.5714133126395,711.5714276177542,2446.8,71.5714133126395,711.5714276177542,2560.1,71.5714133126395,711.5714276177542,2663.3,71.5714133126395,711.5714276177542,2774.6,71.5714133126395,711.5714276177542,2879,71.5714133126395,711.5714276177542,2988.4,71.5714133126395,711.5714276177542,3098.6,71.5714133126395,711.5714276177542,3210,71.5714133126395,711.5714276177542,3314.7,71.5714133126395,711.5714276177542,3418.5,71.5714133126395,711.5714276177542,3518.5,71.5714133126395,711.5714276177542,3626.7,71.5714133126395,711.5714276177542,3739.3,71.5714133126395,711.5714276177542,3843.9,71.5714133126395,711.5714276177542,3948.1,71.5714133126395,711.5714276177542,4049.9,71.5714133126395,711.5714276177542,4151.8,71.5714133126395,711.5714276177542,4256.2,71.5714133126395,711.5714276177542,4356.3,71.5714133126395,711.5714276177542,4463,71.5714133126395,711.5714276177542,4563.2,71.5714133126395,711.5714276177542,4663.8,71.5714133126395,711.5714276177542,4765.4,71.5714133126395,711.5714276177542,4867.9,71.5714133126395,711.5714276177542,4979.8]","[5856.3,5856.3,3333.3,2006.2,516.8,""oops"",""down"",""right"",""bad_move"",9660.9,3803.2,3490.4,5857.7,312.8,""oops"",""down"",""left"",""good_move"",12271.2,2610,2288.9,9661.2,321.1,""oops"",""down"",""right"",""bad_move"",14521.4,2249.8,1929.7,12271.6,320.1,""while_blue"",""down"",""up"",""bad_move"",19859.9,5338.1,1725.1,17805.5,329.3,""oops"",""down"",""right"",""bad_move"",22614.8,2754.6,2462.1,19860.2,292.5,""smooth"",""down"",""down"",""good_move"",25138.3,2522.3,2184.6,22616,337.7,""smooth"",""down"",""down"",""good_move"",27339.3,2199.3,1870.5,25140,328.9,""oops"",""down"",""down"",""good_move"",29448.1,2107.4,1807.5,27340.7,299.9,""while_blue"",""down"",""up"",""bad_move"",31950.3,2501.9,2179.7,29448.4,322.2,""oops"",""down"",""down"",""good_move"",34835.2,2884.5,2556.5,31950.7,328,""smooth"",""down"",""down"",""good_move"",37614.5,2779,2462.8,34835.5,316.2,""smooth"",""left"",""left"",""good_move"",40591.2,2974.3,2635.8,37616.9,338.5,""smooth"",""left"",""left"",""good_move"",43076.8,2483.4,2176,40593.4,307.4,""smooth"",""left"",""left"",""good_move"",45679.8,2602.2,2296.1,43077.6,306.1,""oops"",""left"",""right"",""bad_move"",48274.4,2594.1,2320.8,45680.3,273.3,""smooth"",""left"",""left"",""good_move"",51381.8,3106.9,2826.9,48274.9,280,""oops"",""left"",""right"",""bad_move"",54394.8,3012.6,2691.8,51382.2,320.8,""while_blue"",""left"",""left"",""good_move"",57558.9,3163.4,2878.2,54395.5,285.2,""oops"",""left"",""right"",""bad_move""]","",""
"2036","","<div style=""width:500px;"">
  <p>What determined the result of this run?</p>
  </div>","45","html-slider-response","55","642681","0.0-5.0-1.9","231","1","2025-07-23 19:04:40","1f75c3e559b7213887762d5229550c2b","90.208.18.9","Mozilla/5.0 (Windows NT 10.0; Win64; x64) AppleWebKit/537.36 (KHTML, like Gecko) Chrome/136.0.0.0 Safari/537.36","WebKit","Chrome","136.0.0.0","Windows","10.0","https://app.prolific.com/","en-GB,en-US;q=0.9,en;q=0.8","5e203085ac30fa331b586690","683db9eb0562dbf637994deb","6881324035e5f05488dc4f8e","2","1","5e203085ac30fa331b586690","2","1","2025-07-23T19:15:20.173Z","","","","","","","","","","","AttribQ","","50","","","","","","","","","","","","","","","","","","","","","","","","","","","","",""
"1529","","<div style=""width:500px;"">
  <p>How much control did you have over the ball?</p>
  </div>","47","html-slider-response","56","644214","0.0-5.0-2.9","231","1","2025-07-23 19:04:40","1f75c3e559b7213887762d5229550c2b","90.208.18.9","Mozilla/5.0 (Windows NT 10.0; Win64; x64) AppleWebKit/537.36 (KHTML, like Gecko) Chrome/136.0.0.0 Safari/537.36","WebKit","Chrome","136.0.0.0","Windows","10.0","https://app.prolific.com/","en-GB,en-US;q=0.9,en;q=0.8","5e203085ac30fa331b586690","683db9eb0562dbf637994deb","6881324035e5f05488dc4f8e","2","1","5e203085ac30fa331b586690","2","1","2025-07-23T19:15:21.706Z","","","","","","","","","","","ControlQ","","50","","","","","","","","","","","","","","","","","","","","","","","","","","","","",""
"2485","","<div style=""width:500px;"">
  <p>How would you describe your current emotional state?</p>
  </div>","38","html-slider-response","57","646705","0.0-5.0-3.9","231","1","2025-07-23 19:04:40","1f75c3e559b7213887762d5229550c2b","90.208.18.9","Mozilla/5.0 (Windows NT 10.0; Win64; x64) AppleWebKit/537.36 (KHTML, like Gecko) Chrome/136.0.0.0 Safari/537.36","WebKit","Chrome","136.0.0.0","Windows","10.0","https://app.prolific.com/","en-GB,en-US;q=0.9,en;q=0.8","5e203085ac30fa331b586690","683db9eb0562dbf637994deb","6881324035e5f05488dc4f8e","2","1","5e203085ac30fa331b586690","2","1","2025-07-23T19:15:24.197Z","","","","","","","","","","","StressQ","","50","","","","","","","","","","","","","","","","","","","","","","","","","","","","",""
"1421","","<div style=""width:500px;"">
  <p>What best describes how you currently feel?</p>
  </div>","62","html-slider-response","58","648128","0.0-5.0-4.9","231","1","2025-07-23 19:04:40","1f75c3e559b7213887762d5229550c2b","90.208.18.9","Mozilla/5.0 (Windows NT 10.0; Win64; x64) AppleWebKit/537.36 (KHTML, like Gecko) Chrome/136.0.0.0 Safari/537.36","WebKit","Chrome","136.0.0.0","Windows","10.0","https://app.prolific.com/","en-GB,en-US;q=0.9,en;q=0.8","5e203085ac30fa331b586690","683db9eb0562dbf637994deb","6881324035e5f05488dc4f8e","2","1","5e203085ac30fa331b586690","2","1","2025-07-23T19:15:25.620Z","","","","","","","","","","","MotivationQ","","50","","","","","","","","","","","","","","","","","","","","","","","","","","","","",""
"","","","","ctl-task-cpt","59","697156","0.0-5.0-0.10","231","1","2025-07-23 19:04:40","1f75c3e559b7213887762d5229550c2b","90.208.18.9","Mozilla/5.0 (Windows NT 10.0; Win64; x64) AppleWebKit/537.36 (KHTML, like Gecko) Chrome/136.0.0.0 Safari/537.36","WebKit","Chrome","136.0.0.0","Windows","10.0","https://app.prolific.com/","en-GB,en-US;q=0.9,en;q=0.8","5e203085ac30fa331b586690","683db9eb0562dbf637994deb","6881324035e5f05488dc4f8e","2","1","5e203085ac30fa331b586690","2","1","2025-07-23T19:16:14.649Z","","","","","","","","","","","","","","win-only","3","g1:SW,g2:NE","0.5","11","0","650227.7","867.3","5876.2","45999.9","1","4","4","6","1","1","0","0","0","0","1505.1","3000","940","[""down"",""left""]","{""num_key_presses"":14,""num_perfect"":7,""num_errors"":1,""num_randdir"":6,""num_randdir_good_moves"":2,""num_whilered"":0,""num_whileblue"":1,""num_blue"":2,""num_good_moves"":9}","[411.5714133126395,415.32142761775424,0.6,411.5714133126395,415.32142761775424,108.2,411.5714133126395,415.32142761775424,218.9,411.5714133126395,415.32142761775424,332.2,405.3214133126395,421.57142761775424,439.9,270.3214133126395,546.5714276177542,544.8,526.5714133126395,371.57142761775424,650.6,631.5714133126395,296.57142761775424,756.7,645.3214133126395,270.32142761775424,865,639.0714133126395,246.57142761775424,965.8,230.3214133126395,557.8214276177542,1074,156.5714133126395,717.8214276177542,1191.6,155.3214133126395,722.8214276177542,1295.2,101.5714133126395,727.8214276177542,1402.7,80.3214133126395,732.8214276177542,1507,80.3214133126395,732.8214276177542,1613.6,79.0714133126395,732.8214276177542,1719.8,79.0714133126395,732.8214276177542,1831.7,79.0714133126395,732.8214276177542,1943.3,79.0714133126395,732.8214276177542,2043.6,79.0714133126395,732.8214276177542,2151.3,79.0714133126395,732.8214276177542,2259.1,79.0714133126395,732.8214276177542,2364.1,79.0714133126395,732.8214276177542,2472.7,79.0714133126395,732.8214276177542,2576.5,79.0714133126395,732.8214276177542,2679.5,79.0714133126395,732.8214276177542,2785.9,79.0714133126395,732.8214276177542,2889.2,79.0714133126395,732.8214276177542,2996.4,79.0714133126395,732.8214276177542,3099.9,79.0714133126395,732.8214276177542,3213.8,79.0714133126395,732.8214276177542,3319.1,79.0714133126395,732.8214276177542,3437,79.0714133126395,732.8214276177542,3543.3,79.0714133126395,732.8214276177542,3644.7,79.0714133126395,732.8214276177542,3752.7,79.0714133126395,732.8214276177542,3861.7,79.0714133126395,732.8214276177542,3966.4,79.0714133126395,732.8214276177542,4066.5,79.0714133126395,732.8214276177542,4183.8,79.0714133126395,732.8214276177542,4291.7,79.0714133126395,732.8214276177542,4393.5,79.0714133126395,732.8214276177542,4495.7,79.0714133126395,732.8214276177542,4602,79.0714133126395,732.8214276177542,4709.4,79.0714133126395,732.8214276177542,4812.3,79.0714133126395,732.8214276177542,4916.8]","[1380.8,1380.8,1000,0,380.8,""smooth"",""down"",""down"",""good_move"",4166.3,2784.7,2445.1,1381.7,339.5,""smooth"",""down"",""down"",""good_move"",6735.6,2567.9,2251.4,4167.7,316.5,""oops"",""left"",""left"",""good_move"",9144,2406.7,2059.5,6737.3,347.2,""while_blue"",""left"",""right"",""bad_move"",11436.8,2292.3,1983.2,9144.5,309.1,""oops"",""left"",""right"",""bad_move"",14182.4,2742.9,2462,11439.5,280.9,""smooth"",""left"",""left"",""good_move"",16752.8,2569.2,2244.5,14183.6,324.7,""oops"",""left"",""right"",""bad_move"",19895.1,3141.6,2798.6,16753.5,343,""smooth"",""left"",""left"",""good_move"",22783.5,2888.2,2535.1,19895.3,353.1,""smooth"",""left"",""left"",""good_move"",25676,2892.2,2575.6,22783.8,316.6,""oops"",""left"",""right"",""bad_move"",32180,6503.6,2766.2,29015.3,398.5,""oops"",""left"",""up"",""bad_move"",34725.9,2545.6,2222.4,32180.3,323.2,""oops"",""left"",""down"",""good_move"",37358.9,2631.9,2259,34727,372.9,""smooth"",""left"",""left"",""good_move"",39924.4,2564.8,2258.4,37359.7,306.3,""smooth"",""left"",""left"",""good_move""]","",""
"2984","","<div style=""width:500px;"">
  <p>What determined the result of this run?</p>
  </div>","51","html-slider-response","60","700144","0.0-5.0-1.10","231","1","2025-07-23 19:04:40","1f75c3e559b7213887762d5229550c2b","90.208.18.9","Mozilla/5.0 (Windows NT 10.0; Win64; x64) AppleWebKit/537.36 (KHTML, like Gecko) Chrome/136.0.0.0 Safari/537.36","WebKit","Chrome","136.0.0.0","Windows","10.0","https://app.prolific.com/","en-GB,en-US;q=0.9,en;q=0.8","5e203085ac30fa331b586690","683db9eb0562dbf637994deb","6881324035e5f05488dc4f8e","2","1","5e203085ac30fa331b586690","2","1","2025-07-23T19:16:17.636Z","","","","","","","","","","","AttribQ","","50","","","","","","","","","","","","","","","","","","","","","","","","","","","","",""
"2373","","<div style=""width:500px;"">
  <p>How much control did you have over the ball?</p>
  </div>","49","html-slider-response","61","702521","0.0-5.0-2.10","231","1","2025-07-23 19:04:40","1f75c3e559b7213887762d5229550c2b","90.208.18.9","Mozilla/5.0 (Windows NT 10.0; Win64; x64) AppleWebKit/537.36 (KHTML, like Gecko) Chrome/136.0.0.0 Safari/537.36","WebKit","Chrome","136.0.0.0","Windows","10.0","https://app.prolific.com/","en-GB,en-US;q=0.9,en;q=0.8","5e203085ac30fa331b586690","683db9eb0562dbf637994deb","6881324035e5f05488dc4f8e","2","1","5e203085ac30fa331b586690","2","1","2025-07-23T19:16:20.013Z","","","","","","","","","","","ControlQ","","50","","","","","","","","","","","","","","","","","","","","","","","","","","","","",""
"1998","","<div style=""width:500px;"">
  <p>How would you describe your current emotional state?</p>
  </div>","40","html-slider-response","62","704520","0.0-5.0-3.10","231","1","2025-07-23 19:04:40","1f75c3e559b7213887762d5229550c2b","90.208.18.9","Mozilla/5.0 (Windows NT 10.0; Win64; x64) AppleWebKit/537.36 (KHTML, like Gecko) Chrome/136.0.0.0 Safari/537.36","WebKit","Chrome","136.0.0.0","Windows","10.0","https://app.prolific.com/","en-GB,en-US;q=0.9,en;q=0.8","5e203085ac30fa331b586690","683db9eb0562dbf637994deb","6881324035e5f05488dc4f8e","2","1","5e203085ac30fa331b586690","2","1","2025-07-23T19:16:22.013Z","","","","","","","","","","","StressQ","","50","","","","","","","","","","","","","","","","","","","","","","","","","","","","",""
"1934","","<div style=""width:500px;"">
  <p>What best describes how you currently feel?</p>
  </div>","57","html-slider-response","63","706457","0.0-5.0-4.10","231","1","2025-07-23 19:04:40","1f75c3e559b7213887762d5229550c2b","90.208.18.9","Mozilla/5.0 (Windows NT 10.0; Win64; x64) AppleWebKit/537.36 (KHTML, like Gecko) Chrome/136.0.0.0 Safari/537.36","WebKit","Chrome","136.0.0.0","Windows","10.0","https://app.prolific.com/","en-GB,en-US;q=0.9,en;q=0.8","5e203085ac30fa331b586690","683db9eb0562dbf637994deb","6881324035e5f05488dc4f8e","2","1","5e203085ac30fa331b586690","2","1","2025-07-23T19:16:23.949Z","","","","","","","","","","","MotivationQ","","50","","","","","","","","","","","","","","","","","","","","","","","","","","","","",""
"","","","","ctl-task-cpt","64","737746","0.0-5.0-0.11","231","1","2025-07-23 19:04:40","1f75c3e559b7213887762d5229550c2b","90.208.18.9","Mozilla/5.0 (Windows NT 10.0; Win64; x64) AppleWebKit/537.36 (KHTML, like Gecko) Chrome/136.0.0.0 Safari/537.36","WebKit","Chrome","136.0.0.0","Windows","10.0","https://app.prolific.com/","en-GB,en-US;q=0.9,en;q=0.8","5e203085ac30fa331b586690","683db9eb0562dbf637994deb","6881324035e5f05488dc4f8e","2","1","5e203085ac30fa331b586690","2","1","2025-07-23T19:16:55.239Z","","","","","","","","","","","","","","win-only","0","g1:NW,g2:SE","0.6","12","0","708552.7","884.5","5885.7","28272.3","1","4","8","6","1","1","0","0","0","0","870.7","3000","1835","[""left"",""up""]","{""num_key_presses"":8,""num_perfect"":3,""num_errors"":1,""num_randdir"":4,""num_randdir_good_moves"":2,""num_whilered"":0,""num_whileblue"":1,""num_blue"":1,""num_good_moves"":6}","[406.5714133126395,420.32142761775424,1.2,406.5714133126395,420.32142761775424,106.8,406.5714133126395,420.32142761775424,212.7,406.5714133126395,420.32142761775424,315.9,291.5714133126395,267.82142761775424,421.5,231.5714133126395,181.57142761775424,526.2,210.3214133126395,151.57142761775424,630.8,129.0714133126395,107.82142761775425,734.9,96.5714133126395,86.57142761775425,855.7,96.5714133126395,86.57142761775425,968.3,96.5714133126395,84.07142761775425,1081.6,96.5714133126395,81.57142761775425,1187.2,96.5714133126395,81.57142761775425,1288.1,96.5714133126395,81.57142761775425,1389.3,96.5714133126395,81.57142761775425,1496.1,96.5714133126395,81.57142761775425,1604.8,96.5714133126395,81.57142761775425,1705.5,96.5714133126395,81.57142761775425,1810.6,96.5714133126395,81.57142761775425,1916.9,96.5714133126395,81.57142761775425,2033,96.5714133126395,81.57142761775425,2143.3,96.5714133126395,81.57142761775425,2252.6,96.5714133126395,81.57142761775425,2352.8,96.5714133126395,81.57142761775425,2457.7,96.5714133126395,81.57142761775425,2582.2,96.5714133126395,81.57142761775425,2684,96.5714133126395,81.57142761775425,2788.9,96.5714133126395,81.57142761775425,2889.4,96.5714133126395,81.57142761775425,2994.4,96.5714133126395,81.57142761775425,3104.2,96.5714133126395,81.57142761775425,3204.9,96.5714133126395,81.57142761775425,3313.6,96.5714133126395,81.57142761775425,3420.8,96.5714133126395,81.57142761775425,3521.1,96.5714133126395,81.57142761775425,3625.6,96.5714133126395,81.57142761775425,3730.7,96.5714133126395,81.57142761775425,3842.2,96.5714133126395,81.57142761775425,3961.8,96.5714133126395,81.57142761775425,4070.4,96.5714133126395,81.57142761775425,4173.2,96.5714133126395,81.57142761775425,4283.7,96.5714133126395,81.57142761775425,4384.1,96.5714133126395,81.57142761775425,4487,96.5714133126395,81.57142761775425,4595.1,96.5714133126395,81.57142761775425,4697.8,96.5714133126395,81.57142761775425,4803.2,96.5714133126395,81.57142761775425,4906]","[1401.1,1401.1,1000,0,401.1,""oops"",""left"",""left"",""good_move"",3897,2495.7,2185.8,1401.3,309.9,""while_blue"",""left"",""up"",""good_move"",6161.9,2264.2,1584.6,3897.8,679.5,""smooth"",""left"",""left"",""good_move"",9654.9,3492.8,3149.3,6162.1,343.5,""oops"",""up"",""down"",""bad_move"",12325.3,2668.4,2330.2,9656.9,338.2,""oops"",""up"",""right"",""bad_move"",15844.8,3518.8,3179.9,12326.2,338.8,""smooth"",""up"",""up"",""good_move"",19139.9,3294.3,2959.6,15845.7,334.6,""oops"",""up"",""up"",""good_move"",22237.9,3097.7,2727.4,19140.2,370.3,""smooth"",""left"",""left"",""good_move""]","",""
"3426","","<div style=""width:500px;"">
  <p>What determined the result of this run?</p>
  </div>","47","html-slider-response","65","741175","0.0-5.0-1.11","231","1","2025-07-23 19:04:40","1f75c3e559b7213887762d5229550c2b","90.208.18.9","Mozilla/5.0 (Windows NT 10.0; Win64; x64) AppleWebKit/537.36 (KHTML, like Gecko) Chrome/136.0.0.0 Safari/537.36","WebKit","Chrome","136.0.0.0","Windows","10.0","https://app.prolific.com/","en-GB,en-US;q=0.9,en;q=0.8","5e203085ac30fa331b586690","683db9eb0562dbf637994deb","6881324035e5f05488dc4f8e","2","1","5e203085ac30fa331b586690","2","1","2025-07-23T19:16:58.667Z","","","","","","","","","","","AttribQ","","50","","","","","","","","","","","","","","","","","","","","","","","","","","","","",""
"1373","","<div style=""width:500px;"">
  <p>How much control did you have over the ball?</p>
  </div>","47","html-slider-response","66","742550","0.0-5.0-2.11","231","1","2025-07-23 19:04:40","1f75c3e559b7213887762d5229550c2b","90.208.18.9","Mozilla/5.0 (Windows NT 10.0; Win64; x64) AppleWebKit/537.36 (KHTML, like Gecko) Chrome/136.0.0.0 Safari/537.36","WebKit","Chrome","136.0.0.0","Windows","10.0","https://app.prolific.com/","en-GB,en-US;q=0.9,en;q=0.8","5e203085ac30fa331b586690","683db9eb0562dbf637994deb","6881324035e5f05488dc4f8e","2","1","5e203085ac30fa331b586690","2","1","2025-07-23T19:17:00.042Z","","","","","","","","","","","ControlQ","","50","","","","","","","","","","","","","","","","","","","","","","","","","","","","",""
"2145","","<div style=""width:500px;"">
  <p>How would you describe your current emotional state?</p>
  </div>","37","html-slider-response","67","744699","0.0-5.0-3.11","231","1","2025-07-23 19:04:40","1f75c3e559b7213887762d5229550c2b","90.208.18.9","Mozilla/5.0 (Windows NT 10.0; Win64; x64) AppleWebKit/537.36 (KHTML, like Gecko) Chrome/136.0.0.0 Safari/537.36","WebKit","Chrome","136.0.0.0","Windows","10.0","https://app.prolific.com/","en-GB,en-US;q=0.9,en;q=0.8","5e203085ac30fa331b586690","683db9eb0562dbf637994deb","6881324035e5f05488dc4f8e","2","1","5e203085ac30fa331b586690","2","1","2025-07-23T19:17:02.192Z","","","","","","","","","","","StressQ","","50","","","","","","","","","","","","","","","","","","","","","","","","","","","","",""
"1872","","<div style=""width:500px;"">
  <p>What best describes how you currently feel?</p>
  </div>","60","html-slider-response","68","746576","0.0-5.0-4.11","231","1","2025-07-23 19:04:40","1f75c3e559b7213887762d5229550c2b","90.208.18.9","Mozilla/5.0 (Windows NT 10.0; Win64; x64) AppleWebKit/537.36 (KHTML, like Gecko) Chrome/136.0.0.0 Safari/537.36","WebKit","Chrome","136.0.0.0","Windows","10.0","https://app.prolific.com/","en-GB,en-US;q=0.9,en;q=0.8","5e203085ac30fa331b586690","683db9eb0562dbf637994deb","6881324035e5f05488dc4f8e","2","1","5e203085ac30fa331b586690","2","1","2025-07-23T19:17:04.068Z","","","","","","","","","","","MotivationQ","","50","","","","","","","","","","","","","","","","","","","","","","","","","","","","",""
"","","","","ctl-task-cpt","69","789838","0.0-5.0-0.12","231","1","2025-07-23 19:04:40","1f75c3e559b7213887762d5229550c2b","90.208.18.9","Mozilla/5.0 (Windows NT 10.0; Win64; x64) AppleWebKit/537.36 (KHTML, like Gecko) Chrome/136.0.0.0 Safari/537.36","WebKit","Chrome","136.0.0.0","Windows","10.0","https://app.prolific.com/","en-GB,en-US;q=0.9,en;q=0.8","5e203085ac30fa331b586690","683db9eb0562dbf637994deb","6881324035e5f05488dc4f8e","2","1","5e203085ac30fa331b586690","2","1","2025-07-23T19:17:47.330Z","","","","","","","","","","","","","","win-only","2","g1:SE,g2:NW","0.7","13","0","748672.6","954.6","5960.8","40237.5","1","4","8","6","1","1","-1","0","0","0","1239.2","3000","1600","[""down"",""right""]","{""num_key_presses"":12,""num_perfect"":7,""num_errors"":2,""num_randdir"":3,""num_randdir_good_moves"":1,""num_whilered"":0,""num_whileblue"":2,""num_blue"":3,""num_good_moves"":8}","[409.0714133126395,414.07142761775424,1.2,409.0714133126395,414.07142761775424,106.2,409.0714133126395,414.07142761775424,210.5,410.3214133126395,412.82142761775424,319.1,271.5714133126395,161.57142761775424,424.6,149.0714133126395,59.07142761775425,535.2,144.0714133126395,55.32142761775425,643.3,451.5714133126395,566.5714276177542,749.9,689.0714133126395,786.5714276177542,860.3,691.5714133126395,775.3214276177542,974.1,689.0714133126395,751.5714276177542,1074.7,716.5714133126395,765.3214276177542,1180.4,724.0714133126395,770.3214276177542,1294.5,726.5714133126395,770.3214276177542,1397.7,726.5714133126395,770.3214276177542,1508.1,726.5714133126395,770.3214276177542,1619,726.5714133126395,770.3214276177542,1727.6,726.5714133126395,770.3214276177542,1827.7,726.5714133126395,770.3214276177542,1930.3,726.5714133126395,770.3214276177542,2034.6,726.5714133126395,770.3214276177542,2135.1,726.5714133126395,770.3214276177542,2239.8,726.5714133126395,770.3214276177542,2340.9,726.5714133126395,770.3214276177542,2450.2,726.5714133126395,770.3214276177542,2559,726.5714133126395,770.3214276177542,2663,726.5714133126395,770.3214276177542,2766.9,726.5714133126395,770.3214276177542,2868.8,726.5714133126395,770.3214276177542,2977.6,726.5714133126395,770.3214276177542,3087.1,726.5714133126395,770.3214276177542,3197.9,726.5714133126395,770.3214276177542,3305.2,726.5714133126395,770.3214276177542,3410.2,726.5714133126395,770.3214276177542,3529.3,726.5714133126395,770.3214276177542,3642.6,726.5714133126395,770.3214276177542,3753,726.5714133126395,770.3214276177542,3855.9,726.5714133126395,770.3214276177542,3963.6,726.5714133126395,770.3214276177542,4071.6,726.5714133126395,770.3214276177542,4178.9,726.5714133126395,770.3214276177542,4294.5,726.5714133126395,770.3214276177542,4412.3,726.5714133126395,770.3214276177542,4525.1,726.5714133126395,770.3214276177542,4642.8,726.5714133126395,770.3214276177542,4761.5,726.5714133126395,770.3214276177542,4862.4,726.5714133126395,770.3214276177542,4965.7]","[1377.6,1377.6,1000,0,377.6,""smooth"",""down"",""down"",""good_move"",3638.6,2260.7,1951.4,1377.9,309.3,""smooth"",""down"",""down"",""good_move"",6316.1,2677.3,2380.4,3638.9,296.9,""oops"",""right"",""left"",""bad_move"",9740.4,3423.8,3138.6,6316.6,285.2,""oops"",""right"",""right"",""good_move"",12346.9,2606.1,2034.5,9740.9,571.6,""smooth"",""right"",""right"",""good_move"",14565.1,2217.7,1869.7,12347.5,348,""while_blue"",""right"",""up"",""bad_move"",17806.6,3240.3,2696,14566.4,544.2,""smooth"",""right"",""right"",""good_move"",23141.6,5334.6,2036.3,20783.6,321.7,""oops"",""down"",""up"",""bad_move"",26023.7,2881.9,2415,23141.8,466.9,""smooth"",""down"",""down"",""good_move"",28495.7,2471.7,2142,26024.1,329.6,""while_blue"",""down"",""up"",""bad_move"",31484.3,2988.4,1804.6,28496,1183.8,""smooth"",""down"",""down"",""good_move"",33994,2509,2180.1,31485,328.9,""smooth"",""down"",""down"",""good_move""]","",""
"4194","","<div style=""width:500px;"">
  <p>What determined the result of this run?</p>
  </div>","59","html-slider-response","70","794033","0.0-5.0-1.12","231","1","2025-07-23 19:04:40","1f75c3e559b7213887762d5229550c2b","90.208.18.9","Mozilla/5.0 (Windows NT 10.0; Win64; x64) AppleWebKit/537.36 (KHTML, like Gecko) Chrome/136.0.0.0 Safari/537.36","WebKit","Chrome","136.0.0.0","Windows","10.0","https://app.prolific.com/","en-GB,en-US;q=0.9,en;q=0.8","5e203085ac30fa331b586690","683db9eb0562dbf637994deb","6881324035e5f05488dc4f8e","2","1","5e203085ac30fa331b586690","2","1","2025-07-23T19:17:51.525Z","","","","","","","","","","","AttribQ","","50","","","","","","","","","","","","","","","","","","","","","","","","","","","","",""
"1463","","<div style=""width:500px;"">
  <p>How much control did you have over the ball?</p>
  </div>","57","html-slider-response","71","795498","0.0-5.0-2.12","231","1","2025-07-23 19:04:40","1f75c3e559b7213887762d5229550c2b","90.208.18.9","Mozilla/5.0 (Windows NT 10.0; Win64; x64) AppleWebKit/537.36 (KHTML, like Gecko) Chrome/136.0.0.0 Safari/537.36","WebKit","Chrome","136.0.0.0","Windows","10.0","https://app.prolific.com/","en-GB,en-US;q=0.9,en;q=0.8","5e203085ac30fa331b586690","683db9eb0562dbf637994deb","6881324035e5f05488dc4f8e","2","1","5e203085ac30fa331b586690","2","1","2025-07-23T19:17:52.990Z","","","","","","","","","","","ControlQ","","50","","","","","","","","","","","","","","","","","","","","","","","","","","","","",""
"2033","","<div style=""width:500px;"">
  <p>How would you describe your current emotional state?</p>
  </div>","32","html-slider-response","72","797535","0.0-5.0-3.12","231","1","2025-07-23 19:04:40","1f75c3e559b7213887762d5229550c2b","90.208.18.9","Mozilla/5.0 (Windows NT 10.0; Win64; x64) AppleWebKit/537.36 (KHTML, like Gecko) Chrome/136.0.0.0 Safari/537.36","WebKit","Chrome","136.0.0.0","Windows","10.0","https://app.prolific.com/","en-GB,en-US;q=0.9,en;q=0.8","5e203085ac30fa331b586690","683db9eb0562dbf637994deb","6881324035e5f05488dc4f8e","2","1","5e203085ac30fa331b586690","2","1","2025-07-23T19:17:55.027Z","","","","","","","","","","","StressQ","","50","","","","","","","","","","","","","","","","","","","","","","","","","","","","",""
"1447","","<div style=""width:500px;"">
  <p>What best describes how you currently feel?</p>
  </div>","60","html-slider-response","73","798984","0.0-5.0-4.12","231","1","2025-07-23 19:04:40","1f75c3e559b7213887762d5229550c2b","90.208.18.9","Mozilla/5.0 (Windows NT 10.0; Win64; x64) AppleWebKit/537.36 (KHTML, like Gecko) Chrome/136.0.0.0 Safari/537.36","WebKit","Chrome","136.0.0.0","Windows","10.0","https://app.prolific.com/","en-GB,en-US;q=0.9,en;q=0.8","5e203085ac30fa331b586690","683db9eb0562dbf637994deb","6881324035e5f05488dc4f8e","2","1","5e203085ac30fa331b586690","2","1","2025-07-23T19:17:56.476Z","","","","","","","","","","","MotivationQ","","50","","","","","","","","","","","","","","","","","","","","","","","","","","","","",""
