"rt","response_timestamp","stimulus","response","trial_type","trial_index","time_elapsed","internal_node_id","run_id","condition","recorded_at","source_code_version","ip","user_agent","device","browser","browser_version","platform","platform_version","referer","accept_language","PROLIFIC_PID","STUDY_ID","SESSION_ID","WEEK","BATCH","prolific_id","week","batch","realtime","success","responses","item_order","radio_event_ids","radio_event_times","key_event_times","mouse_event_times","straightlining","zigzagging","honeypot","eventType","view_history","slider_start","which_type","canvas_config","goals_layout","control_level","trial_number","tutorial_trial_number","trial_start_time","phase1_start_time","phase2_start_time","phase3_start_time","goal_1_value","goal_1_distance","goal_2_value","goal_2_distance","goal_selected","outcome","outcome_total","participant_final_score","participant_initial_score","participant_final_score_prop","goal_choice_rt","allocated_time","allocated_time_remaining","goal_direction","counts","mouse_movements","key_presses"
"1946","1753917098025","<p style='font-size:40px;line-height:1.25'><strong>Welcome to the experiment!</strong></p><p style='font-size:1.1em;line-height:1.25'>Thank you for participanting in our experiment again! You will be asked to play the Dysfunctional Ball Game again. We will briefly recap the rules before we start.</p><p style='font-size:1.1em;line-height:1.25'>Press <strong>Next</strong> to continue.</p>","0","custom-html-button-response","0","1968","0.0-0.0","300","1","2025-07-30 22:49:28","1f75c3e559b7213887762d5229550c2b","89.70.241.158","Mozilla/5.0 (Windows NT 10.0; Win64; x64; rv:141.0) Gecko/20100101 Firefox/141.0","","Firefox","141.0","Windows","10.0","https://app.prolific.com/","pl,en-US;q=0.7,en;q=0.3","5f0214e58782120a8c970fd6","6877631c9844ddd5501205fc","688aa1671e723b8981852a89","3","1","5f0214e58782120a8c970fd6","3","1","2025-07-30T23:11:38.027Z","","","","","","","","","","","","","","","","","","","","","","","","","","","","","","","","","","","","","","","",""
"3926","","","","fullscreen","1","6934","0.0-1.0","300","1","2025-07-30 22:49:28","1f75c3e559b7213887762d5229550c2b","89.70.241.158","Mozilla/5.0 (Windows NT 10.0; Win64; x64; rv:141.0) Gecko/20100101 Firefox/141.0","","Firefox","141.0","Windows","10.0","https://app.prolific.com/","pl,en-US;q=0.7,en;q=0.3","5f0214e58782120a8c970fd6","6877631c9844ddd5501205fc","688aa1671e723b8981852a89","3","1","5f0214e58782120a8c970fd6","3","1","","true","","","","","","","","","","","","","","","","","","","","","","","","","","","","","","","","","","","","","","",""
"1301","1753917104299","<p style='font-size:1.1em;line-height:1.25'>In the following, we will ask you a few questions relating to your feelings in the last 24 hours.<br></p><p style='font-size:1.1em;line-height:1.25'>Press the <strong>Next</strong> button to continue.</p>","0","custom-html-button-response","2","8242","0.0-2.0-0.0","300","1","2025-07-30 22:49:28","1f75c3e559b7213887762d5229550c2b","89.70.241.158","Mozilla/5.0 (Windows NT 10.0; Win64; x64; rv:141.0) Gecko/20100101 Firefox/141.0","","Firefox","141.0","Windows","10.0","https://app.prolific.com/","pl,en-US;q=0.7,en;q=0.3","5f0214e58782120a8c970fd6","6877631c9844ddd5501205fc","688aa1671e723b8981852a89","3","1","5f0214e58782120a8c970fd6","3","1","2025-07-30T23:11:44.301Z","","","","","","","","","","","","","","","","","","","","","","","","","","","","","","","","","","","","","","","",""
"53175","","","","survey-template","3","61441","0.0-2.0-1.0","300","1","2025-07-30 22:49:28","1f75c3e559b7213887762d5229550c2b","89.70.241.158","Mozilla/5.0 (Windows NT 10.0; Win64; x64; rv:141.0) Gecko/20100101 Firefox/141.0","","Firefox","141.0","Windows","10.0","https://app.prolific.com/","pl,en-US;q=0.7,en;q=0.3","5f0214e58782120a8c970fd6","6877631c9844ddd5501205fc","688aa1671e723b8981852a89","3","1","5f0214e58782120a8c970fd6","3","1","2025-07-30T23:12:37.501Z","","{""Q01"":""0"",""Q02"":""0"",""Q03"":""0"",""Q04"":""1"",""Q05"":""0"",""Q06"":""0"",""Q07"":""0"",""Q08"":""0"",""Q09"":""1"",""Q10"":""1"",""Q11"":""0"",""Q12"":""0"",""Q13"":""5"",""Q14"":""0"",""Q15"":""0"",""Q16"":""0"",""Q17"":""0"",""Q18"":""0"",""Q19"":""0"",""Q20"":""0"",""Q21"":""0"",""Q22"":""0""}","[0,1,2,3,4,5,6,7,8,9,10,11,12,13,14,15,16,17,18,19,20,21]","[""Q01"",""Q02"",""Q03"",""Q04"",""Q05"",""Q06"",""Q07"",""Q08"",""Q09"",""Q10"",""Q11"",""Q12"",""Q13"",""Q14"",""Q15"",""Q16"",""Q17"",""Q18"",""Q19"",""Q20"",""Q21"",""Q22""]","[16419,22633,24060,25762,26810,29183,30872,31890,33640,34843,36031,38369,39755,41111,43680,44836,46726,47742,48759,49660,50631,52196]","[]","[0,16419,22633,24060,25762,26810,29183,30872,31890,33640,34843,36031,38369,39755,41111,43680,44836,46726,47742,48759,49660,50631,52196,53167]","0.8181818181818182","0.2857142857142857","0","drsp","","","","","","","","","","","","","","","","","","","","","","","","","","","","",""
"7455","","","","survey-template","4","68914","0.0-2.0-2.0","300","1","2025-07-30 22:49:28","1f75c3e559b7213887762d5229550c2b","89.70.241.158","Mozilla/5.0 (Windows NT 10.0; Win64; x64; rv:141.0) Gecko/20100101 Firefox/141.0","","Firefox","141.0","Windows","10.0","https://app.prolific.com/","pl,en-US;q=0.7,en;q=0.3","5f0214e58782120a8c970fd6","6877631c9844ddd5501205fc","688aa1671e723b8981852a89","3","1","5f0214e58782120a8c970fd6","3","1","2025-07-30T23:12:44.974Z","","{""Q01"":""1"",""Q02"":""2"",""Q03"":""0""}","[0,1,2]","[""Q01"",""Q02"",""Q03""]","[2673,4962,6234]","[]","[554,2673,4962,6234,7454]","0.3333333333333333","0","0","stress","","","","","","","","","","","","","","","","","","","","","","","","","","","","",""
"1858","","","","instructions","5","70781","0.0-3.0-0.0","300","1","2025-07-30 22:49:28","1f75c3e559b7213887762d5229550c2b","89.70.241.158","Mozilla/5.0 (Windows NT 10.0; Win64; x64; rv:141.0) Gecko/20100101 Firefox/141.0","","Firefox","141.0","Windows","10.0","https://app.prolific.com/","pl,en-US;q=0.7,en;q=0.3","5f0214e58782120a8c970fd6","6877631c9844ddd5501205fc","688aa1671e723b8981852a89","3","1","5f0214e58782120a8c970fd6","3","1","","","","","","","","","","","","","[{""page_index"":0,""viewing_time"":1858}]","","","","","","","","","","","","","","","","","","","","","","","","","","","",""
"3023","","<p>Before you start with this game please answer the following three questions yourself. </p>
  <p>Through this game, we measure several aspects of your cognitive performance, such as reaction times, multi-tasking capabilities </p>
  <p>and the ability to assess the situation you are in.</p>
  <p></p>
  <p><b>How good do you usually are in such tasks?</b></p>","65","html-slider-response","6","73810","0.0-4.0-0.0","300","1","2025-07-30 22:49:28","1f75c3e559b7213887762d5229550c2b","89.70.241.158","Mozilla/5.0 (Windows NT 10.0; Win64; x64; rv:141.0) Gecko/20100101 Firefox/141.0","","Firefox","141.0","Windows","10.0","https://app.prolific.com/","pl,en-US;q=0.7,en;q=0.3","5f0214e58782120a8c970fd6","6877631c9844ddd5501205fc","688aa1671e723b8981852a89","3","1","5f0214e58782120a8c970fd6","3","1","2025-07-30T23:12:49.869Z","","","","","","","","","","","PreSkillQ","","50","","","","","","","","","","","","","","","","","","","","","","","","","","",""
"2628","","<div style=""width:500px;"">
  <p>How well do you think you will perform in this task compared to other participants?</p>
  </div>","63","html-slider-response","7","76446","0.0-4.0-1.0","300","1","2025-07-30 22:49:28","1f75c3e559b7213887762d5229550c2b","89.70.241.158","Mozilla/5.0 (Windows NT 10.0; Win64; x64; rv:141.0) Gecko/20100101 Firefox/141.0","","Firefox","141.0","Windows","10.0","https://app.prolific.com/","pl,en-US;q=0.7,en;q=0.3","5f0214e58782120a8c970fd6","6877631c9844ddd5501205fc","688aa1671e723b8981852a89","3","1","5f0214e58782120a8c970fd6","3","1","2025-07-30T23:12:52.505Z","","","","","","","","","","","PrePerfQ","","50","","","","","","","","","","","","","","","","","","","","","","","","","","",""
"3716","","<div style=""width:500px;"">
  <p>What best describes how you currently feel?</p>
  </div>","67","html-slider-response","8","80171","0.0-4.0-2.0","300","1","2025-07-30 22:49:28","1f75c3e559b7213887762d5229550c2b","89.70.241.158","Mozilla/5.0 (Windows NT 10.0; Win64; x64; rv:141.0) Gecko/20100101 Firefox/141.0","","Firefox","141.0","Windows","10.0","https://app.prolific.com/","pl,en-US;q=0.7,en;q=0.3","5f0214e58782120a8c970fd6","6877631c9844ddd5501205fc","688aa1671e723b8981852a89","3","1","5f0214e58782120a8c970fd6","3","1","2025-07-30T23:12:56.230Z","","","","","","","","","","","PreMotivationQ","","50","","","","","","","","","","","","","","","","","","","","","","","","","","",""
"","","","","ctl-task-cpt","9","105858","0.0-5.0-0.0","300","1","2025-07-30 22:49:28","1f75c3e559b7213887762d5229550c2b","89.70.241.158","Mozilla/5.0 (Windows NT 10.0; Win64; x64; rv:141.0) Gecko/20100101 Firefox/141.0","","Firefox","141.0","Windows","10.0","https://app.prolific.com/","pl,en-US;q=0.7,en;q=0.3","5f0214e58782120a8c970fd6","6877631c9844ddd5501205fc","688aa1671e723b8981852a89","3","1","5f0214e58782120a8c970fd6","3","1","2025-07-30T23:13:21.917Z","","","","","","","","","","","","","","win-only","3","g1:SW,g2:NE","1","1","0","81155","928","5929","22672","1","4","8","6","2","8","8","8","0","0.06060606060606061","1321","3000","2150","[""up"",""right""]","{""num_key_presses"":6,""num_perfect"":6,""num_errors"":0,""num_randdir"":0,""num_randdir_good_moves"":0,""num_whilered"":0,""num_whileblue"":0,""num_blue"":0,""num_good_moves"":6}","[298.22857753208706,293.92857448032925,0,298.22857753208706,293.92857448032925,119,298.22857753208706,293.92857448032925,220,298.22857753208706,293.92857448032925,320,298.22857753208706,293.92857448032925,420,298.22857753208706,293.92857448032925,521,298.22857753208706,293.92857448032925,621,429.22857753208706,167.92857448032925,722,475.22857753208706,125.92857448032925,836,475.22857753208706,125.92857448032925,938,527.228577532087,77.92857448032925,1052,545.228577532087,58.92857448032924,1166,545.228577532087,58.92857448032924,1279,545.228577532087,58.92857448032924,1379,545.228577532087,58.92857448032924,1480,545.228577532087,58.92857448032924,1598,545.228577532087,58.92857448032924,1701,545.228577532087,58.92857448032924,1814,745.228577532087,83.92857448032925,1915,745.228577532087,83.92857448032925,2015,745.228577532087,83.92857448032925,2130,745.228577532087,83.92857448032925,2247,745.228577532087,83.92857448032925,2348,745.228577532087,83.92857448032925,2456,745.228577532087,83.92857448032925,2556,745.228577532087,83.92857448032925,2656,745.228577532087,83.92857448032925,2756,745.228577532087,83.92857448032925,2862,745.228577532087,83.92857448032925,2979,745.228577532087,83.92857448032925,3079,745.228577532087,83.92857448032925,3179,745.228577532087,83.92857448032925,3281,745.228577532087,83.92857448032925,3397,745.228577532087,83.92857448032925,3513,745.228577532087,83.92857448032925,3614,745.228577532087,83.92857448032925,3730,745.228577532087,83.92857448032925,3831,745.228577532087,83.92857448032925,3946,745.228577532087,83.92857448032925,4046,745.228577532087,83.92857448032925,4160,745.228577532087,83.92857448032925,4278,745.228577532087,83.92857448032925,4382,745.228577532087,83.92857448032925,4497,745.228577532087,83.92857448032925,4597,745.228577532087,83.92857448032925,4697,745.228577532087,83.92857448032925,4797,745.228577532087,83.92857448032925,4898]","[1488,1488,1000,0,488,""smooth"",""up"",""up"",""good_move"",4764,3276,2517.2,1488,758.8,""smooth"",""up"",""up"",""good_move"",7984,3220,2079.7,4764,1140.3,""smooth"",""right"",""right"",""good_move"",10763,2779,2299.6,7984,479.4,""smooth"",""up"",""up"",""good_move"",13783,3020,2515.8,10763,504.2,""smooth"",""right"",""right"",""good_move"",16469,2686,2298.4,13783,387.6,""smooth"",""right"",""right"",""good_move""]"
"2623","","<div style=""width:500px;"">
  <p>What determined the result of this run?</p>
  </div>","68","html-slider-response","10","108484","0.0-5.0-1.0","300","1","2025-07-30 22:49:28","1f75c3e559b7213887762d5229550c2b","89.70.241.158","Mozilla/5.0 (Windows NT 10.0; Win64; x64; rv:141.0) Gecko/20100101 Firefox/141.0","","Firefox","141.0","Windows","10.0","https://app.prolific.com/","pl,en-US;q=0.7,en;q=0.3","5f0214e58782120a8c970fd6","6877631c9844ddd5501205fc","688aa1671e723b8981852a89","3","1","5f0214e58782120a8c970fd6","3","1","2025-07-30T23:13:24.544Z","","","","","","","","","","","AttribQ","","50","","","","","","","","","","","","","","","","","","","","","","","","","","",""
"2192","","<div style=""width:500px;"">
  <p>How much control did you have over the ball?</p>
  </div>","84","html-slider-response","11","110683","0.0-5.0-2.0","300","1","2025-07-30 22:49:28","1f75c3e559b7213887762d5229550c2b","89.70.241.158","Mozilla/5.0 (Windows NT 10.0; Win64; x64; rv:141.0) Gecko/20100101 Firefox/141.0","","Firefox","141.0","Windows","10.0","https://app.prolific.com/","pl,en-US;q=0.7,en;q=0.3","5f0214e58782120a8c970fd6","6877631c9844ddd5501205fc","688aa1671e723b8981852a89","3","1","5f0214e58782120a8c970fd6","3","1","2025-07-30T23:13:26.742Z","","","","","","","","","","","ControlQ","","50","","","","","","","","","","","","","","","","","","","","","","","","","","",""
"2432","","<div style=""width:500px;"">
  <p>How would you describe your current emotional state?</p>
  </div>","16","html-slider-response","12","113120","0.0-5.0-3.0","300","1","2025-07-30 22:49:28","1f75c3e559b7213887762d5229550c2b","89.70.241.158","Mozilla/5.0 (Windows NT 10.0; Win64; x64; rv:141.0) Gecko/20100101 Firefox/141.0","","Firefox","141.0","Windows","10.0","https://app.prolific.com/","pl,en-US;q=0.7,en;q=0.3","5f0214e58782120a8c970fd6","6877631c9844ddd5501205fc","688aa1671e723b8981852a89","3","1","5f0214e58782120a8c970fd6","3","1","2025-07-30T23:13:29.179Z","","","","","","","","","","","StressQ","","50","","","","","","","","","","","","","","","","","","","","","","","","","","",""
"2561","","<div style=""width:500px;"">
  <p>What best describes how you currently feel?</p>
  </div>","80","html-slider-response","13","115685","0.0-5.0-4.0","300","1","2025-07-30 22:49:28","1f75c3e559b7213887762d5229550c2b","89.70.241.158","Mozilla/5.0 (Windows NT 10.0; Win64; x64; rv:141.0) Gecko/20100101 Firefox/141.0","","Firefox","141.0","Windows","10.0","https://app.prolific.com/","pl,en-US;q=0.7,en;q=0.3","5f0214e58782120a8c970fd6","6877631c9844ddd5501205fc","688aa1671e723b8981852a89","3","1","5f0214e58782120a8c970fd6","3","1","2025-07-30T23:13:31.744Z","","","","","","","","","","","MotivationQ","","50","","","","","","","","","","","","","","","","","","","","","","","","","","",""
"","","","","ctl-task-cpt","14","154335","0.0-5.0-0.1","300","1","2025-07-30 22:49:28","1f75c3e559b7213887762d5229550c2b","89.70.241.158","Mozilla/5.0 (Windows NT 10.0; Win64; x64; rv:141.0) Gecko/20100101 Firefox/141.0","","Firefox","141.0","Windows","10.0","https://app.prolific.com/","pl,en-US;q=0.7,en;q=0.3","5f0214e58782120a8c970fd6","6877631c9844ddd5501205fc","688aa1671e723b8981852a89","3","1","5f0214e58782120a8c970fd6","3","1","2025-07-30T23:14:10.394Z","","","","","","","","","","","","","","win-only","3","g1:SW,g2:NE","0.9","2","0","116664","1754","6782","35644","1","4","4","6","2","4","4","12","8","0.09090909090909091","1094","3000","1995","[""up"",""right""]","{""num_key_presses"":6,""num_perfect"":6,""num_errors"":0,""num_randdir"":0,""num_randdir_good_moves"":0,""num_whilered"":0,""num_whileblue"":0,""num_blue"":3,""num_good_moves"":6}","[298.22857753208706,295.92857448032925,1,298.22857753208706,295.92857448032925,102,298.22857753208706,295.92857448032925,209,298.22857753208706,295.92857448032925,318,298.22857753208706,295.92857448032925,443,298.22857753208706,295.92857448032925,544,555.228577532087,82.92857448032925,657,565.228577532087,77.92857448032925,758,568.228577532087,76.92857448032925,873,568.228577532087,75.92857448032925,974,568.228577532087,75.92857448032925,1074,568.228577532087,75.92857448032925,1175,568.228577532087,75.92857448032925,1293,568.228577532087,75.92857448032925,1394,568.228577532087,75.92857448032925,1500,749.228577532087,77.92857448032925,1601,767.228577532087,79.92857448032925,1702,767.228577532087,79.92857448032925,1802,767.228577532087,79.92857448032925,1902,767.228577532087,79.92857448032925,2003,767.228577532087,79.92857448032925,2103,767.228577532087,79.92857448032925,2204,767.228577532087,79.92857448032925,2310,767.228577532087,79.92857448032925,2410,767.228577532087,79.92857448032925,2518,767.228577532087,79.92857448032925,2618,767.228577532087,79.92857448032925,2718,767.228577532087,79.92857448032925,2818,767.228577532087,79.92857448032925,2919,767.228577532087,79.92857448032925,3035,767.228577532087,79.92857448032925,3161,767.228577532087,79.92857448032925,3277,767.228577532087,79.92857448032925,3378,767.228577532087,79.92857448032925,3482,767.228577532087,79.92857448032925,3586,767.228577532087,79.92857448032925,3699,767.228577532087,79.92857448032925,3800,767.228577532087,79.92857448032925,3900,767.228577532087,79.92857448032925,4000,767.228577532087,79.92857448032925,4100,767.228577532087,79.92857448032925,4200,767.228577532087,79.92857448032925,4310,767.228577532087,79.92857448032925,4420,767.228577532087,79.92857448032925,4520,767.228577532087,79.92857448032925,4620,767.228577532087,79.92857448032925,4724,767.228577532087,79.92857448032925,4827,767.228577532087,79.92857448032925,4927]","[4739,4739,2165.6,2033,540.4,""smooth"",""up"",""up"",""good_move"",15065,10326,2553.6,12015,496.4,""smooth"",""up"",""up"",""good_move"",18607,3542,3015.8,15066,526.2,""smooth"",""right"",""right"",""good_move"",22286,3678,3169.4,18608,508.6,""smooth"",""right"",""right"",""good_move"",25501,3215,2584.3,22286,630.7,""smooth"",""up"",""up"",""good_move"",28557,3055,2649.4,25502,405.6,""smooth"",""right"",""right"",""good_move""]"
"2168","","<div style=""width:500px;"">
  <p>What determined the result of this run?</p>
  </div>","77","html-slider-response","15","156505","0.0-5.0-1.1","300","1","2025-07-30 22:49:28","1f75c3e559b7213887762d5229550c2b","89.70.241.158","Mozilla/5.0 (Windows NT 10.0; Win64; x64; rv:141.0) Gecko/20100101 Firefox/141.0","","Firefox","141.0","Windows","10.0","https://app.prolific.com/","pl,en-US;q=0.7,en;q=0.3","5f0214e58782120a8c970fd6","6877631c9844ddd5501205fc","688aa1671e723b8981852a89","3","1","5f0214e58782120a8c970fd6","3","1","2025-07-30T23:14:12.564Z","","","","","","","","","","","AttribQ","","50","","","","","","","","","","","","","","","","","","","","","","","","","","",""
"2123","","<div style=""width:500px;"">
  <p>How much control did you have over the ball?</p>
  </div>","91","html-slider-response","16","158632","0.0-5.0-2.1","300","1","2025-07-30 22:49:28","1f75c3e559b7213887762d5229550c2b","89.70.241.158","Mozilla/5.0 (Windows NT 10.0; Win64; x64; rv:141.0) Gecko/20100101 Firefox/141.0","","Firefox","141.0","Windows","10.0","https://app.prolific.com/","pl,en-US;q=0.7,en;q=0.3","5f0214e58782120a8c970fd6","6877631c9844ddd5501205fc","688aa1671e723b8981852a89","3","1","5f0214e58782120a8c970fd6","3","1","2025-07-30T23:14:14.691Z","","","","","","","","","","","ControlQ","","50","","","","","","","","","","","","","","","","","","","","","","","","","","",""
"2780","","<div style=""width:500px;"">
  <p>How would you describe your current emotional state?</p>
  </div>","5","html-slider-response","17","161415","0.0-5.0-3.1","300","1","2025-07-30 22:49:28","1f75c3e559b7213887762d5229550c2b","89.70.241.158","Mozilla/5.0 (Windows NT 10.0; Win64; x64; rv:141.0) Gecko/20100101 Firefox/141.0","","Firefox","141.0","Windows","10.0","https://app.prolific.com/","pl,en-US;q=0.7,en;q=0.3","5f0214e58782120a8c970fd6","6877631c9844ddd5501205fc","688aa1671e723b8981852a89","3","1","5f0214e58782120a8c970fd6","3","1","2025-07-30T23:14:17.475Z","","","","","","","","","","","StressQ","","50","","","","","","","","","","","","","","","","","","","","","","","","","","",""
"2657","","<div style=""width:500px;"">
  <p>What best describes how you currently feel?</p>
  </div>","77","html-slider-response","18","164076","0.0-5.0-4.1","300","1","2025-07-30 22:49:28","1f75c3e559b7213887762d5229550c2b","89.70.241.158","Mozilla/5.0 (Windows NT 10.0; Win64; x64; rv:141.0) Gecko/20100101 Firefox/141.0","","Firefox","141.0","Windows","10.0","https://app.prolific.com/","pl,en-US;q=0.7,en;q=0.3","5f0214e58782120a8c970fd6","6877631c9844ddd5501205fc","688aa1671e723b8981852a89","3","1","5f0214e58782120a8c970fd6","3","1","2025-07-30T23:14:20.136Z","","","","","","","","","","","MotivationQ","","50","","","","","","","","","","","","","","","","","","","","","","","","","","",""
"","","","","ctl-task-cpt","19","184359","0.0-5.0-0.2","300","1","2025-07-30 22:49:28","1f75c3e559b7213887762d5229550c2b","89.70.241.158","Mozilla/5.0 (Windows NT 10.0; Win64; x64; rv:141.0) Gecko/20100101 Firefox/141.0","","Firefox","141.0","Windows","10.0","https://app.prolific.com/","pl,en-US;q=0.7,en;q=0.3","5f0214e58782120a8c970fd6","6877631c9844ddd5501205fc","688aa1671e723b8981852a89","3","1","5f0214e58782120a8c970fd6","3","1","2025-07-30T23:14:40.418Z","","","","","","","","","","","","","","win-only","1","g1:NE,g2:SW","0.8","3","0","165057","858","5866","17277","1","4","4","6","1","1","1","13","12","0.09848484848484848","1342","3000","2160","[""up"",""right""]","{""num_key_presses"":4,""num_perfect"":4,""num_errors"":0,""num_randdir"":0,""num_randdir_good_moves"":0,""num_whilered"":0,""num_whileblue"":0,""num_blue"":0,""num_good_moves"":4}","[299.22857753208706,297.92857448032925,0,299.22857753208706,297.92857448032925,103,299.22857753208706,297.92857448032925,211,299.22857753208706,297.92857448032925,311,299.22857753208706,297.92857448032925,419,299.22857753208706,297.92857448032925,519,299.22857753208706,297.92857448032925,620,299.22857753208706,297.92857448032925,736,475.22857753208706,102.92857448032925,838,530.228577532087,53.92857448032924,952,530.228577532087,53.92857448032924,1052,530.228577532087,53.92857448032924,1168,530.228577532087,53.92857448032924,1269,530.228577532087,53.92857448032924,1378,530.228577532087,53.92857448032924,1478,530.228577532087,53.92857448032924,1580,530.228577532087,53.92857448032924,1695,530.228577532087,53.92857448032924,1799,659.228577532087,67.92857448032925,1900,669.228577532087,68.92857448032925,2001,669.228577532087,68.92857448032925,2101,669.228577532087,68.92857448032925,2212,669.228577532087,68.92857448032925,2315,669.228577532087,68.92857448032925,2430,669.228577532087,68.92857448032925,2545,669.228577532087,68.92857448032925,2647,669.228577532087,68.92857448032925,2747,669.228577532087,68.92857448032925,2859,669.228577532087,68.92857448032925,2978,669.228577532087,68.92857448032925,3092,669.228577532087,68.92857448032925,3194,669.228577532087,68.92857448032925,3294,669.228577532087,68.92857448032925,3394,669.228577532087,68.92857448032925,3494,669.228577532087,68.92857448032925,3594,669.228577532087,68.92857448032925,3709,669.228577532087,68.92857448032925,3811,669.228577532087,68.92857448032925,3911,669.228577532087,68.92857448032925,4011,669.228577532087,68.92857448032925,4126,669.228577532087,68.92857448032925,4228,669.228577532087,68.92857448032925,4333,669.228577532087,68.92857448032925,4433,669.228577532087,68.92857448032925,4535,669.228577532087,68.92857448032925,4638,669.228577532087,68.92857448032925,4751,669.228577532087,68.92857448032925,4851,669.228577532087,68.92857448032925,4952]","[1821,1821,1000,0,821,""smooth"",""up"",""up"",""good_move"",5044,3222,2012,1822,1210,""smooth"",""up"",""up"",""good_move"",8441,3395,2426.4,5046,968.6,""smooth"",""right"",""right"",""good_move"",11087,2646,2178.4,8441,467.6,""smooth"",""right"",""right"",""good_move""]"
"1727","","<div style=""width:500px;"">
  <p>What determined the result of this run?</p>
  </div>","72","html-slider-response","20","186089","0.0-5.0-1.2","300","1","2025-07-30 22:49:28","1f75c3e559b7213887762d5229550c2b","89.70.241.158","Mozilla/5.0 (Windows NT 10.0; Win64; x64; rv:141.0) Gecko/20100101 Firefox/141.0","","Firefox","141.0","Windows","10.0","https://app.prolific.com/","pl,en-US;q=0.7,en;q=0.3","5f0214e58782120a8c970fd6","6877631c9844ddd5501205fc","688aa1671e723b8981852a89","3","1","5f0214e58782120a8c970fd6","3","1","2025-07-30T23:14:42.148Z","","","","","","","","","","","AttribQ","","50","","","","","","","","","","","","","","","","","","","","","","","","","","",""
"1914","","<div style=""width:500px;"">
  <p>How much control did you have over the ball?</p>
  </div>","92","html-slider-response","21","188006","0.0-5.0-2.2","300","1","2025-07-30 22:49:28","1f75c3e559b7213887762d5229550c2b","89.70.241.158","Mozilla/5.0 (Windows NT 10.0; Win64; x64; rv:141.0) Gecko/20100101 Firefox/141.0","","Firefox","141.0","Windows","10.0","https://app.prolific.com/","pl,en-US;q=0.7,en;q=0.3","5f0214e58782120a8c970fd6","6877631c9844ddd5501205fc","688aa1671e723b8981852a89","3","1","5f0214e58782120a8c970fd6","3","1","2025-07-30T23:14:44.065Z","","","","","","","","","","","ControlQ","","50","","","","","","","","","","","","","","","","","","","","","","","","","","",""
"2305","","<div style=""width:500px;"">
  <p>How would you describe your current emotional state?</p>
  </div>","18","html-slider-response","22","190314","0.0-5.0-3.2","300","1","2025-07-30 22:49:28","1f75c3e559b7213887762d5229550c2b","89.70.241.158","Mozilla/5.0 (Windows NT 10.0; Win64; x64; rv:141.0) Gecko/20100101 Firefox/141.0","","Firefox","141.0","Windows","10.0","https://app.prolific.com/","pl,en-US;q=0.7,en;q=0.3","5f0214e58782120a8c970fd6","6877631c9844ddd5501205fc","688aa1671e723b8981852a89","3","1","5f0214e58782120a8c970fd6","3","1","2025-07-30T23:14:46.373Z","","","","","","","","","","","StressQ","","50","","","","","","","","","","","","","","","","","","","","","","","","","","",""
"3900","","<div style=""width:500px;"">
  <p>What best describes how you currently feel?</p>
  </div>","80","html-slider-response","23","194216","0.0-5.0-4.2","300","1","2025-07-30 22:49:28","1f75c3e559b7213887762d5229550c2b","89.70.241.158","Mozilla/5.0 (Windows NT 10.0; Win64; x64; rv:141.0) Gecko/20100101 Firefox/141.0","","Firefox","141.0","Windows","10.0","https://app.prolific.com/","pl,en-US;q=0.7,en;q=0.3","5f0214e58782120a8c970fd6","6877631c9844ddd5501205fc","688aa1671e723b8981852a89","3","1","5f0214e58782120a8c970fd6","3","1","2025-07-30T23:14:50.275Z","","","","","","","","","","","MotivationQ","","50","","","","","","","","","","","","","","","","","","","","","","","","","","",""
"","","","","ctl-task-cpt","24","242816","0.0-5.0-0.3","300","1","2025-07-30 22:49:28","1f75c3e559b7213887762d5229550c2b","89.70.241.158","Mozilla/5.0 (Windows NT 10.0; Win64; x64; rv:141.0) Gecko/20100101 Firefox/141.0","","Firefox","141.0","Windows","10.0","https://app.prolific.com/","pl,en-US;q=0.7,en;q=0.3","5f0214e58782120a8c970fd6","6877631c9844ddd5501205fc","688aa1671e723b8981852a89","3","1","5f0214e58782120a8c970fd6","3","1","2025-07-30T23:15:38.875Z","","","","","","","","","","","","","","win-only","3","g1:SW,g2:NE","0.7","4","0","195196","980","5985","45591","1","4","8","6","2","8","8","21","13","0.1590909090909091","1302","3000","1755","[""up"",""right""]","{""num_key_presses"":8,""num_perfect"":6,""num_errors"":0,""num_randdir"":2,""num_randdir_good_moves"":1,""num_whilered"":0,""num_whileblue"":0,""num_blue"":5,""num_good_moves"":7}","[297.22857753208706,291.92857448032925,0,297.22857753208706,291.92857448032925,115,297.22857753208706,291.92857448032925,221,297.22857753208706,291.92857448032925,326,297.22857753208706,291.92857448032925,432,297.22857753208706,291.92857448032925,535,297.22857753208706,291.92857448032925,635,375.22857753208706,199.92857448032925,747,375.22857753208706,199.92857448032925,853,460.22857753208706,121.92857448032925,969,530.228577532087,72.92857448032925,1072,531.228577532087,72.92857448032925,1172,531.228577532087,72.92857448032925,1274,531.228577532087,72.92857448032925,1380,531.228577532087,72.92857448032925,1486,531.228577532087,72.92857448032925,1586,531.228577532087,72.92857448032925,1697,794.228577532087,30.92857448032924,1803,794.228577532087,30.92857448032924,1904,794.228577532087,30.92857448032924,2013,794.228577532087,30.92857448032924,2130,794.228577532087,30.92857448032924,2235,794.228577532087,30.92857448032924,2347,794.228577532087,30.92857448032924,2454,794.228577532087,30.92857448032924,2567,794.228577532087,30.92857448032924,2675,794.228577532087,30.92857448032924,2782,794.228577532087,30.92857448032924,2883,794.228577532087,30.92857448032924,2992,794.228577532087,30.92857448032924,3096,794.228577532087,30.92857448032924,3199,794.228577532087,30.92857448032924,3302,794.228577532087,30.92857448032924,3407,794.228577532087,30.92857448032924,3515,794.228577532087,30.92857448032924,3629,794.228577532087,30.92857448032924,3735,794.228577532087,30.92857448032924,3839,794.228577532087,30.92857448032924,3941,794.228577532087,30.92857448032924,4047,794.228577532087,30.92857448032924,4148,794.228577532087,30.92857448032924,4262,794.228577532087,30.92857448032924,4374,794.228577532087,30.92857448032924,4479,794.228577532087,30.92857448032924,4582,794.228577532087,30.92857448032924,4687,794.228577532087,30.92857448032924,4799,794.228577532087,30.92857448032924,4899]","[7831,7831,1996.9,5345,489.1,""smooth"",""up"",""up"",""good_move"",10978,3147,2691.6,7831,455.4,""smooth"",""up"",""up"",""good_move"",18562,7584,2467.6,15496,598.4,""smooth"",""right"",""right"",""good_move"",24624,6062,2291.1,21843,489.9,""smooth"",""right"",""right"",""good_move"",30348,5723,2361.4,27509,477.6,""oops"",""up"",""left"",""bad_move"",33473,3125,2602.6,30349,522.4,""oops"",""up"",""up"",""good_move"",36563,3089,2358.6,33475,729.4,""smooth"",""right"",""right"",""good_move"",39282,2718,2265.3,36564,452.7,""smooth"",""right"",""right"",""good_move""]"
"3152","","<div style=""width:500px;"">
  <p>What determined the result of this run?</p>
  </div>","83","html-slider-response","25","245971","0.0-5.0-1.3","300","1","2025-07-30 22:49:28","1f75c3e559b7213887762d5229550c2b","89.70.241.158","Mozilla/5.0 (Windows NT 10.0; Win64; x64; rv:141.0) Gecko/20100101 Firefox/141.0","","Firefox","141.0","Windows","10.0","https://app.prolific.com/","pl,en-US;q=0.7,en;q=0.3","5f0214e58782120a8c970fd6","6877631c9844ddd5501205fc","688aa1671e723b8981852a89","3","1","5f0214e58782120a8c970fd6","3","1","2025-07-30T23:15:42.030Z","","","","","","","","","","","AttribQ","","50","","","","","","","","","","","","","","","","","","","","","","","","","","",""
"1898","","<div style=""width:500px;"">
  <p>How much control did you have over the ball?</p>
  </div>","67","html-slider-response","26","247877","0.0-5.0-2.3","300","1","2025-07-30 22:49:28","1f75c3e559b7213887762d5229550c2b","89.70.241.158","Mozilla/5.0 (Windows NT 10.0; Win64; x64; rv:141.0) Gecko/20100101 Firefox/141.0","","Firefox","141.0","Windows","10.0","https://app.prolific.com/","pl,en-US;q=0.7,en;q=0.3","5f0214e58782120a8c970fd6","6877631c9844ddd5501205fc","688aa1671e723b8981852a89","3","1","5f0214e58782120a8c970fd6","3","1","2025-07-30T23:15:43.936Z","","","","","","","","","","","ControlQ","","50","","","","","","","","","","","","","","","","","","","","","","","","","","",""
"3371","","<div style=""width:500px;"">
  <p>How would you describe your current emotional state?</p>
  </div>","16","html-slider-response","27","251252","0.0-5.0-3.3","300","1","2025-07-30 22:49:28","1f75c3e559b7213887762d5229550c2b","89.70.241.158","Mozilla/5.0 (Windows NT 10.0; Win64; x64; rv:141.0) Gecko/20100101 Firefox/141.0","","Firefox","141.0","Windows","10.0","https://app.prolific.com/","pl,en-US;q=0.7,en;q=0.3","5f0214e58782120a8c970fd6","6877631c9844ddd5501205fc","688aa1671e723b8981852a89","3","1","5f0214e58782120a8c970fd6","3","1","2025-07-30T23:15:47.311Z","","","","","","","","","","","StressQ","","50","","","","","","","","","","","","","","","","","","","","","","","","","","",""
"1916","","<div style=""width:500px;"">
  <p>What best describes how you currently feel?</p>
  </div>","83","html-slider-response","28","253171","0.0-5.0-4.3","300","1","2025-07-30 22:49:28","1f75c3e559b7213887762d5229550c2b","89.70.241.158","Mozilla/5.0 (Windows NT 10.0; Win64; x64; rv:141.0) Gecko/20100101 Firefox/141.0","","Firefox","141.0","Windows","10.0","https://app.prolific.com/","pl,en-US;q=0.7,en;q=0.3","5f0214e58782120a8c970fd6","6877631c9844ddd5501205fc","688aa1671e723b8981852a89","3","1","5f0214e58782120a8c970fd6","3","1","2025-07-30T23:15:49.230Z","","","","","","","","","","","MotivationQ","","50","","","","","","","","","","","","","","","","","","","","","","","","","","",""
"","","","","ctl-task-cpt","29","276539","0.0-5.0-0.4","300","1","2025-07-30 22:49:28","1f75c3e559b7213887762d5229550c2b","89.70.241.158","Mozilla/5.0 (Windows NT 10.0; Win64; x64; rv:141.0) Gecko/20100101 Firefox/141.0","","Firefox","141.0","Windows","10.0","https://app.prolific.com/","pl,en-US;q=0.7,en;q=0.3","5f0214e58782120a8c970fd6","6877631c9844ddd5501205fc","688aa1671e723b8981852a89","3","1","5f0214e58782120a8c970fd6","3","1","2025-07-30T23:16:12.598Z","","","","","","","","","","","","","","win-only","2","g1:SE,g2:NW","0.6","5","0","254152","997","6004","20346","1","4","4","6","1","1","1","22","21","0.16666666666666666","1139","3000","2360","[""down"",""right""]","{""num_key_presses"":4,""num_perfect"":4,""num_errors"":0,""num_randdir"":0,""num_randdir_good_moves"":0,""num_whilered"":0,""num_whileblue"":0,""num_blue"":1,""num_good_moves"":4}","[300.22857753208706,287.92857448032925,0,300.22857753208706,287.92857448032925,112,300.22857753208706,287.92857448032925,227,300.22857753208706,287.92857448032925,327,300.22857753208706,287.92857448032925,428,300.22857753208706,287.92857448032925,528,300.22857753208706,287.92857448032925,629,383.22857753208706,377.92857448032925,730,525.228577532087,533.9285744803292,845,525.228577532087,533.9285744803292,945,525.228577532087,533.9285744803292,1045,525.228577532087,533.9285744803292,1166,525.228577532087,533.9285744803292,1266,525.228577532087,533.9285744803292,1368,525.228577532087,533.9285744803292,1485,812.228577532087,383.92857448032925,1593,812.228577532087,383.92857448032925,1693,812.228577532087,383.92857448032925,1793,812.228577532087,383.92857448032925,1894,812.228577532087,383.92857448032925,1994,812.228577532087,383.92857448032925,2095,812.228577532087,383.92857448032925,2200,812.228577532087,383.92857448032925,2310,812.228577532087,383.92857448032925,2425,812.228577532087,383.92857448032925,2541,812.228577532087,383.92857448032925,2657,812.228577532087,383.92857448032925,2757,812.228577532087,383.92857448032925,2877,812.228577532087,383.92857448032925,2979,812.228577532087,383.92857448032925,3094,812.228577532087,383.92857448032925,3209,812.228577532087,383.92857448032925,3324,812.228577532087,383.92857448032925,3449,812.228577532087,383.92857448032925,3564,812.228577532087,383.92857448032925,3665,812.228577532087,383.92857448032925,3765,812.228577532087,383.92857448032925,3865,812.228577532087,383.92857448032925,3965,812.228577532087,383.92857448032925,4065,812.228577532087,383.92857448032925,4166,812.228577532087,383.92857448032925,4292,812.228577532087,383.92857448032925,4412,812.228577532087,383.92857448032925,4516,812.228577532087,383.92857448032925,4616,812.228577532087,383.92857448032925,4725,812.228577532087,383.92857448032925,4832,812.228577532087,383.92857448032925,4932]","[5039,5039,2466.6,2026,546.4,""smooth"",""down"",""down"",""good_move"",8079,3040,2513.1,5039,526.9,""smooth"",""right"",""right"",""good_move"",11945,3865,3432.2,8080,432.8,""smooth"",""down"",""down"",""good_move"",14041,2095,1522.1,11946,572.9,""smooth"",""right"",""right"",""good_move""]"
"2223","","<div style=""width:500px;"">
  <p>What determined the result of this run?</p>
  </div>","66","html-slider-response","30","278763","0.0-5.0-1.4","300","1","2025-07-30 22:49:28","1f75c3e559b7213887762d5229550c2b","89.70.241.158","Mozilla/5.0 (Windows NT 10.0; Win64; x64; rv:141.0) Gecko/20100101 Firefox/141.0","","Firefox","141.0","Windows","10.0","https://app.prolific.com/","pl,en-US;q=0.7,en;q=0.3","5f0214e58782120a8c970fd6","6877631c9844ddd5501205fc","688aa1671e723b8981852a89","3","1","5f0214e58782120a8c970fd6","3","1","2025-07-30T23:16:14.822Z","","","","","","","","","","","AttribQ","","50","","","","","","","","","","","","","","","","","","","","","","","","","","",""
"1854","","<div style=""width:500px;"">
  <p>How much control did you have over the ball?</p>
  </div>","85","html-slider-response","31","280621","0.0-5.0-2.4","300","1","2025-07-30 22:49:28","1f75c3e559b7213887762d5229550c2b","89.70.241.158","Mozilla/5.0 (Windows NT 10.0; Win64; x64; rv:141.0) Gecko/20100101 Firefox/141.0","","Firefox","141.0","Windows","10.0","https://app.prolific.com/","pl,en-US;q=0.7,en;q=0.3","5f0214e58782120a8c970fd6","6877631c9844ddd5501205fc","688aa1671e723b8981852a89","3","1","5f0214e58782120a8c970fd6","3","1","2025-07-30T23:16:16.680Z","","","","","","","","","","","ControlQ","","50","","","","","","","","","","","","","","","","","","","","","","","","","","",""
"2502","","<div style=""width:500px;"">
  <p>How would you describe your current emotional state?</p>
  </div>","18","html-slider-response","32","283127","0.0-5.0-3.4","300","1","2025-07-30 22:49:28","1f75c3e559b7213887762d5229550c2b","89.70.241.158","Mozilla/5.0 (Windows NT 10.0; Win64; x64; rv:141.0) Gecko/20100101 Firefox/141.0","","Firefox","141.0","Windows","10.0","https://app.prolific.com/","pl,en-US;q=0.7,en;q=0.3","5f0214e58782120a8c970fd6","6877631c9844ddd5501205fc","688aa1671e723b8981852a89","3","1","5f0214e58782120a8c970fd6","3","1","2025-07-30T23:16:19.186Z","","","","","","","","","","","StressQ","","50","","","","","","","","","","","","","","","","","","","","","","","","","","",""
"2349","","<div style=""width:500px;"">
  <p>What best describes how you currently feel?</p>
  </div>","89","html-slider-response","33","285480","0.0-5.0-4.4","300","1","2025-07-30 22:49:28","1f75c3e559b7213887762d5229550c2b","89.70.241.158","Mozilla/5.0 (Windows NT 10.0; Win64; x64; rv:141.0) Gecko/20100101 Firefox/141.0","","Firefox","141.0","Windows","10.0","https://app.prolific.com/","pl,en-US;q=0.7,en;q=0.3","5f0214e58782120a8c970fd6","6877631c9844ddd5501205fc","688aa1671e723b8981852a89","3","1","5f0214e58782120a8c970fd6","3","1","2025-07-30T23:16:21.539Z","","","","","","","","","","","MotivationQ","","50","","","","","","","","","","","","","","","","","","","","","","","","","","",""
"","","","","ctl-task-cpt","34","336081","0.0-5.0-0.5","300","1","2025-07-30 22:49:28","1f75c3e559b7213887762d5229550c2b","89.70.241.158","Mozilla/5.0 (Windows NT 10.0; Win64; x64; rv:141.0) Gecko/20100101 Firefox/141.0","","Firefox","141.0","Windows","10.0","https://app.prolific.com/","pl,en-US;q=0.7,en;q=0.3","5f0214e58782120a8c970fd6","6877631c9844ddd5501205fc","688aa1671e723b8981852a89","3","1","5f0214e58782120a8c970fd6","3","1","2025-07-30T23:17:12.140Z","","","","","","","","","","","","","","win-only","1","g1:NE,g2:SW","0.5","6","0","286460","952","5962","47589","1","4","8","6","2","8","8","30","22","0.22727272727272727","1312","3000","1740","[""down"",""left""]","{""num_key_presses"":8,""num_perfect"":5,""num_errors"":0,""num_randdir"":3,""num_randdir_good_moves"":2,""num_whilered"":0,""num_whileblue"":0,""num_blue"":5,""num_good_moves"":7}","[300.22857753208706,300.92857448032925,1,300.22857753208706,300.92857448032925,109,300.22857753208706,300.92857448032925,212,300.22857753208706,300.92857448032925,325,300.22857753208706,300.92857448032925,426,300.22857753208706,300.92857448032925,526,300.22857753208706,300.92857448032925,627,200.22857753208706,400.92857448032925,742,81.22857753208706,510.92857448032925,843,80.22857753208706,511.92857448032925,944,78.22857753208706,512.9285744803292,1044,68.22857753208706,525.9285744803292,1148,68.22857753208706,525.9285744803292,1258,68.22857753208706,525.9285744803292,1359,68.22857753208706,525.9285744803292,1478,68.22857753208706,525.9285744803292,1598,-76.77142246791294,487.92857448032925,1753,-105.77142246791294,472.92857448032925,1865,-105.77142246791294,472.92857448032925,1966,-105.77142246791294,472.92857448032925,2066,-105.77142246791294,472.92857448032925,2181,-105.77142246791294,472.92857448032925,2306,-105.77142246791294,472.92857448032925,2408,-105.77142246791294,472.92857448032925,2528,-105.77142246791294,472.92857448032925,2633,-105.77142246791294,472.92857448032925,2734,-105.77142246791294,472.92857448032925,2834,-105.77142246791294,472.92857448032925,2934,-105.77142246791294,472.92857448032925,3034,-105.77142246791294,472.92857448032925,3136,-105.77142246791294,472.92857448032925,3249,-105.77142246791294,472.92857448032925,3351,-105.77142246791294,472.92857448032925,3462,-105.77142246791294,472.92857448032925,3562,-105.77142246791294,472.92857448032925,3663,-105.77142246791294,472.92857448032925,3763,-105.77142246791294,472.92857448032925,3864,-105.77142246791294,472.92857448032925,3964,-105.77142246791294,472.92857448032925,4065,-105.77142246791294,472.92857448032925,4181,-105.77142246791294,472.92857448032925,4300,-105.77142246791294,472.92857448032925,4406,-105.77142246791294,472.92857448032925,4506,-105.77142246791294,472.92857448032925,4606,-105.77142246791294,472.92857448032925,4706,-105.77142246791294,472.92857448032925,4809,-105.77142246791294,472.92857448032925,4909]","[1499,1499,1000,0,499,""smooth"",""down"",""down"",""good_move"",4571,3072,2581.6,1499,490.4,""oops"",""down"",""up"",""bad_move"",7752,3181,2327.3,4571,853.7,""smooth"",""down"",""down"",""good_move"",16174,8421,1764.8,13923,486.2,""smooth"",""left"",""left"",""good_move"",19406,3232,1764.2,16174,1467.8,""smooth"",""down"",""down"",""good_move"",25914,6507,2933,22464,517,""smooth"",""left"",""left"",""good_move"",38111,12196,3495.8,34030,585.2,""oops"",""down"",""left"",""good_move"",41362,3251,2509,38111,742,""oops"",""down"",""down"",""good_move""]"
"2615","","<div style=""width:500px;"">
  <p>What determined the result of this run?</p>
  </div>","74","html-slider-response","35","338698","0.0-5.0-1.5","300","1","2025-07-30 22:49:28","1f75c3e559b7213887762d5229550c2b","89.70.241.158","Mozilla/5.0 (Windows NT 10.0; Win64; x64; rv:141.0) Gecko/20100101 Firefox/141.0","","Firefox","141.0","Windows","10.0","https://app.prolific.com/","pl,en-US;q=0.7,en;q=0.3","5f0214e58782120a8c970fd6","6877631c9844ddd5501205fc","688aa1671e723b8981852a89","3","1","5f0214e58782120a8c970fd6","3","1","2025-07-30T23:17:14.758Z","","","","","","","","","","","AttribQ","","50","","","","","","","","","","","","","","","","","","","","","","","","","","",""
"2288","","<div style=""width:500px;"">
  <p>How much control did you have over the ball?</p>
  </div>","79","html-slider-response","36","340991","0.0-5.0-2.5","300","1","2025-07-30 22:49:28","1f75c3e559b7213887762d5229550c2b","89.70.241.158","Mozilla/5.0 (Windows NT 10.0; Win64; x64; rv:141.0) Gecko/20100101 Firefox/141.0","","Firefox","141.0","Windows","10.0","https://app.prolific.com/","pl,en-US;q=0.7,en;q=0.3","5f0214e58782120a8c970fd6","6877631c9844ddd5501205fc","688aa1671e723b8981852a89","3","1","5f0214e58782120a8c970fd6","3","1","2025-07-30T23:17:17.050Z","","","","","","","","","","","ControlQ","","50","","","","","","","","","","","","","","","","","","","","","","","","","","",""
"2846","","<div style=""width:500px;"">
  <p>How would you describe your current emotional state?</p>
  </div>","20","html-slider-response","37","343841","0.0-5.0-3.5","300","1","2025-07-30 22:49:28","1f75c3e559b7213887762d5229550c2b","89.70.241.158","Mozilla/5.0 (Windows NT 10.0; Win64; x64; rv:141.0) Gecko/20100101 Firefox/141.0","","Firefox","141.0","Windows","10.0","https://app.prolific.com/","pl,en-US;q=0.7,en;q=0.3","5f0214e58782120a8c970fd6","6877631c9844ddd5501205fc","688aa1671e723b8981852a89","3","1","5f0214e58782120a8c970fd6","3","1","2025-07-30T23:17:19.900Z","","","","","","","","","","","StressQ","","50","","","","","","","","","","","","","","","","","","","","","","","","","","",""
"2253","","<div style=""width:500px;"">
  <p>What best describes how you currently feel?</p>
  </div>","82","html-slider-response","38","346097","0.0-5.0-4.5","300","1","2025-07-30 22:49:28","1f75c3e559b7213887762d5229550c2b","89.70.241.158","Mozilla/5.0 (Windows NT 10.0; Win64; x64; rv:141.0) Gecko/20100101 Firefox/141.0","","Firefox","141.0","Windows","10.0","https://app.prolific.com/","pl,en-US;q=0.7,en;q=0.3","5f0214e58782120a8c970fd6","6877631c9844ddd5501205fc","688aa1671e723b8981852a89","3","1","5f0214e58782120a8c970fd6","3","1","2025-07-30T23:17:22.157Z","","","","","","","","","","","MotivationQ","","50","","","","","","","","","","","","","","","","","","","","","","","","","","",""
"","","","","ctl-task-cpt","39","434175","0.0-5.0-0.6","300","1","2025-07-30 22:49:28","1f75c3e559b7213887762d5229550c2b","89.70.241.158","Mozilla/5.0 (Windows NT 10.0; Win64; x64; rv:141.0) Gecko/20100101 Firefox/141.0","","Firefox","141.0","Windows","10.0","https://app.prolific.com/","pl,en-US;q=0.7,en;q=0.3","5f0214e58782120a8c970fd6","6877631c9844ddd5501205fc","688aa1671e723b8981852a89","3","1","5f0214e58782120a8c970fd6","3","1","2025-07-30T23:18:50.235Z","","","","","","","","","","","","","","win-only","2","g1:SE,g2:NW","0.4","7","0","347078","1404","6407","85056","1","4","8","6","2","8","8","38","30","0.2878787878787879","2118","3000","390","[""left"",""up""]","{""num_key_presses"":20,""num_perfect"":8,""num_errors"":0,""num_randdir"":12,""num_randdir_good_moves"":5,""num_whilered"":0,""num_whileblue"":0,""num_blue"":6,""num_good_moves"":13}","[294.22857753208706,302.92857448032925,1,294.22857753208706,302.92857448032925,106,294.22857753208706,302.92857448032925,209,294.22857753208706,302.92857448032925,310,294.22857753208706,302.92857448032925,425,294.22857753208706,302.92857448032925,527,294.22857753208706,302.92857448032925,640,294.22857753208706,302.92857448032925,756,294.22857753208706,302.92857448032925,856,294.22857753208706,302.92857448032925,957,294.22857753208706,302.92857448032925,1075,294.22857753208706,302.92857448032925,1185,294.22857753208706,302.92857448032925,1303,247.22857753208706,255.92857448032925,1404,57.22857753208705,67.92857448032925,1520,56.22857753208705,65.92857448032925,1621,56.22857753208705,65.92857448032925,1721,56.22857753208705,65.92857448032925,1822,56.22857753208705,65.92857448032925,1922,56.22857753208705,65.92857448032925,2023,56.22857753208705,65.92857448032925,2138,56.22857753208705,65.92857448032925,2257,56.22857753208705,65.92857448032925,2358,56.22857753208705,65.92857448032925,2458,56.22857753208705,65.92857448032925,2585,-111.77142246791294,82.92857448032925,2692,-184.77142246791294,87.92857448032925,2803,-184.77142246791294,87.92857448032925,2920,-184.77142246791294,87.92857448032925,3037,-184.77142246791294,87.92857448032925,3146,-184.77142246791294,87.92857448032925,3259,-184.77142246791294,87.92857448032925,3369,-184.77142246791294,87.92857448032925,3474,-184.77142246791294,87.92857448032925,3596,-184.77142246791294,87.92857448032925,3696,-184.77142246791294,87.92857448032925,3796,-184.77142246791294,87.92857448032925,3902,-184.77142246791294,87.92857448032925,4002,-184.77142246791294,87.92857448032925,4109,-184.77142246791294,87.92857448032925,4212,-184.77142246791294,87.92857448032925,4328,-184.77142246791294,87.92857448032925,4452,-184.77142246791294,87.92857448032925,4553,-184.77142246791294,87.92857448032925,4654,-184.77142246791294,87.92857448032925,4754,-184.77142246791294,87.92857448032925,4855,-184.77142246791294,87.92857448032925,4955]","[1476,1476,1000,0,476,""smooth"",""up"",""up"",""good_move"",8134,6658,2384.2,5349,400.8,""smooth"",""up"",""up"",""good_move"",11132,2998,2240,8134,758,""oops"",""left"",""up"",""good_move"",17267,6135,2128.2,14759,379.8,""oops"",""left"",""down"",""bad_move"",19788,2521,2106.2,17267,414.8,""smooth"",""left"",""left"",""good_move"",22687,2899,2395.9,19788,503.1,""smooth"",""left"",""left"",""good_move"",25681,2994,2543.5,22687,450.5,""oops"",""up"",""left"",""good_move"",28855,3174,2783.3,25681,390.7,""oops"",""up"",""down"",""bad_move"",31298,2442,2034.5,28856,407.5,""oops"",""up"",""down"",""bad_move"",33640,2338,1968,31302,370,""oops"",""up"",""down"",""bad_move"",36157,2517,2116,33640,401,""oops"",""up"",""down"",""bad_move"",38694,2537,2156.5,36157,380.5,""smooth"",""up"",""up"",""good_move"",46165,7471,2766.1,43020,378.9,""smooth"",""up"",""up"",""good_move"",52533,6368,2422.9,49665,445.1,""smooth"",""up"",""up"",""good_move"",55588,3054,1573.6,52534,1480.4,""oops"",""up"",""up"",""good_move"",66250,10661,2508,63296,446,""oops"",""up"",""right"",""bad_move"",69163,2913,2483.9,66250,429.1,""oops"",""up"",""down"",""bad_move"",71349,2186,1752.7,69163,433.3,""oops"",""up"",""left"",""good_move"",74528,3178,1927,71350,1251,""smooth"",""up"",""up"",""good_move"",78359,3830,3467.5,74529,362.5,""oops"",""up"",""up"",""good_move""]"
"2499","","<div style=""width:500px;"">
  <p>What determined the result of this run?</p>
  </div>","66","html-slider-response","40","436676","0.0-5.0-1.6","300","1","2025-07-30 22:49:28","1f75c3e559b7213887762d5229550c2b","89.70.241.158","Mozilla/5.0 (Windows NT 10.0; Win64; x64; rv:141.0) Gecko/20100101 Firefox/141.0","","Firefox","141.0","Windows","10.0","https://app.prolific.com/","pl,en-US;q=0.7,en;q=0.3","5f0214e58782120a8c970fd6","6877631c9844ddd5501205fc","688aa1671e723b8981852a89","3","1","5f0214e58782120a8c970fd6","3","1","2025-07-30T23:18:52.735Z","","","","","","","","","","","AttribQ","","50","","","","","","","","","","","","","","","","","","","","","","","","","","",""
"2763","","<div style=""width:500px;"">
  <p>How much control did you have over the ball?</p>
  </div>","26","html-slider-response","41","439445","0.0-5.0-2.6","300","1","2025-07-30 22:49:28","1f75c3e559b7213887762d5229550c2b","89.70.241.158","Mozilla/5.0 (Windows NT 10.0; Win64; x64; rv:141.0) Gecko/20100101 Firefox/141.0","","Firefox","141.0","Windows","10.0","https://app.prolific.com/","pl,en-US;q=0.7,en;q=0.3","5f0214e58782120a8c970fd6","6877631c9844ddd5501205fc","688aa1671e723b8981852a89","3","1","5f0214e58782120a8c970fd6","3","1","2025-07-30T23:18:55.504Z","","","","","","","","","","","ControlQ","","50","","","","","","","","","","","","","","","","","","","","","","","","","","",""
"3104","","<div style=""width:500px;"">
  <p>How would you describe your current emotional state?</p>
  </div>","48","html-slider-response","42","442552","0.0-5.0-3.6","300","1","2025-07-30 22:49:28","1f75c3e559b7213887762d5229550c2b","89.70.241.158","Mozilla/5.0 (Windows NT 10.0; Win64; x64; rv:141.0) Gecko/20100101 Firefox/141.0","","Firefox","141.0","Windows","10.0","https://app.prolific.com/","pl,en-US;q=0.7,en;q=0.3","5f0214e58782120a8c970fd6","6877631c9844ddd5501205fc","688aa1671e723b8981852a89","3","1","5f0214e58782120a8c970fd6","3","1","2025-07-30T23:18:58.611Z","","","","","","","","","","","StressQ","","50","","","","","","","","","","","","","","","","","","","","","","","","","","",""
"2421","","<div style=""width:500px;"">
  <p>What best describes how you currently feel?</p>
  </div>","85","html-slider-response","43","444977","0.0-5.0-4.6","300","1","2025-07-30 22:49:28","1f75c3e559b7213887762d5229550c2b","89.70.241.158","Mozilla/5.0 (Windows NT 10.0; Win64; x64; rv:141.0) Gecko/20100101 Firefox/141.0","","Firefox","141.0","Windows","10.0","https://app.prolific.com/","pl,en-US;q=0.7,en;q=0.3","5f0214e58782120a8c970fd6","6877631c9844ddd5501205fc","688aa1671e723b8981852a89","3","1","5f0214e58782120a8c970fd6","3","1","2025-07-30T23:19:01.036Z","","","","","","","","","","","MotivationQ","","50","","","","","","","","","","","","","","","","","","","","","","","","","","",""
"","","","","ctl-task-cpt","44","465662","0.0-5.0-0.7","300","1","2025-07-30 22:49:28","1f75c3e559b7213887762d5229550c2b","89.70.241.158","Mozilla/5.0 (Windows NT 10.0; Win64; x64; rv:141.0) Gecko/20100101 Firefox/141.0","","Firefox","141.0","Windows","10.0","https://app.prolific.com/","pl,en-US;q=0.7,en;q=0.3","5f0214e58782120a8c970fd6","6877631c9844ddd5501205fc","688aa1671e723b8981852a89","3","1","5f0214e58782120a8c970fd6","3","1","2025-07-30T23:19:21.721Z","","","","","","","","","","","","","","win-only","1","g1:NE,g2:SW","0.3","8","0","445958","938","5954","17669","1","4","4","6","1","1","1","39","38","0.29545454545454547","1293","3000","2150","[""up"",""right""]","{""num_key_presses"":4,""num_perfect"":2,""num_errors"":0,""num_randdir"":2,""num_randdir_good_moves"":2,""num_whilered"":0,""num_whileblue"":0,""num_blue"":0,""num_good_moves"":4}","[301.22857753208706,292.92857448032925,0,301.22857753208706,292.92857448032925,103,301.22857753208706,292.92857448032925,206,301.22857753208706,292.92857448032925,319,301.22857753208706,292.92857448032925,419,301.22857753208706,292.92857448032925,520,301.22857753208706,292.92857448032925,621,484.22857753208706,137.92857448032925,721,521.228577532087,107.92857448032925,836,529.228577532087,103.92857448032925,936,538.228577532087,89.92857448032925,1037,553.228577532087,67.92857448032925,1137,553.228577532087,67.92857448032925,1237,553.228577532087,67.92857448032925,1338,553.228577532087,67.92857448032925,1457,553.228577532087,67.92857448032925,1557,553.228577532087,67.92857448032925,1667,553.228577532087,67.92857448032925,1775,553.228577532087,67.92857448032925,1876,553.228577532087,67.92857448032925,1991,553.228577532087,67.92857448032925,2105,553.228577532087,67.92857448032925,2217,553.228577532087,67.92857448032925,2318,553.228577532087,67.92857448032925,2431,553.228577532087,67.92857448032925,2535,553.228577532087,67.92857448032925,2635,553.228577532087,67.92857448032925,2736,553.228577532087,67.92857448032925,2844,553.228577532087,67.92857448032925,2951,553.228577532087,67.92857448032925,3052,553.228577532087,67.92857448032925,3160,553.228577532087,67.92857448032925,3260,553.228577532087,67.92857448032925,3369,553.228577532087,67.92857448032925,3475,553.228577532087,67.92857448032925,3651,553.228577532087,67.92857448032925,3758,553.228577532087,67.92857448032925,3874,553.228577532087,67.92857448032925,3975,553.228577532087,67.92857448032925,4075,553.228577532087,67.92857448032925,4199,553.228577532087,67.92857448032925,4300,553.228577532087,67.92857448032925,4414,553.228577532087,67.92857448032925,4515,553.228577532087,67.92857448032925,4631,553.228577532087,67.92857448032925,4732,553.228577532087,67.92857448032925,4847,553.228577532087,67.92857448032925,4948]","[2417,2417,1000,0,1417,""oops"",""up"",""up"",""good_move"",5520,3103,2449.6,2417,653.4,""oops"",""up"",""up"",""good_move"",8639,3119,2064.3,5520,1054.7,""smooth"",""right"",""right"",""good_move"",11385,2746,2271.7,8639,474.3,""smooth"",""right"",""right"",""good_move""]"
"4646","","<div style=""width:500px;"">
  <p>What determined the result of this run?</p>
  </div>","68","html-slider-response","45","470311","0.0-5.0-1.7","300","1","2025-07-30 22:49:28","1f75c3e559b7213887762d5229550c2b","89.70.241.158","Mozilla/5.0 (Windows NT 10.0; Win64; x64; rv:141.0) Gecko/20100101 Firefox/141.0","","Firefox","141.0","Windows","10.0","https://app.prolific.com/","pl,en-US;q=0.7,en;q=0.3","5f0214e58782120a8c970fd6","6877631c9844ddd5501205fc","688aa1671e723b8981852a89","3","1","5f0214e58782120a8c970fd6","3","1","2025-07-30T23:19:26.370Z","","","","","","","","","","","AttribQ","","50","","","","","","","","","","","","","","","","","","","","","","","","","","",""
"3165","","<div style=""width:500px;"">
  <p>How much control did you have over the ball?</p>
  </div>","78","html-slider-response","46","473480","0.0-5.0-2.7","300","1","2025-07-30 22:49:28","1f75c3e559b7213887762d5229550c2b","89.70.241.158","Mozilla/5.0 (Windows NT 10.0; Win64; x64; rv:141.0) Gecko/20100101 Firefox/141.0","","Firefox","141.0","Windows","10.0","https://app.prolific.com/","pl,en-US;q=0.7,en;q=0.3","5f0214e58782120a8c970fd6","6877631c9844ddd5501205fc","688aa1671e723b8981852a89","3","1","5f0214e58782120a8c970fd6","3","1","2025-07-30T23:19:29.539Z","","","","","","","","","","","ControlQ","","50","","","","","","","","","","","","","","","","","","","","","","","","","","",""
"4055","","<div style=""width:500px;"">
  <p>How would you describe your current emotional state?</p>
  </div>","17","html-slider-response","47","477542","0.0-5.0-3.7","300","1","2025-07-30 22:49:28","1f75c3e559b7213887762d5229550c2b","89.70.241.158","Mozilla/5.0 (Windows NT 10.0; Win64; x64; rv:141.0) Gecko/20100101 Firefox/141.0","","Firefox","141.0","Windows","10.0","https://app.prolific.com/","pl,en-US;q=0.7,en;q=0.3","5f0214e58782120a8c970fd6","6877631c9844ddd5501205fc","688aa1671e723b8981852a89","3","1","5f0214e58782120a8c970fd6","3","1","2025-07-30T23:19:33.601Z","","","","","","","","","","","StressQ","","50","","","","","","","","","","","","","","","","","","","","","","","","","","",""
"2788","","<div style=""width:500px;"">
  <p>What best describes how you currently feel?</p>
  </div>","91","html-slider-response","48","480333","0.0-5.0-4.7","300","1","2025-07-30 22:49:28","1f75c3e559b7213887762d5229550c2b","89.70.241.158","Mozilla/5.0 (Windows NT 10.0; Win64; x64; rv:141.0) Gecko/20100101 Firefox/141.0","","Firefox","141.0","Windows","10.0","https://app.prolific.com/","pl,en-US;q=0.7,en;q=0.3","5f0214e58782120a8c970fd6","6877631c9844ddd5501205fc","688aa1671e723b8981852a89","3","1","5f0214e58782120a8c970fd6","3","1","2025-07-30T23:19:36.392Z","","","","","","","","","","","MotivationQ","","50","","","","","","","","","","","","","","","","","","","","","","","","","","",""
"","","","","ctl-task-cpt","49","573905","0.0-5.0-0.8","300","1","2025-07-30 22:49:28","1f75c3e559b7213887762d5229550c2b","89.70.241.158","Mozilla/5.0 (Windows NT 10.0; Win64; x64; rv:141.0) Gecko/20100101 Firefox/141.0","","Firefox","141.0","Windows","10.0","https://app.prolific.com/","pl,en-US;q=0.7,en;q=0.3","5f0214e58782120a8c970fd6","6877631c9844ddd5501205fc","688aa1671e723b8981852a89","3","1","5f0214e58782120a8c970fd6","3","1","2025-07-30T23:21:09.964Z","","","","","","","","","","","","","","win-only","3","g1:SW,g2:NE","0.2","9","0","481313","1035","6047","90553","1","4","8","6","2","-8","-10","29","39","0.2196969696969697","1596","3000","-1010","[""up"",""right""]","{""num_key_presses"":24,""num_perfect"":5,""num_errors"":2,""num_randdir"":17,""num_randdir_good_moves"":7,""num_whilered"":0,""num_whileblue"":2,""num_blue"":5,""num_good_moves"":13}","[299.22857753208706,292.92857448032925,0,299.22857753208706,292.92857448032925,105,299.22857753208706,292.92857448032925,214,299.22857753208706,292.92857448032925,321,299.22857753208706,292.92857448032925,431,299.22857753208706,292.92857448032925,537,299.22857753208706,292.92857448032925,637,299.22857753208706,292.92857448032925,764,299.22857753208706,292.92857448032925,874,320.22857753208706,266.92857448032925,975,473.22857753208706,110.92857448032925,1085,523.228577532087,79.92857448032925,1196,527.228577532087,78.92857448032925,1311,532.228577532087,75.92857448032925,1414,532.228577532087,75.92857448032925,1515,532.228577532087,75.92857448032925,1615,532.228577532087,75.92857448032925,1723,532.228577532087,75.92857448032925,1847,532.228577532087,75.92857448032925,1949,675.228577532087,64.92857448032925,2052,843.228577532087,60.92857448032924,2164,843.228577532087,60.92857448032924,2281,843.228577532087,60.92857448032924,2396,843.228577532087,60.92857448032924,2496,843.228577532087,60.92857448032924,2596,843.228577532087,60.92857448032924,2696,843.228577532087,60.92857448032924,2796,843.228577532087,60.92857448032924,2898,843.228577532087,60.92857448032924,3012,843.228577532087,60.92857448032924,3112,843.228577532087,60.92857448032924,3215,843.228577532087,60.92857448032924,3315,843.228577532087,60.92857448032924,3429,843.228577532087,60.92857448032924,3529,843.228577532087,60.92857448032924,3629,843.228577532087,60.92857448032924,3730,843.228577532087,60.92857448032924,3830,843.228577532087,60.92857448032924,3931,843.228577532087,60.92857448032924,4031,843.228577532087,60.92857448032924,4134,843.228577532087,60.92857448032924,4244,843.228577532087,60.92857448032924,4354,843.228577532087,60.92857448032924,4459,843.228577532087,60.92857448032924,4560,843.228577532087,60.92857448032924,4679,843.228577532087,60.92857448032924,4780,843.228577532087,60.92857448032924,4895,843.228577532087,60.92857448032924,4995]","[1453,1453,1000,0,453,""smooth"",""up"",""up"",""good_move"",4698,3245,2797.9,1453,447.1,""smooth"",""up"",""up"",""good_move"",8641,3942,3500.1,4699,441.9,""oops"",""up"",""right"",""good_move"",11383,2741,2351.9,8642,389.1,""oops"",""up"",""left"",""bad_move"",14689,3305,2329.2,11384,975.8,""oops"",""up"",""down"",""bad_move"",17558,2868,2476.7,14690,391.3,""oops"",""up"",""down"",""bad_move"",20118,2560,2178,17558,382,""oops"",""right"",""right"",""good_move"",23050,2932,2527.9,20118,404.1,""oops"",""up"",""up"",""good_move"",25933,2883,2268.1,23050,614.9,""oops"",""right"",""left"",""bad_move"",28774,2840,2261.1,25934,578.9,""oops"",""up"",""up"",""good_move"",31637,2863,2420.1,28774,442.9,""oops"",""right"",""down"",""bad_move"",35072,3435,3076.1,31637,358.9,""oops"",""up"",""right"",""good_move"",38505,3433,3052.2,35072,380.8,""oops"",""up"",""right"",""good_move"",40607,2102,1442,38505,660,""smooth"",""up"",""up"",""good_move"",43460,2853,1914.3,40607,938.7,""smooth"",""up"",""up"",""good_move"",46271,2811,2402.5,43460,408.5,""oops"",""right"",""down"",""bad_move"",48433,2161,1700.6,46272,460.4,""oops"",""right"",""down"",""bad_move"",52234,3801,3454.8,48433,346.2,""oops"",""up"",""right"",""good_move"",55437,3203,2881,52234,322,""while_blue"",""up"",""left"",""bad_move"",61765,6327,2310,59051,404,""oops"",""up"",""down"",""bad_move"",65432,3667,3287.6,61765,379.4,""oops"",""up"",""left"",""bad_move"",68835,3402,3082,65433,320,""while_blue"",""up"",""right"",""good_move"",74287,5451,2143.2,71754,389.8,""smooth"",""up"",""up"",""good_move"",81463,7176,2692.8,78338,432.2,""oops"",""up"",""left"",""bad_move""]"
"3263","","<div style=""width:500px;"">
  <p>What determined the result of this run?</p>
  </div>","69","html-slider-response","50","577171","0.0-5.0-1.8","300","1","2025-07-30 22:49:28","1f75c3e559b7213887762d5229550c2b","89.70.241.158","Mozilla/5.0 (Windows NT 10.0; Win64; x64; rv:141.0) Gecko/20100101 Firefox/141.0","","Firefox","141.0","Windows","10.0","https://app.prolific.com/","pl,en-US;q=0.7,en;q=0.3","5f0214e58782120a8c970fd6","6877631c9844ddd5501205fc","688aa1671e723b8981852a89","3","1","5f0214e58782120a8c970fd6","3","1","2025-07-30T23:21:13.231Z","","","","","","","","","","","AttribQ","","50","","","","","","","","","","","","","","","","","","","","","","","","","","",""
"2002","","<div style=""width:500px;"">
  <p>How much control did you have over the ball?</p>
  </div>","30","html-slider-response","51","579176","0.0-5.0-2.8","300","1","2025-07-30 22:49:28","1f75c3e559b7213887762d5229550c2b","89.70.241.158","Mozilla/5.0 (Windows NT 10.0; Win64; x64; rv:141.0) Gecko/20100101 Firefox/141.0","","Firefox","141.0","Windows","10.0","https://app.prolific.com/","pl,en-US;q=0.7,en;q=0.3","5f0214e58782120a8c970fd6","6877631c9844ddd5501205fc","688aa1671e723b8981852a89","3","1","5f0214e58782120a8c970fd6","3","1","2025-07-30T23:21:15.235Z","","","","","","","","","","","ControlQ","","50","","","","","","","","","","","","","","","","","","","","","","","","","","",""
"2814","","<div style=""width:500px;"">
  <p>How would you describe your current emotional state?</p>
  </div>","23","html-slider-response","52","581995","0.0-5.0-3.8","300","1","2025-07-30 22:49:28","1f75c3e559b7213887762d5229550c2b","89.70.241.158","Mozilla/5.0 (Windows NT 10.0; Win64; x64; rv:141.0) Gecko/20100101 Firefox/141.0","","Firefox","141.0","Windows","10.0","https://app.prolific.com/","pl,en-US;q=0.7,en;q=0.3","5f0214e58782120a8c970fd6","6877631c9844ddd5501205fc","688aa1671e723b8981852a89","3","1","5f0214e58782120a8c970fd6","3","1","2025-07-30T23:21:18.054Z","","","","","","","","","","","StressQ","","50","","","","","","","","","","","","","","","","","","","","","","","","","","",""
"3905","","<div style=""width:500px;"">
  <p>What best describes how you currently feel?</p>
  </div>","84","html-slider-response","53","585903","0.0-5.0-4.8","300","1","2025-07-30 22:49:28","1f75c3e559b7213887762d5229550c2b","89.70.241.158","Mozilla/5.0 (Windows NT 10.0; Win64; x64; rv:141.0) Gecko/20100101 Firefox/141.0","","Firefox","141.0","Windows","10.0","https://app.prolific.com/","pl,en-US;q=0.7,en;q=0.3","5f0214e58782120a8c970fd6","6877631c9844ddd5501205fc","688aa1671e723b8981852a89","3","1","5f0214e58782120a8c970fd6","3","1","2025-07-30T23:21:21.962Z","","","","","","","","","","","MotivationQ","","50","","","","","","","","","","","","","","","","","","","","","","","","","","",""
"","","","","ctl-task-cpt","54","625080","0.0-5.0-0.9","300","1","2025-07-30 22:49:28","1f75c3e559b7213887762d5229550c2b","89.70.241.158","Mozilla/5.0 (Windows NT 10.0; Win64; x64; rv:141.0) Gecko/20100101 Firefox/141.0","","Firefox","141.0","Windows","10.0","https://app.prolific.com/","pl,en-US;q=0.7,en;q=0.3","5f0214e58782120a8c970fd6","6877631c9844ddd5501205fc","688aa1671e723b8981852a89","3","1","5f0214e58782120a8c970fd6","3","1","2025-07-30T23:22:01.139Z","","","","","","","","","","","","","","win-only","0","g1:NW,g2:SE","0.4","10","0","586883","1179","6192","36165","1","4","4","6","2","4","4","33","29","0.25","2493","3000","1610","[""down"",""right""]","{""num_key_presses"":8,""num_perfect"":4,""num_errors"":0,""num_randdir"":4,""num_randdir_good_moves"":3,""num_whilered"":0,""num_whileblue"":0,""num_blue"":2,""num_good_moves"":7}","[302.22857753208706,298.92857448032925,0,302.22857753208706,298.92857448032925,105,302.22857753208706,298.92857448032925,209,302.22857753208706,298.92857448032925,309,302.22857753208706,298.92857448032925,409,302.22857753208706,298.92857448032925,522,302.22857753208706,298.92857448032925,622,302.22857753208706,298.92857448032925,725,302.22857753208706,298.92857448032925,825,256.22857753208706,221.92857448032925,925,138.22857753208706,96.92857448032925,1028,138.22857753208706,96.92857448032925,1144,138.22857753208706,96.92857448032925,1260,105.22857753208706,77.92857448032925,1364,89.22857753208706,68.92857448032925,1476,88.22857753208706,67.92857448032925,1597,290.22857753208706,204.92857448032925,1697,500.22857753208706,383.92857448032925,1802,498.22857753208706,383.92857448032925,1913,498.22857753208706,383.92857448032925,2014,511.22857753208706,465.92857448032925,2117,523.228577532087,509.92857448032925,2229,523.228577532087,515.9285744803292,2366,523.228577532087,515.9285744803292,2470,523.228577532087,515.9285744803292,2570,523.228577532087,515.9285744803292,2678,523.228577532087,515.9285744803292,2778,667.228577532087,426.92857448032925,2878,780.228577532087,360.92857448032925,2984,780.228577532087,360.92857448032925,3094,780.228577532087,360.92857448032925,3197,780.228577532087,360.92857448032925,3299,780.228577532087,360.92857448032925,3404,780.228577532087,360.92857448032925,3504,780.228577532087,360.92857448032925,3610,780.228577532087,360.92857448032925,3713,780.228577532087,360.92857448032925,3814,780.228577532087,360.92857448032925,3920,780.228577532087,360.92857448032925,4020,780.228577532087,360.92857448032925,4120,780.228577532087,360.92857448032925,4234,780.228577532087,360.92857448032925,4342,780.228577532087,360.92857448032925,4444,780.228577532087,360.92857448032925,4546,780.228577532087,360.92857448032925,4654,780.228577532087,360.92857448032925,4755,780.228577532087,360.92857448032925,4863,780.228577532087,360.92857448032925,4969]","[1459,1459,1000,0,459,""oops"",""down"",""up"",""bad_move"",4708,3249,2680.3,1459,568.7,""smooth"",""down"",""down"",""good_move"",7823,3115,2309.4,4708,805.6,""oops"",""down"",""down"",""good_move"",11157,3334,2978.4,7823,355.6,""oops"",""down"",""right"",""good_move"",14222,3065,2659.7,11157,405.3,""oops"",""down"",""down"",""good_move"",17160,2938,2073.4,14222,864.6,""smooth"",""down"",""down"",""good_move"",19902,2741,2351.5,17161,389.5,""smooth"",""right"",""right"",""good_move"",29694,9792,2490.3,26764,439.7,""smooth"",""right"",""right"",""good_move""]"
"3878","","<div style=""width:500px;"">
  <p>What determined the result of this run?</p>
  </div>","75","html-slider-response","55","628960","0.0-5.0-1.9","300","1","2025-07-30 22:49:28","1f75c3e559b7213887762d5229550c2b","89.70.241.158","Mozilla/5.0 (Windows NT 10.0; Win64; x64; rv:141.0) Gecko/20100101 Firefox/141.0","","Firefox","141.0","Windows","10.0","https://app.prolific.com/","pl,en-US;q=0.7,en;q=0.3","5f0214e58782120a8c970fd6","6877631c9844ddd5501205fc","688aa1671e723b8981852a89","3","1","5f0214e58782120a8c970fd6","3","1","2025-07-30T23:22:05.020Z","","","","","","","","","","","AttribQ","","50","","","","","","","","","","","","","","","","","","","","","","","","","","",""
"2102","","<div style=""width:500px;"">
  <p>How much control did you have over the ball?</p>
  </div>","49","html-slider-response","56","631067","0.0-5.0-2.9","300","1","2025-07-30 22:49:28","1f75c3e559b7213887762d5229550c2b","89.70.241.158","Mozilla/5.0 (Windows NT 10.0; Win64; x64; rv:141.0) Gecko/20100101 Firefox/141.0","","Firefox","141.0","Windows","10.0","https://app.prolific.com/","pl,en-US;q=0.7,en;q=0.3","5f0214e58782120a8c970fd6","6877631c9844ddd5501205fc","688aa1671e723b8981852a89","3","1","5f0214e58782120a8c970fd6","3","1","2025-07-30T23:22:07.126Z","","","","","","","","","","","ControlQ","","50","","","","","","","","","","","","","","","","","","","","","","","","","","",""
"2877","","<div style=""width:500px;"">
  <p>How would you describe your current emotional state?</p>
  </div>","14","html-slider-response","57","633951","0.0-5.0-3.9","300","1","2025-07-30 22:49:28","1f75c3e559b7213887762d5229550c2b","89.70.241.158","Mozilla/5.0 (Windows NT 10.0; Win64; x64; rv:141.0) Gecko/20100101 Firefox/141.0","","Firefox","141.0","Windows","10.0","https://app.prolific.com/","pl,en-US;q=0.7,en;q=0.3","5f0214e58782120a8c970fd6","6877631c9844ddd5501205fc","688aa1671e723b8981852a89","3","1","5f0214e58782120a8c970fd6","3","1","2025-07-30T23:22:10.010Z","","","","","","","","","","","StressQ","","50","","","","","","","","","","","","","","","","","","","","","","","","","","",""
"2046","","<div style=""width:500px;"">
  <p>What best describes how you currently feel?</p>
  </div>","84","html-slider-response","58","636000","0.0-5.0-4.9","300","1","2025-07-30 22:49:28","1f75c3e559b7213887762d5229550c2b","89.70.241.158","Mozilla/5.0 (Windows NT 10.0; Win64; x64; rv:141.0) Gecko/20100101 Firefox/141.0","","Firefox","141.0","Windows","10.0","https://app.prolific.com/","pl,en-US;q=0.7,en;q=0.3","5f0214e58782120a8c970fd6","6877631c9844ddd5501205fc","688aa1671e723b8981852a89","3","1","5f0214e58782120a8c970fd6","3","1","2025-07-30T23:22:12.059Z","","","","","","","","","","","MotivationQ","","50","","","","","","","","","","","","","","","","","","","","","","","","","","",""
"","","","","ctl-task-cpt","59","667937","0.0-5.0-0.10","300","1","2025-07-30 22:49:28","1f75c3e559b7213887762d5229550c2b","89.70.241.158","Mozilla/5.0 (Windows NT 10.0; Win64; x64; rv:141.0) Gecko/20100101 Firefox/141.0","","Firefox","141.0","Windows","10.0","https://app.prolific.com/","pl,en-US;q=0.7,en;q=0.3","5f0214e58782120a8c970fd6","6877631c9844ddd5501205fc","688aa1671e723b8981852a89","3","1","5f0214e58782120a8c970fd6","3","1","2025-07-30T23:22:43.996Z","","","","","","","","","","","","","","win-only","0","g1:NW,g2:SE","0.5","11","0","636982","1006","6009","28926","1","4","8","6","2","8","8","41","33","0.3106060606060606","1014","3000","2030","[""down"",""right""]","{""num_key_presses"":6,""num_perfect"":4,""num_errors"":0,""num_randdir"":2,""num_randdir_good_moves"":2,""num_whilered"":0,""num_whileblue"":0,""num_blue"":2,""num_good_moves"":6}","[301.22857753208706,293.92857448032925,0,301.22857753208706,293.92857448032925,108,301.22857753208706,293.92857448032925,210,301.22857753208706,293.92857448032925,317,301.22857753208706,293.92857448032925,425,301.22857753208706,293.92857448032925,530,465.22857753208706,447.92857448032925,637,546.228577532087,544.9285744803292,747,546.228577532087,544.9285744803292,852,546.228577532087,544.9285744803292,957,546.228577532087,544.9285744803292,1061,546.228577532087,544.9285744803292,1174,546.228577532087,544.9285744803292,1282,546.228577532087,544.9285744803292,1387,546.228577532087,544.9285744803292,1492,546.228577532087,544.9285744803292,1603,546.228577532087,544.9285744803292,1714,546.228577532087,544.9285744803292,1816,546.228577532087,544.9285744803292,1931,546.228577532087,544.9285744803292,2031,546.228577532087,544.9285744803292,2136,546.228577532087,544.9285744803292,2236,546.228577532087,544.9285744803292,2342,546.228577532087,544.9285744803292,2443,546.228577532087,544.9285744803292,2550,546.228577532087,544.9285744803292,2652,546.228577532087,544.9285744803292,2752,546.228577532087,544.9285744803292,2864,546.228577532087,544.9285744803292,2968,546.228577532087,544.9285744803292,3075,546.228577532087,544.9285744803292,3181,546.228577532087,544.9285744803292,3282,647.228577532087,514.9285744803292,3383,677.228577532087,493.92857448032925,3498,677.228577532087,493.92857448032925,3598,677.228577532087,493.92857448032925,3702,677.228577532087,493.92857448032925,3815,677.228577532087,493.92857448032925,3932,677.228577532087,493.92857448032925,4033,677.228577532087,493.92857448032925,4148,677.228577532087,493.92857448032925,4263,677.228577532087,493.92857448032925,4367,677.228577532087,493.92857448032925,4470,677.228577532087,493.92857448032925,4585,677.228577532087,493.92857448032925,4686,677.228577532087,493.92857448032925,4802,677.228577532087,493.92857448032925,4902]","[4990,4990,2540.5,2015,434.5,""smooth"",""down"",""down"",""good_move"",8181,3191,2215.1,4990,975.9,""smooth"",""down"",""down"",""good_move"",11467,3286,2838.8,8181,447.2,""smooth"",""down"",""down"",""good_move"",14244,2777,2379.8,11467,397.2,""smooth"",""right"",""right"",""good_move"",16495,2251,1757.6,14244,493.4,""oops"",""right"",""right"",""good_move"",22596,6100,2664.6,19562,369.4,""oops"",""right"",""right"",""good_move""]"
"2939","","<div style=""width:500px;"">
  <p>What determined the result of this run?</p>
  </div>","71","html-slider-response","60","670878","0.0-5.0-1.10","300","1","2025-07-30 22:49:28","1f75c3e559b7213887762d5229550c2b","89.70.241.158","Mozilla/5.0 (Windows NT 10.0; Win64; x64; rv:141.0) Gecko/20100101 Firefox/141.0","","Firefox","141.0","Windows","10.0","https://app.prolific.com/","pl,en-US;q=0.7,en;q=0.3","5f0214e58782120a8c970fd6","6877631c9844ddd5501205fc","688aa1671e723b8981852a89","3","1","5f0214e58782120a8c970fd6","3","1","2025-07-30T23:22:46.937Z","","","","","","","","","","","AttribQ","","50","","","","","","","","","","","","","","","","","","","","","","","","","","",""
"1999","","<div style=""width:500px;"">
  <p>How much control did you have over the ball?</p>
  </div>","78","html-slider-response","61","672882","0.0-5.0-2.10","300","1","2025-07-30 22:49:28","1f75c3e559b7213887762d5229550c2b","89.70.241.158","Mozilla/5.0 (Windows NT 10.0; Win64; x64; rv:141.0) Gecko/20100101 Firefox/141.0","","Firefox","141.0","Windows","10.0","https://app.prolific.com/","pl,en-US;q=0.7,en;q=0.3","5f0214e58782120a8c970fd6","6877631c9844ddd5501205fc","688aa1671e723b8981852a89","3","1","5f0214e58782120a8c970fd6","3","1","2025-07-30T23:22:48.941Z","","","","","","","","","","","ControlQ","","50","","","","","","","","","","","","","","","","","","","","","","","","","","",""
"2343","","<div style=""width:500px;"">
  <p>How would you describe your current emotional state?</p>
  </div>","25","html-slider-response","62","675228","0.0-5.0-3.10","300","1","2025-07-30 22:49:28","1f75c3e559b7213887762d5229550c2b","89.70.241.158","Mozilla/5.0 (Windows NT 10.0; Win64; x64; rv:141.0) Gecko/20100101 Firefox/141.0","","Firefox","141.0","Windows","10.0","https://app.prolific.com/","pl,en-US;q=0.7,en;q=0.3","5f0214e58782120a8c970fd6","6877631c9844ddd5501205fc","688aa1671e723b8981852a89","3","1","5f0214e58782120a8c970fd6","3","1","2025-07-30T23:22:51.287Z","","","","","","","","","","","StressQ","","50","","","","","","","","","","","","","","","","","","","","","","","","","","",""
"2412","","<div style=""width:500px;"">
  <p>What best describes how you currently feel?</p>
  </div>","74","html-slider-response","63","677642","0.0-5.0-4.10","300","1","2025-07-30 22:49:28","1f75c3e559b7213887762d5229550c2b","89.70.241.158","Mozilla/5.0 (Windows NT 10.0; Win64; x64; rv:141.0) Gecko/20100101 Firefox/141.0","","Firefox","141.0","Windows","10.0","https://app.prolific.com/","pl,en-US;q=0.7,en;q=0.3","5f0214e58782120a8c970fd6","6877631c9844ddd5501205fc","688aa1671e723b8981852a89","3","1","5f0214e58782120a8c970fd6","3","1","2025-07-30T23:22:53.702Z","","","","","","","","","","","MotivationQ","","50","","","","","","","","","","","","","","","","","","","","","","","","","","",""
"","","","","ctl-task-cpt","64","701513","0.0-5.0-0.11","300","1","2025-07-30 22:49:28","1f75c3e559b7213887762d5229550c2b","89.70.241.158","Mozilla/5.0 (Windows NT 10.0; Win64; x64; rv:141.0) Gecko/20100101 Firefox/141.0","","Firefox","141.0","Windows","10.0","https://app.prolific.com/","pl,en-US;q=0.7,en;q=0.3","5f0214e58782120a8c970fd6","6877631c9844ddd5501205fc","688aa1671e723b8981852a89","3","1","5f0214e58782120a8c970fd6","3","1","2025-07-30T23:23:17.572Z","","","","","","","","","","","","","","win-only","3","g1:SW,g2:NE","0.6","12","0","678623","1830","6842","20859","1","4","4","6","1","1","1","42","41","0.3181818181818182","2001","3000","2385","[""down"",""left""]","{""num_key_presses"":4,""num_perfect"":4,""num_errors"":0,""num_randdir"":0,""num_randdir_good_moves"":0,""num_whilered"":0,""num_whileblue"":0,""num_blue"":1,""num_good_moves"":4}","[297.22857753208706,293.92857448032925,1,297.22857753208706,293.92857448032925,113,297.22857753208706,293.92857448032925,231,297.22857753208706,293.92857448032925,346,297.22857753208706,293.92857448032925,446,297.22857753208706,293.92857448032925,547,297.22857753208706,293.92857448032925,647,343.22857753208706,218.92857448032925,760,409.22857753208706,145.92857448032925,863,485.22857753208706,84.92857448032925,976,499.22857753208706,81.92857448032925,1086,506.22857753208706,81.92857448032925,1197,301.22857753208706,265.92857448032925,1316,141.22857753208706,440.92857448032925,1416,121.22857753208706,461.92857448032925,1532,67.22857753208706,511.92857448032925,1632,44.22857753208705,539.9285744803292,1748,42.22857753208705,543.9285744803292,1850,42.22857753208705,543.9285744803292,1950,42.22857753208705,543.9285744803292,2072,42.22857753208705,543.9285744803292,2180,42.22857753208705,543.9285744803292,2280,42.22857753208705,543.9285744803292,2380,-60.77142246791295,452.92857448032925,2489,-91.77142246791294,432.92857448032925,2597,-91.77142246791294,432.92857448032925,2697,-91.77142246791294,432.92857448032925,2799,-91.77142246791294,432.92857448032925,2901,-91.77142246791294,432.92857448032925,3018,-91.77142246791294,432.92857448032925,3131,-91.77142246791294,432.92857448032925,3241,-91.77142246791294,432.92857448032925,3348,-91.77142246791294,432.92857448032925,3454,-91.77142246791294,432.92857448032925,3555,-91.77142246791294,432.92857448032925,3655,-91.77142246791294,432.92857448032925,3755,-91.77142246791294,432.92857448032925,3855,-91.77142246791294,432.92857448032925,3956,-91.77142246791294,432.92857448032925,4059,-91.77142246791294,432.92857448032925,4173,-91.77142246791294,432.92857448032925,4273,-91.77142246791294,432.92857448032925,4380,-91.77142246791294,432.92857448032925,4481,-91.77142246791294,432.92857448032925,4597,-91.77142246791294,432.92857448032925,4710,-91.77142246791294,432.92857448032925,4810,-91.77142246791294,432.92857448032925,4910]","[1547,1547,1000,0,547,""smooth"",""down"",""down"",""good_move"",4435,2888,2404,1547,484,""smooth"",""down"",""down"",""good_move"",6990,2554,2105,4436,449,""smooth"",""left"",""left"",""good_move"",13753,6763,2405.4,10850,497.6,""smooth"",""left"",""left"",""good_move""]"
"2431","","<div style=""width:500px;"">
  <p>What determined the result of this run?</p>
  </div>","73","html-slider-response","65","703947","0.0-5.0-1.11","300","1","2025-07-30 22:49:28","1f75c3e559b7213887762d5229550c2b","89.70.241.158","Mozilla/5.0 (Windows NT 10.0; Win64; x64; rv:141.0) Gecko/20100101 Firefox/141.0","","Firefox","141.0","Windows","10.0","https://app.prolific.com/","pl,en-US;q=0.7,en;q=0.3","5f0214e58782120a8c970fd6","6877631c9844ddd5501205fc","688aa1671e723b8981852a89","3","1","5f0214e58782120a8c970fd6","3","1","2025-07-30T23:23:20.006Z","","","","","","","","","","","AttribQ","","50","","","","","","","","","","","","","","","","","","","","","","","","","","",""
"2670","","<div style=""width:500px;"">
  <p>How much control did you have over the ball?</p>
  </div>","85","html-slider-response","66","706624","0.0-5.0-2.11","300","1","2025-07-30 22:49:28","1f75c3e559b7213887762d5229550c2b","89.70.241.158","Mozilla/5.0 (Windows NT 10.0; Win64; x64; rv:141.0) Gecko/20100101 Firefox/141.0","","Firefox","141.0","Windows","10.0","https://app.prolific.com/","pl,en-US;q=0.7,en;q=0.3","5f0214e58782120a8c970fd6","6877631c9844ddd5501205fc","688aa1671e723b8981852a89","3","1","5f0214e58782120a8c970fd6","3","1","2025-07-30T23:23:22.683Z","","","","","","","","","","","ControlQ","","50","","","","","","","","","","","","","","","","","","","","","","","","","","",""
"2297","","<div style=""width:500px;"">
  <p>How would you describe your current emotional state?</p>
  </div>","22","html-slider-response","67","708925","0.0-5.0-3.11","300","1","2025-07-30 22:49:28","1f75c3e559b7213887762d5229550c2b","89.70.241.158","Mozilla/5.0 (Windows NT 10.0; Win64; x64; rv:141.0) Gecko/20100101 Firefox/141.0","","Firefox","141.0","Windows","10.0","https://app.prolific.com/","pl,en-US;q=0.7,en;q=0.3","5f0214e58782120a8c970fd6","6877631c9844ddd5501205fc","688aa1671e723b8981852a89","3","1","5f0214e58782120a8c970fd6","3","1","2025-07-30T23:23:24.984Z","","","","","","","","","","","StressQ","","50","","","","","","","","","","","","","","","","","","","","","","","","","","",""