"rt","response_timestamp","stimulus","response","trial_type","trial_index","time_elapsed","internal_node_id","run_id","condition","recorded_at","source_code_version","ip","user_agent","device","browser","browser_version","platform","platform_version","referer","accept_language","PROLIFIC_PID","STUDY_ID","SESSION_ID","WEEK","BATCH","prolific_id","week","batch","realtime","success","responses","item_order","radio_event_ids","radio_event_times","key_event_times","mouse_event_times","straightlining","zigzagging","honeypot","eventType","view_history","slider_start","which_type","canvas_config","goals_layout","control_level","trial_number","tutorial_trial_number","trial_start_time","phase1_start_time","phase2_start_time","phase3_start_time","goal_1_value","goal_1_distance","goal_2_value","goal_2_distance","goal_selected","outcome","outcome_total","participant_final_score","participant_initial_score","participant_final_score_prop","goal_choice_rt","allocated_time","allocated_time_remaining","goal_direction","counts","mouse_movements","key_presses","question_order","question_id"
"1228","1752654011790","<p style='font-size:40px;line-height:1.25'><strong>Welcome to the experiment!</strong></p><p style='font-size:1.1em;line-height:1.25'>Thank you for participanting in our experiment again! You will be asked to play the Dysfunctional Ball Game again. We will briefly recap the rules before we start.</p><p style='font-size:1.1em;line-height:1.25'>Press <strong>Next</strong> to continue.</p>","0","custom-html-button-response","0","1231","0.0-0.0","49","1","2025-07-16 08:20:09","1f75c3e559b7213887762d5229550c2b","80.192.212.91","Mozilla/5.0 (Macintosh; Intel Mac OS X 10_15_7) AppleWebKit/537.36 (KHTML, like Gecko) Chrome/137.0.0.0 Safari/537.36","Macintosh","Chrome","137.0.0.0","OS X","10_15_7","https://app.prolific.com/","en-GB,en-US;q=0.9,en;q=0.8","671a44d9d93641d1d9e96883","686e379bc37a29ffa5cdc956","687760a566868c1c61e4255f","1","1","671a44d9d93641d1d9e96883","1","1","2025-07-16T08:20:11.792Z","","","","","","","","","","","","","","","","","","","","","","","","","","","","","","","","","","","","","","","","","",""
"2778","","","","fullscreen","1","5018","0.0-1.0","49","1","2025-07-16 08:20:09","1f75c3e559b7213887762d5229550c2b","80.192.212.91","Mozilla/5.0 (Macintosh; Intel Mac OS X 10_15_7) AppleWebKit/537.36 (KHTML, like Gecko) Chrome/137.0.0.0 Safari/537.36","Macintosh","Chrome","137.0.0.0","OS X","10_15_7","https://app.prolific.com/","en-GB,en-US;q=0.9,en;q=0.8","671a44d9d93641d1d9e96883","686e379bc37a29ffa5cdc956","687760a566868c1c61e4255f","1","1","671a44d9d93641d1d9e96883","1","1","","true","","","","","","","","","","","","","","","","","","","","","","","","","","","","","","","","","","","","","","","","",""
"1170","1752654016750","<p style='font-size:1.1em;line-height:1.25'>In the following, we will ask you a few questions relating to your feelings in the last 24 hours.<br></p><p style='font-size:1.1em;line-height:1.25'>Press the <strong>Next</strong> button to continue.</p>","0","custom-html-button-response","2","6191","0.0-2.0-0.0","49","1","2025-07-16 08:20:09","1f75c3e559b7213887762d5229550c2b","80.192.212.91","Mozilla/5.0 (Macintosh; Intel Mac OS X 10_15_7) AppleWebKit/537.36 (KHTML, like Gecko) Chrome/137.0.0.0 Safari/537.36","Macintosh","Chrome","137.0.0.0","OS X","10_15_7","https://app.prolific.com/","en-GB,en-US;q=0.9,en;q=0.8","671a44d9d93641d1d9e96883","686e379bc37a29ffa5cdc956","687760a566868c1c61e4255f","1","1","671a44d9d93641d1d9e96883","1","1","2025-07-16T08:20:16.751Z","","","","","","","","","","","","","","","","","","","","","","","","","","","","","","","","","","","","","","","","","",""
"33685.19999998808","","","","survey-template","3","39889","0.0-2.0-1.0","49","1","2025-07-16 08:20:09","1f75c3e559b7213887762d5229550c2b","80.192.212.91","Mozilla/5.0 (Macintosh; Intel Mac OS X 10_15_7) AppleWebKit/537.36 (KHTML, like Gecko) Chrome/137.0.0.0 Safari/537.36","Macintosh","Chrome","137.0.0.0","OS X","10_15_7","https://app.prolific.com/","en-GB,en-US;q=0.9,en;q=0.8","671a44d9d93641d1d9e96883","686e379bc37a29ffa5cdc956","687760a566868c1c61e4255f","1","1","671a44d9d93641d1d9e96883","1","1","2025-07-16T08:20:50.449Z","","{""Q01"":""1"",""Q02"":""0"",""Q03"":""0"",""Q04"":""1"",""Q05"":""1"",""Q06"":""0"",""Q07"":""0"",""Q08"":""0"",""Q09"":""0"",""Q10"":""0"",""Q11"":""2"",""Q12"":""0"",""Q13"":""5"",""Q14"":""0"",""Q15"":""0"",""Q16"":""0"",""Q17"":""0"",""Q18"":""0"",""Q19"":""2"",""Q20"":""0"",""Q21"":""0"",""Q22"":""0""}","[0,1,2,3,4,5,6,7,8,9,10,11,12,13,14,15,16,17,18,19,20,21]","[""Q01"",""Q03"",""Q02"",""Q04"",""Q05"",""Q06"",""Q08"",""Q07"",""Q09"",""Q10"",""Q11"",""Q12"",""Q13"",""Q14"",""Q14"",""Q15"",""Q16"",""Q18"",""Q19"",""Q19"",""Q21"",""Q20"",""Q22"",""Q17""]","[2150.899999976158,3824.800000011921,5251.100000023842,6556.600000023842,7316.699999988079,7998.5,10131.600000023842,11102.600000023842,12790.699999988079,13941.600000023842,14715.399999976158,16498.399999976158,17276.600000023842,19364.5,19662.69999998808,20330.399999976158,20756.600000023842,22212.399999976158,23216.600000023842,27490.5,29058.600000023842,29534.600000023842,30226.5,32703.399999976158]","[]","[0.19999998807907104,2150.899999976158,3451.100000023842,3824.800000011921,4315,5251.100000023842,5888.699999988079,6556.600000023842,7316.699999988079,7998.5,9016.100000023842,9555.899999976158,10131.600000023842,11102.600000023842,11802.199999988079,12390.899999976158,12790.699999988079,13941.600000023842,14715.399999976158,15682.899999976158,16498.399999976158,17276.600000023842,18682.899999976158,19364.5,19662.69999998808,20330.399999976158,20756.600000023842,21710.899999976158,22212.399999976158,23216.600000023842,23624.5,26778.899999976158,27490.5,28448.80000001192,29058.600000023842,29534.600000023842,30226.5,30955,31527.19999998808,32703.399999976158,33675.10000002384]","0.7272727272727273","0.23809523809523808","0","drsp","","","","","","","","","","","","","","","","","","","","","","","","","","","","","","",""
"6533.599999964237","","","","survey-template","4","46425","0.0-2.0-2.0","49","1","2025-07-16 08:20:09","1f75c3e559b7213887762d5229550c2b","80.192.212.91","Mozilla/5.0 (Macintosh; Intel Mac OS X 10_15_7) AppleWebKit/537.36 (KHTML, like Gecko) Chrome/137.0.0.0 Safari/537.36","Macintosh","Chrome","137.0.0.0","OS X","10_15_7","https://app.prolific.com/","en-GB,en-US;q=0.9,en;q=0.8","671a44d9d93641d1d9e96883","686e379bc37a29ffa5cdc956","687760a566868c1c61e4255f","1","1","671a44d9d93641d1d9e96883","1","1","2025-07-16T08:20:56.986Z","","{""Q01"":""2"",""Q02"":""2"",""Q03"":""1""}","[0,1,2]","[""Q01"",""Q02"",""Q03""]","[2808,4112,5428.099999964237]","[]","[1681.8999999761581,2808,4112,5428.099999964237,6532.199999988079]","0.3333333333333333","0.5","0","stress","","","","","","","","","","","","","","","","","","","","","","","","","","","","","","",""
"7143","","","","instructions","5","53570","0.0-3.0-0.0","49","1","2025-07-16 08:20:09","1f75c3e559b7213887762d5229550c2b","80.192.212.91","Mozilla/5.0 (Macintosh; Intel Mac OS X 10_15_7) AppleWebKit/537.36 (KHTML, like Gecko) Chrome/137.0.0.0 Safari/537.36","Macintosh","Chrome","137.0.0.0","OS X","10_15_7","https://app.prolific.com/","en-GB,en-US;q=0.9,en;q=0.8","671a44d9d93641d1d9e96883","686e379bc37a29ffa5cdc956","687760a566868c1c61e4255f","1","1","671a44d9d93641d1d9e96883","1","1","","","","","","","","","","","","","[{""page_index"":0,""viewing_time"":7142}]","","","","","","","","","","","","","","","","","","","","","","","","","","","","","",""
"2323","","<p>Before you start with this game please answer the following three questions yourself. </p>
  <p>Through this game, we measure several aspects of your cognitive performance, such as reaction times, multi-tasking capabilities </p>
  <p>and the ability to assess the situation you are in.</p>
  <p></p>
  <p><b>How good do you usually are in such tasks?</b></p>","72","html-slider-response","6","55898","0.0-4.0-0.0","49","1","2025-07-16 08:20:09","1f75c3e559b7213887762d5229550c2b","80.192.212.91","Mozilla/5.0 (Macintosh; Intel Mac OS X 10_15_7) AppleWebKit/537.36 (KHTML, like Gecko) Chrome/137.0.0.0 Safari/537.36","Macintosh","Chrome","137.0.0.0","OS X","10_15_7","https://app.prolific.com/","en-GB,en-US;q=0.9,en;q=0.8","671a44d9d93641d1d9e96883","686e379bc37a29ffa5cdc956","687760a566868c1c61e4255f","1","1","671a44d9d93641d1d9e96883","1","1","2025-07-16T08:21:06.458Z","","","","","","","","","","","PreSkillQ","","50","","","","","","","","","","","","","","","","","","","","","","","","","","","","",""
"1534","","<div style=""width:500px;"">
  <p>How well do you think you will perform in this task compared to other participants?</p>
  </div>","65","html-slider-response","7","57434","0.0-4.0-1.0","49","1","2025-07-16 08:20:09","1f75c3e559b7213887762d5229550c2b","80.192.212.91","Mozilla/5.0 (Macintosh; Intel Mac OS X 10_15_7) AppleWebKit/537.36 (KHTML, like Gecko) Chrome/137.0.0.0 Safari/537.36","Macintosh","Chrome","137.0.0.0","OS X","10_15_7","https://app.prolific.com/","en-GB,en-US;q=0.9,en;q=0.8","671a44d9d93641d1d9e96883","686e379bc37a29ffa5cdc956","687760a566868c1c61e4255f","1","1","671a44d9d93641d1d9e96883","1","1","2025-07-16T08:21:07.994Z","","","","","","","","","","","PrePerfQ","","50","","","","","","","","","","","","","","","","","","","","","","","","","","","","",""
"2008","","<div style=""width:500px;"">
  <p>What best describes how you currently feel?</p>
  </div>","93","html-slider-response","8","59443","0.0-4.0-2.0","49","1","2025-07-16 08:20:09","1f75c3e559b7213887762d5229550c2b","80.192.212.91","Mozilla/5.0 (Macintosh; Intel Mac OS X 10_15_7) AppleWebKit/537.36 (KHTML, like Gecko) Chrome/137.0.0.0 Safari/537.36","Macintosh","Chrome","137.0.0.0","OS X","10_15_7","https://app.prolific.com/","en-GB,en-US;q=0.9,en;q=0.8","671a44d9d93641d1d9e96883","686e379bc37a29ffa5cdc956","687760a566868c1c61e4255f","1","1","671a44d9d93641d1d9e96883","1","1","2025-07-16T08:21:10.003Z","","","","","","","","","","","PreMotivationQ","","50","","","","","","","","","","","","","","","","","","","","","","","","","","","","",""
"","","","","ctl-task-cpt","9","92371","0.0-5.0-0.0","49","1","2025-07-16 08:20:09","1f75c3e559b7213887762d5229550c2b","80.192.212.91","Mozilla/5.0 (Macintosh; Intel Mac OS X 10_15_7) AppleWebKit/537.36 (KHTML, like Gecko) Chrome/137.0.0.0 Safari/537.36","Macintosh","Chrome","137.0.0.0","OS X","10_15_7","https://app.prolific.com/","en-GB,en-US;q=0.9,en;q=0.8","671a44d9d93641d1d9e96883","686e379bc37a29ffa5cdc956","687760a566868c1c61e4255f","1","1","671a44d9d93641d1d9e96883","1","1","2025-07-16T08:21:42.931Z","","","","","","","","","","","","","","win-only","3","g1:SW,g2:NE","1","1","0","60740.6","1156.7","6161.3","29913","1","4","4","6","2","4","4","4","0","0.030303030303030304","1368","3000","640","[""up"",""right""]","{""num_key_presses"":6,""num_perfect"":6,""num_errors"":0,""num_randdir"":0,""num_randdir_good_moves"":0,""num_whilered"":0,""num_whileblue"":0,""num_blue"":2,""num_good_moves"":6}","[440.79375,443.7,1.5,440.79375,443.7,104.7,440.79375,443.7,204.7,440.79375,443.7,305.2,441.79375,447.7,409.1,452.79375,453.7,509.4,334.79375,550.7,609.7,310.79375,592.7,714.4,230.79375,655.7,814.5,195.79375,708.7,914.7,720.79375,149.7,1019.6,811.79375,-16.299999999999997,1124.3,836.79375,-63.3,1224.6,813.79375,25.700000000000003,1329.8,812.79375,27.700000000000003,1434.8,812.79375,27.700000000000003,1535.3,774.79375,167.7,1638.8,757.79375,244.7,1739.4,757.79375,244.7,1839.7,757.79375,244.7,1941.3,757.79375,244.7,2044.3,757.79375,244.7,2145,757.79375,244.7,2249.8,757.79375,244.7,2350,757.79375,244.7,2450.2,757.79375,244.7,2555.5,757.79375,244.7,2659.2,757.79375,244.7,2759.4,757.79375,244.7,2865.2,757.79375,244.7,2970.1,757.79375,244.7,3075,757.79375,244.7,3179.1,757.79375,244.7,3279.1,757.79375,244.7,3381.1,757.79375,244.7,3485.1,757.79375,244.7,3585.3,757.79375,244.7,3689.4,757.79375,244.7,3789.5,757.79375,244.7,3893.7,757.79375,244.7,3994.2,757.79375,244.7,4094.2,757.79375,244.7,4194.2,757.79375,244.7,4294.3,757.79375,244.7,4399.5,757.79375,244.7,4505.3,757.79375,244.7,4609.3,757.79375,244.7,4714.4,757.79375,244.7,4814.8,757.79375,244.7,4914.8]","[1427.9,1427.9,1000,0,427.9,""smooth"",""right"",""right"",""good_move"",8258.8,6830.6,2522.2,5324.2,412.4,""smooth"",""up"",""up"",""good_move"",11906.7,3647.6,3225.7,8259.1,421.9,""smooth"",""right"",""right"",""good_move"",18457.3,6550.3,2721.7,15405.2,330.4,""smooth"",""right"",""right"",""good_move"",20796.3,2338.8,1873.9,18457.5,464.9,""smooth"",""up"",""up"",""good_move"",23659.7,2863.2,2485.2,20796.5,378.1,""smooth"",""up"",""up"",""good_move""]","",""
"10091","","<div style=""width:500px;"">
  <p>What determined the result of this run?</p>
  </div>","100","html-slider-response","10","102463","0.0-5.0-1.0","49","1","2025-07-16 08:20:09","1f75c3e559b7213887762d5229550c2b","80.192.212.91","Mozilla/5.0 (Macintosh; Intel Mac OS X 10_15_7) AppleWebKit/537.36 (KHTML, like Gecko) Chrome/137.0.0.0 Safari/537.36","Macintosh","Chrome","137.0.0.0","OS X","10_15_7","https://app.prolific.com/","en-GB,en-US;q=0.9,en;q=0.8","671a44d9d93641d1d9e96883","686e379bc37a29ffa5cdc956","687760a566868c1c61e4255f","1","1","671a44d9d93641d1d9e96883","1","1","2025-07-16T08:21:53.024Z","","","","","","","","","","","AttribQ","","50","","","","","","","","","","","","","","","","","","","","","","","","","","","","",""
"3333","","<div style=""width:500px;"">
  <p>How much control did you have over the ball?</p>
  </div>","95","html-slider-response","11","105798","0.0-5.0-2.0","49","1","2025-07-16 08:20:09","1f75c3e559b7213887762d5229550c2b","80.192.212.91","Mozilla/5.0 (Macintosh; Intel Mac OS X 10_15_7) AppleWebKit/537.36 (KHTML, like Gecko) Chrome/137.0.0.0 Safari/537.36","Macintosh","Chrome","137.0.0.0","OS X","10_15_7","https://app.prolific.com/","en-GB,en-US;q=0.9,en;q=0.8","671a44d9d93641d1d9e96883","686e379bc37a29ffa5cdc956","687760a566868c1c61e4255f","1","1","671a44d9d93641d1d9e96883","1","1","2025-07-16T08:21:56.359Z","","","","","","","","","","","ControlQ","","50","","","","","","","","","","","","","","","","","","","","","","","","","","","","",""
"1953","","<div style=""width:500px;"">
  <p>How would you describe your current emotional state?</p>
  </div>","3","html-slider-response","12","107753","0.0-5.0-3.0","49","1","2025-07-16 08:20:09","1f75c3e559b7213887762d5229550c2b","80.192.212.91","Mozilla/5.0 (Macintosh; Intel Mac OS X 10_15_7) AppleWebKit/537.36 (KHTML, like Gecko) Chrome/137.0.0.0 Safari/537.36","Macintosh","Chrome","137.0.0.0","OS X","10_15_7","https://app.prolific.com/","en-GB,en-US;q=0.9,en;q=0.8","671a44d9d93641d1d9e96883","686e379bc37a29ffa5cdc956","687760a566868c1c61e4255f","1","1","671a44d9d93641d1d9e96883","1","1","2025-07-16T08:21:58.313Z","","","","","","","","","","","StressQ","","50","","","","","","","","","","","","","","","","","","","","","","","","","","","","",""
"1121","","<div style=""width:500px;"">
  <p>What best describes how you currently feel?</p>
  </div>","98","html-slider-response","13","108875","0.0-5.0-4.0","49","1","2025-07-16 08:20:09","1f75c3e559b7213887762d5229550c2b","80.192.212.91","Mozilla/5.0 (Macintosh; Intel Mac OS X 10_15_7) AppleWebKit/537.36 (KHTML, like Gecko) Chrome/137.0.0.0 Safari/537.36","Macintosh","Chrome","137.0.0.0","OS X","10_15_7","https://app.prolific.com/","en-GB,en-US;q=0.9,en;q=0.8","671a44d9d93641d1d9e96883","686e379bc37a29ffa5cdc956","687760a566868c1c61e4255f","1","1","671a44d9d93641d1d9e96883","1","1","2025-07-16T08:21:59.435Z","","","","","","","","","","","MotivationQ","","50","","","","","","","","","","","","","","","","","","","","","","","","","","","","",""
"","","","","ctl-task-cpt","14","137130","0.0-5.0-0.1","49","1","2025-07-16 08:20:09","1f75c3e559b7213887762d5229550c2b","80.192.212.91","Mozilla/5.0 (Macintosh; Intel Mac OS X 10_15_7) AppleWebKit/537.36 (KHTML, like Gecko) Chrome/137.0.0.0 Safari/537.36","Macintosh","Chrome","137.0.0.0","OS X","10_15_7","https://app.prolific.com/","en-GB,en-US;q=0.9,en;q=0.8","671a44d9d93641d1d9e96883","686e379bc37a29ffa5cdc956","687760a566868c1c61e4255f","1","1","671a44d9d93641d1d9e96883","1","1","2025-07-16T08:22:27.690Z","","","","","","","","","","","","","","win-only","2","g1:SE,g2:NW","0.9","2","0","110168","1788.7","6791.5","25246.7","1","4","8","6","2","8","8","12","4","0.09090909090909091","1199.9","3000","640","[""left"",""up""]","{""num_key_presses"":6,""num_perfect"":5,""num_errors"":0,""num_randdir"":1,""num_randdir_good_moves"":1,""num_whilered"":0,""num_whileblue"":0,""num_blue"":1,""num_good_moves"":6}","[440.79375,439.7,0.2,440.79375,439.7,102.6,440.79375,439.7,203.5,423.79375,440.7,307.3,422.79375,440.7,409,422.79375,433.7,511.9,408.79375,434.7,611.9,219.79375,338.7,712.5,270.79375,332.7,816.9,275.79375,331.7,917.3,191.79375,199.7,1017.5,107.79375,115.7,1125.7,83.79375,97.7,1226.9,83.79375,97.7,1327.3,83.79375,97.7,1427.9,83.79375,97.7,1533.1,83.79375,97.7,1637.6,83.79375,97.7,1738.2,83.79375,97.7,1843.3,83.79375,97.7,1943.6,83.79375,97.7,2047.3,83.79375,97.7,2147.6,83.79375,97.7,2247.7,83.79375,97.7,2347.8,83.79375,97.7,2452.8,83.79375,97.7,2552.9,83.79375,97.7,2656.8,83.79375,97.7,2757.1,83.79375,97.7,2858.4,83.79375,97.7,2963.9,83.79375,97.7,3067,83.79375,97.7,3167.5,83.79375,97.7,3272.7,83.79375,97.7,3372.7,83.79375,97.7,3479,83.79375,97.7,3579,83.79375,97.7,3682.4,83.79375,97.7,3786.8,83.79375,97.7,3887.2,83.79375,97.7,3987.4,83.79375,97.7,4087.8,83.79375,97.7,4191.9,83.79375,97.7,4297.1,83.79375,97.7,4397.6,83.79375,97.7,4497.6,83.79375,97.7,4597.7,83.79375,97.7,4702.4,83.79375,97.7,4802.7,83.79375,97.7,4907.2]","[1401,1401,1000,0,401,""smooth"",""left"",""left"",""good_move"",4431.1,3029.7,2586.1,1401.4,443.6,""smooth"",""up"",""up"",""good_move"",7163.3,2731.9,2250.8,4431.4,481.1,""smooth"",""up"",""up"",""good_move"",9333.3,2169.8,1825.2,7163.5,344.6,""smooth"",""up"",""up"",""good_move"",12440.3,3106.8,2728.8,9333.6,377.9,""oops"",""left"",""left"",""good_move"",18367.2,5926.7,2248.4,15779.1,339.7,""smooth"",""left"",""left"",""good_move""]","",""
"1919","","<div style=""width:500px;"">
  <p>What determined the result of this run?</p>
  </div>","95","html-slider-response","15","139050","0.0-5.0-1.1","49","1","2025-07-16 08:20:09","1f75c3e559b7213887762d5229550c2b","80.192.212.91","Mozilla/5.0 (Macintosh; Intel Mac OS X 10_15_7) AppleWebKit/537.36 (KHTML, like Gecko) Chrome/137.0.0.0 Safari/537.36","Macintosh","Chrome","137.0.0.0","OS X","10_15_7","https://app.prolific.com/","en-GB,en-US;q=0.9,en;q=0.8","671a44d9d93641d1d9e96883","686e379bc37a29ffa5cdc956","687760a566868c1c61e4255f","1","1","671a44d9d93641d1d9e96883","1","1","2025-07-16T08:22:29.610Z","","","","","","","","","","","AttribQ","","50","","","","","","","","","","","","","","","","","","","","","","","","","","","","",""
"1306","","<div style=""width:500px;"">
  <p>How much control did you have over the ball?</p>
  </div>","92","html-slider-response","16","140357","0.0-5.0-2.1","49","1","2025-07-16 08:20:09","1f75c3e559b7213887762d5229550c2b","80.192.212.91","Mozilla/5.0 (Macintosh; Intel Mac OS X 10_15_7) AppleWebKit/537.36 (KHTML, like Gecko) Chrome/137.0.0.0 Safari/537.36","Macintosh","Chrome","137.0.0.0","OS X","10_15_7","https://app.prolific.com/","en-GB,en-US;q=0.9,en;q=0.8","671a44d9d93641d1d9e96883","686e379bc37a29ffa5cdc956","687760a566868c1c61e4255f","1","1","671a44d9d93641d1d9e96883","1","1","2025-07-16T08:22:30.917Z","","","","","","","","","","","ControlQ","","50","","","","","","","","","","","","","","","","","","","","","","","","","","","","",""
"1779","","<div style=""width:500px;"">
  <p>How would you describe your current emotional state?</p>
  </div>","9","html-slider-response","17","142137","0.0-5.0-3.1","49","1","2025-07-16 08:20:09","1f75c3e559b7213887762d5229550c2b","80.192.212.91","Mozilla/5.0 (Macintosh; Intel Mac OS X 10_15_7) AppleWebKit/537.36 (KHTML, like Gecko) Chrome/137.0.0.0 Safari/537.36","Macintosh","Chrome","137.0.0.0","OS X","10_15_7","https://app.prolific.com/","en-GB,en-US;q=0.9,en;q=0.8","671a44d9d93641d1d9e96883","686e379bc37a29ffa5cdc956","687760a566868c1c61e4255f","1","1","671a44d9d93641d1d9e96883","1","1","2025-07-16T08:22:32.697Z","","","","","","","","","","","StressQ","","50","","","","","","","","","","","","","","","","","","","","","","","","","","","","",""
"1711","","<div style=""width:500px;"">
  <p>What best describes how you currently feel?</p>
  </div>","98","html-slider-response","18","143849","0.0-5.0-4.1","49","1","2025-07-16 08:20:09","1f75c3e559b7213887762d5229550c2b","80.192.212.91","Mozilla/5.0 (Macintosh; Intel Mac OS X 10_15_7) AppleWebKit/537.36 (KHTML, like Gecko) Chrome/137.0.0.0 Safari/537.36","Macintosh","Chrome","137.0.0.0","OS X","10_15_7","https://app.prolific.com/","en-GB,en-US;q=0.9,en;q=0.8","671a44d9d93641d1d9e96883","686e379bc37a29ffa5cdc956","687760a566868c1c61e4255f","1","1","671a44d9d93641d1d9e96883","1","1","2025-07-16T08:22:34.409Z","","","","","","","","","","","MotivationQ","","50","","","","","","","","","","","","","","","","","","","","","","","","","","","","",""
"","","","","ctl-task-cpt","19","176513","0.0-5.0-0.2","49","1","2025-07-16 08:20:09","1f75c3e559b7213887762d5229550c2b","80.192.212.91","Mozilla/5.0 (Macintosh; Intel Mac OS X 10_15_7) AppleWebKit/537.36 (KHTML, like Gecko) Chrome/137.0.0.0 Safari/537.36","Macintosh","Chrome","137.0.0.0","OS X","10_15_7","https://app.prolific.com/","en-GB,en-US;q=0.9,en;q=0.8","671a44d9d93641d1d9e96883","686e379bc37a29ffa5cdc956","687760a566868c1c61e4255f","1","1","671a44d9d93641d1d9e96883","1","1","2025-07-16T08:23:07.073Z","","","","","","","","","","","","","","win-only","3","g1:SW,g2:NE","0.8","3","0","145144.4","973.6","5975.7","29652.6","1","4","8","6","2","-8","-8","4","12","0.030303030303030304","911.1","3000","-2890","[""up"",""right""]","{""num_key_presses"":7,""num_perfect"":5,""num_errors"":0,""num_randdir"":2,""num_randdir_good_moves"":1,""num_whilered"":0,""num_whileblue"":0,""num_blue"":1,""num_good_moves"":6}","[450.79375,440.7,0.1,450.79375,440.7,102.6,450.79375,440.7,207.1,447.79375,442.7,309.8,447.79375,442.7,409.9,460.79375,452.7,511.6,754.79375,241.7,611.8,921.79375,52.7,713.1,852.79375,44.7,817.9,832.79375,51.7,923.3,832.79375,51.7,1023.4,832.79375,51.7,1123.6,832.79375,51.7,1224.5,832.79375,51.7,1326.5,832.79375,51.7,1426.8,832.79375,51.7,1527.1,832.79375,51.7,1630.2,832.79375,51.7,1732,832.79375,51.7,1832.3,832.79375,51.7,1937.6,832.79375,51.7,2041.9,832.79375,51.7,2142.2,832.79375,51.7,2246.3,832.79375,51.7,2347.3,832.79375,51.7,2447.8,832.79375,51.7,2551.6,832.79375,51.7,2652.6,832.79375,51.7,2759,832.79375,51.7,2859.6,832.79375,51.7,2962.4,832.79375,51.7,3062.7,832.79375,51.7,3167.1,832.79375,51.7,3272.5,832.79375,51.7,3379.3,832.79375,51.7,3482.2,832.79375,51.7,3582.8,832.79375,51.7,3687.4,832.79375,51.7,3787.4,832.79375,51.7,3892.7,832.79375,51.7,3993.5,832.79375,51.7,4097.6,832.79375,51.7,4197.8,832.79375,51.7,4297.9,832.79375,51.7,4402,832.79375,51.7,4502.1,832.79375,51.7,4602.1,832.79375,51.7,4702.7,832.79375,51.7,4807.8,832.79375,51.7,4915.2]","[4979.9,4979.9,2487.9,2005.5,486.5,""oops"",""right"",""down"",""bad_move"",7205.6,2225.1,1804.8,4980.5,420.3,""smooth"",""right"",""right"",""good_move"",9999.2,2793.3,2492.2,7205.9,301.1,""smooth"",""right"",""right"",""good_move"",12699.6,2700.2,2280,9999.4,420.2,""oops"",""right"",""right"",""good_move"",15708.7,3009,2671.8,12699.7,337.2,""smooth"",""up"",""up"",""good_move"",18954.7,3245.5,2551.1,15709.2,694.4,""smooth"",""up"",""up"",""good_move"",21579.2,2624.3,2300.5,18954.9,323.8,""smooth"",""up"",""up"",""good_move""]","",""
"1797","","<div style=""width:500px;"">
  <p>What determined the result of this run?</p>
  </div>","73","html-slider-response","20","178311","0.0-5.0-1.2","49","1","2025-07-16 08:20:09","1f75c3e559b7213887762d5229550c2b","80.192.212.91","Mozilla/5.0 (Macintosh; Intel Mac OS X 10_15_7) AppleWebKit/537.36 (KHTML, like Gecko) Chrome/137.0.0.0 Safari/537.36","Macintosh","Chrome","137.0.0.0","OS X","10_15_7","https://app.prolific.com/","en-GB,en-US;q=0.9,en;q=0.8","671a44d9d93641d1d9e96883","686e379bc37a29ffa5cdc956","687760a566868c1c61e4255f","1","1","671a44d9d93641d1d9e96883","1","1","2025-07-16T08:23:08.871Z","","","","","","","","","","","AttribQ","","50","","","","","","","","","","","","","","","","","","","","","","","","","","","","",""
"1037","","<div style=""width:500px;"">
  <p>How much control did you have over the ball?</p>
  </div>","75","html-slider-response","21","179349","0.0-5.0-2.2","49","1","2025-07-16 08:20:09","1f75c3e559b7213887762d5229550c2b","80.192.212.91","Mozilla/5.0 (Macintosh; Intel Mac OS X 10_15_7) AppleWebKit/537.36 (KHTML, like Gecko) Chrome/137.0.0.0 Safari/537.36","Macintosh","Chrome","137.0.0.0","OS X","10_15_7","https://app.prolific.com/","en-GB,en-US;q=0.9,en;q=0.8","671a44d9d93641d1d9e96883","686e379bc37a29ffa5cdc956","687760a566868c1c61e4255f","1","1","671a44d9d93641d1d9e96883","1","1","2025-07-16T08:23:09.909Z","","","","","","","","","","","ControlQ","","50","","","","","","","","","","","","","","","","","","","","","","","","","","","","",""
"1663","","<div style=""width:500px;"">
  <p>How would you describe your current emotional state?</p>
  </div>","11","html-slider-response","22","181013","0.0-5.0-3.2","49","1","2025-07-16 08:20:09","1f75c3e559b7213887762d5229550c2b","80.192.212.91","Mozilla/5.0 (Macintosh; Intel Mac OS X 10_15_7) AppleWebKit/537.36 (KHTML, like Gecko) Chrome/137.0.0.0 Safari/537.36","Macintosh","Chrome","137.0.0.0","OS X","10_15_7","https://app.prolific.com/","en-GB,en-US;q=0.9,en;q=0.8","671a44d9d93641d1d9e96883","686e379bc37a29ffa5cdc956","687760a566868c1c61e4255f","1","1","671a44d9d93641d1d9e96883","1","1","2025-07-16T08:23:11.573Z","","","","","","","","","","","StressQ","","50","","","","","","","","","","","","","","","","","","","","","","","","","","","","",""
"1692","","<div style=""width:500px;"">
  <p>What best describes how you currently feel?</p>
  </div>","96","html-slider-response","23","182707","0.0-5.0-4.2","49","1","2025-07-16 08:20:09","1f75c3e559b7213887762d5229550c2b","80.192.212.91","Mozilla/5.0 (Macintosh; Intel Mac OS X 10_15_7) AppleWebKit/537.36 (KHTML, like Gecko) Chrome/137.0.0.0 Safari/537.36","Macintosh","Chrome","137.0.0.0","OS X","10_15_7","https://app.prolific.com/","en-GB,en-US;q=0.9,en;q=0.8","671a44d9d93641d1d9e96883","686e379bc37a29ffa5cdc956","687760a566868c1c61e4255f","1","1","671a44d9d93641d1d9e96883","1","1","2025-07-16T08:23:13.267Z","","","","","","","","","","","MotivationQ","","50","","","","","","","","","","","","","","","","","","","","","","","","","","","","",""
"","","","","ctl-task-cpt","24","220153","0.0-5.0-0.3","49","1","2025-07-16 08:20:09","1f75c3e559b7213887762d5229550c2b","80.192.212.91","Mozilla/5.0 (Macintosh; Intel Mac OS X 10_15_7) AppleWebKit/537.36 (KHTML, like Gecko) Chrome/137.0.0.0 Safari/537.36","Macintosh","Chrome","137.0.0.0","OS X","10_15_7","https://app.prolific.com/","en-GB,en-US;q=0.9,en;q=0.8","671a44d9d93641d1d9e96883","686e379bc37a29ffa5cdc956","687760a566868c1c61e4255f","1","1","671a44d9d93641d1d9e96883","1","1","2025-07-16T08:23:50.713Z","","","","","","","","","","","","","","win-only","0","g1:NW,g2:SE","0.7","4","0","184000","491.3","5491.6","34430.8","1","4","4","6","2","-4","-5","0","4","0","631.2","3000","-2655","[""down"",""right""]","{""num_key_presses"":10,""num_perfect"":6,""num_errors"":1,""num_randdir"":3,""num_randdir_good_moves"":1,""num_whilered"":0,""num_whileblue"":1,""num_blue"":1,""num_good_moves"":7}","[432.79375,445.7,0.2,432.79375,445.7,105.3,431.79375,447.7,209.9,372.79375,426.7,315,502.79375,556.7,415.3,773.79375,845.7,515.3,773.79375,845.7,618.5,773.79375,845.7,719.6,776.79375,842.7,820.2,776.79375,842.7,920.6,776.79375,842.7,1024.1,776.79375,842.7,1124.5,776.79375,842.7,1224.8,776.79375,842.7,1325.2,776.79375,842.7,1429.5,776.79375,842.7,1535.7,776.79375,842.7,1639.4,776.79375,842.7,1739.5,776.79375,842.7,1840.9,776.79375,842.7,1941.4,776.79375,842.7,2045.1,776.79375,842.7,2147.5,776.79375,842.7,2254.2,776.79375,842.7,2354.6,776.79375,842.7,2455.1,776.79375,842.7,2560.4,776.79375,842.7,2667.5,776.79375,842.7,2770,776.79375,842.7,2870.3,776.79375,842.7,2976.2,776.79375,842.7,3079.6,776.79375,842.7,3185,776.79375,842.7,3289.1,776.79375,842.7,3390,776.79375,842.7,3494.8,776.79375,842.7,3599.6,776.79375,842.7,3703.3,776.79375,842.7,3812.1,776.79375,842.7,3914.7,776.79375,842.7,4014.7,776.79375,842.7,4119.9,776.79375,842.7,4224.1,776.79375,842.7,4325.1,776.79375,842.7,4429.1,776.79375,842.7,4529.8,776.79375,842.7,4634.9,776.79375,842.7,4741.4,776.79375,842.7,4845.5,776.79375,842.7,4953.2]","[1329.8,1329.8,1000,0,329.8,""smooth"",""down"",""down"",""good_move"",4012.9,2682.7,2388.3,1330.2,294.4,""smooth"",""down"",""down"",""good_move"",6797.7,2783.7,2480.1,4014,303.6,""oops"",""right"",""down"",""good_move"",9057.8,2260,1945.5,6797.8,314.5,""smooth"",""right"",""right"",""good_move"",11487.7,2429.6,2104.3,9058.1,325.3,""smooth"",""right"",""right"",""good_move"",14468,2980.1,2488.1,11487.9,492,""oops"",""right"",""left"",""bad_move"",17613,3144.6,2849.5,14468.4,295.1,""smooth"",""right"",""right"",""good_move"",20225.3,2612.2,2328.6,17613.1,283.6,""oops"",""right"",""up"",""bad_move"",22587.3,2361.6,2076.2,20225.7,285.4,""smooth"",""right"",""right"",""good_move"",25596.6,3009.1,2697.2,22587.5,311.9,""while_blue"",""down"",""up"",""bad_move""]","",""
"1781","","<div style=""width:500px;"">
  <p>What determined the result of this run?</p>
  </div>","68","html-slider-response","25","221935","0.0-5.0-1.3","49","1","2025-07-16 08:20:09","1f75c3e559b7213887762d5229550c2b","80.192.212.91","Mozilla/5.0 (Macintosh; Intel Mac OS X 10_15_7) AppleWebKit/537.36 (KHTML, like Gecko) Chrome/137.0.0.0 Safari/537.36","Macintosh","Chrome","137.0.0.0","OS X","10_15_7","https://app.prolific.com/","en-GB,en-US;q=0.9,en;q=0.8","671a44d9d93641d1d9e96883","686e379bc37a29ffa5cdc956","687760a566868c1c61e4255f","1","1","671a44d9d93641d1d9e96883","1","1","2025-07-16T08:23:52.495Z","","","","","","","","","","","AttribQ","","50","","","","","","","","","","","","","","","","","","","","","","","","","","","","",""
"916","","<div style=""width:500px;"">
  <p>How much control did you have over the ball?</p>
  </div>","64","html-slider-response","26","222852","0.0-5.0-2.3","49","1","2025-07-16 08:20:09","1f75c3e559b7213887762d5229550c2b","80.192.212.91","Mozilla/5.0 (Macintosh; Intel Mac OS X 10_15_7) AppleWebKit/537.36 (KHTML, like Gecko) Chrome/137.0.0.0 Safari/537.36","Macintosh","Chrome","137.0.0.0","OS X","10_15_7","https://app.prolific.com/","en-GB,en-US;q=0.9,en;q=0.8","671a44d9d93641d1d9e96883","686e379bc37a29ffa5cdc956","687760a566868c1c61e4255f","1","1","671a44d9d93641d1d9e96883","1","1","2025-07-16T08:23:53.412Z","","","","","","","","","","","ControlQ","","50","","","","","","","","","","","","","","","","","","","","","","","","","","","","",""
"1503","","<div style=""width:500px;"">
  <p>How would you describe your current emotional state?</p>
  </div>","6","html-slider-response","27","224356","0.0-5.0-3.3","49","1","2025-07-16 08:20:09","1f75c3e559b7213887762d5229550c2b","80.192.212.91","Mozilla/5.0 (Macintosh; Intel Mac OS X 10_15_7) AppleWebKit/537.36 (KHTML, like Gecko) Chrome/137.0.0.0 Safari/537.36","Macintosh","Chrome","137.0.0.0","OS X","10_15_7","https://app.prolific.com/","en-GB,en-US;q=0.9,en;q=0.8","671a44d9d93641d1d9e96883","686e379bc37a29ffa5cdc956","687760a566868c1c61e4255f","1","1","671a44d9d93641d1d9e96883","1","1","2025-07-16T08:23:54.916Z","","","","","","","","","","","StressQ","","50","","","","","","","","","","","","","","","","","","","","","","","","","","","","",""
"879","","<div style=""width:500px;"">
  <p>What best describes how you currently feel?</p>
  </div>","97","html-slider-response","28","225237","0.0-5.0-4.3","49","1","2025-07-16 08:20:09","1f75c3e559b7213887762d5229550c2b","80.192.212.91","Mozilla/5.0 (Macintosh; Intel Mac OS X 10_15_7) AppleWebKit/537.36 (KHTML, like Gecko) Chrome/137.0.0.0 Safari/537.36","Macintosh","Chrome","137.0.0.0","OS X","10_15_7","https://app.prolific.com/","en-GB,en-US;q=0.9,en;q=0.8","671a44d9d93641d1d9e96883","686e379bc37a29ffa5cdc956","687760a566868c1c61e4255f","1","1","671a44d9d93641d1d9e96883","1","1","2025-07-16T08:23:55.797Z","","","","","","","","","","","MotivationQ","","50","","","","","","","","","","","","","","","","","","","","","","","","","","","","",""
"","","","","ctl-task-cpt","29","275468","0.0-5.0-0.4","49","1","2025-07-16 08:20:09","1f75c3e559b7213887762d5229550c2b","80.192.212.91","Mozilla/5.0 (Macintosh; Intel Mac OS X 10_15_7) AppleWebKit/537.36 (KHTML, like Gecko) Chrome/137.0.0.0 Safari/537.36","Macintosh","Chrome","137.0.0.0","OS X","10_15_7","https://app.prolific.com/","en-GB,en-US;q=0.9,en;q=0.8","671a44d9d93641d1d9e96883","686e379bc37a29ffa5cdc956","687760a566868c1c61e4255f","1","1","671a44d9d93641d1d9e96883","1","1","2025-07-16T08:24:46.028Z","","","","","","","","","","","","","","win-only","1","g1:NE,g2:SW","0.6","5","0","226531.5","538.8","5541.3","47187.9","1","4","4","6","2","-4","-8","0","0","0","968.1","3000","-2875","[""down"",""left""]","{""num_key_presses"":12,""num_perfect"":6,""num_errors"":4,""num_randdir"":2,""num_randdir_good_moves"":1,""num_whilered"":0,""num_whileblue"":1,""num_blue"":3,""num_good_moves"":7}","[443.79375,451.7,0.2,443.79375,451.7,103.3,442.79375,456.7,207.5,433.79375,481.7,308.9,465.79375,452.7,412.3,466.79375,419.7,517.1,164.79375,691.7,621.7,161.79375,740.7,722.4,161.79375,740.7,828.7,123.79375,785.7,932.4,111.79375,793.7,1032.8,111.79375,793.7,1135.8,111.79375,793.7,1236.6,111.79375,793.7,1342.1,111.79375,793.7,1447.7,111.79375,793.7,1552,111.79375,793.7,1652.5,111.79375,793.7,1758.4,111.79375,793.7,1863.3,111.79375,793.7,1967.1,111.79375,793.7,2067.5,111.79375,793.7,2167.6,111.79375,793.7,2272.9,111.79375,793.7,2377.6,111.79375,793.7,2479.3,111.79375,793.7,2581.9,111.79375,793.7,2682.8,111.79375,793.7,2786.8,111.79375,793.7,2889.1,111.79375,793.7,2993.4,111.79375,793.7,3097,111.79375,793.7,3202.1,111.79375,793.7,3306.6,111.79375,793.7,3407.6,111.79375,793.7,3511.7,111.79375,793.7,3612.8,111.79375,793.7,3755.8,111.79375,793.7,3861.1,111.79375,793.7,3965.6,111.79375,793.7,4067,111.79375,793.7,4171.6,111.79375,793.7,4273.3,111.79375,793.7,4376.9,111.79375,793.7,4478.7,111.79375,793.7,4581.6,111.79375,793.7,4681.6,111.79375,793.7,4781.6,111.79375,793.7,4882.3,111.79375,793.7,4987.5]","[1334.1,1334.1,1000,0,334.1,""smooth"",""down"",""down"",""good_move"",4142.9,2808.5,2468.2,1334.4,340.3,""smooth"",""down"",""down"",""good_move"",6974.3,2831.2,2405.4,4143.1,425.8,""smooth"",""left"",""left"",""good_move"",9266.3,2291.7,1932.3,6974.6,359.4,""smooth"",""left"",""left"",""good_move"",12467.4,3201,2858.3,9266.4,342.7,""smooth"",""left"",""left"",""good_move"",16031.7,3564.2,3231.5,12467.5,332.7,""oops"",""down"",""right"",""bad_move"",16158.5,126.6,1960.9,16031.9,-1834.3,""error"",""-"",""-"",""no_move"",19440,3281.3,1916.7,17159.2,364.1,""oops"",""left"",""left"",""good_move"",21228.2,1788,2335,19440.2,-547,""error"",""-"",""-"",""no_move"",22678,1449.6,2543.8,22229.9,-2095.7,""error"",""-"",""-"",""no_move"",30839.6,8161.3,3220.2,27284.9,334.5,""while_blue"",""down"",""up"",""bad_move"",38317.5,7477.7,3757.2,34194.5,365.8,""smooth"",""down"",""down"",""good_move""]","",""
"1723","","<div style=""width:500px;"">
  <p>What determined the result of this run?</p>
  </div>","53","html-slider-response","30","277192","0.0-5.0-1.4","49","1","2025-07-16 08:20:09","1f75c3e559b7213887762d5229550c2b","80.192.212.91","Mozilla/5.0 (Macintosh; Intel Mac OS X 10_15_7) AppleWebKit/537.36 (KHTML, like Gecko) Chrome/137.0.0.0 Safari/537.36","Macintosh","Chrome","137.0.0.0","OS X","10_15_7","https://app.prolific.com/","en-GB,en-US;q=0.9,en;q=0.8","671a44d9d93641d1d9e96883","686e379bc37a29ffa5cdc956","687760a566868c1c61e4255f","1","1","671a44d9d93641d1d9e96883","1","1","2025-07-16T08:24:47.752Z","","","","","","","","","","","AttribQ","","50","","","","","","","","","","","","","","","","","","","","","","","","","","","","",""
"1632","","<div style=""width:500px;"">
  <p>How much control did you have over the ball?</p>
  </div>","57","html-slider-response","31","278825","0.0-5.0-2.4","49","1","2025-07-16 08:20:09","1f75c3e559b7213887762d5229550c2b","80.192.212.91","Mozilla/5.0 (Macintosh; Intel Mac OS X 10_15_7) AppleWebKit/537.36 (KHTML, like Gecko) Chrome/137.0.0.0 Safari/537.36","Macintosh","Chrome","137.0.0.0","OS X","10_15_7","https://app.prolific.com/","en-GB,en-US;q=0.9,en;q=0.8","671a44d9d93641d1d9e96883","686e379bc37a29ffa5cdc956","687760a566868c1c61e4255f","1","1","671a44d9d93641d1d9e96883","1","1","2025-07-16T08:24:49.385Z","","","","","","","","","","","ControlQ","","50","","","","","","","","","","","","","","","","","","","","","","","","","","","","",""
"1528","","<div style=""width:500px;"">
  <p>How would you describe your current emotional state?</p>
  </div>","6","html-slider-response","32","280355","0.0-5.0-3.4","49","1","2025-07-16 08:20:09","1f75c3e559b7213887762d5229550c2b","80.192.212.91","Mozilla/5.0 (Macintosh; Intel Mac OS X 10_15_7) AppleWebKit/537.36 (KHTML, like Gecko) Chrome/137.0.0.0 Safari/537.36","Macintosh","Chrome","137.0.0.0","OS X","10_15_7","https://app.prolific.com/","en-GB,en-US;q=0.9,en;q=0.8","671a44d9d93641d1d9e96883","686e379bc37a29ffa5cdc956","687760a566868c1c61e4255f","1","1","671a44d9d93641d1d9e96883","1","1","2025-07-16T08:24:50.915Z","","","","","","","","","","","StressQ","","50","","","","","","","","","","","","","","","","","","","","","","","","","","","","",""
"937","","<div style=""width:500px;"">
  <p>What best describes how you currently feel?</p>
  </div>","91","html-slider-response","33","281292","0.0-5.0-4.4","49","1","2025-07-16 08:20:09","1f75c3e559b7213887762d5229550c2b","80.192.212.91","Mozilla/5.0 (Macintosh; Intel Mac OS X 10_15_7) AppleWebKit/537.36 (KHTML, like Gecko) Chrome/137.0.0.0 Safari/537.36","Macintosh","Chrome","137.0.0.0","OS X","10_15_7","https://app.prolific.com/","en-GB,en-US;q=0.9,en;q=0.8","671a44d9d93641d1d9e96883","686e379bc37a29ffa5cdc956","687760a566868c1c61e4255f","1","1","671a44d9d93641d1d9e96883","1","1","2025-07-16T08:24:51.852Z","","","","","","","","","","","MotivationQ","","50","","","","","","","","","","","","","","","","","","","","","","","","","","","","",""
"","","","","ctl-task-cpt","34","323869","0.0-5.0-0.5","49","1","2025-07-16 08:20:09","1f75c3e559b7213887762d5229550c2b","80.192.212.91","Mozilla/5.0 (Macintosh; Intel Mac OS X 10_15_7) AppleWebKit/537.36 (KHTML, like Gecko) Chrome/137.0.0.0 Safari/537.36","Macintosh","Chrome","137.0.0.0","OS X","10_15_7","https://app.prolific.com/","en-GB,en-US;q=0.9,en;q=0.8","671a44d9d93641d1d9e96883","686e379bc37a29ffa5cdc956","687760a566868c1c61e4255f","1","1","671a44d9d93641d1d9e96883","1","1","2025-07-16T08:25:34.429Z","","","","","","","","","","","","","","win-only","0","g1:NW,g2:SE","0.5","6","0","282558.2","745.5","5746","39566.6","1","4","8","6","2","-8","-9","0","0","0","1088.5","3000","-2675","[""down"",""right""]","{""num_key_presses"":10,""num_perfect"":5,""num_errors"":1,""num_randdir"":4,""num_randdir_good_moves"":1,""num_whilered"":0,""num_whileblue"":1,""num_blue"":2,""num_good_moves"":6}","[434.79375,437.7,0.3,434.79375,437.7,101.2,434.79375,437.7,201.9,434.79375,437.7,303.2,452.79375,468.7,405.8,452.79375,471.7,506.6,452.79375,471.7,610.6,453.79375,472.7,716.7,557.79375,571.7,817.9,716.79375,718.7,919.9,745.79375,730.7,1020.3,797.79375,771.7,1127.5,797.79375,772.7,1229.4,797.79375,772.7,1330.6,797.79375,772.7,1430.9,797.79375,772.7,1535.6,797.79375,772.7,1637.3,797.79375,772.7,1737.3,797.79375,772.7,1838.7,797.79375,772.7,1947.9,797.79375,772.7,2050.1,797.79375,772.7,2155.6,797.79375,772.7,2255.8,797.79375,772.7,2361.3,797.79375,772.7,2466.2,797.79375,772.7,2573.2,797.79375,772.7,2675.4,797.79375,772.7,2780.3,797.79375,772.7,2880.5,797.79375,772.7,2980.8,797.79375,772.7,3080.9,797.79375,772.7,3185.4,797.79375,772.7,3289.1,797.79375,772.7,3396.8,797.79375,772.7,3500.2,797.79375,772.7,3600.6,797.79375,772.7,3702.4,797.79375,772.7,3811.9,797.79375,772.7,3915.9,797.79375,772.7,4016,797.79375,772.7,4120.5,797.79375,772.7,4221,797.79375,772.7,4323.1,797.79375,772.7,4427,797.79375,772.7,4531.3,797.79375,772.7,4636.1,797.79375,772.7,4745.7,797.79375,772.7,4846.6,797.79375,772.7,4950.4]","[1373.2,1373.2,1000,0,373.2,""oops"",""down"",""left"",""bad_move"",7625.6,6252,2702.5,4565.8,357.3,""smooth"",""down"",""down"",""good_move"",10639.7,3013.9,2670,7625.8,343.9,""oops"",""down"",""left"",""bad_move"",14099.3,3459.3,3163.3,10640,296,""smooth"",""down"",""down"",""good_move"",17515.3,3415.8,3110.5,14099.5,305.3,""oops"",""down"",""right"",""good_move"",19963.5,2448,2193.3,17515.6,254.6,""while_blue"",""down"",""up"",""bad_move"",22818.4,2854.6,2480.2,19963.8,374.4,""smooth"",""down"",""down"",""good_move"",26248.6,3430.1,2930.8,22818.5,499.3,""smooth"",""down"",""down"",""good_move"",28848.6,2599.9,2273,26248.8,326.8,""oops"",""right"",""up"",""bad_move"",31238.3,2389.6,2052.6,28848.8,337,""smooth"",""right"",""right"",""good_move""]","",""
"1442","","<div style=""width:500px;"">
  <p>What determined the result of this run?</p>
  </div>","59","html-slider-response","35","325312","0.0-5.0-1.5","49","1","2025-07-16 08:20:09","1f75c3e559b7213887762d5229550c2b","80.192.212.91","Mozilla/5.0 (Macintosh; Intel Mac OS X 10_15_7) AppleWebKit/537.36 (KHTML, like Gecko) Chrome/137.0.0.0 Safari/537.36","Macintosh","Chrome","137.0.0.0","OS X","10_15_7","https://app.prolific.com/","en-GB,en-US;q=0.9,en;q=0.8","671a44d9d93641d1d9e96883","686e379bc37a29ffa5cdc956","687760a566868c1c61e4255f","1","1","671a44d9d93641d1d9e96883","1","1","2025-07-16T08:25:35.872Z","","","","","","","","","","","AttribQ","","50","","","","","","","","","","","","","","","","","","","","","","","","","","","","",""
"1637","","<div style=""width:500px;"">
  <p>How much control did you have over the ball?</p>
  </div>","58","html-slider-response","36","326950","0.0-5.0-2.5","49","1","2025-07-16 08:20:09","1f75c3e559b7213887762d5229550c2b","80.192.212.91","Mozilla/5.0 (Macintosh; Intel Mac OS X 10_15_7) AppleWebKit/537.36 (KHTML, like Gecko) Chrome/137.0.0.0 Safari/537.36","Macintosh","Chrome","137.0.0.0","OS X","10_15_7","https://app.prolific.com/","en-GB,en-US;q=0.9,en;q=0.8","671a44d9d93641d1d9e96883","686e379bc37a29ffa5cdc956","687760a566868c1c61e4255f","1","1","671a44d9d93641d1d9e96883","1","1","2025-07-16T08:25:37.510Z","","","","","","","","","","","ControlQ","","50","","","","","","","","","","","","","","","","","","","","","","","","","","","","",""
"1388","","<div style=""width:500px;"">
  <p>How would you describe your current emotional state?</p>
  </div>","8","html-slider-response","37","328338","0.0-5.0-3.5","49","1","2025-07-16 08:20:09","1f75c3e559b7213887762d5229550c2b","80.192.212.91","Mozilla/5.0 (Macintosh; Intel Mac OS X 10_15_7) AppleWebKit/537.36 (KHTML, like Gecko) Chrome/137.0.0.0 Safari/537.36","Macintosh","Chrome","137.0.0.0","OS X","10_15_7","https://app.prolific.com/","en-GB,en-US;q=0.9,en;q=0.8","671a44d9d93641d1d9e96883","686e379bc37a29ffa5cdc956","687760a566868c1c61e4255f","1","1","671a44d9d93641d1d9e96883","1","1","2025-07-16T08:25:38.898Z","","","","","","","","","","","StressQ","","50","","","","","","","","","","","","","","","","","","","","","","","","","","","","",""
"913","","<div style=""width:500px;"">
  <p>What best describes how you currently feel?</p>
  </div>","98","html-slider-response","38","329252","0.0-5.0-4.5","49","1","2025-07-16 08:20:09","1f75c3e559b7213887762d5229550c2b","80.192.212.91","Mozilla/5.0 (Macintosh; Intel Mac OS X 10_15_7) AppleWebKit/537.36 (KHTML, like Gecko) Chrome/137.0.0.0 Safari/537.36","Macintosh","Chrome","137.0.0.0","OS X","10_15_7","https://app.prolific.com/","en-GB,en-US;q=0.9,en;q=0.8","671a44d9d93641d1d9e96883","686e379bc37a29ffa5cdc956","687760a566868c1c61e4255f","1","1","671a44d9d93641d1d9e96883","1","1","2025-07-16T08:25:39.812Z","","","","","","","","","","","MotivationQ","","50","","","","","","","","","","","","","","","","","","","","","","","","","","","","",""
"","","","","ctl-task-cpt","39","354763","0.0-5.0-0.6","49","1","2025-07-16 08:20:09","1f75c3e559b7213887762d5229550c2b","80.192.212.91","Mozilla/5.0 (Macintosh; Intel Mac OS X 10_15_7) AppleWebKit/537.36 (KHTML, like Gecko) Chrome/137.0.0.0 Safari/537.36","Macintosh","Chrome","137.0.0.0","OS X","10_15_7","https://app.prolific.com/","en-GB,en-US;q=0.9,en;q=0.8","671a44d9d93641d1d9e96883","686e379bc37a29ffa5cdc956","687760a566868c1c61e4255f","1","1","671a44d9d93641d1d9e96883","1","1","2025-07-16T08:26:05.323Z","","","","","","","","","","","","","","win-only","2","g1:SE,g2:NW","0.4","7","0","330517.3","1001.9","6006.5","22505.3","1","4","4","6","2","4","4","4","0","0.030303030303030304","974.4","3000","1090","[""left"",""up""]","{""num_key_presses"":6,""num_perfect"":3,""num_errors"":0,""num_randdir"":3,""num_randdir_good_moves"":3,""num_whilered"":0,""num_whileblue"":0,""num_blue"":0,""num_good_moves"":6}","[428.79375,438.7,0.2,428.79375,438.7,115.9,428.79375,438.7,219,428.79375,438.7,319.4,377.79375,397.7,419.8,400.79375,430.7,524.1,168.79375,203.7,624.1,-48.20625,70.7,724.4,-29.206249999999997,49.7,824.6,9.793750000000003,65.7,934.2,32.79375,76.7,1034.9,32.79375,76.7,1139.1,32.79375,76.7,1245.8,32.79375,76.7,1349.3,32.79375,76.7,1453.9,32.79375,76.7,1558.6,32.79375,76.7,1658.5,32.79375,76.7,1763.9,32.79375,76.7,1865.7,32.79375,76.7,1968.9,32.79375,76.7,2073.8,32.79375,76.7,2175,32.79375,76.7,2285.9,32.79375,76.7,2389,32.79375,76.7,2493.3,32.79375,76.7,2593.9,32.79375,76.7,2700.9,32.79375,76.7,2803.5,32.79375,76.7,2907.9,32.79375,76.7,3008.9,32.79375,76.7,3113.9,32.79375,76.7,3214.8,32.79375,76.7,3318.7,32.79375,76.7,3423.2,32.79375,76.7,3524,32.79375,76.7,3624.8,32.79375,76.7,3731.3,32.79375,76.7,3831.9,32.79375,76.7,3933.1,32.79375,76.7,4034.3,32.79375,76.7,4139.4,32.79375,76.7,4244.8,32.79375,76.7,4354.3,32.79375,76.7,4458.4,32.79375,76.7,4567.7,32.79375,76.7,4670.2,32.79375,76.7,4773.5,32.79375,76.7,4874.3,32.79375,76.7,4980]","[1367.5,1367.5,1000,0,367.5,""oops"",""left"",""up"",""good_move"",4287.3,2919.4,2560.2,1367.9,359.2,""smooth"",""left"",""left"",""good_move"",7286.2,2998.7,2718.6,4287.6,280,""oops"",""left"",""up"",""good_move"",10723.2,3436.8,2951.1,7286.4,485.7,""oops"",""left"",""left"",""good_move"",14012.3,3288.9,2997.2,10723.4,291.7,""smooth"",""left"",""left"",""good_move"",16406.9,2394.4,2081.4,14012.5,313,""smooth"",""up"",""up"",""good_move""]","",""
"2507","","<div style=""width:500px;"">
  <p>What determined the result of this run?</p>
  </div>","86","html-slider-response","40","357271","0.0-5.0-1.6","49","1","2025-07-16 08:20:09","1f75c3e559b7213887762d5229550c2b","80.192.212.91","Mozilla/5.0 (Macintosh; Intel Mac OS X 10_15_7) AppleWebKit/537.36 (KHTML, like Gecko) Chrome/137.0.0.0 Safari/537.36","Macintosh","Chrome","137.0.0.0","OS X","10_15_7","https://app.prolific.com/","en-GB,en-US;q=0.9,en;q=0.8","671a44d9d93641d1d9e96883","686e379bc37a29ffa5cdc956","687760a566868c1c61e4255f","1","1","671a44d9d93641d1d9e96883","1","1","2025-07-16T08:26:07.831Z","","","","","","","","","","","AttribQ","","50","","","","","","","","","","","","","","","","","","","","","","","","","","","","",""
"930","","<div style=""width:500px;"">
  <p>How much control did you have over the ball?</p>
  </div>","86","html-slider-response","41","358202","0.0-5.0-2.6","49","1","2025-07-16 08:20:09","1f75c3e559b7213887762d5229550c2b","80.192.212.91","Mozilla/5.0 (Macintosh; Intel Mac OS X 10_15_7) AppleWebKit/537.36 (KHTML, like Gecko) Chrome/137.0.0.0 Safari/537.36","Macintosh","Chrome","137.0.0.0","OS X","10_15_7","https://app.prolific.com/","en-GB,en-US;q=0.9,en;q=0.8","671a44d9d93641d1d9e96883","686e379bc37a29ffa5cdc956","687760a566868c1c61e4255f","1","1","671a44d9d93641d1d9e96883","1","1","2025-07-16T08:26:08.762Z","","","","","","","","","","","ControlQ","","50","","","","","","","","","","","","","","","","","","","","","","","","","","","","",""
"1013","","<div style=""width:500px;"">
  <p>How would you describe your current emotional state?</p>
  </div>","6","html-slider-response","42","359215","0.0-5.0-3.6","49","1","2025-07-16 08:20:09","1f75c3e559b7213887762d5229550c2b","80.192.212.91","Mozilla/5.0 (Macintosh; Intel Mac OS X 10_15_7) AppleWebKit/537.36 (KHTML, like Gecko) Chrome/137.0.0.0 Safari/537.36","Macintosh","Chrome","137.0.0.0","OS X","10_15_7","https://app.prolific.com/","en-GB,en-US;q=0.9,en;q=0.8","671a44d9d93641d1d9e96883","686e379bc37a29ffa5cdc956","687760a566868c1c61e4255f","1","1","671a44d9d93641d1d9e96883","1","1","2025-07-16T08:26:09.776Z","","","","","","","","","","","StressQ","","50","","","","","","","","","","","","","","","","","","","","","","","","","","","","",""
"949","","<div style=""width:500px;"">
  <p>What best describes how you currently feel?</p>
  </div>","94","html-slider-response","43","360165","0.0-5.0-4.6","49","1","2025-07-16 08:20:09","1f75c3e559b7213887762d5229550c2b","80.192.212.91","Mozilla/5.0 (Macintosh; Intel Mac OS X 10_15_7) AppleWebKit/537.36 (KHTML, like Gecko) Chrome/137.0.0.0 Safari/537.36","Macintosh","Chrome","137.0.0.0","OS X","10_15_7","https://app.prolific.com/","en-GB,en-US;q=0.9,en;q=0.8","671a44d9d93641d1d9e96883","686e379bc37a29ffa5cdc956","687760a566868c1c61e4255f","1","1","671a44d9d93641d1d9e96883","1","1","2025-07-16T08:26:10.725Z","","","","","","","","","","","MotivationQ","","50","","","","","","","","","","","","","","","","","","","","","","","","","","","","",""
"","","","","ctl-task-cpt","44","387343","0.0-5.0-0.7","49","1","2025-07-16 08:20:09","1f75c3e559b7213887762d5229550c2b","80.192.212.91","Mozilla/5.0 (Macintosh; Intel Mac OS X 10_15_7) AppleWebKit/537.36 (KHTML, like Gecko) Chrome/137.0.0.0 Safari/537.36","Macintosh","Chrome","137.0.0.0","OS X","10_15_7","https://app.prolific.com/","en-GB,en-US;q=0.9,en;q=0.8","671a44d9d93641d1d9e96883","686e379bc37a29ffa5cdc956","687760a566868c1c61e4255f","1","1","671a44d9d93641d1d9e96883","1","1","2025-07-16T08:26:37.903Z","","","","","","","","","","","","","","win-only","2","g1:SE,g2:NW","0.3","8","0","361429.6","415.6","5416.5","24168.9","1","4","8","6","2","8","8","12","4","0.09090909090909091","605.2","3000","1260","[""left"",""up""]","{""num_key_presses"":6,""num_perfect"":3,""num_errors"":0,""num_randdir"":3,""num_randdir_good_moves"":3,""num_whilered"":0,""num_whileblue"":0,""num_blue"":1,""num_good_moves"":6}","[449.79375,454.7,0.2,449.79375,454.7,100.6,445.79375,440.7,206,433.79375,416.7,316.5,227.79375,240.7,420.8,87.79375,115.7,522.7,87.79375,109.7,626.2,87.79375,109.7,730.9,87.79375,109.7,836.9,87.79375,109.7,940.7,87.79375,109.7,1041.1,87.79375,109.7,1141.2,87.79375,109.7,1249.9,87.79375,109.7,1350.9,87.79375,109.7,1455.9,87.79375,109.7,1564.6,87.79375,109.7,1665.3,87.79375,109.7,1767.3,87.79375,109.7,1867.4,87.79375,109.7,1970.9,87.79375,109.7,2079.8,87.79375,109.7,2187.6,87.79375,109.7,2290.9,87.79375,109.7,2400.8,87.79375,109.7,2506.1,87.79375,109.7,2606.4,87.79375,109.7,2718.7,87.79375,109.7,2820.9,87.79375,109.7,2926.5,87.79375,109.7,3031.5,87.79375,109.7,3136,87.79375,109.7,3238.6,87.79375,109.7,3340.7,87.79375,109.7,3440.8,87.79375,109.7,3545.7,87.79375,109.7,3651,87.79375,109.7,3755.4,87.79375,109.7,3855.7,87.79375,109.7,3960.8,87.79375,109.7,4064,87.79375,109.7,4165,87.79375,109.7,4274.2,87.79375,109.7,4375.9,87.79375,109.7,4480.2,87.79375,109.7,4585.4,87.79375,109.7,4685.9,87.79375,109.7,4790.1,87.79375,109.7,4896.6]","[1356.9,1356.9,1000,0,356.9,""smooth"",""left"",""left"",""good_move"",4218.1,2861,2527.8,1357.3,333.1,""oops"",""left"",""up"",""good_move"",10144.2,5925.9,2356.6,7464.1,323.6,""oops"",""left"",""up"",""good_move"",13384.4,3240.1,2868.6,10144.3,371.5,""smooth"",""left"",""left"",""good_move"",16202.1,2817.5,2489.8,13384.6,327.7,""oops"",""left"",""up"",""good_move"",18661.8,2459.6,2181.3,16202.2,278.3,""smooth"",""left"",""left"",""good_move""]","",""
"1233","","<div style=""width:500px;"">
  <p>What determined the result of this run?</p>
  </div>","66","html-slider-response","45","388577","0.0-5.0-1.7","49","1","2025-07-16 08:20:09","1f75c3e559b7213887762d5229550c2b","80.192.212.91","Mozilla/5.0 (Macintosh; Intel Mac OS X 10_15_7) AppleWebKit/537.36 (KHTML, like Gecko) Chrome/137.0.0.0 Safari/537.36","Macintosh","Chrome","137.0.0.0","OS X","10_15_7","https://app.prolific.com/","en-GB,en-US;q=0.9,en;q=0.8","671a44d9d93641d1d9e96883","686e379bc37a29ffa5cdc956","687760a566868c1c61e4255f","1","1","671a44d9d93641d1d9e96883","1","1","2025-07-16T08:26:39.137Z","","","","","","","","","","","AttribQ","","50","","","","","","","","","","","","","","","","","","","","","","","","","","","","",""
"1053","","<div style=""width:500px;"">
  <p>How much control did you have over the ball?</p>
  </div>","58","html-slider-response","46","389631","0.0-5.0-2.7","49","1","2025-07-16 08:20:09","1f75c3e559b7213887762d5229550c2b","80.192.212.91","Mozilla/5.0 (Macintosh; Intel Mac OS X 10_15_7) AppleWebKit/537.36 (KHTML, like Gecko) Chrome/137.0.0.0 Safari/537.36","Macintosh","Chrome","137.0.0.0","OS X","10_15_7","https://app.prolific.com/","en-GB,en-US;q=0.9,en;q=0.8","671a44d9d93641d1d9e96883","686e379bc37a29ffa5cdc956","687760a566868c1c61e4255f","1","1","671a44d9d93641d1d9e96883","1","1","2025-07-16T08:26:40.191Z","","","","","","","","","","","ControlQ","","50","","","","","","","","","","","","","","","","","","","","","","","","","","","","",""
"1353","","<div style=""width:500px;"">
  <p>How would you describe your current emotional state?</p>
  </div>","0","html-slider-response","47","390985","0.0-5.0-3.7","49","1","2025-07-16 08:20:09","1f75c3e559b7213887762d5229550c2b","80.192.212.91","Mozilla/5.0 (Macintosh; Intel Mac OS X 10_15_7) AppleWebKit/537.36 (KHTML, like Gecko) Chrome/137.0.0.0 Safari/537.36","Macintosh","Chrome","137.0.0.0","OS X","10_15_7","https://app.prolific.com/","en-GB,en-US;q=0.9,en;q=0.8","671a44d9d93641d1d9e96883","686e379bc37a29ffa5cdc956","687760a566868c1c61e4255f","1","1","671a44d9d93641d1d9e96883","1","1","2025-07-16T08:26:41.545Z","","","","","","","","","","","StressQ","","50","","","","","","","","","","","","","","","","","","","","","","","","","","","","",""
"1164","","<div style=""width:500px;"">
  <p>What best describes how you currently feel?</p>
  </div>","98","html-slider-response","48","392149","0.0-5.0-4.7","49","1","2025-07-16 08:20:09","1f75c3e559b7213887762d5229550c2b","80.192.212.91","Mozilla/5.0 (Macintosh; Intel Mac OS X 10_15_7) AppleWebKit/537.36 (KHTML, like Gecko) Chrome/137.0.0.0 Safari/537.36","Macintosh","Chrome","137.0.0.0","OS X","10_15_7","https://app.prolific.com/","en-GB,en-US;q=0.9,en;q=0.8","671a44d9d93641d1d9e96883","686e379bc37a29ffa5cdc956","687760a566868c1c61e4255f","1","1","671a44d9d93641d1d9e96883","1","1","2025-07-16T08:26:42.709Z","","","","","","","","","","","MotivationQ","","50","","","","","","","","","","","","","","","","","","","","","","","","","","","","",""
"","","","","ctl-task-cpt","49","446615","0.0-5.0-0.8","49","1","2025-07-16 08:20:09","1f75c3e559b7213887762d5229550c2b","80.192.212.91","Mozilla/5.0 (Macintosh; Intel Mac OS X 10_15_7) AppleWebKit/537.36 (KHTML, like Gecko) Chrome/137.0.0.0 Safari/537.36","Macintosh","Chrome","137.0.0.0","OS X","10_15_7","https://app.prolific.com/","en-GB,en-US;q=0.9,en;q=0.8","671a44d9d93641d1d9e96883","686e379bc37a29ffa5cdc956","687760a566868c1c61e4255f","1","1","671a44d9d93641d1d9e96883","1","1","2025-07-16T08:27:37.175Z","","","","","","","","","","","","","","win-only","1","g1:NE,g2:SW","0.2","9","0","393414.4","736.5","5742.7","51455.5","1","4","4","6","2","-4","-4","8","12","0.06060606060606061","764","3000","-2460","[""down"",""left""]","{""num_key_presses"":11,""num_perfect"":3,""num_errors"":0,""num_randdir"":8,""num_randdir_good_moves"":5,""num_whilered"":0,""num_whileblue"":0,""num_blue"":4,""num_good_moves"":8}","[442.79375,439.7,0.3,442.79375,439.7,104.5,442.79375,439.7,208.6,442.79375,439.7,310.7,570.79375,340.7,415.3,212.79375,522.7,520.4,107.79375,758.7,623.5,70.79375,846.7,725.6,68.79375,850.7,833.7,68.79375,850.7,940.7,68.79375,850.7,1044.3,68.79375,850.7,1145,68.79375,850.7,1245,68.79375,850.7,1351.3,68.79375,850.7,1459.4,68.79375,850.7,1560.5,68.79375,850.7,1664.7,68.79375,850.7,1769.6,68.79375,850.7,1869.9,68.79375,850.7,1976.1,68.79375,850.7,2079.3,68.79375,850.7,2179.9,68.79375,850.7,2284.8,68.79375,850.7,2385.8,68.79375,850.7,2487.4,68.79375,850.7,2589.4,68.79375,850.7,2693.9,68.79375,850.7,2799.6,68.79375,850.7,2901,68.79375,850.7,3004.1,68.79375,850.7,3108.1,68.79375,850.7,3209.4,68.79375,850.7,3310.4,68.79375,850.7,3414.3,68.79375,850.7,3514.6,68.79375,850.7,3615.9,68.79375,850.7,3716.6,68.79375,850.7,3825.9,68.79375,850.7,3929.2,68.79375,850.7,4030.4,68.79375,850.7,4142,68.79375,850.7,4244.1,68.79375,850.7,4344.6,68.79375,850.7,4444.6,68.79375,850.7,4554.1,68.79375,850.7,4659.5,68.79375,850.7,4768,68.79375,850.7,4869,68.79375,850.7,4969]","[5451.9,5451.9,3140.6,2008.1,303.2,""oops"",""down"",""right"",""bad_move"",8199.7,2747.6,2447,5452.2,300.6,""oops"",""down"",""left"",""good_move"",11417.3,3217.4,2899.5,8200,317.9,""smooth"",""down"",""down"",""good_move"",16780.5,5362.9,2116.9,14328.1,335.5,""oops"",""down"",""left"",""good_move"",19447.3,2666.6,2364.3,16780.7,302.3,""oops"",""down"",""down"",""good_move"",23029.8,3582.2,3277.1,19447.6,305.1,""oops"",""left"",""down"",""good_move"",25810.4,2780.3,2476.5,23030.1,303.9,""smooth"",""left"",""left"",""good_move"",34620.5,8809.9,2092.1,32192.5,335.9,""oops"",""left"",""right"",""bad_move"",37871.9,3251.1,2887.5,34620.8,363.6,""oops"",""left"",""left"",""good_move"",41037.6,3165.4,2857.5,37872.2,307.9,""oops"",""left"",""right"",""bad_move"",43699.6,2661.8,2365.3,41037.8,296.5,""smooth"",""left"",""left"",""good_move""]","",""
"2065","","<div style=""width:500px;"">
  <p>What determined the result of this run?</p>
  </div>","42","html-slider-response","50","448681","0.0-5.0-1.8","49","1","2025-07-16 08:20:09","1f75c3e559b7213887762d5229550c2b","80.192.212.91","Mozilla/5.0 (Macintosh; Intel Mac OS X 10_15_7) AppleWebKit/537.36 (KHTML, like Gecko) Chrome/137.0.0.0 Safari/537.36","Macintosh","Chrome","137.0.0.0","OS X","10_15_7","https://app.prolific.com/","en-GB,en-US;q=0.9,en;q=0.8","671a44d9d93641d1d9e96883","686e379bc37a29ffa5cdc956","687760a566868c1c61e4255f","1","1","671a44d9d93641d1d9e96883","1","1","2025-07-16T08:27:39.241Z","","","","","","","","","","","AttribQ","","50","","","","","","","","","","","","","","","","","","","","","","","","","","","","",""
"1083","","<div style=""width:500px;"">
  <p>How much control did you have over the ball?</p>
  </div>","42","html-slider-response","51","449765","0.0-5.0-2.8","49","1","2025-07-16 08:20:09","1f75c3e559b7213887762d5229550c2b","80.192.212.91","Mozilla/5.0 (Macintosh; Intel Mac OS X 10_15_7) AppleWebKit/537.36 (KHTML, like Gecko) Chrome/137.0.0.0 Safari/537.36","Macintosh","Chrome","137.0.0.0","OS X","10_15_7","https://app.prolific.com/","en-GB,en-US;q=0.9,en;q=0.8","671a44d9d93641d1d9e96883","686e379bc37a29ffa5cdc956","687760a566868c1c61e4255f","1","1","671a44d9d93641d1d9e96883","1","1","2025-07-16T08:27:40.325Z","","","","","","","","","","","ControlQ","","50","","","","","","","","","","","","","","","","","","","","","","","","","","","","",""
"1430","","<div style=""width:500px;"">
  <p>How would you describe your current emotional state?</p>
  </div>","6","html-slider-response","52","451196","0.0-5.0-3.8","49","1","2025-07-16 08:20:09","1f75c3e559b7213887762d5229550c2b","80.192.212.91","Mozilla/5.0 (Macintosh; Intel Mac OS X 10_15_7) AppleWebKit/537.36 (KHTML, like Gecko) Chrome/137.0.0.0 Safari/537.36","Macintosh","Chrome","137.0.0.0","OS X","10_15_7","https://app.prolific.com/","en-GB,en-US;q=0.9,en;q=0.8","671a44d9d93641d1d9e96883","686e379bc37a29ffa5cdc956","687760a566868c1c61e4255f","1","1","671a44d9d93641d1d9e96883","1","1","2025-07-16T08:27:41.756Z","","","","","","","","","","","StressQ","","50","","","","","","","","","","","","","","","","","","","","","","","","","","","","",""
"1106","","<div style=""width:500px;"">
  <p>What best describes how you currently feel?</p>
  </div>","96","html-slider-response","53","452303","0.0-5.0-4.8","49","1","2025-07-16 08:20:09","1f75c3e559b7213887762d5229550c2b","80.192.212.91","Mozilla/5.0 (Macintosh; Intel Mac OS X 10_15_7) AppleWebKit/537.36 (KHTML, like Gecko) Chrome/137.0.0.0 Safari/537.36","Macintosh","Chrome","137.0.0.0","OS X","10_15_7","https://app.prolific.com/","en-GB,en-US;q=0.9,en;q=0.8","671a44d9d93641d1d9e96883","686e379bc37a29ffa5cdc956","687760a566868c1c61e4255f","1","1","671a44d9d93641d1d9e96883","1","1","2025-07-16T08:27:42.863Z","","","","","","","","","","","MotivationQ","","50","","","","","","","","","","","","","","","","","","","","","","","","","","","","",""
"","","","","ctl-task-cpt","54","502241","0.0-5.0-0.9","49","1","2025-07-16 08:20:09","1f75c3e559b7213887762d5229550c2b","80.192.212.91","Mozilla/5.0 (Macintosh; Intel Mac OS X 10_15_7) AppleWebKit/537.36 (KHTML, like Gecko) Chrome/137.0.0.0 Safari/537.36","Macintosh","Chrome","137.0.0.0","OS X","10_15_7","https://app.prolific.com/","en-GB,en-US;q=0.9,en;q=0.8","671a44d9d93641d1d9e96883","686e379bc37a29ffa5cdc956","687760a566868c1c61e4255f","1","1","671a44d9d93641d1d9e96883","1","1","2025-07-16T08:28:32.801Z","","","","","","","","","","","","","","win-only","2","g1:SE,g2:NW","0.4","10","0","453568.6","703.7","5708.4","46927.1","1","4","8","6","2","-8","-11","0","8","0","683.1","3000","-2190","[""left"",""up""]","{""num_key_presses"":13,""num_perfect"":4,""num_errors"":3,""num_randdir"":6,""num_randdir_good_moves"":2,""num_whilered"":0,""num_whileblue"":3,""num_blue"":4,""num_good_moves"":8}","[446.79375,442.7,0.2,446.79375,442.7,105.6,441.79375,453.7,207.8,446.79375,465.7,307.9,451.79375,446.7,413.8,192.79375,192.7,516,137.79375,135.7,619.9,132.79375,133.7,724.5,132.79375,133.7,839.5,132.79375,133.7,942.7,132.79375,133.7,1043.8,132.79375,133.7,1149.3,132.79375,133.7,1250,132.79375,133.7,1353.6,132.79375,133.7,1457.4,132.79375,133.7,1567.7,132.79375,133.7,1671.7,132.79375,133.7,1775.7,132.79375,133.7,1879.3,132.79375,133.7,1984.8,132.79375,133.7,2086.3,132.79375,133.7,2187.7,132.79375,133.7,2288.5,132.79375,133.7,2390.8,132.79375,133.7,2491.9,132.79375,133.7,2603.9,132.79375,133.7,2705.7,132.79375,133.7,2808.4,132.79375,133.7,2908.7,132.79375,133.7,3013.6,132.79375,133.7,3123,132.79375,133.7,3223.8,132.79375,133.7,3324.7,132.79375,133.7,3439.3,132.79375,133.7,3542.8,132.79375,133.7,3648.3,132.79375,133.7,3755.3,132.79375,133.7,3856.7,132.79375,133.7,3958.5,132.79375,133.7,4062.3,132.79375,133.7,4171.1,132.79375,133.7,4273.9,132.79375,133.7,4377.2,132.79375,133.7,4478.1,132.79375,133.7,4579.4,132.79375,133.7,4690.3,132.79375,133.7,4794,132.79375,133.7,4894.4,132.79375,133.7,4998.6]","[1517,1517,1000,0,517,""smooth"",""left"",""left"",""good_move"",4480.4,2963,2640.3,1517.4,322.7,""while_blue"",""left"",""left"",""good_move"",7722.7,3242,2904.7,4480.7,337.3,""oops"",""up"",""down"",""bad_move"",10796.1,3073.2,2763,7722.9,310.2,""smooth"",""left"",""left"",""good_move"",14057.3,3261,2985.4,10796.3,275.6,""oops"",""up"",""up"",""good_move"",17058.4,3000.8,2707.8,14057.6,293,""smooth"",""up"",""up"",""good_move"",19378.8,2320.2,2006.7,17058.6,313.5,""while_blue"",""up"",""up"",""good_move"",25110.6,5731.7,2464.2,22294,352.4,""while_blue"",""up"",""down"",""bad_move"",27586.8,2475.9,2022.7,25110.9,453.2,""smooth"",""up"",""up"",""good_move"",30156.8,2569.8,2221.7,27587,348.1,""oops"",""up"",""down"",""bad_move"",32767.6,2610.6,2256,30157,354.6,""oops"",""up"",""up"",""good_move"",35861.3,3093.5,2632.2,32767.8,461.3,""oops"",""up"",""right"",""bad_move"",38521.1,2659.4,2301,35861.7,358.4,""oops"",""up"",""right"",""bad_move""]","",""
"1282","","<div style=""width:500px;"">
  <p>What determined the result of this run?</p>
  </div>","26","html-slider-response","55","503524","0.0-5.0-1.9","49","1","2025-07-16 08:20:09","1f75c3e559b7213887762d5229550c2b","80.192.212.91","Mozilla/5.0 (Macintosh; Intel Mac OS X 10_15_7) AppleWebKit/537.36 (KHTML, like Gecko) Chrome/137.0.0.0 Safari/537.36","Macintosh","Chrome","137.0.0.0","OS X","10_15_7","https://app.prolific.com/","en-GB,en-US;q=0.9,en;q=0.8","671a44d9d93641d1d9e96883","686e379bc37a29ffa5cdc956","687760a566868c1c61e4255f","1","1","671a44d9d93641d1d9e96883","1","1","2025-07-16T08:28:34.084Z","","","","","","","","","","","AttribQ","","50","","","","","","","","","","","","","","","","","","","","","","","","","","","","",""
"829","","<div style=""width:500px;"">
  <p>How much control did you have over the ball?</p>
  </div>","27","html-slider-response","56","504354","0.0-5.0-2.9","49","1","2025-07-16 08:20:09","1f75c3e559b7213887762d5229550c2b","80.192.212.91","Mozilla/5.0 (Macintosh; Intel Mac OS X 10_15_7) AppleWebKit/537.36 (KHTML, like Gecko) Chrome/137.0.0.0 Safari/537.36","Macintosh","Chrome","137.0.0.0","OS X","10_15_7","https://app.prolific.com/","en-GB,en-US;q=0.9,en;q=0.8","671a44d9d93641d1d9e96883","686e379bc37a29ffa5cdc956","687760a566868c1c61e4255f","1","1","671a44d9d93641d1d9e96883","1","1","2025-07-16T08:28:34.914Z","","","","","","","","","","","ControlQ","","50","","","","","","","","","","","","","","","","","","","","","","","","","","","","",""
"1349","","<div style=""width:500px;"">
  <p>How would you describe your current emotional state?</p>
  </div>","19","html-slider-response","57","505704","0.0-5.0-3.9","49","1","2025-07-16 08:20:09","1f75c3e559b7213887762d5229550c2b","80.192.212.91","Mozilla/5.0 (Macintosh; Intel Mac OS X 10_15_7) AppleWebKit/537.36 (KHTML, like Gecko) Chrome/137.0.0.0 Safari/537.36","Macintosh","Chrome","137.0.0.0","OS X","10_15_7","https://app.prolific.com/","en-GB,en-US;q=0.9,en;q=0.8","671a44d9d93641d1d9e96883","686e379bc37a29ffa5cdc956","687760a566868c1c61e4255f","1","1","671a44d9d93641d1d9e96883","1","1","2025-07-16T08:28:36.264Z","","","","","","","","","","","StressQ","","50","","","","","","","","","","","","","","","","","","","","","","","","","","","","",""
"1065","","<div style=""width:500px;"">
  <p>What best describes how you currently feel?</p>
  </div>","84","html-slider-response","58","506770","0.0-5.0-4.9","49","1","2025-07-16 08:20:09","1f75c3e559b7213887762d5229550c2b","80.192.212.91","Mozilla/5.0 (Macintosh; Intel Mac OS X 10_15_7) AppleWebKit/537.36 (KHTML, like Gecko) Chrome/137.0.0.0 Safari/537.36","Macintosh","Chrome","137.0.0.0","OS X","10_15_7","https://app.prolific.com/","en-GB,en-US;q=0.9,en;q=0.8","671a44d9d93641d1d9e96883","686e379bc37a29ffa5cdc956","687760a566868c1c61e4255f","1","1","671a44d9d93641d1d9e96883","1","1","2025-07-16T08:28:37.331Z","","","","","","","","","","","MotivationQ","","50","","","","","","","","","","","","","","","","","","","","","","","","","","","","",""
"","","","","ctl-task-cpt","59","547760","0.0-5.0-0.10","49","1","2025-07-16 08:20:09","1f75c3e559b7213887762d5229550c2b","80.192.212.91","Mozilla/5.0 (Macintosh; Intel Mac OS X 10_15_7) AppleWebKit/537.36 (KHTML, like Gecko) Chrome/137.0.0.0 Safari/537.36","Macintosh","Chrome","137.0.0.0","OS X","10_15_7","https://app.prolific.com/","en-GB,en-US;q=0.9,en;q=0.8","671a44d9d93641d1d9e96883","686e379bc37a29ffa5cdc956","687760a566868c1c61e4255f","1","1","671a44d9d93641d1d9e96883","1","1","2025-07-16T08:29:18.320Z","","","","","","","","","","","","","","win-only","0","g1:NW,g2:SE","0.5","11","0","508037","625.4","5631.2","37972.7","1","4","4","6","2","4","3","3","0","0.022727272727272728","921.4","3000","1085","[""down"",""right""]","{""num_key_presses"":8,""num_perfect"":5,""num_errors"":1,""num_randdir"":2,""num_randdir_good_moves"":1,""num_whilered"":0,""num_whileblue"":1,""num_blue"":4,""num_good_moves"":7}","[451.79375,444.7,0.2,451.79375,444.7,104.2,456.79375,445.7,208.2,359.79375,363.7,313.3,302.79375,330.7,419.4,695.79375,780.7,526.1,719.79375,819.7,633.6,719.79375,819.7,737.2,738.79375,819.7,837.6,743.79375,819.7,940.3,743.79375,819.7,1040.4,743.79375,819.7,1145.4,743.79375,819.7,1245.6,743.79375,819.7,1349.2,743.79375,819.7,1454.6,743.79375,819.7,1555.7,743.79375,819.7,1664.6,743.79375,819.7,1765,743.79375,819.7,1865.8,743.79375,819.7,1969.7,743.79375,819.7,2074.6,743.79375,819.7,2176.5,743.79375,819.7,2278.7,743.79375,819.7,2381.3,743.79375,819.7,2483.2,743.79375,819.7,2587.9,743.79375,819.7,2692.1,743.79375,819.7,2797.7,743.79375,819.7,2907.5,743.79375,819.7,3009.1,743.79375,819.7,3110.2,743.79375,819.7,3216.2,743.79375,819.7,3317.2,743.79375,819.7,3419.9,743.79375,819.7,3520.8,743.79375,819.7,3626.7,743.79375,819.7,3739.9,743.79375,819.7,3844.2,743.79375,819.7,3944.6,743.79375,819.7,4045.9,743.79375,819.7,4150.7,743.79375,819.7,4251,743.79375,819.7,4358.2,743.79375,819.7,4462,743.79375,819.7,4567,743.79375,819.7,4668,743.79375,819.7,4768.8,743.79375,819.7,4878.1,743.79375,819.7,4981.1]","[4590.7,4590.7,2245.8,2003.6,341.3,""while_blue"",""down"",""right"",""good_move"",11547.3,6956.3,3100.4,8065.5,381.4,""oops"",""down"",""left"",""bad_move"",17748.8,6201.2,1966.9,15312.6,469.3,""smooth"",""down"",""down"",""good_move"",21051.7,3302.7,2974.3,17749,328.4,""smooth"",""down"",""down"",""good_move"",24183.7,3131.9,2698.6,21051.8,433.3,""smooth"",""right"",""right"",""good_move"",27070.1,2886.1,2536.7,24184,349.4,""smooth"",""right"",""right"",""good_move"",29628.6,2558.1,2153.1,27070.5,405,""oops"",""right"",""right"",""good_move"",32221.4,2592.6,2273.3,29628.8,319.3,""smooth"",""down"",""down"",""good_move""]","",""
"1191","","<div style=""width:500px;"">
  <p>What determined the result of this run?</p>
  </div>","60","html-slider-response","60","548952","0.0-5.0-1.10","49","1","2025-07-16 08:20:09","1f75c3e559b7213887762d5229550c2b","80.192.212.91","Mozilla/5.0 (Macintosh; Intel Mac OS X 10_15_7) AppleWebKit/537.36 (KHTML, like Gecko) Chrome/137.0.0.0 Safari/537.36","Macintosh","Chrome","137.0.0.0","OS X","10_15_7","https://app.prolific.com/","en-GB,en-US;q=0.9,en;q=0.8","671a44d9d93641d1d9e96883","686e379bc37a29ffa5cdc956","687760a566868c1c61e4255f","1","1","671a44d9d93641d1d9e96883","1","1","2025-07-16T08:29:19.512Z","","","","","","","","","","","AttribQ","","50","","","","","","","","","","","","","","","","","","","","","","","","","","","","",""
"1391","","<div style=""width:500px;"">
  <p>How much control did you have over the ball?</p>
  </div>","57","html-slider-response","61","550344","0.0-5.0-2.10","49","1","2025-07-16 08:20:09","1f75c3e559b7213887762d5229550c2b","80.192.212.91","Mozilla/5.0 (Macintosh; Intel Mac OS X 10_15_7) AppleWebKit/537.36 (KHTML, like Gecko) Chrome/137.0.0.0 Safari/537.36","Macintosh","Chrome","137.0.0.0","OS X","10_15_7","https://app.prolific.com/","en-GB,en-US;q=0.9,en;q=0.8","671a44d9d93641d1d9e96883","686e379bc37a29ffa5cdc956","687760a566868c1c61e4255f","1","1","671a44d9d93641d1d9e96883","1","1","2025-07-16T08:29:20.904Z","","","","","","","","","","","ControlQ","","50","","","","","","","","","","","","","","","","","","","","","","","","","","","","",""
"1475","","<div style=""width:500px;"">
  <p>How would you describe your current emotional state?</p>
  </div>","23","html-slider-response","62","551820","0.0-5.0-3.10","49","1","2025-07-16 08:20:09","1f75c3e559b7213887762d5229550c2b","80.192.212.91","Mozilla/5.0 (Macintosh; Intel Mac OS X 10_15_7) AppleWebKit/537.36 (KHTML, like Gecko) Chrome/137.0.0.0 Safari/537.36","Macintosh","Chrome","137.0.0.0","OS X","10_15_7","https://app.prolific.com/","en-GB,en-US;q=0.9,en;q=0.8","671a44d9d93641d1d9e96883","686e379bc37a29ffa5cdc956","687760a566868c1c61e4255f","1","1","671a44d9d93641d1d9e96883","1","1","2025-07-16T08:29:22.380Z","","","","","","","","","","","StressQ","","50","","","","","","","","","","","","","","","","","","","","","","","","","","","","",""
"955","","<div style=""width:500px;"">
  <p>What best describes how you currently feel?</p>
  </div>","94","html-slider-response","63","552776","0.0-5.0-4.10","49","1","2025-07-16 08:20:09","1f75c3e559b7213887762d5229550c2b","80.192.212.91","Mozilla/5.0 (Macintosh; Intel Mac OS X 10_15_7) AppleWebKit/537.36 (KHTML, like Gecko) Chrome/137.0.0.0 Safari/537.36","Macintosh","Chrome","137.0.0.0","OS X","10_15_7","https://app.prolific.com/","en-GB,en-US;q=0.9,en;q=0.8","671a44d9d93641d1d9e96883","686e379bc37a29ffa5cdc956","687760a566868c1c61e4255f","1","1","671a44d9d93641d1d9e96883","1","1","2025-07-16T08:29:23.336Z","","","","","","","","","","","MotivationQ","","50","","","","","","","","","","","","","","","","","","","","","","","","","","","","",""
"","","","","ctl-task-cpt","64","596336","0.0-5.0-0.11","49","1","2025-07-16 08:20:09","1f75c3e559b7213887762d5229550c2b","80.192.212.91","Mozilla/5.0 (Macintosh; Intel Mac OS X 10_15_7) AppleWebKit/537.36 (KHTML, like Gecko) Chrome/137.0.0.0 Safari/537.36","Macintosh","Chrome","137.0.0.0","OS X","10_15_7","https://app.prolific.com/","en-GB,en-US;q=0.9,en;q=0.8","671a44d9d93641d1d9e96883","686e379bc37a29ffa5cdc956","687760a566868c1c61e4255f","1","1","671a44d9d93641d1d9e96883","1","1","2025-07-16T08:30:06.896Z","","","","","","","","","","","","","","win-only","2","g1:SE,g2:NW","0.6","12","0","554042.8","672.2","5674.2","40549.9","1","4","8","6","2","8","8","11","3","0.08333333333333333","679.7","3000","65","[""left"",""up""]","{""num_key_presses"":12,""num_perfect"":7,""num_errors"":0,""num_randdir"":5,""num_randdir_good_moves"":2,""num_whilered"":0,""num_whileblue"":0,""num_blue"":1,""num_good_moves"":9}","[446.79375,446.7,0.2,446.79375,446.7,107.3,424.79375,420.7,209.7,153.79375,281.7,316,91.79375,193.7,418.4,90.79375,168.7,521.9,84.79375,135.7,628,84.79375,125.7,732.3,84.79375,125.7,839.9,84.79375,125.7,943.3,84.79375,125.7,1047.8,84.79375,125.7,1154.6,84.79375,125.7,1261.4,84.79375,125.7,1364.1,84.79375,125.7,1470.7,84.79375,125.7,1572.5,84.79375,125.7,1676.7,84.79375,125.7,1780.9,84.79375,125.7,1881.9,84.79375,125.7,1993.5,84.79375,125.7,2094.2,84.79375,125.7,2195.6,84.79375,125.7,2298.9,84.79375,125.7,2404.4,84.79375,125.7,2507.2,84.79375,125.7,2611.1,84.79375,125.7,2713.3,84.79375,125.7,2813.4,84.79375,125.7,2920.7,84.79375,125.7,3021.9,84.79375,125.7,3124.6,84.79375,125.7,3225.2,84.79375,125.7,3329.9,84.79375,125.7,3435.2,84.79375,125.7,3545.3,84.79375,125.7,3649.3,84.79375,125.7,3750.5,84.79375,125.7,3850.6,84.79375,125.7,3951.2,84.79375,125.7,4052.5,84.79375,125.7,4158.4,84.79375,125.7,4262.7,84.79375,125.7,4365.2,84.79375,125.7,4482.3,84.79375,125.7,4584.2,84.79375,125.7,4686.8,84.79375,125.7,4790.6,84.79375,125.7,4891.3,84.79375,125.7,4994.7]","[1429.8,1429.8,1000,0,429.8,""smooth"",""left"",""left"",""good_move"",4461.8,3031.7,2671,1430.1,360.7,""smooth"",""up"",""up"",""good_move"",6587.7,2125.5,1795.9,4462.2,329.6,""smooth"",""left"",""left"",""good_move"",9287.2,2699.4,2347.2,6587.8,352.2,""oops"",""up"",""up"",""good_move"",11514,2226.6,1899.9,9287.4,326.7,""oops"",""left"",""down"",""bad_move"",13708,2193.6,1802.2,11514.4,391.4,""smooth"",""left"",""left"",""good_move"",16704.1,2995.8,2629.9,13708.3,365.9,""oops"",""up"",""down"",""bad_move"",23808,7103.8,2486.3,20970.1,351.6,""oops"",""up"",""right"",""bad_move"",25900.2,2091.9,1775.4,23808.3,316.5,""smooth"",""up"",""up"",""good_move"",28452.8,2552.3,2264.1,25900.5,288.2,""smooth"",""up"",""up"",""good_move"",31883.6,3430.7,3006.5,28452.9,424.2,""oops"",""up"",""up"",""good_move"",34739.6,2855.6,2512.3,31884,343.3,""smooth"",""left"",""left"",""good_move""]","",""
"2306","","<div style=""width:500px;"">
  <p>What determined the result of this run?</p>
  </div>","56","html-slider-response","65","598644","0.0-5.0-1.11","49","1","2025-07-16 08:20:09","1f75c3e559b7213887762d5229550c2b","80.192.212.91","Mozilla/5.0 (Macintosh; Intel Mac OS X 10_15_7) AppleWebKit/537.36 (KHTML, like Gecko) Chrome/137.0.0.0 Safari/537.36","Macintosh","Chrome","137.0.0.0","OS X","10_15_7","https://app.prolific.com/","en-GB,en-US;q=0.9,en;q=0.8","671a44d9d93641d1d9e96883","686e379bc37a29ffa5cdc956","687760a566868c1c61e4255f","1","1","671a44d9d93641d1d9e96883","1","1","2025-07-16T08:30:09.204Z","","","","","","","","","","","AttribQ","","50","","","","","","","","","","","","","","","","","","","","","","","","","","","","",""
"1102","","<div style=""width:500px;"">
  <p>How much control did you have over the ball?</p>
  </div>","57","html-slider-response","66","599747","0.0-5.0-2.11","49","1","2025-07-16 08:20:09","1f75c3e559b7213887762d5229550c2b","80.192.212.91","Mozilla/5.0 (Macintosh; Intel Mac OS X 10_15_7) AppleWebKit/537.36 (KHTML, like Gecko) Chrome/137.0.0.0 Safari/537.36","Macintosh","Chrome","137.0.0.0","OS X","10_15_7","https://app.prolific.com/","en-GB,en-US;q=0.9,en;q=0.8","671a44d9d93641d1d9e96883","686e379bc37a29ffa5cdc956","687760a566868c1c61e4255f","1","1","671a44d9d93641d1d9e96883","1","1","2025-07-16T08:30:10.307Z","","","","","","","","","","","ControlQ","","50","","","","","","","","","","","","","","","","","","","","","","","","","","","","",""
"2381","","<div style=""width:500px;"">
  <p>How would you describe your current emotional state?</p>
  </div>","31","html-slider-response","67","602129","0.0-5.0-3.11","49","1","2025-07-16 08:20:09","1f75c3e559b7213887762d5229550c2b","80.192.212.91","Mozilla/5.0 (Macintosh; Intel Mac OS X 10_15_7) AppleWebKit/537.36 (KHTML, like Gecko) Chrome/137.0.0.0 Safari/537.36","Macintosh","Chrome","137.0.0.0","OS X","10_15_7","https://app.prolific.com/","en-GB,en-US;q=0.9,en;q=0.8","671a44d9d93641d1d9e96883","686e379bc37a29ffa5cdc956","687760a566868c1c61e4255f","1","1","671a44d9d93641d1d9e96883","1","1","2025-07-16T08:30:12.689Z","","","","","","","","","","","StressQ","","50","","","","","","","","","","","","","","","","","","","","","","","","","","","","",""
"1036","","<div style=""width:500px;"">
  <p>What best describes how you currently feel?</p>
  </div>","83","html-slider-response","68","603166","0.0-5.0-4.11","49","1","2025-07-16 08:20:09","1f75c3e559b7213887762d5229550c2b","80.192.212.91","Mozilla/5.0 (Macintosh; Intel Mac OS X 10_15_7) AppleWebKit/537.36 (KHTML, like Gecko) Chrome/137.0.0.0 Safari/537.36","Macintosh","Chrome","137.0.0.0","OS X","10_15_7","https://app.prolific.com/","en-GB,en-US;q=0.9,en;q=0.8","671a44d9d93641d1d9e96883","686e379bc37a29ffa5cdc956","687760a566868c1c61e4255f","1","1","671a44d9d93641d1d9e96883","1","1","2025-07-16T08:30:13.726Z","","","","","","","","","","","MotivationQ","","50","","","","","","","","","","","","","","","","","","","","","","","","","","","","",""
"","","","","ctl-task-cpt","69","629416","0.0-5.0-0.12","49","1","2025-07-16 08:20:09","1f75c3e559b7213887762d5229550c2b","80.192.212.91","Mozilla/5.0 (Macintosh; Intel Mac OS X 10_15_7) AppleWebKit/537.36 (KHTML, like Gecko) Chrome/137.0.0.0 Safari/537.36","Macintosh","Chrome","137.0.0.0","OS X","10_15_7","https://app.prolific.com/","en-GB,en-US;q=0.9,en;q=0.8","671a44d9d93641d1d9e96883","686e379bc37a29ffa5cdc956","687760a566868c1c61e4255f","1","1","671a44d9d93641d1d9e96883","1","1","2025-07-16T08:30:39.977Z","","","","","","","","","","","","","","win-only","1","g1:NE,g2:SW","0.7","13","0","604433.5","1927.9","6929.5","23233.7","1","4","8","6","2","8","8","19","11","0.14393939393939395","838.7","3000","1605","[""down"",""left""]","{""num_key_presses"":6,""num_perfect"":5,""num_errors"":0,""num_randdir"":1,""num_randdir_good_moves"":1,""num_whilered"":0,""num_whileblue"":0,""num_blue"":0,""num_good_moves"":6}","[450.79375,444.7,0.2,450.79375,444.7,103,450.79375,444.7,206.9,448.79375,444.7,308.8,410.79375,562.7,416.8,165.79375,666.7,525.3,97.79375,701.7,636.4,77.79375,763.7,852.3,77.79375,763.7,958.1,77.79375,763.7,1059.1,77.79375,763.7,1168.8,77.79375,763.7,1275.9,77.79375,763.7,1383,77.79375,763.7,1490.6,77.79375,763.7,1593.1,77.79375,763.7,1694.2,77.79375,763.7,1796.1,77.79375,763.7,1904.8,77.79375,763.7,2010.6,77.79375,763.7,2116.7,77.79375,763.7,2222.5,77.79375,763.7,2325.3,77.79375,763.7,2433.1,77.79375,763.7,2535,77.79375,763.7,2641.5,77.79375,763.7,2741.8,77.79375,763.7,2847.5,77.79375,763.7,2952.2,77.79375,763.7,3053.4,77.79375,763.7,3159.2,77.79375,763.7,3264.5,77.79375,763.7,3365.6,77.79375,763.7,3474.2,77.79375,763.7,3578.5,77.79375,763.7,3682.6,77.79375,763.7,3783.3,77.79375,763.7,3887.8,77.79375,763.7,3993.5,77.79375,763.7,4093.8,77.79375,763.7,4196.9,77.79375,763.7,4301.2,77.79375,763.7,4402.1,77.79375,763.7,4512.2,77.79375,763.7,4616.1,77.79375,763.7,4719.4,77.79375,763.7,4824.3,77.79375,763.7,4927.8]","[1474.1,1474.1,1000,0,474.1,""oops"",""down"",""down"",""good_move"",4414.4,2939.9,2572.8,1474.5,367.1,""smooth"",""down"",""down"",""good_move"",7731.3,3316.6,2943.3,4414.7,373.3,""smooth"",""left"",""left"",""good_move"",10397.8,2666.1,2326,7731.7,340.1,""smooth"",""left"",""left"",""good_move"",12755.3,2357.3,2018,10398,339.3,""smooth"",""left"",""left"",""good_move"",16151.4,3395.9,2966.2,12755.5,429.7,""smooth"",""down"",""down"",""good_move""]","",""
"1484","","<div style=""width:500px;"">
  <p>What determined the result of this run?</p>
  </div>","77","html-slider-response","70","630902","0.0-5.0-1.12","49","1","2025-07-16 08:20:09","1f75c3e559b7213887762d5229550c2b","80.192.212.91","Mozilla/5.0 (Macintosh; Intel Mac OS X 10_15_7) AppleWebKit/537.36 (KHTML, like Gecko) Chrome/137.0.0.0 Safari/537.36","Macintosh","Chrome","137.0.0.0","OS X","10_15_7","https://app.prolific.com/","en-GB,en-US;q=0.9,en;q=0.8","671a44d9d93641d1d9e96883","686e379bc37a29ffa5cdc956","687760a566868c1c61e4255f","1","1","671a44d9d93641d1d9e96883","1","1","2025-07-16T08:30:41.462Z","","","","","","","","","","","AttribQ","","50","","","","","","","","","","","","","","","","","","","","","","","","","","","","",""
"1042","","<div style=""width:500px;"">
  <p>How much control did you have over the ball?</p>
  </div>","79","html-slider-response","71","631945","0.0-5.0-2.12","49","1","2025-07-16 08:20:09","1f75c3e559b7213887762d5229550c2b","80.192.212.91","Mozilla/5.0 (Macintosh; Intel Mac OS X 10_15_7) AppleWebKit/537.36 (KHTML, like Gecko) Chrome/137.0.0.0 Safari/537.36","Macintosh","Chrome","137.0.0.0","OS X","10_15_7","https://app.prolific.com/","en-GB,en-US;q=0.9,en;q=0.8","671a44d9d93641d1d9e96883","686e379bc37a29ffa5cdc956","687760a566868c1c61e4255f","1","1","671a44d9d93641d1d9e96883","1","1","2025-07-16T08:30:42.505Z","","","","","","","","","","","ControlQ","","50","","","","","","","","","","","","","","","","","","","","","","","","","","","","",""
"910","","<div style=""width:500px;"">
  <p>How would you describe your current emotional state?</p>
  </div>","35","html-slider-response","72","632856","0.0-5.0-3.12","49","1","2025-07-16 08:20:09","1f75c3e559b7213887762d5229550c2b","80.192.212.91","Mozilla/5.0 (Macintosh; Intel Mac OS X 10_15_7) AppleWebKit/537.36 (KHTML, like Gecko) Chrome/137.0.0.0 Safari/537.36","Macintosh","Chrome","137.0.0.0","OS X","10_15_7","https://app.prolific.com/","en-GB,en-US;q=0.9,en;q=0.8","671a44d9d93641d1d9e96883","686e379bc37a29ffa5cdc956","687760a566868c1c61e4255f","1","1","671a44d9d93641d1d9e96883","1","1","2025-07-16T08:30:43.416Z","","","","","","","","","","","StressQ","","50","","","","","","","","","","","","","","","","","","","","","","","","","","","","",""
"2002","","<div style=""width:500px;"">
  <p>What best describes how you currently feel?</p>
  </div>","92","html-slider-response","73","634858","0.0-5.0-4.12","49","1","2025-07-16 08:20:09","1f75c3e559b7213887762d5229550c2b","80.192.212.91","Mozilla/5.0 (Macintosh; Intel Mac OS X 10_15_7) AppleWebKit/537.36 (KHTML, like Gecko) Chrome/137.0.0.0 Safari/537.36","Macintosh","Chrome","137.0.0.0","OS X","10_15_7","https://app.prolific.com/","en-GB,en-US;q=0.9,en;q=0.8","671a44d9d93641d1d9e96883","686e379bc37a29ffa5cdc956","687760a566868c1c61e4255f","1","1","671a44d9d93641d1d9e96883","1","1","2025-07-16T08:30:45.418Z","","","","","","","","","","","MotivationQ","","50","","","","","","","","","","","","","","","","","","","","","","","","","","","","",""
"","","","","ctl-task-cpt","74","675912","0.0-5.0-0.13","49","1","2025-07-16 08:20:09","1f75c3e559b7213887762d5229550c2b","80.192.212.91","Mozilla/5.0 (Macintosh; Intel Mac OS X 10_15_7) AppleWebKit/537.36 (KHTML, like Gecko) Chrome/137.0.0.0 Safari/537.36","Macintosh","Chrome","137.0.0.0","OS X","10_15_7","https://app.prolific.com/","en-GB,en-US;q=0.9,en;q=0.8","671a44d9d93641d1d9e96883","686e379bc37a29ffa5cdc956","687760a566868c1c61e4255f","1","1","671a44d9d93641d1d9e96883","1","1","2025-07-16T08:31:26.472Z","","","","","","","","","","","","","","win-only","3","g1:SW,g2:NE","0.8","14","0","636125.7","809.3","5812","38035.8","1","4","4","6","2","4","4","23","19","0.17424242424242425","1085.8","3000","1055","[""up"",""right""]","{""num_key_presses"":8,""num_perfect"":6,""num_errors"":0,""num_randdir"":2,""num_randdir_good_moves"":1,""num_whilered"":0,""num_whileblue"":0,""num_blue"":4,""num_good_moves"":7}","[452.79375,446.7,0.1,452.79375,446.7,107.4,449.79375,446.7,208,405.79375,408.7,310.3,346.79375,516.7,410.5,112.79375,895.7,511.7,224.79375,792.7,612.8,791.79375,278.7,717.3,780.79375,247.7,818.3,791.79375,179.7,918.5,800.79375,118.7,1026.5,800.79375,116.7,1133.5,800.79375,116.7,1238.3,800.79375,116.7,1343.9,800.79375,116.7,1448.8,800.79375,116.7,1556,800.79375,116.7,1662.1,800.79375,116.7,1763.3,800.79375,116.7,1868.8,800.79375,116.7,1969,800.79375,116.7,2080.5,800.79375,116.7,2187.7,800.79375,116.7,2294.6,800.79375,116.7,2395.1,800.79375,116.7,2498.6,800.79375,116.7,2607.8,800.79375,116.7,2719.2,800.79375,116.7,2822.3,800.79375,116.7,2926,800.79375,116.7,3032,800.79375,116.7,3137.1,800.79375,116.7,3239,800.79375,116.7,3347,800.79375,116.7,3451.9,800.79375,116.7,3556.3,800.79375,116.7,3662.4,800.79375,116.7,3770,800.79375,116.7,3877.2,800.79375,116.7,3980.1,800.79375,116.7,4080.5,800.79375,116.7,4188,800.79375,116.7,4291.7,800.79375,116.7,4396.5,800.79375,116.7,4502.1,800.79375,116.7,4607.4,800.79375,116.7,4708.3,800.79375,116.7,4809.3,800.79375,116.7,4913.1]","[1488.9,1488.9,1000,0,488.9,""smooth"",""right"",""right"",""good_move"",7342.6,5853.4,2608.2,4363.8,370.6,""smooth"",""right"",""right"",""good_move"",10361.8,3018.9,2518.6,7342.9,500.3,""oops"",""up"",""left"",""bad_move"",21912.4,11550.3,1683.4,19750,479,""smooth"",""up"",""up"",""good_move"",24874.8,2962.1,2595.9,21912.7,366.2,""smooth"",""up"",""up"",""good_move"",27374.2,2499.4,2138.6,24874.9,360.7,""oops"",""up"",""up"",""good_move"",29616,2241.7,1893.3,27374.4,348.4,""smooth"",""right"",""right"",""good_move"",32059.7,2443.5,2133.3,29616.2,310.2,""smooth"",""right"",""right"",""good_move""]","",""
"1236","","<div style=""width:500px;"">
  <p>What determined the result of this run?</p>
  </div>","60","html-slider-response","75","677149","0.0-5.0-1.13","49","1","2025-07-16 08:20:09","1f75c3e559b7213887762d5229550c2b","80.192.212.91","Mozilla/5.0 (Macintosh; Intel Mac OS X 10_15_7) AppleWebKit/537.36 (KHTML, like Gecko) Chrome/137.0.0.0 Safari/537.36","Macintosh","Chrome","137.0.0.0","OS X","10_15_7","https://app.prolific.com/","en-GB,en-US;q=0.9,en;q=0.8","671a44d9d93641d1d9e96883","686e379bc37a29ffa5cdc956","687760a566868c1c61e4255f","1","1","671a44d9d93641d1d9e96883","1","1","2025-07-16T08:31:27.709Z","","","","","","","","","","","AttribQ","","50","","","","","","","","","","","","","","","","","","","","","","","","","","","","",""
"1173","","<div style=""width:500px;"">
  <p>How much control did you have over the ball?</p>
  </div>","56","html-slider-response","76","678323","0.0-5.0-2.13","49","1","2025-07-16 08:20:09","1f75c3e559b7213887762d5229550c2b","80.192.212.91","Mozilla/5.0 (Macintosh; Intel Mac OS X 10_15_7) AppleWebKit/537.36 (KHTML, like Gecko) Chrome/137.0.0.0 Safari/537.36","Macintosh","Chrome","137.0.0.0","OS X","10_15_7","https://app.prolific.com/","en-GB,en-US;q=0.9,en;q=0.8","671a44d9d93641d1d9e96883","686e379bc37a29ffa5cdc956","687760a566868c1c61e4255f","1","1","671a44d9d93641d1d9e96883","1","1","2025-07-16T08:31:28.883Z","","","","","","","","","","","ControlQ","","50","","","","","","","","","","","","","","","","","","","","","","","","","","","","",""
"1493","","<div style=""width:500px;"">
  <p>How would you describe your current emotional state?</p>
  </div>","34","html-slider-response","77","679817","0.0-5.0-3.13","49","1","2025-07-16 08:20:09","1f75c3e559b7213887762d5229550c2b","80.192.212.91","Mozilla/5.0 (Macintosh; Intel Mac OS X 10_15_7) AppleWebKit/537.36 (KHTML, like Gecko) Chrome/137.0.0.0 Safari/537.36","Macintosh","Chrome","137.0.0.0","OS X","10_15_7","https://app.prolific.com/","en-GB,en-US;q=0.9,en;q=0.8","671a44d9d93641d1d9e96883","686e379bc37a29ffa5cdc956","687760a566868c1c61e4255f","1","1","671a44d9d93641d1d9e96883","1","1","2025-07-16T08:31:30.377Z","","","","","","","","","","","StressQ","","50","","","","","","","","","","","","","","","","","","","","","","","","","","","","",""
"1035","","<div style=""width:500px;"">
  <p>What best describes how you currently feel?</p>
  </div>","96","html-slider-response","78","680854","0.0-5.0-4.13","49","1","2025-07-16 08:20:09","1f75c3e559b7213887762d5229550c2b","80.192.212.91","Mozilla/5.0 (Macintosh; Intel Mac OS X 10_15_7) AppleWebKit/537.36 (KHTML, like Gecko) Chrome/137.0.0.0 Safari/537.36","Macintosh","Chrome","137.0.0.0","OS X","10_15_7","https://app.prolific.com/","en-GB,en-US;q=0.9,en;q=0.8","671a44d9d93641d1d9e96883","686e379bc37a29ffa5cdc956","687760a566868c1c61e4255f","1","1","671a44d9d93641d1d9e96883","1","1","2025-07-16T08:31:31.414Z","","","","","","","","","","","MotivationQ","","50","","","","","","","","","","","","","","","","","","","","","","","","","","","","",""
"","","","","ctl-task-cpt","79","706664","0.0-5.0-0.14","49","1","2025-07-16 08:20:09","1f75c3e559b7213887762d5229550c2b","80.192.212.91","Mozilla/5.0 (Macintosh; Intel Mac OS X 10_15_7) AppleWebKit/537.36 (KHTML, like Gecko) Chrome/137.0.0.0 Safari/537.36","Macintosh","Chrome","137.0.0.0","OS X","10_15_7","https://app.prolific.com/","en-GB,en-US;q=0.9,en;q=0.8","671a44d9d93641d1d9e96883","686e379bc37a29ffa5cdc956","687760a566868c1c61e4255f","1","1","671a44d9d93641d1d9e96883","1","1","2025-07-16T08:31:57.224Z","","","","","","","","","","","","","","win-only","2","g1:SE,g2:NW","0.9","15","0","682121.7","1278.2","6286.1","22795.8","1","4","4","6","2","4","3","26","23","0.19696969696969696","1046.3","3000","1860","[""left"",""up""]","{""num_key_presses"":6,""num_perfect"":5,""num_errors"":1,""num_randdir"":0,""num_randdir_good_moves"":0,""num_whilered"":0,""num_whileblue"":1,""num_blue"":1,""num_good_moves"":6}","[445.79375,444.7,0.3,445.79375,444.7,110,416.79375,418.7,216,182.79375,229.7,324.3,275.79375,299.7,424.5,720.79375,699.7,533.4,713.79375,678.7,640.7,140.79375,191.7,751.6,135.79375,179.7,855.7,134.79375,154.7,961.8,111.79375,91.7,1062.8,111.79375,91.7,1164.1,111.79375,91.7,1267.5,111.79375,91.7,1369.8,111.79375,91.7,1475.8,111.79375,91.7,1578.5,111.79375,91.7,1679.9,111.79375,91.7,1785.5,111.79375,91.7,1893.3,111.79375,91.7,2000.2,111.79375,91.7,2103.1,111.79375,91.7,2208.5,111.79375,91.7,2318,111.79375,91.7,2426.1,111.79375,91.7,2529.7,111.79375,91.7,2635.4,111.79375,91.7,2737.2,111.79375,91.7,2838.9,111.79375,91.7,2939.4,111.79375,91.7,3045.8,111.79375,91.7,3148.1,111.79375,91.7,3252.3,111.79375,91.7,3353,111.79375,91.7,3453.9,111.79375,91.7,3562.6,111.79375,91.7,3663,111.79375,91.7,3766.6,111.79375,91.7,3872.3,111.79375,91.7,3972.7,111.79375,91.7,4082.4,111.79375,91.7,4189,111.79375,91.7,4289.7,111.79375,91.7,4395.6,111.79375,91.7,4500.5,111.79375,91.7,4601.9,111.79375,91.7,4702.4,111.79375,91.7,4805.5,111.79375,91.7,4908.4]","[1473.1,1473.1,1000,0,473.1,""smooth"",""left"",""left"",""good_move"",4861.9,3388.5,3101.5,1473.4,287,""while_blue"",""up"",""left"",""good_move"",7708.5,2846.3,2431.3,4862.2,415,""smooth"",""up"",""up"",""good_move"",10110.3,2401.5,1929.5,7708.8,472,""smooth"",""up"",""up"",""good_move"",13384.7,3274.2,2968.5,10110.5,305.7,""smooth"",""up"",""up"",""good_move"",16324,2939.1,2576.4,13384.9,362.7,""smooth"",""left"",""left"",""good_move""]","",""
"1615","","<div style=""width:500px;"">
  <p>What determined the result of this run?</p>
  </div>","56","html-slider-response","80","708280","0.0-5.0-1.14","49","1","2025-07-16 08:20:09","1f75c3e559b7213887762d5229550c2b","80.192.212.91","Mozilla/5.0 (Macintosh; Intel Mac OS X 10_15_7) AppleWebKit/537.36 (KHTML, like Gecko) Chrome/137.0.0.0 Safari/537.36","Macintosh","Chrome","137.0.0.0","OS X","10_15_7","https://app.prolific.com/","en-GB,en-US;q=0.9,en;q=0.8","671a44d9d93641d1d9e96883","686e379bc37a29ffa5cdc956","687760a566868c1c61e4255f","1","1","671a44d9d93641d1d9e96883","1","1","2025-07-16T08:31:58.840Z","","","","","","","","","","","AttribQ","","50","","","","","","","","","","","","","","","","","","","","","","","","","","","","",""
"1014","","<div style=""width:500px;"">
  <p>How much control did you have over the ball?</p>
  </div>","54","html-slider-response","81","709295","0.0-5.0-2.14","49","1","2025-07-16 08:20:09","1f75c3e559b7213887762d5229550c2b","80.192.212.91","Mozilla/5.0 (Macintosh; Intel Mac OS X 10_15_7) AppleWebKit/537.36 (KHTML, like Gecko) Chrome/137.0.0.0 Safari/537.36","Macintosh","Chrome","137.0.0.0","OS X","10_15_7","https://app.prolific.com/","en-GB,en-US;q=0.9,en;q=0.8","671a44d9d93641d1d9e96883","686e379bc37a29ffa5cdc956","687760a566868c1c61e4255f","1","1","671a44d9d93641d1d9e96883","1","1","2025-07-16T08:31:59.855Z","","","","","","","","","","","ControlQ","","50","","","","","","","","","","","","","","","","","","","","","","","","","","","","",""
"985","","<div style=""width:500px;"">
  <p>How would you describe your current emotional state?</p>
  </div>","31","html-slider-response","82","710280","0.0-5.0-3.14","49","1","2025-07-16 08:20:09","1f75c3e559b7213887762d5229550c2b","80.192.212.91","Mozilla/5.0 (Macintosh; Intel Mac OS X 10_15_7) AppleWebKit/537.36 (KHTML, like Gecko) Chrome/137.0.0.0 Safari/537.36","Macintosh","Chrome","137.0.0.0","OS X","10_15_7","https://app.prolific.com/","en-GB,en-US;q=0.9,en;q=0.8","671a44d9d93641d1d9e96883","686e379bc37a29ffa5cdc956","687760a566868c1c61e4255f","1","1","671a44d9d93641d1d9e96883","1","1","2025-07-16T08:32:00.841Z","","","","","","","","","","","StressQ","","50","","","","","","","","","","","","","","","","","","","","","","","","","","","","",""
"8336","","<div style=""width:500px;"">
  <p>What best describes how you currently feel?</p>
  </div>","88","html-slider-response","83","718617","0.0-5.0-4.14","49","1","2025-07-16 08:20:09","1f75c3e559b7213887762d5229550c2b","80.192.212.91","Mozilla/5.0 (Macintosh; Intel Mac OS X 10_15_7) AppleWebKit/537.36 (KHTML, like Gecko) Chrome/137.0.0.0 Safari/537.36","Macintosh","Chrome","137.0.0.0","OS X","10_15_7","https://app.prolific.com/","en-GB,en-US;q=0.9,en;q=0.8","671a44d9d93641d1d9e96883","686e379bc37a29ffa5cdc956","687760a566868c1c61e4255f","1","1","671a44d9d93641d1d9e96883","1","1","2025-07-16T08:32:09.177Z","","","","","","","","","","","MotivationQ","","50","","","","","","","","","","","","","","","","","","","","","","","","","","","","",""
"","","","","ctl-task-cpt","84","743152","0.0-5.0-0.15","49","1","2025-07-16 08:20:09","1f75c3e559b7213887762d5229550c2b","80.192.212.91","Mozilla/5.0 (Macintosh; Intel Mac OS X 10_15_7) AppleWebKit/537.36 (KHTML, like Gecko) Chrome/137.0.0.0 Safari/537.36","Macintosh","Chrome","137.0.0.0","OS X","10_15_7","https://app.prolific.com/","en-GB,en-US;q=0.9,en;q=0.8","671a44d9d93641d1d9e96883","686e379bc37a29ffa5cdc956","687760a566868c1c61e4255f","1","1","671a44d9d93641d1d9e96883","1","1","2025-07-16T08:32:33.712Z","","","","","","","","","","","","","","win-only","1","g1:NE,g2:SW","0.8","16","0","719885.3","916.7","5920.5","21516.1","1","4","8","6","2","8","8","34","26","0.25757575757575757","835.8","3000","1800","[""down"",""left""]","{""num_key_presses"":6,""num_perfect"":4,""num_errors"":0,""num_randdir"":2,""num_randdir_good_moves"":2,""num_whilered"":0,""num_whileblue"":0,""num_blue"":0,""num_good_moves"":6}","[438.79375,436.7,0.4,438.79375,436.7,109.4,438.79375,436.7,213.5,438.79375,436.7,316.8,660.79375,292.7,428.1,421.79375,445.7,533.3,148.79375,778.7,650.5,115.79375,814.7,759.6,97.79375,822.7,859.9,97.79375,822.7,962.7,97.79375,822.7,1065.9,97.79375,822.7,1173.2,97.79375,822.7,1277.6,97.79375,822.7,1383.4,97.79375,822.7,1505.9,97.79375,822.7,1606.2,97.79375,822.7,1711.2,97.79375,822.7,1817.8,97.79375,822.7,1925,97.79375,822.7,2030.8,97.79375,822.7,2133.3,97.79375,822.7,2237.1,97.79375,822.7,2346,97.79375,822.7,2455,97.79375,822.7,2559.1,97.79375,822.7,2660.9,97.79375,822.7,2766.5,97.79375,822.7,2874.7,97.79375,822.7,2975.4,97.79375,822.7,3078.5,97.79375,822.7,3179.4,97.79375,822.7,3291.2,97.79375,822.7,3398.5,97.79375,822.7,3504.8,97.79375,822.7,3613.7,97.79375,822.7,3721.2,97.79375,822.7,3821.4,97.79375,822.7,3929.8,97.79375,822.7,4040.6,97.79375,822.7,4142,97.79375,822.7,4249.6,97.79375,822.7,4353.5,97.79375,822.7,4462.3,97.79375,822.7,4566.3,97.79375,822.7,4669.7,97.79375,822.7,4779.2,97.79375,822.7,4885.5,97.79375,822.7,4994.9]","[1369.8,1369.8,1000,0,369.8,""oops"",""down"",""left"",""good_move"",4340.8,2970.6,2646.9,1370.2,323.7,""oops"",""down"",""left"",""good_move"",6438.4,2097.4,1726.3,4341,371.1,""smooth"",""down"",""down"",""good_move"",9103.4,2664.3,2362.3,6439.1,302,""smooth"",""down"",""down"",""good_move"",12668.3,3564.8,2852,9103.5,712.8,""smooth"",""left"",""left"",""good_move"",15407.1,2738.4,2455.3,12668.7,283.1,""smooth"",""down"",""down"",""good_move""]","",""
"1412","","<div style=""width:500px;"">
  <p>What determined the result of this run?</p>
  </div>","64","html-slider-response","85","744564","0.0-5.0-1.15","49","1","2025-07-16 08:20:09","1f75c3e559b7213887762d5229550c2b","80.192.212.91","Mozilla/5.0 (Macintosh; Intel Mac OS X 10_15_7) AppleWebKit/537.36 (KHTML, like Gecko) Chrome/137.0.0.0 Safari/537.36","Macintosh","Chrome","137.0.0.0","OS X","10_15_7","https://app.prolific.com/","en-GB,en-US;q=0.9,en;q=0.8","671a44d9d93641d1d9e96883","686e379bc37a29ffa5cdc956","687760a566868c1c61e4255f","1","1","671a44d9d93641d1d9e96883","1","1","2025-07-16T08:32:35.124Z","","","","","","","","","","","AttribQ","","50","","","","","","","","","","","","","","","","","","","","","","","","","","","","",""
"855","","<div style=""width:500px;"">
  <p>How much control did you have over the ball?</p>
  </div>","56","html-slider-response","86","745420","0.0-5.0-2.15","49","1","2025-07-16 08:20:09","1f75c3e559b7213887762d5229550c2b","80.192.212.91","Mozilla/5.0 (Macintosh; Intel Mac OS X 10_15_7) AppleWebKit/537.36 (KHTML, like Gecko) Chrome/137.0.0.0 Safari/537.36","Macintosh","Chrome","137.0.0.0","OS X","10_15_7","https://app.prolific.com/","en-GB,en-US;q=0.9,en;q=0.8","671a44d9d93641d1d9e96883","686e379bc37a29ffa5cdc956","687760a566868c1c61e4255f","1","1","671a44d9d93641d1d9e96883","1","1","2025-07-16T08:32:35.980Z","","","","","","","","","","","ControlQ","","50","","","","","","","","","","","","","","","","","","","","","","","","","","","","",""
"981","","<div style=""width:500px;"">
  <p>How would you describe your current emotional state?</p>
  </div>","29","html-slider-response","87","746402","0.0-5.0-3.15","49","1","2025-07-16 08:20:09","1f75c3e559b7213887762d5229550c2b","80.192.212.91","Mozilla/5.0 (Macintosh; Intel Mac OS X 10_15_7) AppleWebKit/537.36 (KHTML, like Gecko) Chrome/137.0.0.0 Safari/537.36","Macintosh","Chrome","137.0.0.0","OS X","10_15_7","https://app.prolific.com/","en-GB,en-US;q=0.9,en;q=0.8","671a44d9d93641d1d9e96883","686e379bc37a29ffa5cdc956","687760a566868c1c61e4255f","1","1","671a44d9d93641d1d9e96883","1","1","2025-07-16T08:32:36.962Z","","","","","","","","","","","StressQ","","50","","","","","","","","","","","","","","","","","","","","","","","","","","","","",""
"910","","<div style=""width:500px;"">
  <p>What best describes how you currently feel?</p>
