"rt","response_timestamp","stimulus","response","trial_type","trial_index","time_elapsed","internal_node_id","run_id","condition","recorded_at","source_code_version","ip","user_agent","device","browser","browser_version","platform","platform_version","referer","accept_language","PROLIFIC_PID","STUDY_ID","SESSION_ID","WEEK","BATCH","prolific_id","week","batch","realtime","success","responses","item_order","radio_event_ids","radio_event_times","key_event_times","mouse_event_times","straightlining","zigzagging","honeypot","eventType","view_history","slider_start","which_type","canvas_config","goals_layout","control_level","trial_number","tutorial_trial_number","trial_start_time","phase1_start_time","phase2_start_time","phase3_start_time","goal_1_value","goal_1_distance","goal_2_value","goal_2_distance","goal_selected","outcome","outcome_total","participant_final_score","participant_initial_score","participant_final_score_prop","goal_choice_rt","allocated_time","allocated_time_remaining","goal_direction","counts","mouse_movements","key_presses","question_order","question_id"
"2132","1752656826313","<p style='font-size:40px;line-height:1.25'><strong>Welcome to the experiment!</strong></p><p style='font-size:1.1em;line-height:1.25'>Thank you for participanting in our experiment again! You will be asked to play the Dysfunctional Ball Game again. We will briefly recap the rules before we start.</p><p style='font-size:1.1em;line-height:1.25'>Press <strong>Next</strong> to continue.</p>","0","custom-html-button-response","0","2137","0.0-0.0","86","1","2025-07-16 09:07:03","1f75c3e559b7213887762d5229550c2b","94.10.147.75","Mozilla/5.0 (Windows NT 10.0; Win64; x64) AppleWebKit/537.36 (KHTML, like Gecko) Chrome/138.0.0.0 Safari/537.36 Edg/138.0.0.0","WebKit","Edge","138.0.0.0","Windows","10.0","https://app.prolific.com/","en-GB,en;q=0.9,en-US;q=0.8","6702f60844f21087e0840e3d","686e379bc37a29ffa5cdc956","68776a52bd5f7be9a13d72fb","1","1","6702f60844f21087e0840e3d","1","1","2025-07-16T09:07:06.316Z","","","","","","","","","","","","","","","","","","","","","","","","","","","","","","","","","","","","","","","","","",""
"8685","","","","fullscreen","1","11837","0.0-1.0","86","1","2025-07-16 09:07:03","1f75c3e559b7213887762d5229550c2b","94.10.147.75","Mozilla/5.0 (Windows NT 10.0; Win64; x64) AppleWebKit/537.36 (KHTML, like Gecko) Chrome/138.0.0.0 Safari/537.36 Edg/138.0.0.0","WebKit","Edge","138.0.0.0","Windows","10.0","https://app.prolific.com/","en-GB,en;q=0.9,en-US;q=0.8","6702f60844f21087e0840e3d","686e379bc37a29ffa5cdc956","68776a52bd5f7be9a13d72fb","1","1","6702f60844f21087e0840e3d","1","1","","true","","","","","","","","","","","","","","","","","","","","","","","","","","","","","","","","","","","","","","","","",""
"2586","1752656838603","<p style='font-size:1.1em;line-height:1.25'>In the following, we will ask you a few questions relating to your feelings in the last 24 hours.<br></p><p style='font-size:1.1em;line-height:1.25'>Press the <strong>Next</strong> button to continue.</p>","0","custom-html-button-response","2","14425","0.0-2.0-0.0","86","1","2025-07-16 09:07:03","1f75c3e559b7213887762d5229550c2b","94.10.147.75","Mozilla/5.0 (Windows NT 10.0; Win64; x64) AppleWebKit/537.36 (KHTML, like Gecko) Chrome/138.0.0.0 Safari/537.36 Edg/138.0.0.0","WebKit","Edge","138.0.0.0","Windows","10.0","https://app.prolific.com/","en-GB,en;q=0.9,en-US;q=0.8","6702f60844f21087e0840e3d","686e379bc37a29ffa5cdc956","68776a52bd5f7be9a13d72fb","1","1","6702f60844f21087e0840e3d","1","1","2025-07-16T09:07:18.605Z","","","","","","","","","","","","","","","","","","","","","","","","","","","","","","","","","","","","","","","","","",""
"52665","","","","survey-template","3","67107","0.0-2.0-1.0","86","1","2025-07-16 09:07:03","1f75c3e559b7213887762d5229550c2b","94.10.147.75","Mozilla/5.0 (Windows NT 10.0; Win64; x64) AppleWebKit/537.36 (KHTML, like Gecko) Chrome/138.0.0.0 Safari/537.36 Edg/138.0.0.0","WebKit","Edge","138.0.0.0","Windows","10.0","https://app.prolific.com/","en-GB,en;q=0.9,en-US;q=0.8","6702f60844f21087e0840e3d","686e379bc37a29ffa5cdc956","68776a52bd5f7be9a13d72fb","1","1","6702f60844f21087e0840e3d","1","1","2025-07-16T09:08:11.286Z","","{""Q01"":""2"",""Q02"":""1"",""Q03"":""0"",""Q04"":""2"",""Q05"":""0"",""Q06"":""0"",""Q07"":""0"",""Q08"":""1"",""Q09"":""2"",""Q10"":""2"",""Q11"":""2"",""Q12"":""3"",""Q13"":""5"",""Q14"":""3"",""Q15"":""0"",""Q16"":""1"",""Q17"":""4"",""Q18"":""1"",""Q19"":""2"",""Q20"":""2"",""Q21"":""1"",""Q22"":""0""}","[0,1,2,3,4,5,6,7,8,9,10,11,12,13,14,15,16,17,18,19,20,21]","[""Q01"",""Q02"",""Q03"",""Q04"",""Q05"",""Q06"",""Q07"",""Q08"",""Q09"",""Q10"",""Q11"",""Q12"",""Q13"",""Q14"",""Q15"",""Q15"",""Q16"",""Q17"",""Q18"",""Q19"",""Q20"",""Q21"",""Q22""]","[4844.300000011921,6036.800000011921,7949.199999988079,10359.5,11172,12140.099999964237,13211.399999976158,14909.399999976158,16550,17941.099999964237,19974,22027.19999998808,24358.5,26019.19999998808,29689.69999998808,31339.599999964237,34415,36804.19999998808,38673.30000001192,41967.19999998808,46813.19999998808,49259.09999996424,51871.19999998808]","[]","[0.19999998807907104,4844.300000011921,6036.800000011921,7949.199999988079,9483.5,10359.5,11172,12140.099999964237,13211.399999976158,14909.399999976158,16550,17941.099999964237,19974,22027.19999998808,24358.5,26019.19999998808,29689.69999998808,31339.599999964237,34415,36804.19999998808,38673.30000001192,41967.19999998808,46813.19999998808,49259.09999996424,51213.80000001192,51871.19999998808,52661.19999998808]","0.3181818181818182","0.42857142857142855","0","drsp","","","","","","","","","","","","","","","","","","","","","","","","","","","","","","",""
"16194.699999988079","","","","survey-template","4","83303","0.0-2.0-2.0","86","1","2025-07-16 09:07:03","1f75c3e559b7213887762d5229550c2b","94.10.147.75","Mozilla/5.0 (Windows NT 10.0; Win64; x64) AppleWebKit/537.36 (KHTML, like Gecko) Chrome/138.0.0.0 Safari/537.36 Edg/138.0.0.0","WebKit","Edge","138.0.0.0","Windows","10.0","https://app.prolific.com/","en-GB,en;q=0.9,en-US;q=0.8","6702f60844f21087e0840e3d","686e379bc37a29ffa5cdc956","68776a52bd5f7be9a13d72fb","1","1","6702f60844f21087e0840e3d","1","1","2025-07-16T09:08:27.482Z","","{""Q01"":""1"",""Q02"":""5"",""Q03"":""2""}","[0,1,2]","[""Q01"",""Q02"",""Q03""]","[11071.300000011921,12935,15522]","[]","[11071.300000011921,12935,15522,16193.899999976158]","0.3333333333333333","0.5","0","stress","","","","","","","","","","","","","","","","","","","","","","","","","","","","","","",""
"95638","","","","instructions","5","178943","0.0-3.0-0.0","86","1","2025-07-16 09:07:03","1f75c3e559b7213887762d5229550c2b","94.10.147.75","Mozilla/5.0 (Windows NT 10.0; Win64; x64) AppleWebKit/537.36 (KHTML, like Gecko) Chrome/138.0.0.0 Safari/537.36 Edg/138.0.0.0","WebKit","Edge","138.0.0.0","Windows","10.0","https://app.prolific.com/","en-GB,en;q=0.9,en-US;q=0.8","6702f60844f21087e0840e3d","686e379bc37a29ffa5cdc956","68776a52bd5f7be9a13d72fb","1","1","6702f60844f21087e0840e3d","1","1","","","","","","","","","","","","","[{""page_index"":0,""viewing_time"":95638}]","","","","","","","","","","","","","","","","","","","","","","","","","","","","","",""
"5364","","<p>Before you start with this game please answer the following three questions yourself. </p>
  <p>Through this game, we measure several aspects of your cognitive performance, such as reaction times, multi-tasking capabilities </p>
  <p>and the ability to assess the situation you are in.</p>
  <p></p>
  <p><b>How good do you usually are in such tasks?</b></p>","63","html-slider-response","6","184310","0.0-4.0-0.0","86","1","2025-07-16 09:07:03","1f75c3e559b7213887762d5229550c2b","94.10.147.75","Mozilla/5.0 (Windows NT 10.0; Win64; x64) AppleWebKit/537.36 (KHTML, like Gecko) Chrome/138.0.0.0 Safari/537.36 Edg/138.0.0.0","WebKit","Edge","138.0.0.0","Windows","10.0","https://app.prolific.com/","en-GB,en;q=0.9,en-US;q=0.8","6702f60844f21087e0840e3d","686e379bc37a29ffa5cdc956","68776a52bd5f7be9a13d72fb","1","1","6702f60844f21087e0840e3d","1","1","2025-07-16T09:10:08.489Z","","","","","","","","","","","PreSkillQ","","50","","","","","","","","","","","","","","","","","","","","","","","","","","","","",""
"4743","","<div style=""width:500px;"">
  <p>How well do you think you will perform in this task compared to other participants?</p>
  </div>","62","html-slider-response","7","189056","0.0-4.0-1.0","86","1","2025-07-16 09:07:03","1f75c3e559b7213887762d5229550c2b","94.10.147.75","Mozilla/5.0 (Windows NT 10.0; Win64; x64) AppleWebKit/537.36 (KHTML, like Gecko) Chrome/138.0.0.0 Safari/537.36 Edg/138.0.0.0","WebKit","Edge","138.0.0.0","Windows","10.0","https://app.prolific.com/","en-GB,en;q=0.9,en-US;q=0.8","6702f60844f21087e0840e3d","686e379bc37a29ffa5cdc956","68776a52bd5f7be9a13d72fb","1","1","6702f60844f21087e0840e3d","1","1","2025-07-16T09:10:13.235Z","","","","","","","","","","","PrePerfQ","","50","","","","","","","","","","","","","","","","","","","","","","","","","","","","",""
"3766","","<div style=""width:500px;"">
  <p>What best describes how you currently feel?</p>
  </div>","42","html-slider-response","8","192823","0.0-4.0-2.0","86","1","2025-07-16 09:07:03","1f75c3e559b7213887762d5229550c2b","94.10.147.75","Mozilla/5.0 (Windows NT 10.0; Win64; x64) AppleWebKit/537.36 (KHTML, like Gecko) Chrome/138.0.0.0 Safari/537.36 Edg/138.0.0.0","WebKit","Edge","138.0.0.0","Windows","10.0","https://app.prolific.com/","en-GB,en;q=0.9,en-US;q=0.8","6702f60844f21087e0840e3d","686e379bc37a29ffa5cdc956","68776a52bd5f7be9a13d72fb","1","1","6702f60844f21087e0840e3d","1","1","2025-07-16T09:10:17.002Z","","","","","","","","","","","PreMotivationQ","","50","","","","","","","","","","","","","","","","","","","","","","","","","","","","",""
"","","","","ctl-task-cpt","9","397985","0.0-5.0-0.0","86","1","2025-07-16 09:07:03","1f75c3e559b7213887762d5229550c2b","94.10.147.75","Mozilla/5.0 (Windows NT 10.0; Win64; x64) AppleWebKit/537.36 (KHTML, like Gecko) Chrome/138.0.0.0 Safari/537.36 Edg/138.0.0.0","WebKit","Edge","138.0.0.0","Windows","10.0","https://app.prolific.com/","en-GB,en;q=0.9,en-US;q=0.8","6702f60844f21087e0840e3d","686e379bc37a29ffa5cdc956","68776a52bd5f7be9a13d72fb","1","1","6702f60844f21087e0840e3d","1","1","2025-07-16T09:13:42.164Z","","","","","","","","","","","","","","win-only","2","g1:SE,g2:NW","1","1","0","195040.1","172100","177101.1","202153.8","1","4","8","6","2","8","7","7","0","0.05303030303030303","2064","3000","515","[""left"",""up""]","{""num_key_presses"":7,""num_perfect"":6,""num_errors"":1,""num_randdir"":0,""num_randdir_good_moves"":0,""num_whilered"":0,""num_whileblue"":0,""num_blue"":2,""num_good_moves"":6}","[293.22232142857143,295.12857142857143,0.5,293.22232142857143,295.12857142857143,100.4,293.22232142857143,295.12857142857143,200.7,293.22232142857143,295.12857142857143,301.9,293.22232142857143,295.12857142857143,406.7,293.22232142857143,295.12857142857143,514.6,293.22232142857143,295.12857142857143,616,293.22232142857143,295.12857142857143,716.9,293.22232142857143,295.12857142857143,821.6,477.22232142857143,293.12857142857143,921.9,568.2223214285714,498.12857142857143,1021.9,546.2223214285714,540.1285714285714,1132.5,349.22232142857143,442.12857142857143,1236.4,297.22232142857143,379.12857142857143,1336.8,372.22232142857143,409.12857142857143,1437.4,435.22232142857143,457.12857142857143,1541.5,460.22232142857143,491.12857142857143,1642.1,81.22232142857143,101.12857142857143,1747.6,59.222321428571426,79.12857142857143,1847.9,57.222321428571426,76.12857142857143,1948.3,53.222321428571426,59.128571428571426,2051.6,53.222321428571426,58.128571428571426,2152.3,53.222321428571426,58.128571428571426,2256.9,53.222321428571426,58.128571428571426,2364,53.222321428571426,58.128571428571426,2464.2,53.222321428571426,58.128571428571426,2567.1,53.222321428571426,58.128571428571426,2672,53.222321428571426,58.128571428571426,2780.6,53.222321428571426,58.128571428571426,2880.7,53.222321428571426,58.128571428571426,2986.9,53.222321428571426,58.128571428571426,3091.9,53.222321428571426,58.128571428571426,3197.1,53.222321428571426,58.128571428571426,3297.1,53.222321428571426,58.128571428571426,3397.1,53.222321428571426,58.128571428571426,3497.5,53.222321428571426,58.128571428571426,3601.8,53.222321428571426,58.128571428571426,3706.3,53.222321428571426,58.128571428571426,3813.8,53.222321428571426,58.128571428571426,3914,53.222321428571426,58.128571428571426,4017.2,53.222321428571426,58.128571428571426,4117.2,53.222321428571426,58.128571428571426,4221.3,53.222321428571426,58.128571428571426,4330.2,53.222321428571426,58.128571428571426,4430.2,53.222321428571426,58.128571428571426,4530.2,53.222321428571426,58.128571428571426,4635.7,53.222321428571426,58.128571428571426,4736.8,53.222321428571426,58.128571428571426,4841,53.222321428571426,58.128571428571426,4941.4]","[429.4,429.3,1000,0.1,-570.7,""error"",""-"",""-"",""no_move"",7761.2,7331.5,2366.2,4934.9,460.1,""smooth"",""up"",""up"",""good_move"",10737.3,2975.5,2435.3,7761.8,540.2,""smooth"",""up"",""up"",""good_move"",13386.6,2647.2,2202.8,10739.4,444.4,""smooth"",""up"",""up"",""good_move"",19395.6,6008.7,2467.2,16479.7,448.7,""smooth"",""left"",""left"",""good_move"",22293.4,2897.1,2416.3,19396.3,480.8,""smooth"",""left"",""left"",""good_move"",24957.6,2664.1,2227.6,22293.5,436.6,""smooth"",""left"",""left"",""good_move""]","",""
"10912","","<div style=""width:500px;"">
  <p>What determined the result of this run?</p>
  </div>","50","html-slider-response","10","408898","0.0-5.0-1.0","86","1","2025-07-16 09:07:03","1f75c3e559b7213887762d5229550c2b","94.10.147.75","Mozilla/5.0 (Windows NT 10.0; Win64; x64) AppleWebKit/537.36 (KHTML, like Gecko) Chrome/138.0.0.0 Safari/537.36 Edg/138.0.0.0","WebKit","Edge","138.0.0.0","Windows","10.0","https://app.prolific.com/","en-GB,en;q=0.9,en-US;q=0.8","6702f60844f21087e0840e3d","686e379bc37a29ffa5cdc956","68776a52bd5f7be9a13d72fb","1","1","6702f60844f21087e0840e3d","1","1","2025-07-16T09:13:53.077Z","","","","","","","","","","","AttribQ","","50","","","","","","","","","","","","","","","","","","","","","","","","","","","","",""
"2913","","<div style=""width:500px;"">
  <p>How much control did you have over the ball?</p>
  </div>","60","html-slider-response","11","411812","0.0-5.0-2.0","86","1","2025-07-16 09:07:03","1f75c3e559b7213887762d5229550c2b","94.10.147.75","Mozilla/5.0 (Windows NT 10.0; Win64; x64) AppleWebKit/537.36 (KHTML, like Gecko) Chrome/138.0.0.0 Safari/537.36 Edg/138.0.0.0","WebKit","Edge","138.0.0.0","Windows","10.0","https://app.prolific.com/","en-GB,en;q=0.9,en-US;q=0.8","6702f60844f21087e0840e3d","686e379bc37a29ffa5cdc956","68776a52bd5f7be9a13d72fb","1","1","6702f60844f21087e0840e3d","1","1","2025-07-16T09:13:55.991Z","","","","","","","","","","","ControlQ","","50","","","","","","","","","","","","","","","","","","","","","","","","","","","","",""
"4158","","<div style=""width:500px;"">
  <p>How would you describe your current emotional state?</p>
  </div>","50","html-slider-response","12","415972","0.0-5.0-3.0","86","1","2025-07-16 09:07:03","1f75c3e559b7213887762d5229550c2b","94.10.147.75","Mozilla/5.0 (Windows NT 10.0; Win64; x64) AppleWebKit/537.36 (KHTML, like Gecko) Chrome/138.0.0.0 Safari/537.36 Edg/138.0.0.0","WebKit","Edge","138.0.0.0","Windows","10.0","https://app.prolific.com/","en-GB,en;q=0.9,en-US;q=0.8","6702f60844f21087e0840e3d","686e379bc37a29ffa5cdc956","68776a52bd5f7be9a13d72fb","1","1","6702f60844f21087e0840e3d","1","1","2025-07-16T09:14:00.151Z","","","","","","","","","","","StressQ","","50","","","","","","","","","","","","","","","","","","","","","","","","","","","","",""
"4466","","<div style=""width:500px;"">
  <p>What best describes how you currently feel?</p>
  </div>","30","html-slider-response","13","420439","0.0-5.0-4.0","86","1","2025-07-16 09:07:03","1f75c3e559b7213887762d5229550c2b","94.10.147.75","Mozilla/5.0 (Windows NT 10.0; Win64; x64) AppleWebKit/537.36 (KHTML, like Gecko) Chrome/138.0.0.0 Safari/537.36 Edg/138.0.0.0","WebKit","Edge","138.0.0.0","Windows","10.0","https://app.prolific.com/","en-GB,en;q=0.9,en-US;q=0.8","6702f60844f21087e0840e3d","686e379bc37a29ffa5cdc956","68776a52bd5f7be9a13d72fb","1","1","6702f60844f21087e0840e3d","1","1","2025-07-16T09:14:04.618Z","","","","","","","","","","","MotivationQ","","50","","","","","","","","","","","","","","","","","","","","","","","","","","","","",""
"","","","","ctl-task-cpt","14","445204","0.0-5.0-0.1","86","1","2025-07-16 09:07:03","1f75c3e559b7213887762d5229550c2b","94.10.147.75","Mozilla/5.0 (Windows NT 10.0; Win64; x64) AppleWebKit/537.36 (KHTML, like Gecko) Chrome/138.0.0.0 Safari/537.36 Edg/138.0.0.0","WebKit","Edge","138.0.0.0","Windows","10.0","https://app.prolific.com/","en-GB,en;q=0.9,en-US;q=0.8","6702f60844f21087e0840e3d","686e379bc37a29ffa5cdc956","68776a52bd5f7be9a13d72fb","1","1","6702f60844f21087e0840e3d","1","1","2025-07-16T09:14:29.383Z","","","","","","","","","","","","","","win-only","1","g1:NE,g2:SW","0.9","2","0","422655.7","1145.1","6145.7","21755.8","1","4","4","6","1","1","1","8","7","0.06060606060606061","3012.4","3000","540","[""up"",""right""]","{""num_key_presses"":4,""num_perfect"":4,""num_errors"":0,""num_randdir"":0,""num_randdir_good_moves"":0,""num_whilered"":0,""num_whileblue"":0,""num_blue"":1,""num_good_moves"":4}","[299.22232142857143,295.12857142857143,0.3,299.22232142857143,295.12857142857143,101.1,299.22232142857143,295.12857142857143,210.2,299.22232142857143,295.12857142857143,310.2,299.22232142857143,295.12857142857143,415.9,299.22232142857143,295.12857142857143,516.2,299.22232142857143,295.12857142857143,616.2,299.22232142857143,295.12857142857143,720.6,343.22232142857143,264.12857142857143,821,395.22232142857143,282.12857142857143,921,409.22232142857143,323.12857142857143,1026.9,396.22232142857143,333.12857142857143,1130.3,364.22232142857143,288.12857142857143,1230.4,361.22232142857143,262.12857142857143,1330.5,361.22232142857143,260.12857142857143,1435.3,361.22232142857143,260.12857142857143,1535.8,361.22232142857143,260.12857142857143,1643.4,361.22232142857143,260.12857142857143,1746,361.22232142857143,260.12857142857143,1846,361.22232142857143,260.12857142857143,1950.7,358.22232142857143,259.12857142857143,2051.3,351.22232142857143,256.12857142857143,2159.8,349.22232142857143,256.12857142857143,2260.3,349.22232142857143,256.12857142857143,2360.6,357.22232142857143,248.12857142857143,2462.2,486.22232142857143,123.12857142857143,2565.7,496.22232142857143,115.12857142857143,2665.9,496.22232142857143,108.12857142857143,2776.2,534.2223214285714,67.12857142857143,2876.3,542.2223214285714,61.128571428571426,2976.3,543.2223214285714,59.128571428571426,3081.1,543.2223214285714,59.128571428571426,3181.5,543.2223214285714,59.128571428571426,3285.3,543.2223214285714,59.128571428571426,3385.9,543.2223214285714,59.128571428571426,3490.6,543.2223214285714,59.128571428571426,3590.6,543.2223214285714,59.128571428571426,3690.8,543.2223214285714,59.128571428571426,3790.9,543.2223214285714,59.128571428571426,3895.3,543.2223214285714,59.128571428571426,3995.6,543.2223214285714,59.128571428571426,4095.8,543.2223214285714,59.128571428571426,4195.8,543.2223214285714,59.128571428571426,4296.1,543.2223214285714,59.128571428571426,4400.3,543.2223214285714,59.128571428571426,4501,543.2223214285714,59.128571428571426,4605.7,543.2223214285714,59.128571428571426,4705.8,543.2223214285714,59.128571428571426,4806.7,543.2223214285714,59.128571428571426,4910.8]","[1636.8,1636.8,1000,0,636.8,""smooth"",""up"",""up"",""good_move"",5581.6,3944.6,3487.7,1637,456.9,""smooth"",""up"",""up"",""good_move"",8787.8,3205.5,2187.5,5582.5,1017.8,""smooth"",""right"",""right"",""good_move"",15520.5,6732.4,2843.3,12300.4,376.8,""smooth"",""right"",""right"",""good_move""]","",""
"3924","","<div style=""width:500px;"">
  <p>What determined the result of this run?</p>
  </div>","49","html-slider-response","15","449129","0.0-5.0-1.1","86","1","2025-07-16 09:07:03","1f75c3e559b7213887762d5229550c2b","94.10.147.75","Mozilla/5.0 (Windows NT 10.0; Win64; x64) AppleWebKit/537.36 (KHTML, like Gecko) Chrome/138.0.0.0 Safari/537.36 Edg/138.0.0.0","WebKit","Edge","138.0.0.0","Windows","10.0","https://app.prolific.com/","en-GB,en;q=0.9,en-US;q=0.8","6702f60844f21087e0840e3d","686e379bc37a29ffa5cdc956","68776a52bd5f7be9a13d72fb","1","1","6702f60844f21087e0840e3d","1","1","2025-07-16T09:14:33.308Z","","","","","","","","","","","AttribQ","","50","","","","","","","","","","","","","","","","","","","","","","","","","","","","",""
"3911","","<div style=""width:500px;"">
  <p>How much control did you have over the ball?</p>
  </div>","58","html-slider-response","16","453041","0.0-5.0-2.1","86","1","2025-07-16 09:07:03","1f75c3e559b7213887762d5229550c2b","94.10.147.75","Mozilla/5.0 (Windows NT 10.0; Win64; x64) AppleWebKit/537.36 (KHTML, like Gecko) Chrome/138.0.0.0 Safari/537.36 Edg/138.0.0.0","WebKit","Edge","138.0.0.0","Windows","10.0","https://app.prolific.com/","en-GB,en;q=0.9,en-US;q=0.8","6702f60844f21087e0840e3d","686e379bc37a29ffa5cdc956","68776a52bd5f7be9a13d72fb","1","1","6702f60844f21087e0840e3d","1","1","2025-07-16T09:14:37.220Z","","","","","","","","","","","ControlQ","","50","","","","","","","","","","","","","","","","","","","","","","","","","","","","",""
"7922","","<div style=""width:500px;"">
  <p>How would you describe your current emotional state?</p>
  </div>","59","html-slider-response","17","460963","0.0-5.0-3.1","86","1","2025-07-16 09:07:03","1f75c3e559b7213887762d5229550c2b","94.10.147.75","Mozilla/5.0 (Windows NT 10.0; Win64; x64) AppleWebKit/537.36 (KHTML, like Gecko) Chrome/138.0.0.0 Safari/537.36 Edg/138.0.0.0","WebKit","Edge","138.0.0.0","Windows","10.0","https://app.prolific.com/","en-GB,en;q=0.9,en-US;q=0.8","6702f60844f21087e0840e3d","686e379bc37a29ffa5cdc956","68776a52bd5f7be9a13d72fb","1","1","6702f60844f21087e0840e3d","1","1","2025-07-16T09:14:45.143Z","","","","","","","","","","","StressQ","","50","","","","","","","","","","","","","","","","","","","","","","","","","","","","",""
"2488","","<div style=""width:500px;"">
  <p>What best describes how you currently feel?</p>
  </div>","42","html-slider-response","18","463452","0.0-5.0-4.1","86","1","2025-07-16 09:07:03","1f75c3e559b7213887762d5229550c2b","94.10.147.75","Mozilla/5.0 (Windows NT 10.0; Win64; x64) AppleWebKit/537.36 (KHTML, like Gecko) Chrome/138.0.0.0 Safari/537.36 Edg/138.0.0.0","WebKit","Edge","138.0.0.0","Windows","10.0","https://app.prolific.com/","en-GB,en;q=0.9,en-US;q=0.8","6702f60844f21087e0840e3d","686e379bc37a29ffa5cdc956","68776a52bd5f7be9a13d72fb","1","1","6702f60844f21087e0840e3d","1","1","2025-07-16T09:14:47.631Z","","","","","","","","","","","MotivationQ","","50","","","","","","","","","","","","","","","","","","","","","","","","","","","","",""
"","","","","ctl-task-cpt","19","492066","0.0-5.0-0.2","86","1","2025-07-16 09:07:03","1f75c3e559b7213887762d5229550c2b","94.10.147.75","Mozilla/5.0 (Windows NT 10.0; Win64; x64) AppleWebKit/537.36 (KHTML, like Gecko) Chrome/138.0.0.0 Safari/537.36 Edg/138.0.0.0","WebKit","Edge","138.0.0.0","Windows","10.0","https://app.prolific.com/","en-GB,en;q=0.9,en-US;q=0.8","6702f60844f21087e0840e3d","686e379bc37a29ffa5cdc956","68776a52bd5f7be9a13d72fb","1","1","6702f60844f21087e0840e3d","1","1","2025-07-16T09:15:16.245Z","","","","","","","","","","","","","","win-only","2","g1:SE,g2:NW","0.8","3","0","465669.2","1222.6","6227.1","25606.6","1","4","8","6","2","-8","-8","0","8","0","1847","3000","-2970","[""left"",""up""]","{""num_key_presses"":5,""num_perfect"":4,""num_errors"":0,""num_randdir"":1,""num_randdir_good_moves"":0,""num_whilered"":0,""num_whileblue"":0,""num_blue"":1,""num_good_moves"":4}","[295.22232142857143,294.12857142857143,0.5,295.22232142857143,294.12857142857143,104.4,295.22232142857143,294.12857142857143,209.1,295.22232142857143,294.12857142857143,311.4,295.22232142857143,294.12857142857143,414.1,295.22232142857143,294.12857142857143,521.1,295.22232142857143,294.12857142857143,623.6,295.22232142857143,294.12857142857143,734.7,315.22232142857143,248.12857142857143,839.3,443.22232142857143,183.12857142857143,943.1,570.2223214285714,413.12857142857143,1043.2,559.2223214285714,445.12857142857143,1143.9,201.22232142857143,261.12857142857143,1248.6,105.22232142857143,94.12857142857143,1351.2,105.22232142857143,94.12857142857143,1453.1,105.22232142857143,94.12857142857143,1554.6,93.22232142857143,76.12857142857143,1658.4,69.22232142857143,56.128571428571426,1763.3,62.222321428571426,53.128571428571426,1864.5,62.222321428571426,53.128571428571426,1966.6,62.222321428571426,53.128571428571426,2069,62.222321428571426,53.128571428571426,2169.6,62.222321428571426,53.128571428571426,2276.5,62.222321428571426,53.128571428571426,2379.3,62.222321428571426,53.128571428571426,2492.5,62.222321428571426,53.128571428571426,2593.6,62.222321428571426,53.128571428571426,2694.8,62.222321428571426,53.128571428571426,2800,62.222321428571426,53.128571428571426,2903.2,62.222321428571426,53.128571428571426,3004,62.222321428571426,53.128571428571426,3110.1,62.222321428571426,53.128571428571426,3214.3,62.222321428571426,53.128571428571426,3316.7,62.222321428571426,53.128571428571426,3419,62.222321428571426,53.128571428571426,3519.2,62.222321428571426,53.128571428571426,3633,62.222321428571426,53.128571428571426,3734.5,62.222321428571426,53.128571428571426,3838.9,62.222321428571426,53.128571428571426,3943.3,62.222321428571426,53.128571428571426,4044.3,62.222321428571426,53.128571428571426,4150.1,62.222321428571426,53.128571428571426,4253.9,62.222321428571426,53.128571428571426,4354.8,62.222321428571426,53.128571428571426,4458.3,62.222321428571426,53.128571428571426,4560.9,62.222321428571426,53.128571428571426,4664.6,62.222321428571426,53.128571428571426,4766,62.222321428571426,53.128571428571426,4867.5,62.222321428571426,53.128571428571426,4968.7]","[4277.2,4277.1,1858.1,2003.7,415.4,""smooth"",""up"",""up"",""good_move"",7909.9,3631.5,2464.6,4278.4,1166.9,""oops"",""up"",""down"",""bad_move"",10223.9,2313.7,1830.4,7910.2,483.3,""smooth"",""left"",""left"",""good_move"",13275.3,3051.1,2645.1,10224.2,406,""smooth"",""left"",""left"",""good_move"",16153.1,2877.5,2470,13275.6,407.6,""smooth"",""up"",""up"",""good_move""]","",""
"10507","","<div style=""width:500px;"">
  <p>What determined the result of this run?</p>
  </div>","25","html-slider-response","20","502574","0.0-5.0-1.2","86","1","2025-07-16 09:07:03","1f75c3e559b7213887762d5229550c2b","94.10.147.75","Mozilla/5.0 (Windows NT 10.0; Win64; x64) AppleWebKit/537.36 (KHTML, like Gecko) Chrome/138.0.0.0 Safari/537.36 Edg/138.0.0.0","WebKit","Edge","138.0.0.0","Windows","10.0","https://app.prolific.com/","en-GB,en;q=0.9,en-US;q=0.8","6702f60844f21087e0840e3d","686e379bc37a29ffa5cdc956","68776a52bd5f7be9a13d72fb","1","1","6702f60844f21087e0840e3d","1","1","2025-07-16T09:15:26.753Z","","","","","","","","","","","AttribQ","","50","","","","","","","","","","","","","","","","","","","","","","","","","","","","",""
"3548","","<div style=""width:500px;"">
  <p>How much control did you have over the ball?</p>
  </div>","26","html-slider-response","21","506123","0.0-5.0-2.2","86","1","2025-07-16 09:07:03","1f75c3e559b7213887762d5229550c2b","94.10.147.75","Mozilla/5.0 (Windows NT 10.0; Win64; x64) AppleWebKit/537.36 (KHTML, like Gecko) Chrome/138.0.0.0 Safari/537.36 Edg/138.0.0.0","WebKit","Edge","138.0.0.0","Windows","10.0","https://app.prolific.com/","en-GB,en;q=0.9,en-US;q=0.8","6702f60844f21087e0840e3d","686e379bc37a29ffa5cdc956","68776a52bd5f7be9a13d72fb","1","1","6702f60844f21087e0840e3d","1","1","2025-07-16T09:15:30.302Z","","","","","","","","","","","ControlQ","","50","","","","","","","","","","","","","","","","","","","","","","","","","","","","",""
"3414","","<div style=""width:500px;"">
  <p>How would you describe your current emotional state?</p>
  </div>","58","html-slider-response","22","509538","0.0-5.0-3.2","86","1","2025-07-16 09:07:03","1f75c3e559b7213887762d5229550c2b","94.10.147.75","Mozilla/5.0 (Windows NT 10.0; Win64; x64) AppleWebKit/537.36 (KHTML, like Gecko) Chrome/138.0.0.0 Safari/537.36 Edg/138.0.0.0","WebKit","Edge","138.0.0.0","Windows","10.0","https://app.prolific.com/","en-GB,en;q=0.9,en-US;q=0.8","6702f60844f21087e0840e3d","686e379bc37a29ffa5cdc956","68776a52bd5f7be9a13d72fb","1","1","6702f60844f21087e0840e3d","1","1","2025-07-16T09:15:33.717Z","","","","","","","","","","","StressQ","","50","","","","","","","","","","","","","","","","","","","","","","","","","","","","",""
"2634","","<div style=""width:500px;"">
  <p>What best describes how you currently feel?</p>
  </div>","39","html-slider-response","23","512173","0.0-5.0-4.2","86","1","2025-07-16 09:07:03","1f75c3e559b7213887762d5229550c2b","94.10.147.75","Mozilla/5.0 (Windows NT 10.0; Win64; x64) AppleWebKit/537.36 (KHTML, like Gecko) Chrome/138.0.0.0 Safari/537.36 Edg/138.0.0.0","WebKit","Edge","138.0.0.0","Windows","10.0","https://app.prolific.com/","en-GB,en;q=0.9,en-US;q=0.8","6702f60844f21087e0840e3d","686e379bc37a29ffa5cdc956","68776a52bd5f7be9a13d72fb","1","1","6702f60844f21087e0840e3d","1","1","2025-07-16T09:15:36.353Z","","","","","","","","","","","MotivationQ","","50","","","","","","","","","","","","","","","","","","","","","","","","","","","","",""
"","","","","ctl-task-cpt","24","549027","0.0-5.0-0.3","86","1","2025-07-16 09:07:03","1f75c3e559b7213887762d5229550c2b","94.10.147.75","Mozilla/5.0 (Windows NT 10.0; Win64; x64) AppleWebKit/537.36 (KHTML, like Gecko) Chrome/138.0.0.0 Safari/537.36 Edg/138.0.0.0","WebKit","Edge","138.0.0.0","Windows","10.0","https://app.prolific.com/","en-GB,en;q=0.9,en-US;q=0.8","6702f60844f21087e0840e3d","686e379bc37a29ffa5cdc956","68776a52bd5f7be9a13d72fb","1","1","6702f60844f21087e0840e3d","1","1","2025-07-16T09:16:13.206Z","","","","","","","","","","","","","","win-only","0","g1:NW,g2:SE","0.7","4","0","514389.6","1172.3","6175.7","33836.3","1","4","4","6","2","4","4","4","0","0.030303030303030304","1200.1","3000","165","[""down"",""right""]","{""num_key_presses"":6,""num_perfect"":4,""num_errors"":0,""num_randdir"":2,""num_randdir_good_moves"":2,""num_whilered"":0,""num_whileblue"":0,""num_blue"":3,""num_good_moves"":6}","[296.22232142857143,291.12857142857143,0.6,296.22232142857143,291.12857142857143,103.5,296.22232142857143,291.12857142857143,207.2,296.22232142857143,291.12857142857143,308.4,296.22232142857143,291.12857142857143,416.7,296.22232142857143,291.12857142857143,519,296.22232142857143,291.12857142857143,624.4,499.22232142857143,408.12857142857143,730,551.2223214285714,533.1285714285714,833.8,552.2223214285714,547.1285714285714,934.4,552.2223214285714,550.1285714285714,1035.9,551.2223214285714,550.1285714285714,1138.4,551.2223214285714,550.1285714285714,1239.3,551.2223214285714,550.1285714285714,1339.9,551.2223214285714,550.1285714285714,1441.8,551.2223214285714,550.1285714285714,1544.5,551.2223214285714,550.1285714285714,1644.8,551.2223214285714,550.1285714285714,1745.4,551.2223214285714,550.1285714285714,1850.1,551.2223214285714,550.1285714285714,1951.3,551.2223214285714,550.1285714285714,2059,551.2223214285714,550.1285714285714,2159.3,551.2223214285714,550.1285714285714,2266.4,551.2223214285714,550.1285714285714,2368.4,551.2223214285714,550.1285714285714,2470.1,551.2223214285714,550.1285714285714,2573.9,551.2223214285714,550.1285714285714,2675,551.2223214285714,550.1285714285714,2781.7,551.2223214285714,550.1285714285714,2884.9,551.2223214285714,550.1285714285714,2989.5,551.2223214285714,550.1285714285714,3102.5,551.2223214285714,550.1285714285714,3204.3,551.2223214285714,550.1285714285714,3305.3,551.2223214285714,550.1285714285714,3409,551.2223214285714,550.1285714285714,3514.3,551.2223214285714,550.1285714285714,3614.4,551.2223214285714,550.1285714285714,3718.3,551.2223214285714,550.1285714285714,3823.6,551.2223214285714,550.1285714285714,3923.7,551.2223214285714,550.1285714285714,4029,551.2223214285714,550.1285714285714,4133.3,551.2223214285714,550.1285714285714,4238.6,551.2223214285714,550.1285714285714,4343.7,551.2223214285714,550.1285714285714,4444.1,551.2223214285714,550.1285714285714,4549,551.2223214285714,550.1285714285714,4653.6,551.2223214285714,550.1285714285714,4753.8,551.2223214285714,550.1285714285714,4858.8,551.2223214285714,550.1285714285714,4963.9]","[5988.2,5988.2,3440.1,2001.8,546.3,""smooth"",""right"",""right"",""good_move"",9359.8,3371.1,2933.5,5988.7,437.6,""oops"",""right"",""right"",""good_move"",12003.8,2643.3,2191.5,9360.5,451.8,""oops"",""right"",""down"",""good_move"",17729,5724.9,2210.9,15055.7,462.4,""smooth"",""right"",""right"",""good_move"",24802.7,7073.6,2577.1,21810.2,415.4,""smooth"",""down"",""down"",""good_move"",27574,2770.5,2159.6,24803.5,610.9,""smooth"",""down"",""down"",""good_move""]","",""
"7518","","<div style=""width:500px;"">
  <p>What determined the result of this run?</p>
  </div>","38","html-slider-response","25","556546","0.0-5.0-1.3","86","1","2025-07-16 09:07:03","1f75c3e559b7213887762d5229550c2b","94.10.147.75","Mozilla/5.0 (Windows NT 10.0; Win64; x64) AppleWebKit/537.36 (KHTML, like Gecko) Chrome/138.0.0.0 Safari/537.36 Edg/138.0.0.0","WebKit","Edge","138.0.0.0","Windows","10.0","https://app.prolific.com/","en-GB,en;q=0.9,en-US;q=0.8","6702f60844f21087e0840e3d","686e379bc37a29ffa5cdc956","68776a52bd5f7be9a13d72fb","1","1","6702f60844f21087e0840e3d","1","1","2025-07-16T09:16:20.725Z","","","","","","","","","","","AttribQ","","50","","","","","","","","","","","","","","","","","","","","","","","","","","","","",""
"3261","","<div style=""width:500px;"">
  <p>How much control did you have over the ball?</p>
  </div>","39","html-slider-response","26","559808","0.0-5.0-2.3","86","1","2025-07-16 09:07:03","1f75c3e559b7213887762d5229550c2b","94.10.147.75","Mozilla/5.0 (Windows NT 10.0; Win64; x64) AppleWebKit/537.36 (KHTML, like Gecko) Chrome/138.0.0.0 Safari/537.36 Edg/138.0.0.0","WebKit","Edge","138.0.0.0","Windows","10.0","https://app.prolific.com/","en-GB,en;q=0.9,en-US;q=0.8","6702f60844f21087e0840e3d","686e379bc37a29ffa5cdc956","68776a52bd5f7be9a13d72fb","1","1","6702f60844f21087e0840e3d","1","1","2025-07-16T09:16:23.987Z","","","","","","","","","","","ControlQ","","50","","","","","","","","","","","","","","","","","","","","","","","","","","","","",""
"2495","","<div style=""width:500px;"">
  <p>How would you describe your current emotional state?</p>
  </div>","55","html-slider-response","27","562305","0.0-5.0-3.3","86","1","2025-07-16 09:07:03","1f75c3e559b7213887762d5229550c2b","94.10.147.75","Mozilla/5.0 (Windows NT 10.0; Win64; x64) AppleWebKit/537.36 (KHTML, like Gecko) Chrome/138.0.0.0 Safari/537.36 Edg/138.0.0.0","WebKit","Edge","138.0.0.0","Windows","10.0","https://app.prolific.com/","en-GB,en;q=0.9,en-US;q=0.8","6702f60844f21087e0840e3d","686e379bc37a29ffa5cdc956","68776a52bd5f7be9a13d72fb","1","1","6702f60844f21087e0840e3d","1","1","2025-07-16T09:16:26.484Z","","","","","","","","","","","StressQ","","50","","","","","","","","","","","","","","","","","","","","","","","","","","","","",""
"1753","","<div style=""width:500px;"">
  <p>What best describes how you currently feel?</p>
  </div>","39","html-slider-response","28","564059","0.0-5.0-4.3","86","1","2025-07-16 09:07:03","1f75c3e559b7213887762d5229550c2b","94.10.147.75","Mozilla/5.0 (Windows NT 10.0; Win64; x64) AppleWebKit/537.36 (KHTML, like Gecko) Chrome/138.0.0.0 Safari/537.36 Edg/138.0.0.0","WebKit","Edge","138.0.0.0","Windows","10.0","https://app.prolific.com/","en-GB,en;q=0.9,en-US;q=0.8","6702f60844f21087e0840e3d","686e379bc37a29ffa5cdc956","68776a52bd5f7be9a13d72fb","1","1","6702f60844f21087e0840e3d","1","1","2025-07-16T09:16:28.238Z","","","","","","","","","","","MotivationQ","","50","","","","","","","","","","","","","","","","","","","","","","","","","","","","",""
"","","","","ctl-task-cpt","29","596126","0.0-5.0-0.4","86","1","2025-07-16 09:07:03","1f75c3e559b7213887762d5229550c2b","94.10.147.75","Mozilla/5.0 (Windows NT 10.0; Win64; x64) AppleWebKit/537.36 (KHTML, like Gecko) Chrome/138.0.0.0 Safari/537.36 Edg/138.0.0.0","WebKit","Edge","138.0.0.0","Windows","10.0","https://app.prolific.com/","en-GB,en;q=0.9,en-US;q=0.8","6702f60844f21087e0840e3d","686e379bc37a29ffa5cdc956","68776a52bd5f7be9a13d72fb","1","1","6702f60844f21087e0840e3d","1","1","2025-07-16T09:17:00.305Z","","","","","","","","","","","","","","win-only","3","g1:SW,g2:NE","0.6","5","0","566275.6","1048.9","6051.6","29045.8","1","4","4","6","1","-1","-1","3","4","0.022727272727272728","1117.1","3000","-2975","[""down"",""left""]","{""num_key_presses"":6,""num_perfect"":2,""num_errors"":0,""num_randdir"":4,""num_randdir_good_moves"":2,""num_whilered"":0,""num_whileblue"":0,""num_blue"":0,""num_good_moves"":4}","[302.22232142857143,297.12857142857143,0.3,302.22232142857143,297.12857142857143,100.3,302.22232142857143,297.12857142857143,204.9,302.22232142857143,297.12857142857143,315.7,302.22232142857143,297.12857142857143,416.4,302.22232142857143,297.12857142857143,517.3,302.22232142857143,293.12857142857143,629.8,262.22232142857143,290.12857142857143,736.1,66.22232142857143,522.1285714285714,836.4,49.222321428571426,539.1285714285714,939.1,39.222321428571426,543.1285714285714,1047.6,37.222321428571426,543.1285714285714,1148.8,37.222321428571426,543.1285714285714,1253.4,37.222321428571426,543.1285714285714,1361.1,37.222321428571426,543.1285714285714,1463.1,37.222321428571426,543.1285714285714,1567.7,37.222321428571426,543.1285714285714,1674.3,37.222321428571426,543.1285714285714,1778.6,37.222321428571426,543.1285714285714,1882.2,37.222321428571426,543.1285714285714,1982.4,37.222321428571426,543.1285714285714,2082.9,37.222321428571426,543.1285714285714,2187.7,37.222321428571426,543.1285714285714,2288,37.222321428571426,543.1285714285714,2397.2,37.222321428571426,543.1285714285714,2501.8,37.222321428571426,543.1285714285714,2603.6,37.222321428571426,543.1285714285714,2704.2,37.222321428571426,543.1285714285714,2810,37.222321428571426,543.1285714285714,2913,37.222321428571426,543.1285714285714,3016.4,37.222321428571426,543.1285714285714,3117.5,37.222321428571426,543.1285714285714,3222.1,37.222321428571426,543.1285714285714,3324.6,37.222321428571426,543.1285714285714,3427.4,37.222321428571426,543.1285714285714,3528.1,37.222321428571426,543.1285714285714,3631.8,37.222321428571426,543.1285714285714,3736.7,37.222321428571426,543.1285714285714,3837.7,37.222321428571426,543.1285714285714,3938.6,37.222321428571426,543.1285714285714,4041.8,37.222321428571426,543.1285714285714,4147.5,37.222321428571426,543.1285714285714,4247.8,37.222321428571426,543.1285714285714,4352.5,37.222321428571426,543.1285714285714,4457.4,37.222321428571426,543.1285714285714,4557.6,37.222321428571426,543.1285714285714,4662.3,37.222321428571426,543.1285714285714,4762.4,37.222321428571426,543.1285714285714,4867.6,37.222321428571426,543.1285714285714,4971.3]","[1825.6,1825.6,1000,0,825.6,""oops"",""left"",""down"",""good_move"",5219.1,3393.2,2987.1,1825.9,406.1,""oops"",""down"",""up"",""bad_move"",8680,3460.2,3058.6,5219.8,401.6,""oops"",""left"",""up"",""bad_move"",12121.7,3441.5,3040.7,8680.2,400.8,""oops"",""left"",""down"",""good_move"",15334,3212,2823.5,12122,388.5,""smooth"",""left"",""left"",""good_move"",19304.7,3969.8,3613.3,15334.9,356.5,""smooth"",""left"",""left"",""good_move""]","",""
"3571","","<div style=""width:500px;"">
  <p>What determined the result of this run?</p>
  </div>","23","html-slider-response","30","599698","0.0-5.0-1.4","86","1","2025-07-16 09:07:03","1f75c3e559b7213887762d5229550c2b","94.10.147.75","Mozilla/5.0 (Windows NT 10.0; Win64; x64) AppleWebKit/537.36 (KHTML, like Gecko) Chrome/138.0.0.0 Safari/537.36 Edg/138.0.0.0","WebKit","Edge","138.0.0.0","Windows","10.0","https://app.prolific.com/","en-GB,en;q=0.9,en-US;q=0.8","6702f60844f21087e0840e3d","686e379bc37a29ffa5cdc956","68776a52bd5f7be9a13d72fb","1","1","6702f60844f21087e0840e3d","1","1","2025-07-16T09:17:03.877Z","","","","","","","","","","","AttribQ","","50","","","","","","","","","","","","","","","","","","","","","","","","","","","","",""
"3986","","<div style=""width:500px;"">
  <p>How much control did you have over the ball?</p>
  </div>","32","html-slider-response","31","603686","0.0-5.0-2.4","86","1","2025-07-16 09:07:03","1f75c3e559b7213887762d5229550c2b","94.10.147.75","Mozilla/5.0 (Windows NT 10.0; Win64; x64) AppleWebKit/537.36 (KHTML, like Gecko) Chrome/138.0.0.0 Safari/537.36 Edg/138.0.0.0","WebKit","Edge","138.0.0.0","Windows","10.0","https://app.prolific.com/","en-GB,en;q=0.9,en-US;q=0.8","6702f60844f21087e0840e3d","686e379bc37a29ffa5cdc956","68776a52bd5f7be9a13d72fb","1","1","6702f60844f21087e0840e3d","1","1","2025-07-16T09:17:07.865Z","","","","","","","","","","","ControlQ","","50","","","","","","","","","","","","","","","","","","","","","","","","","","","","",""
"2610","","<div style=""width:500px;"">
  <p>How would you describe your current emotional state?</p>
  </div>","56","html-slider-response","32","606297","0.0-5.0-3.4","86","1","2025-07-16 09:07:03","1f75c3e559b7213887762d5229550c2b","94.10.147.75","Mozilla/5.0 (Windows NT 10.0; Win64; x64) AppleWebKit/537.36 (KHTML, like Gecko) Chrome/138.0.0.0 Safari/537.36 Edg/138.0.0.0","WebKit","Edge","138.0.0.0","Windows","10.0","https://app.prolific.com/","en-GB,en;q=0.9,en-US;q=0.8","6702f60844f21087e0840e3d","686e379bc37a29ffa5cdc956","68776a52bd5f7be9a13d72fb","1","1","6702f60844f21087e0840e3d","1","1","2025-07-16T09:17:10.477Z","","","","","","","","","","","StressQ","","50","","","","","","","","","","","","","","","","","","","","","","","","","","","","",""
"1992","","<div style=""width:500px;"">
  <p>What best describes how you currently feel?</p>
  </div>","42","html-slider-response","33","608291","0.0-5.0-4.4","86","1","2025-07-16 09:07:03","1f75c3e559b7213887762d5229550c2b","94.10.147.75","Mozilla/5.0 (Windows NT 10.0; Win64; x64) AppleWebKit/537.36 (KHTML, like Gecko) Chrome/138.0.0.0 Safari/537.36 Edg/138.0.0.0","WebKit","Edge","138.0.0.0","Windows","10.0","https://app.prolific.com/","en-GB,en;q=0.9,en-US;q=0.8","6702f60844f21087e0840e3d","686e379bc37a29ffa5cdc956","68776a52bd5f7be9a13d72fb","1","1","6702f60844f21087e0840e3d","1","1","2025-07-16T09:17:12.470Z","","","","","","","","","","","MotivationQ","","50","","","","","","","","","","","","","","","","","","","","","","","","","","","","",""
"","","","","ctl-task-cpt","34","642082","0.0-5.0-0.5","86","1","2025-07-16 09:07:03","1f75c3e559b7213887762d5229550c2b","94.10.147.75","Mozilla/5.0 (Windows NT 10.0; Win64; x64) AppleWebKit/537.36 (KHTML, like Gecko) Chrome/138.0.0.0 Safari/537.36 Edg/138.0.0.0","WebKit","Edge","138.0.0.0","Windows","10.0","https://app.prolific.com/","en-GB,en;q=0.9,en-US;q=0.8","6702f60844f21087e0840e3d","686e379bc37a29ffa5cdc956","68776a52bd5f7be9a13d72fb","1","1","6702f60844f21087e0840e3d","1","1","2025-07-16T09:17:46.261Z","","","","","","","","","","","","","","win-only","0","g1:NW,g2:SE","0.5","6","0","610507.9","902.3","5907.1","30772.3","1","4","8","6","2","-8","-9","0","3","0","2182.9","3000","-3010","[""down"",""right""]","{""num_key_presses"":8,""num_perfect"":4,""num_errors"":1,""num_randdir"":3,""num_randdir_good_moves"":0,""num_whilered"":0,""num_whileblue"":1,""num_blue"":1,""num_good_moves"":4}","[296.22232142857143,295.12857142857143,0.6,296.22232142857143,295.12857142857143,105.5,296.22232142857143,295.12857142857143,209.6,296.22232142857143,295.12857142857143,316,296.22232142857143,295.12857142857143,418.1,296.22232142857143,295.12857142857143,518.6,364.22232142857143,230.12857142857143,619.5,563.2223214285714,425.12857142857143,737.4,564.2223214285714,519.1285714285714,839,558.2223214285714,526.1285714285714,956.3,350.22232142857143,410.12857142857143,1073.4,180.22232142857143,221.12857142857143,1177.1,152.22232142857143,144.12857142857143,1302.2,152.22232142857143,144.12857142857143,1403.7,152.22232142857143,144.12857142857143,1508.3,108.22232142857143,117.12857142857143,1608.9,602.2223214285714,433.12857142857143,1721.2,633.2223214285714,464.12857142857143,1823.2,619.2223214285714,478.12857142857143,1924.7,579.2223214285714,505.12857142857143,2024.8,566.2223214285714,516.1285714285714,2130.2,562.2223214285714,516.1285714285714,2232.6,562.2223214285714,516.1285714285714,2340.5,562.2223214285714,516.1285714285714,2445.8,562.2223214285714,516.1285714285714,2551.8,562.2223214285714,516.1285714285714,2653.2,562.2223214285714,516.1285714285714,2753.4,562.2223214285714,516.1285714285714,2853.6,562.2223214285714,516.1285714285714,2958.6,562.2223214285714,516.1285714285714,3058.7,562.2223214285714,516.1285714285714,3158.8,562.2223214285714,516.1285714285714,3258.8,562.2223214285714,516.1285714285714,3365.7,562.2223214285714,516.1285714285714,3468.6,562.2223214285714,516.1285714285714,3568.9,562.2223214285714,516.1285714285714,3673.7,562.2223214285714,516.1285714285714,3773.7,562.2223214285714,516.1285714285714,3873.9,562.2223214285714,516.1285714285714,3974,562.2223214285714,516.1285714285714,4079.6,562.2223214285714,516.1285714285714,4180,562.2223214285714,516.1285714285714,4280.5,562.2223214285714,516.1285714285714,4383.9,562.2223214285714,516.1285714285714,4484.9,562.2223214285714,516.1285714285714,4588.8,562.2223214285714,516.1285714285714,4688.8,562.2223214285714,516.1285714285714,4788.8,562.2223214285714,516.1285714285714,4888.9,562.2223214285714,516.1285714285714,4990]","[1593,1593,1000,0,593,""smooth"",""right"",""right"",""good_move"",4482,2888.6,2504.5,1593.4,384.1,""oops"",""right"",""left"",""bad_move"",7626.7,3144.4,2767.9,4482.3,376.5,""smooth"",""down"",""down"",""good_move"",10839.5,3212.5,2890,7627,322.5,""smooth"",""down"",""down"",""good_move"",14055.5,3215.8,2880.7,10839.7,335.1,""smooth"",""right"",""right"",""good_move"",17183.5,3127.8,2794.1,14055.7,333.7,""oops"",""right"",""up"",""bad_move"",19927.8,2743.9,2409.9,17183.9,334,""oops"",""right"",""left"",""bad_move"",22379.9,2451.6,2135.6,19928.3,316,""while_blue"",""down"",""up"",""bad_move""]","",""
"34148","","<div style=""width:500px;"">
  <p>What determined the result of this run?</p>
  </div>","19","html-slider-response","35","676231","0.0-5.0-1.5","86","1","2025-07-16 09:07:03","1f75c3e559b7213887762d5229550c2b","94.10.147.75","Mozilla/5.0 (Windows NT 10.0; Win64; x64) AppleWebKit/537.36 (KHTML, like Gecko) Chrome/138.0.0.0 Safari/537.36 Edg/138.0.0.0","WebKit","Edge","138.0.0.0","Windows","10.0","https://app.prolific.com/","en-GB,en;q=0.9,en-US;q=0.8","6702f60844f21087e0840e3d","686e379bc37a29ffa5cdc956","68776a52bd5f7be9a13d72fb","1","1","6702f60844f21087e0840e3d","1","1","2025-07-16T09:18:20.411Z","","","","","","","","","","","AttribQ","","50","","","","","","","","","","","","","","","","","","","","","","","","","","","","",""
"1815","","<div style=""width:500px;"">
  <p>How much control did you have over the ball?</p>
  </div>","19","html-slider-response","36","678049","0.0-5.0-2.5","86","1","2025-07-16 09:07:03","1f75c3e559b7213887762d5229550c2b","94.10.147.75","Mozilla/5.0 (Windows NT 10.0; Win64; x64) AppleWebKit/537.36 (KHTML, like Gecko) Chrome/138.0.0.0 Safari/537.36 Edg/138.0.0.0","WebKit","Edge","138.0.0.0","Windows","10.0","https://app.prolific.com/","en-GB,en;q=0.9,en-US;q=0.8","6702f60844f21087e0840e3d","686e379bc37a29ffa5cdc956","68776a52bd5f7be9a13d72fb","1","1","6702f60844f21087e0840e3d","1","1","2025-07-16T09:18:22.228Z","","","","","","","","","","","ControlQ","","50","","","","","","","","","","","","","","","","","","","","","","","","","","","","",""
"2554","","<div style=""width:500px;"">
  <p>How would you describe your current emotional state?</p>
  </div>","58","html-slider-response","37","680606","0.0-5.0-3.5","86","1","2025-07-16 09:07:03","1f75c3e559b7213887762d5229550c2b","94.10.147.75","Mozilla/5.0 (Windows NT 10.0; Win64; x64) AppleWebKit/537.36 (KHTML, like Gecko) Chrome/138.0.0.0 Safari/537.36 Edg/138.0.0.0","WebKit","Edge","138.0.0.0","Windows","10.0","https://app.prolific.com/","en-GB,en;q=0.9,en-US;q=0.8","6702f60844f21087e0840e3d","686e379bc37a29ffa5cdc956","68776a52bd5f7be9a13d72fb","1","1","6702f60844f21087e0840e3d","1","1","2025-07-16T09:18:24.785Z","","","","","","","","","","","StressQ","","50","","","","","","","","","","","","","","","","","","","","","","","","","","","","",""
"1983","","<div style=""width:500px;"">
  <p>What best describes how you currently feel?</p>
  </div>","41","html-slider-response","38","682592","0.0-5.0-4.5","86","1","2025-07-16 09:07:03","1f75c3e559b7213887762d5229550c2b","94.10.147.75","Mozilla/5.0 (Windows NT 10.0; Win64; x64) AppleWebKit/537.36 (KHTML, like Gecko) Chrome/138.0.0.0 Safari/537.36 Edg/138.0.0.0","WebKit","Edge","138.0.0.0","Windows","10.0","https://app.prolific.com/","en-GB,en;q=0.9,en-US;q=0.8","6702f60844f21087e0840e3d","686e379bc37a29ffa5cdc956","68776a52bd5f7be9a13d72fb","1","1","6702f60844f21087e0840e3d","1","1","2025-07-16T09:18:26.771Z","","","","","","","","","","","MotivationQ","","50","","","","","","","","","","","","","","","","","","","","","","","","","","","","",""
"","","","","ctl-task-cpt","39","705040","0.0-5.0-0.6","86","1","2025-07-16 09:07:03","1f75c3e559b7213887762d5229550c2b","94.10.147.75","Mozilla/5.0 (Windows NT 10.0; Win64; x64) AppleWebKit/537.36 (KHTML, like Gecko) Chrome/138.0.0.0 Safari/537.36 Edg/138.0.0.0","WebKit","Edge","138.0.0.0","Windows","10.0","https://app.prolific.com/","en-GB,en;q=0.9,en-US;q=0.8","6702f60844f21087e0840e3d","686e379bc37a29ffa5cdc956","68776a52bd5f7be9a13d72fb","1","1","6702f60844f21087e0840e3d","1","1","2025-07-16T09:18:49.219Z","","","","","","","","","","","","","","win-only","0","g1:NW,g2:SE","0.4","7","0","684808.6","943.3","5944.5","19428.7","1","4","8","6","1","1","1","1","0","0.007575757575757576","1562.4","3000","2055","[""left"",""up""]","{""num_key_presses"":4,""num_perfect"":3,""num_errors"":0,""num_randdir"":1,""num_randdir_good_moves"":1,""num_whilered"":0,""num_whileblue"":0,""num_blue"":1,""num_good_moves"":4}","[296.22232142857143,298.12857142857143,0.5,296.22232142857143,298.12857142857143,103.1,296.22232142857143,298.12857142857143,204.5,296.22232142857143,298.12857142857143,311.2,296.22232142857143,298.12857142857143,412.5,296.22232142857143,298.12857142857143,513.2,296.22232142857143,298.12857142857143,618.6,296.22232142857143,298.12857142857143,723.3,310.22232142857143,250.12857142857143,825.7,298.22232142857143,212.12857142857143,934.9,143.22232142857143,192.12857142857143,1040.9,135.22232142857143,185.12857142857143,1143.1,135.22232142857143,185.12857142857143,1245.2,57.222321428571426,105.12857142857143,1350.6,48.222321428571426,88.12857142857143,1452.5,46.222321428571426,82.12857142857143,1558.3,46.222321428571426,82.12857142857143,1676.2,46.222321428571426,82.12857142857143,1781.7,46.222321428571426,82.12857142857143,1885.6,46.222321428571426,82.12857142857143,1991.2,46.222321428571426,82.12857142857143,2097.8,46.222321428571426,82.12857142857143,2202.6,46.222321428571426,82.12857142857143,2309.2,46.222321428571426,82.12857142857143,2412.8,46.222321428571426,82.12857142857143,2518.9,46.222321428571426,82.12857142857143,2635.2,46.222321428571426,82.12857142857143,2740.2,46.222321428571426,82.12857142857143,2841.5,46.222321428571426,82.12857142857143,2945.4,46.222321428571426,82.12857142857143,3048.3,46.222321428571426,82.12857142857143,3154,46.222321428571426,82.12857142857143,3259.2,46.222321428571426,82.12857142857143,3364.1,46.222321428571426,82.12857142857143,3466.7,46.222321428571426,82.12857142857143,3569.3,46.222321428571426,82.12857142857143,3669.4,46.222321428571426,82.12857142857143,3771.8,46.222321428571426,82.12857142857143,3879,46.222321428571426,82.12857142857143,3984.9,46.222321428571426,82.12857142857143,4086.6,46.222321428571426,82.12857142857143,4191.9,46.222321428571426,82.12857142857143,4294,46.222321428571426,82.12857142857143,4396.2,46.222321428571426,82.12857142857143,4499.7,46.222321428571426,82.12857142857143,4606.1,46.222321428571426,82.12857142857143,4709,46.222321428571426,82.12857142857143,4813.2,46.222321428571426,82.12857142857143,4915.8]","[5268.4,5268.4,2844.2,2006.2,418,""smooth"",""up"",""up"",""good_move"",8174.6,2902.2,2536.7,5272.5,365.5,""smooth"",""up"",""up"",""good_move"",10928.5,2752.8,2412.9,8175.7,339.9,""smooth"",""left"",""left"",""good_move"",13341.5,2412.1,2112.7,10929.4,299.4,""oops"",""left"",""left"",""good_move""]","",""
"13469","","<div style=""width:500px;"">
  <p>What determined the result of this run?</p>
  </div>","46","html-slider-response","40","718511","0.0-5.0-1.6","86","1","2025-07-16 09:07:03","1f75c3e559b7213887762d5229550c2b","94.10.147.75","Mozilla/5.0 (Windows NT 10.0; Win64; x64) AppleWebKit/537.36 (KHTML, like Gecko) Chrome/138.0.0.0 Safari/537.36 Edg/138.0.0.0","WebKit","Edge","138.0.0.0","Windows","10.0","https://app.prolific.com/","en-GB,en;q=0.9,en-US;q=0.8","6702f60844f21087e0840e3d","686e379bc37a29ffa5cdc956","68776a52bd5f7be9a13d72fb","1","1","6702f60844f21087e0840e3d","1","1","2025-07-16T09:19:02.690Z","","","","","","","","","","","AttribQ","","50","","","","","","","","","","","","","","","","","","","","","","","","","","","","",""
"6730","","<div style=""width:500px;"">
  <p>How much control did you have over the ball?</p>
  </div>","41","html-slider-response","41","725243","0.0-5.0-2.6","86","1","2025-07-16 09:07:03","1f75c3e559b7213887762d5229550c2b","94.10.147.75","Mozilla/5.0 (Windows NT 10.0; Win64; x64) AppleWebKit/537.36 (KHTML, like Gecko) Chrome/138.0.0.0 Safari/537.36 Edg/138.0.0.0","WebKit","Edge","138.0.0.0","Windows","10.0","https://app.prolific.com/","en-GB,en;q=0.9,en-US;q=0.8","6702f60844f21087e0840e3d","686e379bc37a29ffa5cdc956","68776a52bd5f7be9a13d72fb","1","1","6702f60844f21087e0840e3d","1","1","2025-07-16T09:19:09.422Z","","","","","","","","","","","ControlQ","","50","","","","","","","","","","","","","","","","","","","","","","","","","","","","",""
"3033","","<div style=""width:500px;"">
  <p>How would you describe your current emotional state?</p>
  </div>","54","html-slider-response","42","728277","0.0-5.0-3.6","86","1","2025-07-16 09:07:03","1f75c3e559b7213887762d5229550c2b","94.10.147.75","Mozilla/5.0 (Windows NT 10.0; Win64; x64) AppleWebKit/537.36 (KHTML, like Gecko) Chrome/138.0.0.0 Safari/537.36 Edg/138.0.0.0","WebKit","Edge","138.0.0.0","Windows","10.0","https://app.prolific.com/","en-GB,en;q=0.9,en-US;q=0.8","6702f60844f21087e0840e3d","686e379bc37a29ffa5cdc956","68776a52bd5f7be9a13d72fb","1","1","6702f60844f21087e0840e3d","1","1","2025-07-16T09:19:12.456Z","","","","","","","","","","","StressQ","","50","","","","","","","","","","","","","","","","","","","","","","","","","","","","",""
"4035","","<div style=""width:500px;"">
  <p>What best describes how you currently feel?</p>
  </div>","46","html-slider-response","43","732313","0.0-5.0-4.6","86","1","2025-07-16 09:07:03","1f75c3e559b7213887762d5229550c2b","94.10.147.75","Mozilla/5.0 (Windows NT 10.0; Win64; x64) AppleWebKit/537.36 (KHTML, like Gecko) Chrome/138.0.0.0 Safari/537.36 Edg/138.0.0.0","WebKit","Edge","138.0.0.0","Windows","10.0","https://app.prolific.com/","en-GB,en;q=0.9,en-US;q=0.8","6702f60844f21087e0840e3d","686e379bc37a29ffa5cdc956","68776a52bd5f7be9a13d72fb","1","1","6702f60844f21087e0840e3d","1","1","2025-07-16T09:19:16.493Z","","","","","","","","","","","MotivationQ","","50","","","","","","","","","","","","","","","","","","","","","","","","","","","","",""
"","","","","ctl-task-cpt","44","782589","0.0-5.0-0.7","86","1","2025-07-16 09:07:03","1f75c3e559b7213887762d5229550c2b","94.10.147.75","Mozilla/5.0 (Windows NT 10.0; Win64; x64) AppleWebKit/537.36 (KHTML, like Gecko) Chrome/138.0.0.0 Safari/537.36 Edg/138.0.0.0","WebKit","Edge","138.0.0.0","Windows","10.0","https://app.prolific.com/","en-GB,en;q=0.9,en-US;q=0.8","6702f60844f21087e0840e3d","686e379bc37a29ffa5cdc956","68776a52bd5f7be9a13d72fb","1","1","6702f60844f21087e0840e3d","1","1","2025-07-16T09:20:06.768Z","","","","","","","","","","","","","","win-only","0","g1:NW,g2:SE","0.3","8","0","734531.6","1975.5","6980.4","47263.7","1","4","4","6","1","-1","-1","0","1","0","2332.5","3000","-1815","[""left"",""up""]","{""num_key_presses"":11,""num_perfect"":4,""num_errors"":0,""num_randdir"":7,""num_randdir_good_moves"":3,""num_whilered"":0,""num_whileblue"":0,""num_blue"":3,""num_good_moves"":7}","[300.22232142857143,294.12857142857143,1.2,300.22232142857143,294.12857142857143,104,300.22232142857143,294.12857142857143,210.8,300.22232142857143,294.12857142857143,316.1,300.22232142857143,294.12857142857143,422.9,300.22232142857143,294.12857142857143,531.7,300.22232142857143,294.12857142857143,631.7,303.22232142857143,294.12857142857143,735.5,451.22232142857143,379.12857142857143,838.5,473.22232142857143,405.12857142857143,939.7,500.22232142857143,462.12857142857143,1051.7,517.2223214285714,480.12857142857143,1153,514.2223214285714,483.12857142857143,1261.4,514.2223214285714,483.12857142857143,1366.1,514.2223214285714,488.12857142857143,1478,275.22232142857143,333.12857142857143,1581.7,38.222321428571426,-83.87142857142857,1688.4,38.222321428571426,-83.87142857142857,1790.5,38.222321428571426,-79.87142857142857,1902.3,34.222321428571426,-0.8714285714285737,2011.5,41.222321428571426,50.128571428571426,2114.6,49.222321428571426,65.12857142857143,2217.9,50.222321428571426,67.12857142857143,2320.3,50.222321428571426,67.12857142857143,2428.3,50.222321428571426,67.12857142857143,2534.6,50.222321428571426,67.12857142857143,2638.8,50.222321428571426,67.12857142857143,2740.5,50.222321428571426,67.12857142857143,2847.4,50.222321428571426,67.12857142857143,2951.2,50.222321428571426,67.12857142857143,3054.3,50.222321428571426,67.12857142857143,3154.9,50.222321428571426,67.12857142857143,3258.6,50.222321428571426,67.12857142857143,3362.2,50.222321428571426,67.12857142857143,3467.7,50.222321428571426,67.12857142857143,3568.6,50.222321428571426,67.12857142857143,3673.8,50.222321428571426,67.12857142857143,3784.1,50.222321428571426,67.12857142857143,3885.8,50.222321428571426,67.12857142857143,3994.1,50.222321428571426,67.12857142857143,4094.2,50.222321428571426,67.12857142857143,4200.9,50.222321428571426,67.12857142857143,4305.6,50.222321428571426,67.12857142857143,4406.1,50.222321428571426,67.12857142857143,4508,50.222321428571426,67.12857142857143,4617,50.222321428571426,67.12857142857143,4722.2,50.222321428571426,67.12857142857143,4824.3,50.222321428571426,67.12857142857143,4925.8]","[5326.6,5326.6,2826.2,2006.7,493.7,""oops"",""up"",""left"",""good_move"",11394.4,6066.9,2127.7,8793.8,472.9,""oops"",""up"",""down"",""bad_move"",14275.3,2880,2265.9,11395.3,614.2,""smooth"",""left"",""left"",""good_move"",17110.1,2832.9,2437.9,14277.2,395,""smooth"",""up"",""up"",""good_move"",19856.6,2746,2344.4,17110.6,401.6,""oops"",""up"",""down"",""bad_move"",22175.3,2317.5,1733.6,19857.8,583.9,""oops"",""up"",""down"",""bad_move"",24414.2,2237.6,1804.7,22176.7,432.8,""smooth"",""up"",""up"",""good_move"",27666.2,3251,2830.3,24415.2,420.7,""oops"",""up"",""up"",""good_move"",32861.8,5193.7,2038.9,30460.4,362.5,""oops"",""up"",""right"",""bad_move"",35409.5,2547.1,2099.1,32862.5,448,""oops"",""up"",""left"",""good_move"",37751.4,2340.5,2027.6,35410.9,312.9,""smooth"",""up"",""up"",""good_move""]","",""
"14335","","<div style=""width:500px;"">
  <p>What determined the result of this run?</p>
  </div>","30","html-slider-response","45","796926","0.0-5.0-1.7","86","1","2025-07-16 09:07:03","1f75c3e559b7213887762d5229550c2b","94.10.147.75","Mozilla/5.0 (Windows NT 10.0; Win64; x64) AppleWebKit/537.36 (KHTML, like Gecko) Chrome/138.0.0.0 Safari/537.36 Edg/138.0.0.0","WebKit","Edge","138.0.0.0","Windows","10.0","https://app.prolific.com/","en-GB,en;q=0.9,en-US;q=0.8","6702f60844f21087e0840e3d","686e379bc37a29ffa5cdc956","68776a52bd5f7be9a13d72fb","1","1","6702f60844f21087e0840e3d","1","1","2025-07-16T09:20:21.105Z","","","","","","","","","","","AttribQ","","50","","","","","","","","","","","","","","","","","","","","","","","","","","","","",""
"2091","","<div style=""width:500px;"">
  <p>How much control did you have over the ball?</p>
  </div>","37","html-slider-response","46","799019","0.0-5.0-2.7","86","1","2025-07-16 09:07:03","1f75c3e559b7213887762d5229550c2b","94.10.147.75","Mozilla/5.0 (Windows NT 10.0; Win64; x64) AppleWebKit/537.36 (KHTML, like Gecko) Chrome/138.0.0.0 Safari/537.36 Edg/138.0.0.0","WebKit","Edge","138.0.0.0","Windows","10.0","https://app.prolific.com/","en-GB,en;q=0.9,en-US;q=0.8","6702f60844f21087e0840e3d","686e379bc37a29ffa5cdc956","68776a52bd5f7be9a13d72fb","1","1","6702f60844f21087e0840e3d","1","1","2025-07-16T09:20:23.198Z","","","","","","","","","","","ControlQ","","50","","","","","","","","","","","","","","","","","","","","","","","","","","","","",""
"2745","","<div style=""width:500px;"">
  <p>How would you describe your current emotional state?</p>
  </div>","57","html-slider-response","47","801768","0.0-5.0-3.7","86","1","2025-07-16 09:07:03","1f75c3e559b7213887762d5229550c2b","94.10.147.75","Mozilla/5.0 (Windows NT 10.0; Win64; x64) AppleWebKit/537.36 (KHTML, like Gecko) Chrome/138.0.0.0 Safari/537.36 Edg/138.0.0.0","WebKit","Edge","138.0.0.0","Windows","10.0","https://app.prolific.com/","en-GB,en;q=0.9,en-US;q=0.8","6702f60844f21087e0840e3d","686e379bc37a29ffa5cdc956","68776a52bd5f7be9a13d72fb","1","1","6702f60844f21087e0840e3d","1","1","2025-07-16T09:20:25.947Z","","","","","","","","","","","StressQ","","50","","","","","","","","","","","","","","","","","","","","","","","","","","","","",""
"2642","","<div style=""width:500px;"">
  <p>What best describes how you currently feel?</p>
  </div>","50","html-slider-response","48","804411","0.0-5.0-4.7","86","1","2025-07-16 09:07:03","1f75c3e559b7213887762d5229550c2b","94.10.147.75","Mozilla/5.0 (Windows NT 10.0; Win64; x64) AppleWebKit/537.36 (KHTML, like Gecko) Chrome/138.0.0.0 Safari/537.36 Edg/138.0.0.0","WebKit","Edge","138.0.0.0","Windows","10.0","https://app.prolific.com/","en-GB,en;q=0.9,en-US;q=0.8","6702f60844f21087e0840e3d","686e379bc37a29ffa5cdc956","68776a52bd5f7be9a13d72fb","1","1","6702f60844f21087e0840e3d","1","1","2025-07-16T09:20:28.590Z","","","","","","","","","","","MotivationQ","","50","","","","","","","","","","","","","","","","","","","","","","","","","","","","",""
"","","","","ctl-task-cpt","49","836098","0.0-5.0-0.8","86","1","2025-07-16 09:07:03","1f75c3e559b7213887762d5229550c2b","94.10.147.75","Mozilla/5.0 (Windows NT 10.0; Win64; x64) AppleWebKit/537.36 (KHTML, like Gecko) Chrome/138.0.0.0 Safari/537.36 Edg/138.0.0.0","WebKit","Edge","138.0.0.0","Windows","10.0","https://app.prolific.com/","en-GB,en;q=0.9,en-US;q=0.8","6702f60844f21087e0840e3d","686e379bc37a29ffa5cdc956","68776a52bd5f7be9a13d72fb","1","1","6702f60844f21087e0840e3d","1","1","2025-07-16T09:21:00.277Z","","","","","","","","","","","","","","win-only","1","g1:NE,g2:SW","0.2","9","0","806629.8","2096.8","7101.6","28663.4","1","4","8","6","1","1","1","1","0","0.007575757575757576","1456.4","3000","1400","[""up"",""right""]","{""num_key_presses"":6,""num_perfect"":2,""num_errors"":0,""num_randdir"":4,""num_randdir_good_moves"":3,""num_whilered"":0,""num_whileblue"":0,""num_blue"":1,""num_good_moves"":5}","[294.22232142857143,303.12857142857143,0.3,294.22232142857143,303.12857142857143,104.2,294.22232142857143,303.12857142857143,204.2,294.22232142857143,303.12857142857143,306.6,294.22232142857143,303.12857142857143,410,294.22232142857143,303.12857142857143,522.7,294.22232142857143,303.12857142857143,625.4,309.22232142857143,287.12857142857143,734.1,488.22232142857143,171.12857142857143,835.3,564.2223214285714,103.12857142857143,935.5,571.2223214285714,77.12857142857143,1037.3,574.2223214285714,64.12857142857143,1150.8,572.2223214285714,60.128571428571426,1259.1,572.2223214285714,60.128571428571426,1369.2,572.2223214285714,60.128571428571426,1472.3,572.2223214285714,60.128571428571426,1583.9,572.2223214285714,60.128571428571426,1684.4,572.2223214285714,60.128571428571426,1785.2,572.2223214285714,60.128571428571426,1891.6,572.2223214285714,60.128571428571426,1991.9,572.2223214285714,60.128571428571426,2095.1,572.2223214285714,60.128571428571426,2195.1,572.2223214285714,60.128571428571426,2296.8,572.2223214285714,60.128571428571426,2402.1,572.2223214285714,60.128571428571426,2502.4,572.2223214285714,60.128571428571426,2603,572.2223214285714,60.128571428571426,2707.4,572.2223214285714,60.128571428571426,2807.9,572.2223214285714,60.128571428571426,2911.6,572.2223214285714,60.128571428571426,3020,572.2223214285714,60.128571428571426,3126.6,572.2223214285714,60.128571428571426,3234.6,572.2223214285714,60.128571428571426,3339.8,572.2223214285714,60.128571428571426,3441.4,572.2223214285714,60.128571428571426,3545.9,572.2223214285714,60.128571428571426,3653.3,572.2223214285714,60.128571428571426,3753.9,572.2223214285714,60.128571428571426,3858.5,572.2223214285714,60.128571428571426,3968.2,572.2223214285714,60.128571428571426,4078.9,572.2223214285714,60.128571428571426,4181,572.2223214285714,60.128571428571426,4283.2,572.2223214285714,60.128571428571426,4396.5,572.2223214285714,60.128571428571426,4501.5,572.2223214285714,60.128571428571426,4610.7,572.2223214285714,60.128571428571426,4711.1,572.2223214285714,60.128571428571426,4818,572.2223214285714,60.128571428571426,4920.6]","[1401.9,1401.9,1000,0,401.9,""smooth"",""right"",""right"",""good_move"",8229.2,6825.6,2155.6,5658.4,415.2,""oops"",""right"",""up"",""good_move"",12159.8,3929.2,3331.8,8230.6,597.4,""oops"",""right"",""right"",""good_move"",15796.1,3635.9,3244.2,12160.2,391.7,""oops"",""up"",""left"",""bad_move"",18697.6,2900.4,2493.1,15797.2,407.3,""oops"",""up"",""right"",""good_move"",21408.6,2709.2,2344,18699.4,365.2,""smooth"",""up"",""up"",""good_move""]","",""
"6902","","<div style=""width:500px;"">
  <p>What determined the result of this run?</p>
  </div>","42","html-slider-response","50","843002","0.0-5.0-1.8","86","1","2025-07-16 09:07:03","1f75c3e559b7213887762d5229550c2b","94.10.147.75","Mozilla/5.0 (Windows NT 10.0; Win64; x64) AppleWebKit/537.36 (KHTML, like Gecko) Chrome/138.0.0.0 Safari/537.36 Edg/138.0.0.0","WebKit","Edge","138.0.0.0","Windows","10.0","https://app.prolific.com/","en-GB,en;q=0.9,en-US;q=0.8","6702f60844f21087e0840e3d","686e379bc37a29ffa5cdc956","68776a52bd5f7be9a13d72fb","1","1","6702f60844f21087e0840e3d","1","1","2025-07-16T09:21:07.181Z","","","","","","","","","","","AttribQ","","50","","","","","","","","","","","","","","","","","","","","","","","","","","","","",""
"1877","","<div style=""width:500px;"">
  <p>How much control did you have over the ball?</p>
  </div>","39","html-slider-response","51","844882","0.0-5.0-2.8","86","1","2025-07-16 09:07:03","1f75c3e559b7213887762d5229550c2b","94.10.147.75","Mozilla/5.0 (Windows NT 10.0; Win64; x64) AppleWebKit/537.36 (KHTML, like Gecko) Chrome/138.0.0.0 Safari/537.36 Edg/138.0.0.0","WebKit","Edge","138.0.0.0","Windows","10.0","https://app.prolific.com/","en-GB,en;q=0.9,en-US;q=0.8","6702f60844f21087e0840e3d","686e379bc37a29ffa5cdc956","68776a52bd5f7be9a13d72fb","1","1","6702f60844f21087e0840e3d","1","1","2025-07-16T09:21:09.061Z","","","","","","","","","","","ControlQ","","50","","","","","","","","","","","","","","","","","","","","","","","","","","","","",""
"5593","","<div style=""width:500px;"">
  <p>How would you describe your current emotional state?</p>
  </div>","51","html-slider-response","52","850478","0.0-5.0-3.8","86","1","2025-07-16 09:07:03","1f75c3e559b7213887762d5229550c2b","94.10.147.75","Mozilla/5.0 (Windows NT 10.0; Win64; x64) AppleWebKit/537.36 (KHTML, like Gecko) Chrome/138.0.0.0 Safari/537.36 Edg/138.0.0.0","WebKit","Edge","138.0.0.0","Windows","10.0","https://app.prolific.com/","en-GB,en;q=0.9,en-US;q=0.8","6702f60844f21087e0840e3d","686e379bc37a29ffa5cdc956","68776a52bd5f7be9a13d72fb","1","1","6702f60844f21087e0840e3d","1","1","2025-07-16T09:21:14.657Z","","","","","","","","","","","StressQ","","50","","","","","","","","","","","","","","","","","","","","","","","","","","","","",""
"2370","","<div style=""width:500px;"">
  <p>What best describes how you currently feel?</p>
  </div>","54","html-slider-response","53","852852","0.0-5.0-4.8","86","1","2025-07-16 09:07:03","1f75c3e559b7213887762d5229550c2b","94.10.147.75","Mozilla/5.0 (Windows NT 10.0; Win64; x64) AppleWebKit/537.36 (KHTML, like Gecko) Chrome/138.0.0.0 Safari/537.36 Edg/138.0.0.0","WebKit","Edge","138.0.0.0","Windows","10.0","https://app.prolific.com/","en-GB,en;q=0.9,en-US;q=0.8","6702f60844f21087e0840e3d","686e379bc37a29ffa5cdc956","68776a52bd5f7be9a13d72fb","1","1","6702f60844f21087e0840e3d","1","1","2025-07-16T09:21:17.031Z","","","","","","","","","","","MotivationQ","","50","","","","","","","","","","","","","","","","","","","","","","","","","","","","",""
"","","","","ctl-task-cpt","54","929855","0.0-5.0-0.9","86","1","2025-07-16 09:07:03","1f75c3e559b7213887762d5229550c2b","94.10.147.75","Mozilla/5.0 (Windows NT 10.0; Win64; x64) AppleWebKit/537.36 (KHTML, like Gecko) Chrome/138.0.0.0 Safari/537.36 Edg/138.0.0.0","WebKit","Edge","138.0.0.0","Windows","10.0","https://app.prolific.com/","en-GB,en;q=0.9,en-US;q=0.8","6702f60844f21087e0840e3d","686e379bc37a29ffa5cdc956","68776a52bd5f7be9a13d72fb","1","1","6702f60844f21087e0840e3d","1","1","2025-07-16T09:22:34.034Z","","","","","","","","","","","","","","win-only","0","g1:NW,g2:SE","0.4","10","0","855070","916.1","5918.4","73986.6","1","4","4","6","1","-1","-1","0","1","0","1515.5","3000","-1945","[""left"",""up""]","{""num_key_presses"":16,""num_perfect"":7,""num_errors"":0,""num_randdir"":9,""num_randdir_good_moves"":2,""num_whilered"":0,""num_whileblue"":0,""num_blue"":6,""num_good_moves"":9}","[297.22232142857143,293.12857142857143,1.4,297.22232142857143,293.12857142857143,105.9,297.22232142857143,293.12857142857143,207.9,297.22232142857143,293.12857142857143,314.9,297.22232142857143,293.12857142857143,416.5,297.22232142857143,293.12857142857143,521.1,297.22232142857143,293.12857142857143,628.7,403.22232142857143,243.12857142857143,735,150.22232142857143,200.12857142857143,851.3,132.22232142857143,29.128571428571426,961.6,132.22232142857143,29.128571428571426,1067.6,96.22232142857143,35.128571428571426,1176.6,62.222321428571426,45.128571428571426,1280.6,45.222321428571426,51.128571428571426,1381.7,45.222321428571426,51.128571428571426,1487.2,45.222321428571426,51.128571428571426,1587.7,45.222321428571426,51.128571428571426,1695.3,45.222321428571426,51.128571428571426,1805.6,45.222321428571426,51.128571428571426,1911.2,45.222321428571426,51.128571428571426,2014.6,45.222321428571426,51.128571428571426,2121.2,45.222321428571426,51.128571428571426,2230.7,45.222321428571426,51.128571428571426,2332.3,45.222321428571426,51.128571428571426,2437.5,45.222321428571426,51.128571428571426,2540.1,45.222321428571426,51.128571428571426,2650.4,45.222321428571426,51.128571428571426,2751.3,45.222321428571426,51.128571428571426,2851.6,45.222321428571426,51.128571428571426,2965.3,45.222321428571426,51.128571428571426,3074.5,45.222321428571426,51.128571428571426,3179.7,45.222321428571426,51.128571428571426,3293.4,45.222321428571426,51.128571428571426,3408.4,45.222321428571426,51.128571428571426,3514,45.222321428571426,51.128571428571426,3621.2,45.222321428571426,51.128571428571426,3741.4,45.222321428571426,51.128571428571426,3843.1,45.222321428571426,51.128571428571426,3945.9,45.222321428571426,51.128571428571426,4060.6,45.222321428571426,51.128571428571426,4169.6,45.222321428571426,51.128571428571426,4274.4,45.222321428571426,51.128571428571426,4378.9,45.222321428571426,51.128571428571426,4479.7,45.222321428571426,51.128571428571426,4593.9,45.222321428571426,51.128571428571426,4700.1,45.222321428571426,51.128571428571426,4805.8,45.222321428571426,51.128571428571426,4906.2]","[5247.1,5247.1,2823.1,2040.2,383.8,""oops"",""up"",""right"",""bad_move"",8792.2,3543.2,3171.8,5249,371.4,""smooth"",""up"",""up"",""good_move"",18575.3,9781.6,2451.7,15646.7,476.9,""oops"",""up"",""right"",""bad_move"",22083.9,3508.4,3084.6,18575.5,423.9,""smooth"",""up"",""up"",""good_move"",24747.9,2663.2,1990.2,22084.7,673,""smooth"",""left"",""left"",""good_move"",27873.9,3125.6,2709.4,24748.4,416.2,""oops"",""left"",""right"",""bad_move"",30837.1,2962,2607,27875.1,355,""oops"",""left"",""down"",""bad_move"",33531.7,2693.6,2295.4,30838.1,398.2,""oops"",""left"",""down"",""bad_move"",36453.7,2921.4,2549.6,33532.3,371.8,""oops"",""left"",""right"",""bad_move"",39766.3,3311.8,2928.4,36454.5,383.4,""smooth"",""up"",""up"",""good_move"",41824.6,2057.2,1676.9,39767.4,380.3,""smooth"",""up"",""up"",""good_move"",50294.3,8467.7,1632.1,48342,320.2,""oops"",""left"",""left"",""good_move"",56103.9,5809.1,2347.5,53392.6,363.9,""smooth"",""left"",""left"",""good_move"",59053.5,2947.4,2517,56106.3,430.2,""smooth"",""left"",""left"",""good_move"",62404.4,3349.3,2985.1,59055.1,364.2,""oops"",""left"",""right"",""bad_move"",65161,2755.2,2376.7,62405.8,378.5,""oops"",""left"",""left"",""good_move""]","",""
"127984","","<div style=""width:500px;"">
  <p>What determined the result of this run?</p>
  </div>","43","html-slider-response","55","1057841","0.0-5.0-1.9","86","1","2025-07-16 09:07:03","1f75c3e559b7213887762d5229550c2b","94.10.147.75","Mozilla/5.0 (Windows NT 10.0; Win64; x64) AppleWebKit/537.36 (KHTML, like Gecko) Chrome/138.0.0.0 Safari/537.36 Edg/138.0.0.0","WebKit","Edge","138.0.0.0","Windows","10.0","https://app.prolific.com/","en-GB,en;q=0.9,en-US;q=0.8","6702f60844f21087e0840e3d","686e379bc37a29ffa5cdc956","68776a52bd5f7be9a13d72fb","1","1","6702f60844f21087e0840e3d","1","1","2025-07-16T09:24:42.020Z","","","","","","","","","","","AttribQ","","50","","","","","","","","","","","","","","","","","","","","","","","","","","","","",""
"3067","","<div style=""width:500px;"">
  <p>How much control did you have over the ball?</p>
  </div>","45","html-slider-response","56","1060912","0.0-5.0-2.9","86","1","2025-07-16 09:07:03","1f75c3e559b7213887762d5229550c2b","94.10.147.75","Mozilla/5.0 (Windows NT 10.0; Win64; x64) AppleWebKit/537.36 (KHTML, like Gecko) Chrome/138.0.0.0 Safari/537.36 Edg/138.0.0.0","WebKit","Edge","138.0.0.0","Windows","10.0","https://app.prolific.com/","en-GB,en;q=0.9,en-US;q=0.8","6702f60844f21087e0840e3d","686e379bc37a29ffa5cdc956","68776a52bd5f7be9a13d72fb","1","1","6702f60844f21087e0840e3d","1","1","2025-07-16T09:24:45.091Z","","","","","","","","","","","ControlQ","","50","","","","","","","","","","","","","","","","","","","","","","","","","","","","",""
"2698","","<div style=""width:500px;"">
  <p>How would you describe your current emotional state?</p>
  </div>","50","html-slider-response","57","1063611","0.0-5.0-3.9","86","1","2025-07-16 09:07:03","1f75c3e559b7213887762d5229550c2b","94.10.147.75","Mozilla/5.0 (Windows NT 10.0; Win64; x64) AppleWebKit/537.36 (KHTML, like Gecko) Chrome/138.0.0.0 Safari/537.36 Edg/138.0.0.0","WebKit","Edge","138.0.0.0","Windows","10.0","https://app.prolific.com/","en-GB,en;q=0.9,en-US;q=0.8","6702f60844f21087e0840e3d","686e379bc37a29ffa5cdc956","68776a52bd5f7be9a13d72fb","1","1","6702f60844f21087e0840e3d","1","1","2025-07-16T09:24:47.791Z","","","","","","","","","","","StressQ","","50","","","","","","","","","","","","","","","","","","","","","","","","","","","","",""
"4009","","<div style=""width:500px;"">
  <p>What best describes how you currently feel?</p>
  </div>","50","html-slider-response","58","1067622","0.0-5.0-4.9","86","1","2025-07-16 09:07:03","1f75c3e559b7213887762d5229550c2b","94.10.147.75","Mozilla/5.0 (Windows NT 10.0; Win64; x64) AppleWebKit/537.36 (KHTML, like Gecko) Chrome/138.0.0.0 Safari/537.36 Edg/138.0.0.0","WebKit","Edge","138.0.0.0","Windows","10.0","https://app.prolific.com/","en-GB,en;q=0.9,en-US;q=0.8","6702f60844f21087e0840e3d","686e379bc37a29ffa5cdc956","68776a52bd5f7be9a13d72fb","1","1","6702f60844f21087e0840e3d","1","1","2025-07-16T09:24:51.802Z","","","","","","","","","","","MotivationQ","","50","","","","","","","","","","","","","","","","","","","","","","","","","","","","",""
"","","","","ctl-task-cpt","59","1119335","0.0-5.0-0.10","86","1","2025-07-16 09:07:03","1f75c3e559b7213887762d5229550c2b","94.10.147.75","Mozilla/5.0 (Windows NT 10.0; Win64; x64) AppleWebKit/537.36 (KHTML, like Gecko) Chrome/138.0.0.0 Safari/537.36 Edg/138.0.0.0","WebKit","Edge","138.0.0.0","Windows","10.0","https://app.prolific.com/","en-GB,en;q=0.9,en-US;q=0.8","6702f60844f21087e0840e3d","686e379bc37a29ffa5cdc956","68776a52bd5f7be9a13d72fb","1","1","6702f60844f21087e0840e3d","1","1","2025-07-16T09:25:43.514Z","","","","","","","","","","","","","","win-only","1","g1:NE,g2:SW","0.5","11","0","1069840","874.9","5877.6","48692.7","1","4","8","6","1","1","1","1","0","0.007575757575757576","996.4","3000","1355","[""up"",""right""]","{""num_key_presses"":8,""num_perfect"":3,""num_errors"":0,""num_randdir"":5,""num_randdir_good_moves"":3,""num_whilered"":0,""num_whileblue"":0,""num_blue"":6,""num_good_moves"":6}","[294.22232142857143,301.12857142857143,0.8,294.22232142857143,301.12857142857143,100.6,294.22232142857143,301.12857142857143,205.6,294.22232142857143,301.12857142857143,319.4,294.22232142857143,301.12857142857143,425.4,496.22232142857143,82.12857142857143,527.4,526.2223214285714,81.12857142857143,632.6,526.2223214285714,83.12857142857143,735.7,537.2223214285714,80.12857142857143,844.4,537.2223214285714,80.12857142857143,948.2,537.2223214285714,80.12857142857143,1050.4,537.2223214285714,80.12857142857143,1150.9,537.2223214285714,80.12857142857143,1253.1,537.2223214285714,80.12857142857143,1359.4,537.2223214285714,80.12857142857143,1460.5,537.2223214285714,80.12857142857143,1573.6,537.2223214285714,80.12857142857143,1679,537.2223214285714,80.12857142857143,1781.7,537.2223214285714,80.12857142857143,1883.4,537.2223214285714,80.12857142857143,1983.7,537.2223214285714,80.12857142857143,2089.1,537.2223214285714,80.12857142857143,2191.9,537.2223214285714,80.12857142857143,2296.1,537.2223214285714,80.12857142857143,2397.6,537.2223214285714,80.12857142857143,2506,537.2223214285714,80.12857142857143,2616.1,537.2223214285714,80.12857142857143,2718.1,537.2223214285714,80.12857142857143,2822.5,537.2223214285714,80.12857142857143,2930.4,537.2223214285714,80.12857142857143,3032.9,537.2223214285714,80.12857142857143,3137.2,537.2223214285714,80.12857142857143,3237.5,537.2223214285714,80.12857142857143,3339.5,537.2223214285714,80.12857142857143,3442.4,537.2223214285714,80.12857142857143,3544.1,537.2223214285714,80.12857142857143,3646.1,537.2223214285714,80.12857142857143,3750.7,537.2223214285714,80.12857142857143,3861.2,537.2223214285714,80.12857142857143,3965.2,537.2223214285714,80.12857142857143,4068.7,537.2223214285714,80.12857142857143,4172.2,537.2223214285714,80.12857142857143,4277.2,537.2223214285714,80.12857142857143,4398.7,537.2223214285714,80.12857142857143,4500.1,537.2223214285714,80.12857142857143,4603.4,537.2223214285714,80.12857142857143,4704.8,537.2223214285714,80.12857142857143,4808.2,537.2223214285714,80.12857142857143,4913.5]","[1498.5,1498.5,1000,0,498.5,""oops"",""right"",""left"",""bad_move"",11106.3,9605.6,2089.1,8588.9,428.3,""oops"",""right"",""right"",""good_move"",13568.3,2458.8,2063,11109.5,395.8,""smooth"",""up"",""up"",""good_move"",16742.5,3171.7,2731.2,13570.8,440.5,""oops"",""up"",""right"",""good_move"",19902.5,3159.5,2755.4,16743.1,404,""oops"",""right"",""left"",""bad_move"",22972.8,3068.5,2691.1,19904.3,377.5,""smooth"",""up"",""up"",""good_move"",36306.7,13331.2,2480.3,33417.3,409.1,""oops"",""right"",""right"",""good_move"",42670.1,6361.9,2431,39806.5,432.6,""smooth"",""right"",""right"",""good_move""]","",""
"98724","","<div style=""width:500px;"">
  <p>What determined the result of this run?</p>
  </div>","38","html-slider-response","60","1218062","0.0-5.0-1.10","86","1","2025-07-16 09:07:03","1f75c3e559b7213887762d5229550c2b","94.10.147.75","Mozilla/5.0 (Windows NT 10.0; Win64; x64) AppleWebKit/537.36 (KHTML, like Gecko) Chrome/138.0.0.0 Safari/537.36 Edg/138.0.0.0","WebKit","Edge","138.0.0.0","Windows","10.0","https://app.prolific.com/","en-GB,en;q=0.9,en-US;q=0.8","6702f60844f21087e0840e3d","686e379bc37a29ffa5cdc956","68776a52bd5f7be9a13d72fb","1","1","6702f60844f21087e0840e3d","1","1","2025-07-16T09:27:22.241Z","","","","","","","","","","","AttribQ","","50","","","","","","","","","","","","","","","","","","","","","","","","","","","","",""
"3467","","<div style=""width:500px;"">
  <p>How much control did you have over the ball?</p>
  </div>","43","html-slider-response","61","1221533","0.0-5.0-2.10","86","1","2025-07-16 09:07:03","1f75c3e559b7213887762d5229550c2b","94.10.147.75","Mozilla/5.0 (Windows NT 10.0; Win64; x64) AppleWebKit/537.36 (KHTML, like Gecko) Chrome/138.0.0.0 Safari/537.36 Edg/138.0.0.0","WebKit","Edge","138.0.0.0","Windows","10.0","https://app.prolific.com/","en-GB,en;q=0.9,en-US;q=0.8","6702f60844f21087e0840e3d","686e379bc37a29ffa5cdc956","68776a52bd5f7be9a13d72fb","1","1","6702f60844f21087e0840e3d","1","1","2025-07-16T09:27:25.712Z","","","","","","","","","","","ControlQ","","50","","","","","","","","","","","","","","","","","","","","","","","","","","","","",""
"4524","","<div style=""width:500px;"">
  <p>How would you describe your current emotional state?</p>
  </div>","57","html-slider-response","62","1226059","0.0-5.0-3.10","86","1","2025-07-16 09:07:03","1f75c3e559b7213887762d5229550c2b","94.10.147.75","Mozilla/5.0 (Windows NT 10.0; Win64; x64) AppleWebKit/537.36 (KHTML, like Gecko) Chrome/138.0.0.0 Safari/537.36 Edg/138.0.0.0","WebKit","Edge","138.0.0.0","Windows","10.0","https://app.prolific.com/","en-GB,en;q=0.9,en-US;q=0.8","6702f60844f21087e0840e3d","686e379bc37a29ffa5cdc956","68776a52bd5f7be9a13d72fb","1","1","6702f60844f21087e0840e3d","1","1","2025-07-16T09:27:30.238Z","","","","","","","","","","","StressQ","","50","","","","","","","","","","","","","","","","","","","","","","","","","","","","",""
"2911","","<div style=""width:500px;"">
  <p>What best describes how you currently feel?</p>
  </div>","52","html-slider-response","63","1228972","0.0-5.0-4.10","86","1","2025-07-16 09:07:03","1f75c3e559b7213887762d5229550c2b","94.10.147.75","Mozilla/5.0 (Windows NT 10.0; Win64; x64) AppleWebKit/537.36 (KHTML, like Gecko) Chrome/138.0.0.0 Safari/537.36 Edg/138.0.0.0","WebKit","Edge","138.0.0.0","Windows","10.0","https://app.prolific.com/","en-GB,en;q=0.9,en-US;q=0.8","6702f60844f21087e0840e3d","686e379bc37a29ffa5cdc956","68776a52bd5f7be9a13d72fb","1","1","6702f60844f21087e0840e3d","1","1","2025-07-16T09:27:33.151Z","","","","","","","","","","","MotivationQ","","50","","","","","","","","","","","","","","","","","","","","","","","","","","","","",""
"","","","","ctl-task-cpt","64","1281076","0.0-5.0-0.11","86","1","2025-07-16 09:07:03","1f75c3e559b7213887762d5229550c2b","94.10.147.75","Mozilla/5.0 (Windows NT 10.0; Win64; x64) AppleWebKit/537.36 (KHTML, like Gecko) Chrome/138.0.0.0 Safari/537.36 Edg/138.0.0.0","WebKit","Edge","138.0.0.0","Windows","10.0","https://app.prolific.com/","en-GB,en;q=0.9,en-US;q=0.8","6702f60844f21087e0840e3d","686e379bc37a29ffa5cdc956","68776a52bd5f7be9a13d72fb","1","1","6702f60844f21087e0840e3d","1","1","2025-07-16T09:28:25.256Z","","","","","","","","","","","","","","win-only","1","g1:NE,g2:SW","0.6","12","0","1231191","30881.2","35888.1","49085.7","1","4","4","6","1","1","1","2","1","0.015151515151515152","2101.6","3000","2090","[""up"",""right""]","{""num_key_presses"":4,""num_perfect"":3,""num_errors"":0,""num_randdir"":1,""num_randdir_good_moves"":1,""num_whilered"":0,""num_whileblue"":0,""num_blue"":1,""num_good_moves"":4}","[299.22232142857143,298.12857142857143,1.3,299.22232142857143,298.12857142857143,101.7,299.22232142857143,298.12857142857143,204.3,299.22232142857143,298.12857142857143,309.7,299.22232142857143,298.12857142857143,415.6,299.22232142857143,298.12857142857143,515.8,299.22232142857143,298.12857142857143,623.2,299.22232142857143,298.12857142857143,729,299.22232142857143,298.12857142857143,835.6,299.22232142857143,298.12857142857143,939.5,299.22232142857143,298.12857142857143,1045.7,299.22232142857143,298.12857142857143,1150,299.22232142857143,298.12857142857143,1251.2,378.22232142857143,216.12857142857143,1354.3,443.22232142857143,240.12857142857143,1460.3,593.2223214285714,92.12857142857143,1563.9,602.2223214285714,53.128571428571426,1671.4,596.2223214285714,45.128571428571426,1783.7,550.2223214285714,52.128571428571426,1888.7,532.2223214285714,61.128571428571426,1994.3,532.2223214285714,61.128571428571426,2095.8,532.2223214285714,61.128571428571426,2199.9,532.2223214285714,61.128571428571426,2301.2,532.2223214285714,61.128571428571426,2403.8,532.2223214285714,61.128571428571426,2507.4,532.2223214285714,61.128571428571426,2615.1,532.2223214285714,61.128571428571426,2719.1,532.2223214285714,61.128571428571426,2822.6,532.2223214285714,61.128571428571426,2931.8,532.2223214285714,61.128571428571426,3039.9,532.2223214285714,61.128571428571426,3145.5,532.2223214285714,61.128571428571426,3247.1,532.2223214285714,61.128571428571426,3355.3,532.2223214285714,61.128571428571426,3457.5,532.2223214285714,61.128571428571426,3557.6,532.2223214285714,61.128571428571426,3667.2,532.2223214285714,61.128571428571426,3770.9,532.2223214285714,61.128571428571426,3881.4,532.2223214285714,61.128571428571426,3991.3,532.2223214285714,61.128571428571426,4094.1,532.2223214285714,61.128571428571426,4201.3,532.2223214285714,61.128571428571426,4317.1,532.2223214285714,61.128571428571426,4424.2,532.2223214285714,61.128571428571426,4531,532.2223214285714,61.128571428571426,4636.7,532.2223214285714,61.128571428571426,4739.1,532.2223214285714,61.128571428571426,4854,532.2223214285714,61.128571428571426,4962.6]","[1622.3,1622.3,1000,0,622.3,""oops"",""right"",""right"",""good_move"",4596.8,2973.8,2633.2,1623,340.6,""smooth"",""right"",""right"",""good_move"",7225.1,2626.7,2161.3,4598.4,465.4,""smooth"",""up"",""up"",""good_move"",13045.3,5817.7,2438.6,10231.7,375,""smooth"",""up"",""up"",""good_move""]","",""
"3498","","<div style=""width:500px;"">
  <p>What determined the result of this run?</p>
  </div>","45","html-slider-response","65","1284578","0.0-5.0-1.11","86","1","2025-07-16 09:07:03","1f75c3e559b7213887762d5229550c2b","94.10.147.75","Mozilla/5.0 (Windows NT 10.0; Win64; x64) AppleWebKit/537.36 (KHTML, like Gecko) Chrome/138.0.0.0 Safari/537.36 Edg/138.0.0.0","WebKit","Edge","138.0.0.0","Windows","10.0","https://app.prolific.com/","en-GB,en;q=0.9,en-US;q=0.8","6702f60844f21087e0840e3d","686e379bc37a29ffa5cdc956","68776a52bd5f7be9a13d72fb","1","1","6702f60844f21087e0840e3d","1","1","2025-07-16T09:28:28.757Z","","","","","","","","","","","AttribQ","","50","","","","","","","","","","","","","","","","","","","","","","","","","","","","",""
"4697","","<div style=""width:500px;"">
  <p>How much control did you have over the ball?</p>
  </div>","50","html-slider-response","66","1289277","0.0-5.0-2.11","86","1","2025-07-16 09:07:03","1f75c3e559b7213887762d5229550c2b","94.10.147.75","Mozilla/5.0 (Windows NT 10.0; Win64; x64) AppleWebKit/537.36 (KHTML, like Gecko) Chrome/138.0.0.0 Safari/537.36 Edg/138.0.0.0","WebKit","Edge","138.0.0.0","Windows","10.0","https://app.prolific.com/","en-GB,en;q=0.9,en-US;q=0.8","6702f60844f21087e0840e3d","686e379bc37a29ffa5cdc956","68776a52bd5f7be9a13d72fb","1","1","6702f60844f21087e0840e3d","1","1","2025-07-16T09:28:33.456Z","","","","","","","","","","","ControlQ","","50","","","","","","","","","","","","","","","","","","","","","","","","","","","","",""
"5487","","<div style=""width:500px;"">
  <p>How would you describe your current emotional state?</p>
  </div>","56","html-slider-response","67","1294765","0.0-5.0-3.11","86","1","2025-07-16 09:07:03","1f75c3e559b7213887762d5229550c2b","94.10.147.75","Mozilla/5.0 (Windows NT 10.0; Win64; x64) AppleWebKit/537.36 (KHTML, like Gecko) Chrome/138.0.0.0 Safari/537.36 Edg/138.0.0.0","WebKit","Edge","138.0.0.0","Windows","10.0","https://app.prolific.com/","en-GB,en;q=0.9,en-US;q=0.8","6702f60844f21087e0840e3d","686e379bc37a29ffa5cdc956","68776a52bd5f7be9a13d72fb","1","1","6702f60844f21087e0840e3d","1","1","2025-07-16T09:28:38.944Z","","","","","","","","","","","StressQ","","50","","","","","","","","","","","","","","","","","","","","","","","","","","","","",""
"2190","","<div style=""width:500px;"">
  <p>What best describes how you currently feel?</p>
  </div>","54","html-slider-response","68","1296959","0.0-5.0-4.11","86","1","2025-07-16 09:07:03","1f75c3e559b7213887762d5229550c2b","94.10.147.75","Mozilla/5.0 (Windows NT 10.0; Win64; x64) AppleWebKit/537.36 (KHTML, like Gecko) Chrome/138.0.0.0 Safari/537.36 Edg/138.0.0.0","WebKit","Edge","138.0.0.0","Windows","10.0","https://app.prolific.com/","en-GB,en;q=0.9,en-US;q=0.8","6702f60844f21087e0840e3d","686e379bc37a29ffa5cdc956","68776a52bd5f7be9a13d72fb","1","1","6702f60844f21087e0840e3d","1","1","2025-07-16T09:28:41.138Z","","","","","","","","","","","MotivationQ","","50","","","","","","","","","","","","","","","","","","","","","","","","","","","","",""
"","","","","ctl-task-cpt","69","1325361","0.0-5.0-0.12","86","1","2025-07-16 09:07:03","1f75c3e559b7213887762d5229550c2b","94.10.147.75","Mozilla/5.0 (Windows NT 10.0; Win64; x64) AppleWebKit/537.36 (KHTML, like Gecko) Chrome/138.0.0.0 Safari/537.36 Edg/138.0.0.0","WebKit","Edge","138.0.0.0","Windows","10.0","https://app.prolific.com/","en-GB,en;q=0.9,en-US;q=0.8","6702f60844f21087e0840e3d","686e379bc37a29ffa5cdc956","68776a52bd5f7be9a13d72fb","1","1","6702f60844f21087e0840e3d","1","1","2025-07-16T09:29:09.540Z","","","","","","","","","","","","","","win-only","2","g1:SE,g2:NW","0.7","13","0","1299177.2","1588.1","6598.2","25373.7","1","4","8","6","1","1","1","3","2","0.022727272727272728","1073.4","3000","1950","[""down"",""right""]","{""num_key_presses"":4,""num_perfect"":3,""num_errors"":0,""num_randdir"":1,""num_randdir_good_moves"":1,""num_whilered"":0,""num_whileblue"":0,""num_blue"":2,""num_good_moves"":4}","[296.22232142857143,296.12857142857143,0.5,296.22232142857143,296.12857142857143,108.1,296.22232142857143,296.12857142857143,211.5,296.22232142857143,296.12857142857143,321.4,296.22232142857143,296.12857142857143,423.2,356.22232142857143,290.12857142857143,528,518.2223214285714,502.12857142857143,638.6,525.2223214285714,557.1285714285714,745.7,525.2223214285714,560.1285714285714,845.9,525.2223214285714,560.1285714285714,948.6,525.2223214285714,560.1285714285714,1055.3,525.2223214285714,560.1285714285714,1161,525.2223214285714,560.1285714285714,1263.3,525.2223214285714,560.1285714285714,1374.9,525.2223214285714,560.1285714285714,1481.8,525.2223214285714,560.1285714285714,1603.5,525.2223214285714,560.1285714285714,1710.9,525.2223214285714,560.1285714285714,1817.7,525.2223214285714,560.1285714285714,1923.6,525.2223214285714,560.1285714285714,2032.5,525.2223214285714,560.1285714285714,2134,525.2223214285714,560.1285714285714,2247.3,525.2223214285714,560.1285714285714,2357.3,525.2223214285714,560.1285714285714,2466,525.2223214285714,560.1285714285714,2573.4,525.2223214285714,560.1285714285714,2686,525.2223214285714,560.1285714285714,2786.6,525.2223214285714,560.1285714285714,2901,525.2223214285714,560.1285714285714,3008.6,525.2223214285714,560.1285714285714,3113.9,525.2223214285714,560.1285714285714,3213.9,525.2223214285714,560.1285714285714,3322.1,525.2223214285714,560.1285714285714,3427.9,525.2223214285714,560.1285714285714,3542.3,525.2223214285714,560.1285714285714,3643.7,525.2223214285714,560.1285714285714,3748.6,525.2223214285714,560.1285714285714,3848.6,525.2223214285714,560.1285714285714,3954.1,525.2223214285714,560.1285714285714,4057.2,525.2223214285714,560.1285714285714,4164.6,525.2223214285714,560.1285714285714,4267.7,525.2223214285714,560.1285714285714,4372.9,525.2223214285714,560.1285714285714,4473.8,525.2223214285714,560.1285714285714,4573.9,525.2223214285714,560.1285714285714,4676.6,525.2223214285714,560.1285714285714,4784.6,525.2223214285714,560.1285714285714,4891.8,525.2223214285714,560.1285714285714,4994.8]","[6052.7,6052.7,3588.1,2018,446.6,""smooth"",""right"",""right"",""good_move"",9666.4,3611.3,2892.6,6055.1,718.7,""smooth"",""right"",""right"",""good_move"",15661.4,5994.1,2135.7,13150.4,375.3,""oops"",""down"",""down"",""good_move"",18631.2,2967.5,2510.1,15663.7,457.4,""smooth"",""down"",""down"",""good_move""]","",""
"4089","","<div style=""width:500px;"">
  <p>What determined the result of this run?</p>
  </div>","38","html-slider-response","70","1329453","0.0-5.0-1.12","86","1","2025-07-16 09:07:03","1f75c3e559b7213887762d5229550c2b","94.10.147.75","Mozilla/5.0 (Windows NT 10.0; Win64; x64) AppleWebKit/537.36 (KHTML, like Gecko) Chrome/138.0.0.0 Safari/537.36 Edg/138.0.0.0","WebKit","Edge","138.0.0.0","Windows","10.0","https://app.prolific.com/","en-GB,en;q=0.9,en-US;q=0.8","6702f60844f21087e0840e3d","686e379bc37a29ffa5cdc956","68776a52bd5f7be9a13d72fb","1","1","6702f60844f21087e0840e3d","1","1","2025-07-16T09:29:13.632Z","","","","","","","","","","","AttribQ","","50","","","","","","","","","","","","","","","","","","","","","","","","","","","","",""
"3794","","<div style=""width:500px;"">
  <p>How much control did you have over the ball?</p>
  </div>","50","html-slider-response","71","1333250","0.0-5.0-2.12","86","1","2025-07-16 09:07:03","1f75c3e559b7213887762d5229550c2b","94.10.147.75","Mozilla/5.0 (Windows NT 10.0; Win64; x64) AppleWebKit/537.36 (KHTML, like Gecko) Chrome/138.0.0.0 Safari/537.36 Edg/138.0.0.0","WebKit","Edge","138.0.0.0","Windows","10.0","https://app.prolific.com/","en-GB,en;q=0.9,en-US;q=0.8","6702f60844f21087e0840e3d","686e379bc37a29ffa5cdc956","68776a52bd5f7be9a13d72fb","1","1","6702f60844f21087e0840e3d","1","1","2025-07-16T09:29:17.430Z","","","","","","","","","","","ControlQ","","50","","","","","","","","","","","","","","","","","","","","","","","","","","","","",""
"6733","","<div style=""width:500px;"">
  <p>How would you describe your current emotional state?</p>
  </div>","58","html-slider-response","72","1339986","0.0-5.0-3.12","86","1","2025-07-16 09:07:03","1f75c3e559b7213887762d5229550c2b","94.10.147.75","Mozilla/5.0 (Windows NT 10.0; Win64; x64) AppleWebKit/537.36 (KHTML, like Gecko) Chrome/138.0.0.0 Safari/537.36 Edg/138.0.0.0","WebKit","Edge","138.0.0.0","Windows","10.0","https://app.prolific.com/","en-GB,en;q=0.9,en-US;q=0.8","6702f60844f21087e0840e3d","686e379bc37a29ffa5cdc956","68776a52bd5f7be9a13d72fb","1","1","6702f60844f21087e0840e3d","1","1","2025-07-16T09:29:24.165Z","","","","","","","","","","","StressQ","","50","","","","","","","","","","","","","","","","","","","","","","","","","","","","",""
"3046","","<div style=""width:500px;"">
  <p>What best describes how you currently feel?</p>
  </div>","50","html-slider-response","73","1343034","0.0-5.0-4.12","86","1","2025-07-16 09:07:03","1f75c3e559b7213887762d5229550c2b","94.10.147.75","Mozilla/5.0 (Windows NT 10.0; Win64; x64) AppleWebKit/537.36 (KHTML, like Gecko) Chrome/138.0.0.0 Safari/537.36 Edg/138.0.0.0","WebKit","Edge","138.0.0.0","Windows","10.0","https://app.prolific.com/","en-GB,en;q=0.9,en-US;q=0.8","6702f60844f21087e0840e3d","686e379bc37a29ffa5cdc956","68776a52bd5f7be9a13d72fb","1","1","6702f60844f21087e0840e3d","1","1","2025-07-16T09:29:27.213Z","","","","","","","","","","","MotivationQ","","50","","","","","","","","","","","","","","","","","","","","","","","","","","","","",""
"","","","","ctl-task-cpt","74","1396595","0.0-5.0-0.13","86","1","2025-07-16 09:07:03","1f75c3e559b7213887762d5229550c2b","94.10.147.75","Mozilla/5.0 (Windows NT 10.0; Win64; x64) AppleWebKit/537.36 (KHTML, like Gecko) Chrome/138.0.0.0 Safari/537.36 Edg/138.0.0.0","WebKit","Edge","138.0.0.0","Windows","10.0","https://app.prolific.com/","en-GB,en;q=0.9,en-US;q=0.8","6702f60844f21087e0840e3d","686e379bc37a29ffa5cdc956","68776a52bd5f7be9a13d72fb","1","1","6702f60844f21087e0840e3d","1","1","2025-07-16T09:30:20.775Z","","","","","","","","","","","","","","win-only","0","g1:NW,g2:SE","0.8","14","0","1345250.9","21268.4","26282.1","50528.6","1","4","4","6","1","1","1","4","3","0.030303030303030304","2962.4","3000","1630","[""left"",""up""]","{""num_key_presses"":6,""num_perfect"":4,""num_errors"":0,""num_randdir"":2,""num_randdir_good_moves"":1,""num_whilered"":0,""num_whileblue"":0,""num_blue"":2,""num_good_moves"":5}","[295.22232142857143,293.12857142857143,0.8,295.22232142857143,293.12857142857143,103.9,295.22232142857143,293.12857142857143,211.8,295.22232142857143,293.12857142857143,313.7,295.22232142857143,293.12857142857143,416.3,295.22232142857143,293.12857142857143,529.9,295.22232142857143,293.12857142857143,632.4,295.22232142857143,293.12857142857143,736,295.22232142857143,293.12857142857143,850.2,295.22232142857143,293.12857142857143,953.9,295.22232142857143,293.12857142857143,1054.6,295.22232142857143,293.12857142857143,1164.9,295.22232142857143,293.12857142857143,1274.2,295.22232142857143,293.12857142857143,1375.4,295.22232142857143,293.12857142857143,1486.6,295.22232142857143,293.12857142857143,1591.7,295.22232142857143,293.12857142857143,1702,295.22232142857143,293.12857142857143,1807.6,295.22232142857143,293.12857142857143,1924.2,425.22232142857143,352.12857142857143,2030.8,216.22232142857143,302.12857142857143,2135.9,143.22232142857143,151.12857142857143,2241.8,143.22232142857143,151.12857142857143,2352.6,143.22232142857143,151.12857142857143,2455,78.22232142857143,98.12857142857143,2572,54.222321428571426,78.12857142857143,2680.2,49.222321428571426,73.12857142857143,2788.7,49.222321428571426,73.12857142857143,2895.4,49.222321428571426,73.12857142857143,3000,49.222321428571426,73.12857142857143,3118.7,49.222321428571426,73.12857142857143,3224.2,49.222321428571426,73.12857142857143,3328.1,49.222321428571426,73.12857142857143,3429.3,49.222321428571426,73.12857142857143,3538.6,49.222321428571426,73.12857142857143,3646,49.222321428571426,73.12857142857143,3761.4,49.222321428571426,73.12857142857143,3870.2,49.222321428571426,73.12857142857143,3980.2,49.222321428571426,73.12857142857143,4092.9,49.222321428571426,73.12857142857143,4195.7,49.222321428571426,73.12857142857143,4299.7,49.222321428571426,73.12857142857143,4413.9,49.222321428571426,73.12857142857143,4533.3,49.222321428571426,73.12857142857143,4643.1,49.222321428571426,73.12857142857143,4745.7,49.222321428571426,73.12857142857143,4852.4,49.222321428571426,73.12857142857143,4964.5]","[5292.4,5292.4,2895.6,2021.2,375.6,""oops"",""up"",""down"",""bad_move"",8191.7,2897.2,2302.2,5294.6,594.9,""smooth"",""up"",""up"",""good_move"",15492.1,7298.6,2160.1,12701.2,630.8,""oops"",""up"",""left"",""good_move"",18094,2600.3,2034,15493.7,566.3,""smooth"",""up"",""up"",""good_move"",20881,2786.4,2353.8,18094.6,432.7,""smooth"",""up"",""up"",""good_move"",24085.8,3203.7,2505.1,20882.1,698.6,""smooth"",""left"",""left"",""good_move""]","",""
"65167","","<div style=""width:500px;"">
  <p>What determined the result of this run?</p>
  </div>","43","html-slider-response","75","1461766","0.0-5.0-1.13","86","1","2025-07-16 09:07:03","1f75c3e559b7213887762d5229550c2b","94.10.147.75","Mozilla/5.0 (Windows NT 10.0; Win64; x64) AppleWebKit/537.36 (KHTML, like Gecko) Chrome/138.0.0.0 Safari/537.36 Edg/138.0.0.0","WebKit","Edge","138.0.0.0","Windows","10.0","https://app.prolific.com/","en-GB,en;q=0.9,en-US;q=0.8","6702f60844f21087e0840e3d","686e379bc37a29ffa5cdc956","68776a52bd5f7be9a13d72fb","1","1","6702f60844f21087e0840e3d","1","1","2025-07-16T09:31:25.945Z","","","","","","","","","","","AttribQ","","50","","","","","","","","","","","","","","","","","","","","","","","","","","","","",""
"4690","","<div style=""width:500px;"">
  <p>How much control did you have over the ball?</p>
