"rt","response_timestamp","stimulus","response","trial_type","trial_index","time_elapsed","internal_node_id","run_id","condition","recorded_at","source_code_version","ip","user_agent","device","browser","browser_version","platform","platform_version","referer","accept_language","PROLIFIC_PID","STUDY_ID","SESSION_ID","WEEK","BATCH","prolific_id","week","batch","realtime","success","responses","item_order","radio_event_ids","radio_event_times","key_event_times","mouse_event_times","straightlining","zigzagging","honeypot","eventType","view_history","slider_start","which_type","canvas_config","goals_layout","control_level","trial_number","tutorial_trial_number","trial_start_time","phase1_start_time","phase2_start_time","phase3_start_time","goal_1_value","goal_1_distance","goal_2_value","goal_2_distance","goal_selected","outcome","outcome_total","participant_final_score","participant_initial_score","participant_final_score_prop","goal_choice_rt","allocated_time","allocated_time_remaining","goal_direction","counts","mouse_movements","key_presses","question_order","question_id"
"15070","1753866128494","<p style='font-size:40px;line-height:1.25'><strong>Welcome to the experiment!</strong></p><p style='font-size:1.1em;line-height:1.25'>Thank you for participanting in our experiment again! You will be asked to play the Dysfunctional Ball Game again. We will briefly recap the rules before we start.</p><p style='font-size:1.1em;line-height:1.25'>Press <strong>Next</strong> to continue.</p>","0","custom-html-button-response","0","15072","0.0-0.0","276","1","2025-07-30 09:01:51","1f75c3e559b7213887762d5229550c2b","182.69.12.91","Mozilla/5.0 (Windows NT 10.0; Win64; x64) AppleWebKit/537.36 (KHTML, like Gecko) Chrome/138.0.0.0 Safari/537.36","WebKit","Chrome","138.0.0.0","Windows","10.0","https://app.prolific.com/","en-US,en;q=0.9","664b3888f484550fe6d377bc","6877631c9844ddd5501205fc","6889df5ccfc14caa3fd71545","3","1","664b3888f484550fe6d377bc","3","1","2025-07-30T09:02:08.496Z","","","","","","","","","","","","","","","","","","","","","","","","","","","","","","","","","","","","","","","","","",""
"2749","","","","fullscreen","1","18824","0.0-1.0","276","1","2025-07-30 09:01:51","1f75c3e559b7213887762d5229550c2b","182.69.12.91","Mozilla/5.0 (Windows NT 10.0; Win64; x64) AppleWebKit/537.36 (KHTML, like Gecko) Chrome/138.0.0.0 Safari/537.36","WebKit","Chrome","138.0.0.0","Windows","10.0","https://app.prolific.com/","en-US,en;q=0.9","664b3888f484550fe6d377bc","6877631c9844ddd5501205fc","6889df5ccfc14caa3fd71545","3","1","664b3888f484550fe6d377bc","3","1","","true","","","","","","","","","","","","","","","","","","","","","","","","","","","","","","","","","","","","","","","","",""
"1110","1753866133358","<p style='font-size:1.1em;line-height:1.25'>In the following, we will ask you a few questions relating to your feelings in the last 24 hours.<br></p><p style='font-size:1.1em;line-height:1.25'>Press the <strong>Next</strong> button to continue.</p>","0","custom-html-button-response","2","19935","0.0-2.0-0.0","276","1","2025-07-30 09:01:51","1f75c3e559b7213887762d5229550c2b","182.69.12.91","Mozilla/5.0 (Windows NT 10.0; Win64; x64) AppleWebKit/537.36 (KHTML, like Gecko) Chrome/138.0.0.0 Safari/537.36","WebKit","Chrome","138.0.0.0","Windows","10.0","https://app.prolific.com/","en-US,en;q=0.9","664b3888f484550fe6d377bc","6877631c9844ddd5501205fc","6889df5ccfc14caa3fd71545","3","1","664b3888f484550fe6d377bc","3","1","2025-07-30T09:02:13.359Z","","","","","","","","","","","","","","","","","","","","","","","","","","","","","","","","","","","","","","","","","",""
"75650.40000000002","","","","survey-template","3","95590","0.0-2.0-1.0","276","1","2025-07-30 09:01:51","1f75c3e559b7213887762d5229550c2b","182.69.12.91","Mozilla/5.0 (Windows NT 10.0; Win64; x64) AppleWebKit/537.36 (KHTML, like Gecko) Chrome/138.0.0.0 Safari/537.36","WebKit","Chrome","138.0.0.0","Windows","10.0","https://app.prolific.com/","en-US,en;q=0.9","664b3888f484550fe6d377bc","6877631c9844ddd5501205fc","6889df5ccfc14caa3fd71545","3","1","664b3888f484550fe6d377bc","3","1","2025-07-30T09:03:29.013Z","","{""Q01"":""3"",""Q02"":""1"",""Q03"":""0"",""Q04"":""2"",""Q05"":""1"",""Q06"":""4"",""Q07"":""4"",""Q08"":""2"",""Q09"":""5"",""Q10"":""1"",""Q11"":""4"",""Q12"":""0"",""Q13"":""5"",""Q14"":""3"",""Q15"":""1"",""Q16"":""1"",""Q17"":""1"",""Q18"":""2"",""Q19"":""1"",""Q20"":""1"",""Q21"":""1"",""Q22"":""1""}","[0,1,2,3,4,5,6,7,8,9,10,11,12,13,14,15,16,17,18,19,20,21]","[""Q01"",""Q02"",""Q03"",""Q04"",""Q05"",""Q06"",""Q07"",""Q08"",""Q09"",""Q10"",""Q11"",""Q12"",""Q13"",""Q14"",""Q15"",""Q16"",""Q17"",""Q18"",""Q19"",""Q20"",""Q21"",""Q22""]","[5164.400000000023,8508.400000000023,10564.600000000035,12733.200000000012,14044.700000000012,16620.600000000035,18716.600000000035,19716.5,20924.600000000035,22835.600000000035,24851.70000000001,27131.800000000047,29339.5,34476.30000000005,37619.90000000002,39163.90000000002,40171.90000000002,61516.5,68788.59999999998,70188.30000000005,72812.59999999998,73445.40000000002]","[]","[0,1956.7000000000116,3756.5,4542.200000000012,5164.400000000023,7420.800000000047,8076.5,8508.400000000023,9868.900000000023,10564.600000000035,12733.200000000012,14044.700000000012,16620.600000000035,18716.600000000035,19716.5,20924.600000000035,22835.600000000035,24851.70000000001,26387.800000000047,27131.800000000047,28636.20000000001,29339.5,34476.30000000005,37619.90000000002,38387.600000000035,39163.90000000002,40171.90000000002,61516.5,68788.59999999998,70188.30000000005,71476.70000000007,71926.30000000005,72812.59999999998,73445.40000000002,75644.5]","0.45454545454545453","0.23809523809523808","0","drsp","","","","","","","","","","","","","","","","","","","","","","","","","","","","","","",""
"11241.400000000023","","","","survey-template","4","106832","0.0-2.0-2.0","276","1","2025-07-30 09:01:51","1f75c3e559b7213887762d5229550c2b","182.69.12.91","Mozilla/5.0 (Windows NT 10.0; Win64; x64) AppleWebKit/537.36 (KHTML, like Gecko) Chrome/138.0.0.0 Safari/537.36","WebKit","Chrome","138.0.0.0","Windows","10.0","https://app.prolific.com/","en-US,en;q=0.9","664b3888f484550fe6d377bc","6877631c9844ddd5501205fc","6889df5ccfc14caa3fd71545","3","1","664b3888f484550fe6d377bc","3","1","2025-07-30T09:03:40.256Z","","{""Q01"":""2"",""Q02"":""2"",""Q03"":""2""}","[0,1,2]","[""Q01"",""Q02"",""Q03""]","[7752,8600.300000000047,10712.5]","[]","[7752,8600.300000000047,9160.5,10712.5,11240.300000000047]","0.6666666666666666","1","0","stress","","","","","","","","","","","","","","","","","","","","","","","","","","","","","","",""
"9846","","","","instructions","5","116680","0.0-3.0-0.0","276","1","2025-07-30 09:01:51","1f75c3e559b7213887762d5229550c2b","182.69.12.91","Mozilla/5.0 (Windows NT 10.0; Win64; x64) AppleWebKit/537.36 (KHTML, like Gecko) Chrome/138.0.0.0 Safari/537.36","WebKit","Chrome","138.0.0.0","Windows","10.0","https://app.prolific.com/","en-US,en;q=0.9","664b3888f484550fe6d377bc","6877631c9844ddd5501205fc","6889df5ccfc14caa3fd71545","3","1","664b3888f484550fe6d377bc","3","1","","","","","","","","","","","","","[{""page_index"":0,""viewing_time"":9846}]","","","","","","","","","","","","","","","","","","","","","","","","","","","","","",""
"2277","","<p>Before you start with this game please answer the following three questions yourself. </p>
  <p>Through this game, we measure several aspects of your cognitive performance, such as reaction times, multi-tasking capabilities </p>
  <p>and the ability to assess the situation you are in.</p>
  <p></p>
  <p><b>How good do you usually are in such tasks?</b></p>","72","html-slider-response","6","118959","0.0-4.0-0.0","276","1","2025-07-30 09:01:51","1f75c3e559b7213887762d5229550c2b","182.69.12.91","Mozilla/5.0 (Windows NT 10.0; Win64; x64) AppleWebKit/537.36 (KHTML, like Gecko) Chrome/138.0.0.0 Safari/537.36","WebKit","Chrome","138.0.0.0","Windows","10.0","https://app.prolific.com/","en-US,en;q=0.9","664b3888f484550fe6d377bc","6877631c9844ddd5501205fc","6889df5ccfc14caa3fd71545","3","1","664b3888f484550fe6d377bc","3","1","2025-07-30T09:03:52.382Z","","","","","","","","","","","PreSkillQ","","50","","","","","","","","","","","","","","","","","","","","","","","","","","","","",""
"1918","","<div style=""width:500px;"">
  <p>How well do you think you will perform in this task compared to other participants?</p>
  </div>","65","html-slider-response","7","120879","0.0-4.0-1.0","276","1","2025-07-30 09:01:51","1f75c3e559b7213887762d5229550c2b","182.69.12.91","Mozilla/5.0 (Windows NT 10.0; Win64; x64) AppleWebKit/537.36 (KHTML, like Gecko) Chrome/138.0.0.0 Safari/537.36","WebKit","Chrome","138.0.0.0","Windows","10.0","https://app.prolific.com/","en-US,en;q=0.9","664b3888f484550fe6d377bc","6877631c9844ddd5501205fc","6889df5ccfc14caa3fd71545","3","1","664b3888f484550fe6d377bc","3","1","2025-07-30T09:03:54.302Z","","","","","","","","","","","PrePerfQ","","50","","","","","","","","","","","","","","","","","","","","","","","","","","","","",""
"2335","","<div style=""width:500px;"">
  <p>What best describes how you currently feel?</p>
  </div>","79","html-slider-response","8","123215","0.0-4.0-2.0","276","1","2025-07-30 09:01:51","1f75c3e559b7213887762d5229550c2b","182.69.12.91","Mozilla/5.0 (Windows NT 10.0; Win64; x64) AppleWebKit/537.36 (KHTML, like Gecko) Chrome/138.0.0.0 Safari/537.36","WebKit","Chrome","138.0.0.0","Windows","10.0","https://app.prolific.com/","en-US,en;q=0.9","664b3888f484550fe6d377bc","6877631c9844ddd5501205fc","6889df5ccfc14caa3fd71545","3","1","664b3888f484550fe6d377bc","3","1","2025-07-30T09:03:56.638Z","","","","","","","","","","","PreMotivationQ","","50","","","","","","","","","","","","","","","","","","","","","","","","","","","","",""
"","","","","ctl-task-cpt","9","166503","0.0-5.0-0.0","276","1","2025-07-30 09:01:51","1f75c3e559b7213887762d5229550c2b","182.69.12.91","Mozilla/5.0 (Windows NT 10.0; Win64; x64) AppleWebKit/537.36 (KHTML, like Gecko) Chrome/138.0.0.0 Safari/537.36","WebKit","Chrome","138.0.0.0","Windows","10.0","https://app.prolific.com/","en-US,en;q=0.9","664b3888f484550fe6d377bc","6877631c9844ddd5501205fc","6889df5ccfc14caa3fd71545","3","1","664b3888f484550fe6d377bc","3","1","2025-07-30T09:04:39.926Z","","","","","","","","","","","","","","win-only","3","g1:SW,g2:NE","1","1","0","129346.9","1254.1","6256.9","40280.6","1","4","4","6","2","4","4","4","0","0.030303030303030304","653.9","3000","725","[""up"",""right""]","{""num_key_presses"":6,""num_perfect"":6,""num_errors"":0,""num_randdir"":0,""num_randdir_good_moves"":0,""num_whilered"":0,""num_whileblue"":0,""num_blue"":5,""num_good_moves"":6}","[419.0714133126395,420.32142761775424,0.3,419.0714133126395,420.32142761775424,101.5,419.0714133126395,420.32142761775424,201.9,426.5714133126395,416.57142761775424,302,682.8214133126395,226.57142761775424,406.7,731.5714133126395,136.57142761775424,507.7,737.8214133126395,121.57142761775425,613.3,745.3214133126395,111.57142761775425,716.6,745.3214133126395,111.57142761775425,817.6,745.3214133126395,111.57142761775425,917.7,742.8214133126395,122.82142761775425,1017.8,742.8214133126395,122.82142761775425,1118.9,742.8214133126395,122.82142761775425,1222.5,742.8214133126395,122.82142761775425,1327.4,742.8214133126395,122.82142761775425,1432.2,742.8214133126395,122.82142761775425,1537.2,742.8214133126395,122.82142761775425,1637.2,742.8214133126395,122.82142761775425,1742.2,742.8214133126395,122.82142761775425,1842.3,742.8214133126395,122.82142761775425,1942.9,742.8214133126395,122.82142761775425,2048.2,742.8214133126395,122.82142761775425,2152.3,742.8214133126395,122.82142761775425,2256.6,742.8214133126395,122.82142761775425,2357.3,742.8214133126395,122.82142761775425,2462.5,742.8214133126395,122.82142761775425,2565.9,742.8214133126395,122.82142761775425,2668.1,742.8214133126395,122.82142761775425,2772.4,742.8214133126395,122.82142761775425,2872.8,742.8214133126395,122.82142761775425,2976.4,742.8214133126395,122.82142761775425,3076.8,742.8214133126395,122.82142761775425,3177.4,742.8214133126395,122.82142761775425,3281.7,742.8214133126395,122.82142761775425,3387.7,742.8214133126395,122.82142761775425,3492.6,742.8214133126395,122.82142761775425,3592.8,742.8214133126395,122.82142761775425,3696.3,742.8214133126395,122.82142761775425,3796.5,742.8214133126395,122.82142761775425,3897.9,742.8214133126395,122.82142761775425,4002.7,742.8214133126395,122.82142761775425,4102.9,742.8214133126395,122.82142761775425,4207.2,742.8214133126395,122.82142761775425,4311.4,742.8214133126395,122.82142761775425,4411.9,742.8214133126395,122.82142761775425,4517.4,742.8214133126395,122.82142761775425,4622.4,742.8214133126395,122.82142761775425,4722.4,742.8214133126395,122.82142761775425,4822.4,742.8214133126395,122.82142761775425,4922.6]","[1347.8,1347.8,1000,0,347.8,""smooth"",""up"",""up"",""good_move"",4470.7,3122.4,2780.3,1348.3,342.1,""smooth"",""up"",""up"",""good_move"",20117.2,15646.2,1927,17743.9,446.3,""smooth"",""right"",""right"",""good_move"",27275.6,7158,3456.6,23314.4,504.7,""smooth"",""right"",""right"",""good_move"",30765.5,3489.7,3017,27275.8,472.7,""smooth"",""up"",""up"",""good_move"",33928.5,3162.9,2769.9,30765.7,393,""smooth"",""right"",""right"",""good_move""]","",""
"3191","","<div style=""width:500px;"">
  <p>What determined the result of this run?</p>
  </div>","99","html-slider-response","10","169695","0.0-5.0-1.0","276","1","2025-07-30 09:01:51","1f75c3e559b7213887762d5229550c2b","182.69.12.91","Mozilla/5.0 (Windows NT 10.0; Win64; x64) AppleWebKit/537.36 (KHTML, like Gecko) Chrome/138.0.0.0 Safari/537.36","WebKit","Chrome","138.0.0.0","Windows","10.0","https://app.prolific.com/","en-US,en;q=0.9","664b3888f484550fe6d377bc","6877631c9844ddd5501205fc","6889df5ccfc14caa3fd71545","3","1","664b3888f484550fe6d377bc","3","1","2025-07-30T09:04:43.118Z","","","","","","","","","","","AttribQ","","50","","","","","","","","","","","","","","","","","","","","","","","","","","","","",""
"2495","","<div style=""width:500px;"">
  <p>How much control did you have over the ball?</p>
  </div>","98","html-slider-response","11","172191","0.0-5.0-2.0","276","1","2025-07-30 09:01:51","1f75c3e559b7213887762d5229550c2b","182.69.12.91","Mozilla/5.0 (Windows NT 10.0; Win64; x64) AppleWebKit/537.36 (KHTML, like Gecko) Chrome/138.0.0.0 Safari/537.36","WebKit","Chrome","138.0.0.0","Windows","10.0","https://app.prolific.com/","en-US,en;q=0.9","664b3888f484550fe6d377bc","6877631c9844ddd5501205fc","6889df5ccfc14caa3fd71545","3","1","664b3888f484550fe6d377bc","3","1","2025-07-30T09:04:45.614Z","","","","","","","","","","","ControlQ","","50","","","","","","","","","","","","","","","","","","","","","","","","","","","","",""
"2671","","<div style=""width:500px;"">
  <p>How would you describe your current emotional state?</p>
  </div>","14","html-slider-response","12","174863","0.0-5.0-3.0","276","1","2025-07-30 09:01:51","1f75c3e559b7213887762d5229550c2b","182.69.12.91","Mozilla/5.0 (Windows NT 10.0; Win64; x64) AppleWebKit/537.36 (KHTML, like Gecko) Chrome/138.0.0.0 Safari/537.36","WebKit","Chrome","138.0.0.0","Windows","10.0","https://app.prolific.com/","en-US,en;q=0.9","664b3888f484550fe6d377bc","6877631c9844ddd5501205fc","6889df5ccfc14caa3fd71545","3","1","664b3888f484550fe6d377bc","3","1","2025-07-30T09:04:48.286Z","","","","","","","","","","","StressQ","","50","","","","","","","","","","","","","","","","","","","","","","","","","","","","",""
"3383","","<div style=""width:500px;"">
  <p>What best describes how you currently feel?</p>
  </div>","78","html-slider-response","13","178246","0.0-5.0-4.0","276","1","2025-07-30 09:01:51","1f75c3e559b7213887762d5229550c2b","182.69.12.91","Mozilla/5.0 (Windows NT 10.0; Win64; x64) AppleWebKit/537.36 (KHTML, like Gecko) Chrome/138.0.0.0 Safari/537.36","WebKit","Chrome","138.0.0.0","Windows","10.0","https://app.prolific.com/","en-US,en;q=0.9","664b3888f484550fe6d377bc","6877631c9844ddd5501205fc","6889df5ccfc14caa3fd71545","3","1","664b3888f484550fe6d377bc","3","1","2025-07-30T09:04:51.670Z","","","","","","","","","","","MotivationQ","","50","","","","","","","","","","","","","","","","","","","","","","","","","","","","",""
"","","","","ctl-task-cpt","14","206364","0.0-5.0-0.1","276","1","2025-07-30 09:01:51","1f75c3e559b7213887762d5229550c2b","182.69.12.91","Mozilla/5.0 (Windows NT 10.0; Win64; x64) AppleWebKit/537.36 (KHTML, like Gecko) Chrome/138.0.0.0 Safari/537.36","WebKit","Chrome","138.0.0.0","Windows","10.0","https://app.prolific.com/","en-US,en;q=0.9","664b3888f484550fe6d377bc","6877631c9844ddd5501205fc","6889df5ccfc14caa3fd71545","3","1","664b3888f484550fe6d377bc","3","1","2025-07-30T09:05:19.787Z","","","","","","","","","","","","","","win-only","0","g1:NW,g2:SE","0.9","2","0","184376.5","1108.5","6111.6","25111","1","4","8","6","2","8","8","12","4","0.09090909090909091","882.3","3000","870","[""down"",""right""]","{""num_key_presses"":6,""num_perfect"":5,""num_errors"":0,""num_randdir"":1,""num_randdir_good_moves"":1,""num_whilered"":0,""num_whileblue"":0,""num_blue"":1,""num_good_moves"":6}","[416.5714133126395,409.07142761775424,0.1,416.5714133126395,409.07142761775424,100.4,324.0714133126395,354.07142761775424,202.7,200.3214133126395,231.57142761775424,307.5,186.5714133126395,211.57142761775424,407.5,907.8214133126395,682.8214276177542,516.3,905.3214133126395,711.5714276177542,617,815.3214133126395,747.8214276177542,717.6,761.5714133126395,751.5714276177542,821.9,761.5714133126395,752.8214276177542,922.6,761.5714133126395,752.8214276177542,1028.4,745.3214133126395,746.5714276177542,1132.7,745.3214133126395,746.5714276177542,1237.7,745.3214133126395,746.5714276177542,1338,745.3214133126395,746.5714276177542,1442.2,745.3214133126395,746.5714276177542,1542.7,745.3214133126395,746.5714276177542,1643.3,745.3214133126395,746.5714276177542,1743.3,745.3214133126395,746.5714276177542,1849,745.3214133126395,746.5714276177542,1952.7,745.3214133126395,746.5714276177542,2053.2,745.3214133126395,746.5714276177542,2153.2,745.3214133126395,746.5714276177542,2258.1,745.3214133126395,746.5714276177542,2364.8,745.3214133126395,746.5714276177542,2465,745.3214133126395,746.5714276177542,2567.8,745.3214133126395,746.5714276177542,2668.3,745.3214133126395,746.5714276177542,2768.3,745.3214133126395,746.5714276177542,2872.6,745.3214133126395,746.5714276177542,2980.9,745.3214133126395,746.5714276177542,3081.8,745.3214133126395,746.5714276177542,3187.9,745.3214133126395,746.5714276177542,3287.9,745.3214133126395,746.5714276177542,3388,745.3214133126395,746.5714276177542,3496.7,745.3214133126395,746.5714276177542,3597,745.3214133126395,746.5714276177542,3703,745.3214133126395,746.5714276177542,3807.8,745.3214133126395,746.5714276177542,3912.9,745.3214133126395,746.5714276177542,4013,745.3214133126395,746.5714276177542,4113.1,745.3214133126395,746.5714276177542,4217.1,745.3214133126395,746.5714276177542,4322.5,745.3214133126395,746.5714276177542,4429.7,745.3214133126395,746.5714276177542,4532.3,745.3214133126395,746.5714276177542,4633.1,745.3214133126395,746.5714276177542,4738,745.3214133126395,746.5714276177542,4845,745.3214133126395,746.5714276177542,4945.3]","[1373.8,1373.9,1000,0,373.9,""smooth"",""right"",""right"",""good_move"",5088.5,3714.5,3353.7,1374,360.8,""smooth"",""right"",""right"",""good_move"",7291.9,2203.1,1879.9,5088.8,323.2,""smooth"",""down"",""down"",""good_move"",10701.4,3409.3,2982.6,7292.1,426.7,""smooth"",""down"",""down"",""good_move"",16381.7,5680.1,2154.7,13745.9,481.1,""oops"",""right"",""down"",""good_move"",18907.6,2525.7,2091.8,16381.9,433.9,""smooth"",""right"",""right"",""good_move""]","",""
"3737","","<div style=""width:500px;"">
  <p>What determined the result of this run?</p>
  </div>","88","html-slider-response","15","210102","0.0-5.0-1.1","276","1","2025-07-30 09:01:51","1f75c3e559b7213887762d5229550c2b","182.69.12.91","Mozilla/5.0 (Windows NT 10.0; Win64; x64) AppleWebKit/537.36 (KHTML, like Gecko) Chrome/138.0.0.0 Safari/537.36","WebKit","Chrome","138.0.0.0","Windows","10.0","https://app.prolific.com/","en-US,en;q=0.9","664b3888f484550fe6d377bc","6877631c9844ddd5501205fc","6889df5ccfc14caa3fd71545","3","1","664b3888f484550fe6d377bc","3","1","2025-07-30T09:05:23.526Z","","","","","","","","","","","AttribQ","","50","","","","","","","","","","","","","","","","","","","","","","","","","","","","",""
"2239","","<div style=""width:500px;"">
  <p>How much control did you have over the ball?</p>
  </div>","79","html-slider-response","16","212342","0.0-5.0-2.1","276","1","2025-07-30 09:01:51","1f75c3e559b7213887762d5229550c2b","182.69.12.91","Mozilla/5.0 (Windows NT 10.0; Win64; x64) AppleWebKit/537.36 (KHTML, like Gecko) Chrome/138.0.0.0 Safari/537.36","WebKit","Chrome","138.0.0.0","Windows","10.0","https://app.prolific.com/","en-US,en;q=0.9","664b3888f484550fe6d377bc","6877631c9844ddd5501205fc","6889df5ccfc14caa3fd71545","3","1","664b3888f484550fe6d377bc","3","1","2025-07-30T09:05:25.765Z","","","","","","","","","","","ControlQ","","50","","","","","","","","","","","","","","","","","","","","","","","","","","","","",""
"2567","","<div style=""width:500px;"">
  <p>How would you describe your current emotional state?</p>
  </div>","28","html-slider-response","17","214910","0.0-5.0-3.1","276","1","2025-07-30 09:01:51","1f75c3e559b7213887762d5229550c2b","182.69.12.91","Mozilla/5.0 (Windows NT 10.0; Win64; x64) AppleWebKit/537.36 (KHTML, like Gecko) Chrome/138.0.0.0 Safari/537.36","WebKit","Chrome","138.0.0.0","Windows","10.0","https://app.prolific.com/","en-US,en;q=0.9","664b3888f484550fe6d377bc","6877631c9844ddd5501205fc","6889df5ccfc14caa3fd71545","3","1","664b3888f484550fe6d377bc","3","1","2025-07-30T09:05:28.333Z","","","","","","","","","","","StressQ","","50","","","","","","","","","","","","","","","","","","","","","","","","","","","","",""
"3503","","<div style=""width:500px;"">
  <p>What best describes how you currently feel?</p>
  </div>","72","html-slider-response","18","218415","0.0-5.0-4.1","276","1","2025-07-30 09:01:51","1f75c3e559b7213887762d5229550c2b","182.69.12.91","Mozilla/5.0 (Windows NT 10.0; Win64; x64) AppleWebKit/537.36 (KHTML, like Gecko) Chrome/138.0.0.0 Safari/537.36","WebKit","Chrome","138.0.0.0","Windows","10.0","https://app.prolific.com/","en-US,en;q=0.9","664b3888f484550fe6d377bc","6877631c9844ddd5501205fc","6889df5ccfc14caa3fd71545","3","1","664b3888f484550fe6d377bc","3","1","2025-07-30T09:05:31.838Z","","","","","","","","","","","MotivationQ","","50","","","","","","","","","","","","","","","","","","","","","","","","","","","","",""
"","","","","ctl-task-cpt","19","260929","0.0-5.0-0.2","276","1","2025-07-30 09:01:51","1f75c3e559b7213887762d5229550c2b","182.69.12.91","Mozilla/5.0 (Windows NT 10.0; Win64; x64) AppleWebKit/537.36 (KHTML, like Gecko) Chrome/138.0.0.0 Safari/537.36","WebKit","Chrome","138.0.0.0","Windows","10.0","https://app.prolific.com/","en-US,en;q=0.9","664b3888f484550fe6d377bc","6877631c9844ddd5501205fc","6889df5ccfc14caa3fd71545","3","1","664b3888f484550fe6d377bc","3","1","2025-07-30T09:06:14.352Z","","","","","","","","","","","","","","win-only","2","g1:SE,g2:NW","0.8","3","0","224546.5","870.6","5872.2","39502.9","1","4","8","6","2","-8","-10","2","12","0.015151515151515152","838.4","3000","-3005","[""left"",""up""]","{""num_key_presses"":11,""num_perfect"":7,""num_errors"":2,""num_randdir"":2,""num_randdir_good_moves"":0,""num_whilered"":0,""num_whileblue"":0,""num_blue"":2,""num_good_moves"":7}","[416.5714133126395,411.57142761775424,0.2,416.5714133126395,411.57142761775424,100.8,416.5714133126395,411.57142761775424,205.8,370.3214133126395,386.57142761775424,306,346.5714133126395,336.57142761775424,411.2,299.0714133126395,270.32142761775424,515.8,176.5714133126395,155.32142761775424,620.6,114.0714133126395,94.07142761775425,725.4,114.0714133126395,94.07142761775425,826.6,114.0714133126395,94.07142761775425,930.4,114.0714133126395,94.07142761775425,1031.2,97.8214133126395,101.57142761775425,1131.4,97.8214133126395,101.57142761775425,1233.2,97.8214133126395,101.57142761775425,1336.2,97.8214133126395,101.57142761775425,1441.8,97.8214133126395,101.57142761775425,1545.2,97.8214133126395,101.57142761775425,1647.4,97.8214133126395,101.57142761775425,1751,97.8214133126395,101.57142761775425,1851.1,97.8214133126395,101.57142761775425,1951.8,97.8214133126395,101.57142761775425,2055.9,97.8214133126395,101.57142761775425,2160.5,97.8214133126395,101.57142761775425,2261.4,97.8214133126395,101.57142761775425,2362.7,97.8214133126395,101.57142761775425,2466,97.8214133126395,101.57142761775425,2567.2,97.8214133126395,101.57142761775425,2671.2,97.8214133126395,101.57142761775425,2771.3,97.8214133126395,101.57142761775425,2875.2,97.8214133126395,101.57142761775425,2975.5,97.8214133126395,101.57142761775425,3081.5,97.8214133126395,101.57142761775425,3186.1,97.8214133126395,101.57142761775425,3290.2,97.8214133126395,101.57142761775425,3390.9,97.8214133126395,101.57142761775425,3495.2,97.8214133126395,101.57142761775425,3601.2,97.8214133126395,101.57142761775425,3705.3,97.8214133126395,101.57142761775425,3806,97.8214133126395,101.57142761775425,3911,97.8214133126395,101.57142761775425,4011.3,97.8214133126395,101.57142761775425,4116.3,97.8214133126395,101.57142761775425,4216.3,97.8214133126395,101.57142761775425,4321.2,97.8214133126395,101.57142761775425,4426.8,97.8214133126395,101.57142761775425,4527.5,97.8214133126395,101.57142761775425,4630.5,97.8214133126395,101.57142761775425,4730.5,97.8214133126395,101.57142761775425,4835.4,97.8214133126395,101.57142761775425,4936.4]","[4760.7,4760.7,2415.7,2009.8,335.2,""smooth"",""left"",""left"",""good_move"",7439.9,2678.6,2235.9,4761.3,442.7,""smooth"",""up"",""up"",""good_move"",14014,6572.8,2301.2,11439.8,273,""smooth"",""left"",""left"",""good_move"",16922.8,2908.7,2597.5,14014.2,311.2,""smooth"",""up"",""up"",""good_move"",19443.3,2520.3,2171.7,16923,348.6,""oops"",""up"",""down"",""bad_move"",21943,2499.6,2161,19443.5,338.6,""oops"",""up"",""right"",""bad_move"",24240.3,2297,1914,21943.3,383,""smooth"",""left"",""left"",""good_move"",26277.8,2037.3,1720.4,24240.5,316.9,""smooth"",""up"",""up"",""good_move"",29108.7,2830.6,2532.2,26278.1,298.4,""smooth"",""left"",""left"",""good_move"",29426.9,318,2519.8,29108.9,-2201.8,""error"",""-"",""-"",""no_move"",30737,1309.9,2630.1,30430.3,-2323.3,""error"",""-"",""-"",""no_move""]","",""
"2924","","<div style=""width:500px;"">
  <p>What determined the result of this run?</p>
  </div>","57","html-slider-response","20","263854","0.0-5.0-1.2","276","1","2025-07-30 09:01:51","1f75c3e559b7213887762d5229550c2b","182.69.12.91","Mozilla/5.0 (Windows NT 10.0; Win64; x64) AppleWebKit/537.36 (KHTML, like Gecko) Chrome/138.0.0.0 Safari/537.36","WebKit","Chrome","138.0.0.0","Windows","10.0","https://app.prolific.com/","en-US,en;q=0.9","664b3888f484550fe6d377bc","6877631c9844ddd5501205fc","6889df5ccfc14caa3fd71545","3","1","664b3888f484550fe6d377bc","3","1","2025-07-30T09:06:17.278Z","","","","","","","","","","","AttribQ","","50","","","","","","","","","","","","","","","","","","","","","","","","","","","","",""
"2455","","<div style=""width:500px;"">
  <p>How much control did you have over the ball?</p>
  </div>","53","html-slider-response","21","266310","0.0-5.0-2.2","276","1","2025-07-30 09:01:51","1f75c3e559b7213887762d5229550c2b","182.69.12.91","Mozilla/5.0 (Windows NT 10.0; Win64; x64) AppleWebKit/537.36 (KHTML, like Gecko) Chrome/138.0.0.0 Safari/537.36","WebKit","Chrome","138.0.0.0","Windows","10.0","https://app.prolific.com/","en-US,en;q=0.9","664b3888f484550fe6d377bc","6877631c9844ddd5501205fc","6889df5ccfc14caa3fd71545","3","1","664b3888f484550fe6d377bc","3","1","2025-07-30T09:06:19.733Z","","","","","","","","","","","ControlQ","","50","","","","","","","","","","","","","","","","","","","","","","","","","","","","",""
"2271","","<div style=""width:500px;"">
  <p>How would you describe your current emotional state?</p>
  </div>","55","html-slider-response","22","268582","0.0-5.0-3.2","276","1","2025-07-30 09:01:51","1f75c3e559b7213887762d5229550c2b","182.69.12.91","Mozilla/5.0 (Windows NT 10.0; Win64; x64) AppleWebKit/537.36 (KHTML, like Gecko) Chrome/138.0.0.0 Safari/537.36","WebKit","Chrome","138.0.0.0","Windows","10.0","https://app.prolific.com/","en-US,en;q=0.9","664b3888f484550fe6d377bc","6877631c9844ddd5501205fc","6889df5ccfc14caa3fd71545","3","1","664b3888f484550fe6d377bc","3","1","2025-07-30T09:06:22.005Z","","","","","","","","","","","StressQ","","50","","","","","","","","","","","","","","","","","","","","","","","","","","","","",""
"1743","","<div style=""width:500px;"">
  <p>What best describes how you currently feel?</p>
  </div>","61","html-slider-response","23","270326","0.0-5.0-4.2","276","1","2025-07-30 09:01:51","1f75c3e559b7213887762d5229550c2b","182.69.12.91","Mozilla/5.0 (Windows NT 10.0; Win64; x64) AppleWebKit/537.36 (KHTML, like Gecko) Chrome/138.0.0.0 Safari/537.36","WebKit","Chrome","138.0.0.0","Windows","10.0","https://app.prolific.com/","en-US,en;q=0.9","664b3888f484550fe6d377bc","6877631c9844ddd5501205fc","6889df5ccfc14caa3fd71545","3","1","664b3888f484550fe6d377bc","3","1","2025-07-30T09:06:23.749Z","","","","","","","","","","","MotivationQ","","50","","","","","","","","","","","","","","","","","","","","","","","","","","","","",""
"","","","","ctl-task-cpt","24","317642","0.0-5.0-0.3","276","1","2025-07-30 09:01:51","1f75c3e559b7213887762d5229550c2b","182.69.12.91","Mozilla/5.0 (Windows NT 10.0; Win64; x64) AppleWebKit/537.36 (KHTML, like Gecko) Chrome/138.0.0.0 Safari/537.36","WebKit","Chrome","138.0.0.0","Windows","10.0","https://app.prolific.com/","en-US,en;q=0.9","664b3888f484550fe6d377bc","6877631c9844ddd5501205fc","6889df5ccfc14caa3fd71545","3","1","664b3888f484550fe6d377bc","3","1","2025-07-30T09:07:11.065Z","","","","","","","","","","","","","","win-only","1","g1:NE,g2:SW","0.7","4","0","276457.6","917.2","5923.3","44297.8","1","4","4","6","2","4","3","5","2","0.03787878787878788","1524.2","3000","35","[""down"",""left""]","{""num_key_presses"":10,""num_perfect"":7,""num_errors"":1,""num_randdir"":2,""num_randdir_good_moves"":1,""num_whilered"":0,""num_whileblue"":1,""num_blue"":4,""num_good_moves"":8}","[404.0714133126395,411.57142761775424,0.2,404.0714133126395,411.57142761775424,106.3,404.0714133126395,411.57142761775424,209.2,526.5714133126395,396.57142761775424,309.9,829.0714133126395,132.82142761775424,410.8,581.5714133126395,227.82142761775424,511.3,495.3214133126395,310.32142761775424,613.8,547.8214133126395,314.07142761775424,718.6,555.3214133126395,345.32142761775424,826.9,325.3214133126395,514.0714276177542,928.1,217.8214133126395,639.0714276177542,1033.4,156.5714133126395,672.8214276177542,1134.4,145.3214133126395,689.0714276177542,1242.7,119.0714133126395,691.5714276177542,1342.7,81.5714133126395,719.0714276177542,1443.8,81.5714133126395,719.0714276177542,1548.2,81.5714133126395,719.0714276177542,1649.1,81.5714133126395,719.0714276177542,1758.6,81.5714133126395,719.0714276177542,1863.6,81.5714133126395,719.0714276177542,1969.3,81.5714133126395,719.0714276177542,2075.9,81.5714133126395,719.0714276177542,2178.6,81.5714133126395,719.0714276177542,2284.6,81.5714133126395,719.0714276177542,2390.9,81.5714133126395,719.0714276177542,2490.9,81.5714133126395,719.0714276177542,2590.9,81.5714133126395,719.0714276177542,2691.2,81.5714133126395,719.0714276177542,2793.1,81.5714133126395,719.0714276177542,2894.2,81.5714133126395,719.0714276177542,2998.7,81.5714133126395,719.0714276177542,3107.3,81.5714133126395,719.0714276177542,3208.9,81.5714133126395,719.0714276177542,3309.5,81.5714133126395,719.0714276177542,3410.3,81.5714133126395,719.0714276177542,3514.2,81.5714133126395,719.0714276177542,3614.7,81.5714133126395,719.0714276177542,3714.7,81.5714133126395,719.0714276177542,3822.3,81.5714133126395,719.0714276177542,3923.4,81.5714133126395,719.0714276177542,4029.5,81.5714133126395,719.0714276177542,4134.2,81.5714133126395,719.0714276177542,4238,81.5714133126395,719.0714276177542,4339.4,81.5714133126395,719.0714276177542,4443.5,81.5714133126395,719.0714276177542,4544.5,81.5714133126395,719.0714276177542,4648.5,81.5714133126395,719.0714276177542,4749.1,81.5714133126395,719.0714276177542,4855.9,81.5714133126395,719.0714276177542,4958.4]","[5010.6,5010.6,2610.3,2008.1,392.2,""smooth"",""down"",""down"",""good_move"",7711.1,2700.2,2304.9,5010.9,395.3,""smooth"",""down"",""down"",""good_move"",11371.4,3660.2,3297.7,7711.2,362.5,""oops"",""left"",""down"",""good_move"",14338.4,2966.5,2618.4,11371.9,348.1,""smooth"",""left"",""left"",""good_move"",17301.3,2962.6,2635.8,14338.7,326.8,""oops"",""left"",""up"",""bad_move"",20506.8,3205.2,2867.5,17301.6,337.7,""smooth"",""left"",""left"",""good_move"",23388.2,2881.3,2531.3,20506.9,350,""while_blue"",""left"",""up"",""bad_move"",26261.2,2872.7,2393.1,23388.5,479.6,""smooth"",""left"",""left"",""good_move"",32437.3,6176,2778.7,29384.9,273.7,""smooth"",""down"",""down"",""good_move"",38287.3,5849.8,2259.6,35715.5,312.2,""smooth"",""down"",""down"",""good_move""]","",""
"2739","","<div style=""width:500px;"">
  <p>What determined the result of this run?</p>
  </div>","59","html-slider-response","25","320382","0.0-5.0-1.3","276","1","2025-07-30 09:01:51","1f75c3e559b7213887762d5229550c2b","182.69.12.91","Mozilla/5.0 (Windows NT 10.0; Win64; x64) AppleWebKit/537.36 (KHTML, like Gecko) Chrome/138.0.0.0 Safari/537.36","WebKit","Chrome","138.0.0.0","Windows","10.0","https://app.prolific.com/","en-US,en;q=0.9","664b3888f484550fe6d377bc","6877631c9844ddd5501205fc","6889df5ccfc14caa3fd71545","3","1","664b3888f484550fe6d377bc","3","1","2025-07-30T09:07:13.805Z","","","","","","","","","","","AttribQ","","50","","","","","","","","","","","","","","","","","","","","","","","","","","","","",""
"3671","","<div style=""width:500px;"">
  <p>How much control did you have over the ball?</p>
  </div>","70","html-slider-response","26","324054","0.0-5.0-2.3","276","1","2025-07-30 09:01:51","1f75c3e559b7213887762d5229550c2b","182.69.12.91","Mozilla/5.0 (Windows NT 10.0; Win64; x64) AppleWebKit/537.36 (KHTML, like Gecko) Chrome/138.0.0.0 Safari/537.36","WebKit","Chrome","138.0.0.0","Windows","10.0","https://app.prolific.com/","en-US,en;q=0.9","664b3888f484550fe6d377bc","6877631c9844ddd5501205fc","6889df5ccfc14caa3fd71545","3","1","664b3888f484550fe6d377bc","3","1","2025-07-30T09:07:17.477Z","","","","","","","","","","","ControlQ","","50","","","","","","","","","","","","","","","","","","","","","","","","","","","","",""
"1863","","<div style=""width:500px;"">
  <p>How would you describe your current emotional state?</p>
  </div>","33","html-slider-response","27","325918","0.0-5.0-3.3","276","1","2025-07-30 09:01:51","1f75c3e559b7213887762d5229550c2b","182.69.12.91","Mozilla/5.0 (Windows NT 10.0; Win64; x64) AppleWebKit/537.36 (KHTML, like Gecko) Chrome/138.0.0.0 Safari/537.36","WebKit","Chrome","138.0.0.0","Windows","10.0","https://app.prolific.com/","en-US,en;q=0.9","664b3888f484550fe6d377bc","6877631c9844ddd5501205fc","6889df5ccfc14caa3fd71545","3","1","664b3888f484550fe6d377bc","3","1","2025-07-30T09:07:19.341Z","","","","","","","","","","","StressQ","","50","","","","","","","","","","","","","","","","","","","","","","","","","","","","",""
"2072","","<div style=""width:500px;"">
  <p>What best describes how you currently feel?</p>
  </div>","65","html-slider-response","28","327991","0.0-5.0-4.3","276","1","2025-07-30 09:01:51","1f75c3e559b7213887762d5229550c2b","182.69.12.91","Mozilla/5.0 (Windows NT 10.0; Win64; x64) AppleWebKit/537.36 (KHTML, like Gecko) Chrome/138.0.0.0 Safari/537.36","WebKit","Chrome","138.0.0.0","Windows","10.0","https://app.prolific.com/","en-US,en;q=0.9","664b3888f484550fe6d377bc","6877631c9844ddd5501205fc","6889df5ccfc14caa3fd71545","3","1","664b3888f484550fe6d377bc","3","1","2025-07-30T09:07:21.414Z","","","","","","","","","","","MotivationQ","","50","","","","","","","","","","","","","","","","","","","","","","","","","","","","",""
"","","","","ctl-task-cpt","29","367235","0.0-5.0-0.4","276","1","2025-07-30 09:01:51","1f75c3e559b7213887762d5229550c2b","182.69.12.91","Mozilla/5.0 (Windows NT 10.0; Win64; x64) AppleWebKit/537.36 (KHTML, like Gecko) Chrome/138.0.0.0 Safari/537.36","WebKit","Chrome","138.0.0.0","Windows","10.0","https://app.prolific.com/","en-US,en;q=0.9","664b3888f484550fe6d377bc","6877631c9844ddd5501205fc","6889df5ccfc14caa3fd71545","3","1","664b3888f484550fe6d377bc","3","1","2025-07-30T09:08:00.658Z","","","","","","","","","","","","","","win-only","2","g1:SE,g2:NW","0.6","5","0","334121.7","590.2","5592.4","36231.3","1","4","8","6","2","-8","-8","0","5","0","888.7","3000","-2990","[""left"",""up""]","{""num_key_presses"":9,""num_perfect"":5,""num_errors"":0,""num_randdir"":4,""num_randdir_good_moves"":2,""num_whilered"":0,""num_whileblue"":0,""num_blue"":1,""num_good_moves"":7}","[414.0714133126395,411.57142761775424,0.3,414.0714133126395,411.57142761775424,101.3,414.0714133126395,410.32142761775424,201.7,201.5714133126395,80.32142761775425,302.1,90.3214133126395,-83.42857238224575,403.1,19.071413312639507,-69.67857238224575,505.4,27.821413312639507,27.821427617754253,606,36.57141331263951,52.82142761775425,711,36.57141331263951,54.07142761775425,811.3,36.57141331263951,55.32142761775425,919.2,36.57141331263951,55.32142761775425,1020.3,36.57141331263951,55.32142761775425,1122,36.57141331263951,55.32142761775425,1225.7,36.57141331263951,55.32142761775425,1326.1,36.57141331263951,55.32142761775425,1426.1,36.57141331263951,55.32142761775425,1526.9,36.57141331263951,55.32142761775425,1634.3,36.57141331263951,55.32142761775425,1734.4,36.57141331263951,55.32142761775425,1835.3,36.57141331263951,55.32142761775425,1935.3,36.57141331263951,55.32142761775425,2041.4,36.57141331263951,55.32142761775425,2141.5,36.57141331263951,55.32142761775425,2250.6,36.57141331263951,55.32142761775425,2355.8,36.57141331263951,55.32142761775425,2456.3,36.57141331263951,55.32142761775425,2561.6,36.57141331263951,55.32142761775425,2666,36.57141331263951,55.32142761775425,2766.8,36.57141331263951,55.32142761775425,2871.1,36.57141331263951,55.32142761775425,2976,36.57141331263951,55.32142761775425,3083.2,36.57141331263951,55.32142761775425,3183.2,36.57141331263951,55.32142761775425,3283.3,36.57141331263951,55.32142761775425,3385.1,36.57141331263951,55.32142761775425,3485.5,36.57141331263951,55.32142761775425,3586,36.57141331263951,55.32142761775425,3691.1,36.57141331263951,55.32142761775425,3791.1,36.57141331263951,55.32142761775425,3891.3,36.57141331263951,55.32142761775425,3991.7,36.57141331263951,55.32142761775425,4098.7,36.57141331263951,55.32142761775425,4202,36.57141331263951,55.32142761775425,4305.5,36.57141331263951,55.32142761775425,4406.2,36.57141331263951,55.32142761775425,4514.7,36.57141331263951,55.32142761775425,4615.3,36.57141331263951,55.32142761775425,4720.9,36.57141331263951,55.32142761775425,4821.7,36.57141331263951,55.32142761775425,4931]","[1427.5,1427.5,1000,0,427.5,""oops"",""left"",""left"",""good_move"",4076.6,2648.9,2257.9,1427.7,391,""smooth"",""up"",""up"",""good_move"",7387.7,3310.8,2935.7,4076.9,375.1,""smooth"",""left"",""left"",""good_move"",9666.9,2279,1926.8,7387.9,352.2,""oops"",""up"",""down"",""bad_move"",13171.7,3504.5,3109.5,9667.2,395,""oops"",""up"",""up"",""good_move"",16130.5,2958.7,2651.1,13171.8,307.6,""oops"",""up"",""down"",""bad_move"",21945.1,5814.5,1848.5,19793.6,303,""smooth"",""up"",""up"",""good_move"",24786.7,2841.5,2497.8,21945.2,343.7,""smooth"",""up"",""up"",""good_move"",27849.8,3062.9,2734.8,24786.9,328.1,""smooth"",""up"",""up"",""good_move""]","",""
"2394","","<div style=""width:500px;"">
  <p>What determined the result of this run?</p>
  </div>","55","html-slider-response","30","369630","0.0-5.0-1.4","276","1","2025-07-30 09:01:51","1f75c3e559b7213887762d5229550c2b","182.69.12.91","Mozilla/5.0 (Windows NT 10.0; Win64; x64) AppleWebKit/537.36 (KHTML, like Gecko) Chrome/138.0.0.0 Safari/537.36","WebKit","Chrome","138.0.0.0","Windows","10.0","https://app.prolific.com/","en-US,en;q=0.9","664b3888f484550fe6d377bc","6877631c9844ddd5501205fc","6889df5ccfc14caa3fd71545","3","1","664b3888f484550fe6d377bc","3","1","2025-07-30T09:08:03.053Z","","","","","","","","","","","AttribQ","","50","","","","","","","","","","","","","","","","","","","","","","","","","","","","",""
"1647","","<div style=""width:500px;"">
  <p>How much control did you have over the ball?</p>
  </div>","56","html-slider-response","31","371277","0.0-5.0-2.4","276","1","2025-07-30 09:01:51","1f75c3e559b7213887762d5229550c2b","182.69.12.91","Mozilla/5.0 (Windows NT 10.0; Win64; x64) AppleWebKit/537.36 (KHTML, like Gecko) Chrome/138.0.0.0 Safari/537.36","WebKit","Chrome","138.0.0.0","Windows","10.0","https://app.prolific.com/","en-US,en;q=0.9","664b3888f484550fe6d377bc","6877631c9844ddd5501205fc","6889df5ccfc14caa3fd71545","3","1","664b3888f484550fe6d377bc","3","1","2025-07-30T09:08:04.700Z","","","","","","","","","","","ControlQ","","50","","","","","","","","","","","","","","","","","","","","","","","","","","","","",""
"2175","","<div style=""width:500px;"">
  <p>How would you describe your current emotional state?</p>
  </div>","64","html-slider-response","32","373453","0.0-5.0-3.4","276","1","2025-07-30 09:01:51","1f75c3e559b7213887762d5229550c2b","182.69.12.91","Mozilla/5.0 (Windows NT 10.0; Win64; x64) AppleWebKit/537.36 (KHTML, like Gecko) Chrome/138.0.0.0 Safari/537.36","WebKit","Chrome","138.0.0.0","Windows","10.0","https://app.prolific.com/","en-US,en;q=0.9","664b3888f484550fe6d377bc","6877631c9844ddd5501205fc","6889df5ccfc14caa3fd71545","3","1","664b3888f484550fe6d377bc","3","1","2025-07-30T09:08:06.876Z","","","","","","","","","","","StressQ","","50","","","","","","","","","","","","","","","","","","","","","","","","","","","","",""
"1511","","<div style=""width:500px;"">
  <p>What best describes how you currently feel?</p>
  </div>","57","html-slider-response","33","374965","0.0-5.0-4.4","276","1","2025-07-30 09:01:51","1f75c3e559b7213887762d5229550c2b","182.69.12.91","Mozilla/5.0 (Windows NT 10.0; Win64; x64) AppleWebKit/537.36 (KHTML, like Gecko) Chrome/138.0.0.0 Safari/537.36","WebKit","Chrome","138.0.0.0","Windows","10.0","https://app.prolific.com/","en-US,en;q=0.9","664b3888f484550fe6d377bc","6877631c9844ddd5501205fc","6889df5ccfc14caa3fd71545","3","1","664b3888f484550fe6d377bc","3","1","2025-07-30T09:08:08.388Z","","","","","","","","","","","MotivationQ","","50","","","","","","","","","","","","","","","","","","","","","","","","","","","","",""
"","","","","ctl-task-cpt","34","417021","0.0-5.0-0.5","276","1","2025-07-30 09:01:51","1f75c3e559b7213887762d5229550c2b","182.69.12.91","Mozilla/5.0 (Windows NT 10.0; Win64; x64) AppleWebKit/537.36 (KHTML, like Gecko) Chrome/138.0.0.0 Safari/537.36","WebKit","Chrome","138.0.0.0","Windows","10.0","https://app.prolific.com/","en-US,en;q=0.9","664b3888f484550fe6d377bc","6877631c9844ddd5501205fc","6889df5ccfc14caa3fd71545","3","1","664b3888f484550fe6d377bc","3","1","2025-07-30T09:08:50.444Z","","","","","","","","","","","","","","win-only","1","g1:NE,g2:SW","0.5","6","0","381095.6","1239.5","6241.4","39039.8","1","4","4","6","2","-4","-4","0","0","0","919.7","3000","-2605","[""down"",""left""]","{""num_key_presses"":9,""num_perfect"":5,""num_errors"":0,""num_randdir"":4,""num_randdir_good_moves"":0,""num_whilered"":0,""num_whileblue"":0,""num_blue"":2,""num_good_moves"":5}","[416.5714133126395,421.57142761775424,0.2,416.5714133126395,421.57142761775424,101.7,416.5714133126395,421.57142761775424,202,551.5714133126395,370.32142761775424,302.3,171.5714133126395,385.32142761775424,405.8,-29.678586687360493,680.3214276177542,506,-29.678586687360493,780.3214276177542,606.2,-12.178586687360493,816.5714276177542,717.9,64.0714133126395,796.5714276177542,821.4,85.3214133126395,789.0714276177542,928.6,85.3214133126395,789.0714276177542,1035.1,85.3214133126395,789.0714276177542,1137.6,85.3214133126395,789.0714276177542,1241.6,85.3214133126395,789.0714276177542,1341.8,85.3214133126395,789.0714276177542,1449.8,85.3214133126395,789.0714276177542,1551.6,85.3214133126395,789.0714276177542,1657.1,85.3214133126395,789.0714276177542,1767.2,85.3214133126395,789.0714276177542,1871.5,85.3214133126395,789.0714276177542,1984.4,85.3214133126395,789.0714276177542,2086.8,85.3214133126395,789.0714276177542,2191.1,85.3214133126395,789.0714276177542,2291.1,85.3214133126395,789.0714276177542,2400.3,85.3214133126395,789.0714276177542,2501.5,85.3214133126395,789.0714276177542,2606.5,85.3214133126395,789.0714276177542,2707,85.3214133126395,789.0714276177542,2816.3,85.3214133126395,789.0714276177542,2920.7,85.3214133126395,789.0714276177542,3021.3,85.3214133126395,789.0714276177542,3121.7,85.3214133126395,789.0714276177542,3226.2,85.3214133126395,789.0714276177542,3326.2,85.3214133126395,789.0714276177542,3431.3,85.3214133126395,789.0714276177542,3531.3,85.3214133126395,789.0714276177542,3631.6,85.3214133126395,789.0714276177542,3736.5,85.3214133126395,789.0714276177542,3841.8,85.3214133126395,789.0714276177542,3945.8,85.3214133126395,789.0714276177542,4050.1,85.3214133126395,789.0714276177542,4150.3,85.3214133126395,789.0714276177542,4251.4,85.3214133126395,789.0714276177542,4351.9,85.3214133126395,789.0714276177542,4456.6,85.3214133126395,789.0714276177542,4564.2,85.3214133126395,789.0714276177542,4664.5,85.3214133126395,789.0714276177542,4766.8,85.3214133126395,789.0714276177542,4870.9,85.3214133126395,789.0714276177542,4971.6]","[1393,1393,1000,0,393,""oops"",""down"",""right"",""bad_move"",3849.6,2456.3,2067.5,1393.4,388.7,""smooth"",""left"",""left"",""good_move"",13324,9474.1,2403.4,10624.5,296.1,""smooth"",""down"",""down"",""good_move"",16413.1,3089,2712.6,13324.1,376.4,""smooth"",""left"",""left"",""good_move"",19029.5,2616.3,2276.4,16413.2,339.9,""smooth"",""down"",""down"",""good_move"",21307.4,2277.5,1957.2,19029.9,320.3,""smooth"",""left"",""left"",""good_move"",24080.7,2773.2,2364.6,21307.5,408.6,""oops"",""down"",""right"",""bad_move"",27368.6,3287.8,2917,24080.8,370.8,""oops"",""down"",""right"",""bad_move"",30099.7,2730.9,2415,27368.8,315.9,""oops"",""left"",""right"",""bad_move""]","",""
"3410","","<div style=""width:500px;"">
  <p>What determined the result of this run?</p>
  </div>","15","html-slider-response","35","420432","0.0-5.0-1.5","276","1","2025-07-30 09:01:51","1f75c3e559b7213887762d5229550c2b","182.69.12.91","Mozilla/5.0 (Windows NT 10.0; Win64; x64) AppleWebKit/537.36 (KHTML, like Gecko) Chrome/138.0.0.0 Safari/537.36","WebKit","Chrome","138.0.0.0","Windows","10.0","https://app.prolific.com/","en-US,en;q=0.9","664b3888f484550fe6d377bc","6877631c9844ddd5501205fc","6889df5ccfc14caa3fd71545","3","1","664b3888f484550fe6d377bc","3","1","2025-07-30T09:08:53.856Z","","","","","","","","","","","AttribQ","","50","","","","","","","","","","","","","","","","","","","","","","","","","","","","",""
"2300","","<div style=""width:500px;"">
  <p>How much control did you have over the ball?</p>
  </div>","16","html-slider-response","36","422735","0.0-5.0-2.5","276","1","2025-07-30 09:01:51","1f75c3e559b7213887762d5229550c2b","182.69.12.91","Mozilla/5.0 (Windows NT 10.0; Win64; x64) AppleWebKit/537.36 (KHTML, like Gecko) Chrome/138.0.0.0 Safari/537.36","WebKit","Chrome","138.0.0.0","Windows","10.0","https://app.prolific.com/","en-US,en;q=0.9","664b3888f484550fe6d377bc","6877631c9844ddd5501205fc","6889df5ccfc14caa3fd71545","3","1","664b3888f484550fe6d377bc","3","1","2025-07-30T09:08:56.159Z","","","","","","","","","","","ControlQ","","50","","","","","","","","","","","","","","","","","","","","","","","","","","","","",""
"4518","","<div style=""width:500px;"">
  <p>How would you describe your current emotional state?</p>
  </div>","37","html-slider-response","37","427256","0.0-5.0-3.5","276","1","2025-07-30 09:01:51","1f75c3e559b7213887762d5229550c2b","182.69.12.91","Mozilla/5.0 (Windows NT 10.0; Win64; x64) AppleWebKit/537.36 (KHTML, like Gecko) Chrome/138.0.0.0 Safari/537.36","WebKit","Chrome","138.0.0.0","Windows","10.0","https://app.prolific.com/","en-US,en;q=0.9","664b3888f484550fe6d377bc","6877631c9844ddd5501205fc","6889df5ccfc14caa3fd71545","3","1","664b3888f484550fe6d377bc","3","1","2025-07-30T09:09:00.679Z","","","","","","","","","","","StressQ","","50","","","","","","","","","","","","","","","","","","","","","","","","","","","","",""
"2717","","<div style=""width:500px;"">
  <p>What best describes how you currently feel?</p>
  </div>","62","html-slider-response","38","429976","0.0-5.0-4.5","276","1","2025-07-30 09:01:51","1f75c3e559b7213887762d5229550c2b","182.69.12.91","Mozilla/5.0 (Windows NT 10.0; Win64; x64) AppleWebKit/537.36 (KHTML, like Gecko) Chrome/138.0.0.0 Safari/537.36","WebKit","Chrome","138.0.0.0","Windows","10.0","https://app.prolific.com/","en-US,en;q=0.9","664b3888f484550fe6d377bc","6877631c9844ddd5501205fc","6889df5ccfc14caa3fd71545","3","1","664b3888f484550fe6d377bc","3","1","2025-07-30T09:09:03.399Z","","","","","","","","","","","MotivationQ","","50","","","","","","","","","","","","","","","","","","","","","","","","","","","","",""
"","","","","ctl-task-cpt","39","469640","0.0-5.0-0.6","276","1","2025-07-30 09:01:51","1f75c3e559b7213887762d5229550c2b","182.69.12.91","Mozilla/5.0 (Windows NT 10.0; Win64; x64) AppleWebKit/537.36 (KHTML, like Gecko) Chrome/138.0.0.0 Safari/537.36","WebKit","Chrome","138.0.0.0","Windows","10.0","https://app.prolific.com/","en-US,en;q=0.9","664b3888f484550fe6d377bc","6877631c9844ddd5501205fc","6889df5ccfc14caa3fd71545","3","1","664b3888f484550fe6d377bc","3","1","2025-07-30T09:09:43.063Z","","","","","","","","","","","","","","win-only","0","g1:NW,g2:SE","0.4","7","0","436108.6","892","5896.1","36635.9","1","4","8","6","2","-8","-8","0","0","0","950.8","3000","-2695","[""down"",""right""]","{""num_key_presses"":9,""num_perfect"":4,""num_errors"":0,""num_randdir"":5,""num_randdir_good_moves"":3,""num_whilered"":0,""num_whileblue"":0,""num_blue"":1,""num_good_moves"":7}","[420.3214133126395,414.07142761775424,0.2,420.3214133126395,414.07142761775424,101.3,420.3214133126395,414.07142761775424,203,399.0714133126395,397.82142761775424,303.5,332.8214133126395,341.57142761775424,404.1,486.5714133126395,560.3214276177542,504.2,605.3214133126395,720.3214276177542,604.7,646.5714133126395,744.0714276177542,709.2,720.3214133126395,751.5714276177542,819,724.0714133126395,751.5714276177542,923.5,724.0714133126395,751.5714276177542,1024.2,724.0714133126395,751.5714276177542,1124.5,724.0714133126395,751.5714276177542,1229,724.0714133126395,751.5714276177542,1335.2,724.0714133126395,751.5714276177542,1435.2,724.0714133126395,751.5714276177542,1536.3,724.0714133126395,751.5714276177542,1636.4,724.0714133126395,751.5714276177542,1739.3,724.0714133126395,751.5714276177542,1840.2,724.0714133126395,751.5714276177542,1951.6,724.0714133126395,751.5714276177542,2053.6,724.0714133126395,751.5714276177542,2153.6,724.0714133126395,751.5714276177542,2258.9,724.0714133126395,751.5714276177542,2367.2,724.0714133126395,751.5714276177542,2469.7,724.0714133126395,751.5714276177542,2574.2,724.0714133126395,751.5714276177542,2683.7,721.5714133126395,761.5714276177542,2788.8,725.3214133126395,761.5714276177542,2889.6,736.5714133126395,764.0714276177542,2993.5,750.3214133126395,764.0714276177542,3093.8,750.3214133126395,764.0714276177542,3198.6,751.5714133126395,762.8214276177542,3304.1,751.5714133126395,761.5714276177542,3416.7,751.5714133126395,761.5714276177542,3516.8,755.3214133126395,761.5714276177542,3616.9,757.8214133126395,761.5714276177542,3718.5,760.3214133126395,761.5714276177542,3818.5,760.3214133126395,761.5714276177542,3919.3,760.3214133126395,761.5714276177542,4019.4,760.3214133126395,761.5714276177542,4124.2,760.3214133126395,761.5714276177542,4231.6,760.3214133126395,761.5714276177542,4331.9,759.0714133126395,761.5714276177542,4434.4,757.8214133126395,761.5714276177542,4538.5,756.5714133126395,761.5714276177542,4638.6,754.0714133126395,761.5714276177542,4739,751.5714133126395,761.5714276177542,4848.4,751.5714133126395,761.5714276177542,4949.2]","[1355.6,1355.6,1000,0,355.6,""oops"",""right"",""right"",""good_move"",4668.2,3312.3,2957.1,1355.9,355.2,""oops"",""down"",""down"",""good_move"",7228.2,2559.6,2192.9,4668.6,366.7,""oops"",""down"",""down"",""good_move"",11012.2,3783.6,3444.3,7228.6,339.3,""oops"",""right"",""left"",""bad_move"",13741.8,2729.1,2435.9,11012.7,293.2,""smooth"",""down"",""down"",""good_move"",19579.2,5837.5,2807,16420.8,351.6,""smooth"",""right"",""right"",""good_move"",21791.9,2212.1,1853.1,19579.9,359,""oops"",""right"",""up"",""bad_move"",25267.7,3475.5,3137.1,21792.3,338.3,""smooth"",""right"",""right"",""good_move"",27776.8,2508.9,2175.8,25267.9,333.1,""smooth"",""right"",""right"",""good_move""]","",""
"2696","","<div style=""width:500px;"">
  <p>What determined the result of this run?</p>
  </div>","34","html-slider-response","40","472337","0.0-5.0-1.6","276","1","2025-07-30 09:01:51","1f75c3e559b7213887762d5229550c2b","182.69.12.91","Mozilla/5.0 (Windows NT 10.0; Win64; x64) AppleWebKit/537.36 (KHTML, like Gecko) Chrome/138.0.0.0 Safari/537.36","WebKit","Chrome","138.0.0.0","Windows","10.0","https://app.prolific.com/","en-US,en;q=0.9","664b3888f484550fe6d377bc","6877631c9844ddd5501205fc","6889df5ccfc14caa3fd71545","3","1","664b3888f484550fe6d377bc","3","1","2025-07-30T09:09:45.760Z","","","","","","","","","","","AttribQ","","50","","","","","","","","","","","","","","","","","","","","","","","","","","","","",""
"1770","","<div style=""width:500px;"">
  <p>How much control did you have over the ball?</p>
  </div>","36","html-slider-response","41","474109","0.0-5.0-2.6","276","1","2025-07-30 09:01:51","1f75c3e559b7213887762d5229550c2b","182.69.12.91","Mozilla/5.0 (Windows NT 10.0; Win64; x64) AppleWebKit/537.36 (KHTML, like Gecko) Chrome/138.0.0.0 Safari/537.36","WebKit","Chrome","138.0.0.0","Windows","10.0","https://app.prolific.com/","en-US,en;q=0.9","664b3888f484550fe6d377bc","6877631c9844ddd5501205fc","6889df5ccfc14caa3fd71545","3","1","664b3888f484550fe6d377bc","3","1","2025-07-30T09:09:47.532Z","","","","","","","","","","","ControlQ","","50","","","","","","","","","","","","","","","","","","","","","","","","","","","","",""
"2561","","<div style=""width:500px;"">
  <p>How would you describe your current emotional state?</p>
  </div>","38","html-slider-response","42","476671","0.0-5.0-3.6","276","1","2025-07-30 09:01:51","1f75c3e559b7213887762d5229550c2b","182.69.12.91","Mozilla/5.0 (Windows NT 10.0; Win64; x64) AppleWebKit/537.36 (KHTML, like Gecko) Chrome/138.0.0.0 Safari/537.36","WebKit","Chrome","138.0.0.0","Windows","10.0","https://app.prolific.com/","en-US,en;q=0.9","664b3888f484550fe6d377bc","6877631c9844ddd5501205fc","6889df5ccfc14caa3fd71545","3","1","664b3888f484550fe6d377bc","3","1","2025-07-30T09:09:50.095Z","","","","","","","","","","","StressQ","","50","","","","","","","","","","","","","","","","","","","","","","","","","","","","",""
"2614","","<div style=""width:500px;"">
  <p>What best describes how you currently feel?</p>
  </div>","63","html-slider-response","43","479289","0.0-5.0-4.6","276","1","2025-07-30 09:01:51","1f75c3e559b7213887762d5229550c2b","182.69.12.91","Mozilla/5.0 (Windows NT 10.0; Win64; x64) AppleWebKit/537.36 (KHTML, like Gecko) Chrome/138.0.0.0 Safari/537.36","WebKit","Chrome","138.0.0.0","Windows","10.0","https://app.prolific.com/","en-US,en;q=0.9","664b3888f484550fe6d377bc","6877631c9844ddd5501205fc","6889df5ccfc14caa3fd71545","3","1","664b3888f484550fe6d377bc","3","1","2025-07-30T09:09:52.712Z","","","","","","","","","","","MotivationQ","","50","","","","","","","","","","","","","","","","","","","","","","","","","","","","",""
"","","","","ctl-task-cpt","44","528884","0.0-5.0-0.7","276","1","2025-07-30 09:01:51","1f75c3e559b7213887762d5229550c2b","182.69.12.91","Mozilla/5.0 (Windows NT 10.0; Win64; x64) AppleWebKit/537.36 (KHTML, like Gecko) Chrome/138.0.0.0 Safari/537.36","WebKit","Chrome","138.0.0.0","Windows","10.0","https://app.prolific.com/","en-US,en;q=0.9","664b3888f484550fe6d377bc","6877631c9844ddd5501205fc","6889df5ccfc14caa3fd71545","3","1","664b3888f484550fe6d377bc","3","1","2025-07-30T09:10:42.307Z","","","","","","","","","","","","","","win-only","2","g1:SE,g2:NW","0.3","8","0","485421.5","1008.7","6015.2","46570.8","1","4","4","6","2","-4","-4","0","0","0","625.6","3000","-2410","[""left"",""up""]","{""num_key_presses"":10,""num_perfect"":3,""num_errors"":0,""num_randdir"":7,""num_randdir_good_moves"":2,""num_whilered"":0,""num_whileblue"":0,""num_blue"":3,""num_good_moves"":5}","[414.0714133126395,416.57142761775424,0.2,414.0714133126395,416.57142761775424,109.9,414.0714133126395,416.57142761775424,212.8,386.5714133126395,391.57142761775424,313,161.5714133126395,151.57142761775424,417.2,86.5714133126395,69.07142761775425,527.1,86.5714133126395,69.07142761775425,627.7,86.5714133126395,69.07142761775425,737.4,86.5714133126395,69.07142761775425,841.9,76.5714133126395,107.82142761775425,945.1,76.5714133126395,107.82142761775425,1047.1,76.5714133126395,107.82142761775425,1147.5,76.5714133126395,107.82142761775425,1260.4,76.5714133126395,107.82142761775425,1360.7,76.5714133126395,107.82142761775425,1462.9,76.5714133126395,107.82142761775425,1563,76.5714133126395,107.82142761775425,1667.2,76.5714133126395,107.82142761775425,1776.4,76.5714133126395,107.82142761775425,1878.4,76.5714133126395,107.82142761775425,1982.9,76.5714133126395,107.82142761775425,2083,76.5714133126395,107.82142761775425,2190.2,76.5714133126395,107.82142761775425,2292.6,76.5714133126395,107.82142761775425,2397.4,76.5714133126395,107.82142761775425,2497.9,76.5714133126395,107.82142761775425,2606.2,76.5714133126395,107.82142761775425,2707.6,76.5714133126395,107.82142761775425,2811.8,76.5714133126395,107.82142761775425,2912.2,81.5714133126395,107.82142761775425,3013.4,82.8214133126395,106.57142761775425,3122.1,82.8214133126395,106.57142761775425,3227.5,82.8214133126395,106.57142761775425,3331.6,82.8214133126395,106.57142761775425,3432.5,82.8214133126395,106.57142761775425,3540.9,82.8214133126395,106.57142761775425,3641.9,82.8214133126395,106.57142761775425,3742.2,82.8214133126395,106.57142761775425,3858.1,82.8214133126395,106.57142761775425,3961.8,82.8214133126395,106.57142761775425,4062.8,82.8214133126395,106.57142761775425,4175,82.8214133126395,106.57142761775425,4277.1,82.8214133126395,106.57142761775425,4377.9,82.8214133126395,106.57142761775425,4491.1,82.8214133126395,106.57142761775425,4591.1,82.8214133126395,106.57142761775425,4691.1,82.8214133126395,106.57142761775425,4791.9,82.8214133126395,106.57142761775425,4893.2,82.8214133126395,106.57142761775425,4996.6]","[1397.9,1397.9,1000,0,397.9,""smooth"",""left"",""left"",""good_move"",3898.4,2500.2,2135.6,1398.2,364.6,""smooth"",""up"",""up"",""good_move"",6644.8,2746.1,2432.9,3898.7,313.2,""oops"",""up"",""right"",""bad_move"",16691,10045.8,2804.3,13506.3,380.4,""oops"",""up"",""down"",""bad_move"",20020.2,3329,2959.4,16691.2,369.6,""smooth"",""left"",""left"",""good_move"",23094.8,3074.5,2684.7,20020.3,389.8,""oops"",""up"",""up"",""good_move"",25158.6,2063.5,1738,23095.1,325.5,""oops"",""left"",""left"",""good_move"",28639.5,3480.7,3129.7,25158.8,351,""oops"",""up"",""right"",""bad_move"",31669.1,3029.4,2766.2,28639.7,263.2,""oops"",""up"",""down"",""bad_move"",37723.9,6054.6,2254.1,35105.5,364.3,""oops"",""left"",""down"",""bad_move""]","",""
"3025","","<div style=""width:500px;"">
  <p>What determined the result of this run?</p>
  </div>","11","html-slider-response","45","531911","0.0-5.0-1.7","276","1","2025-07-30 09:01:51","1f75c3e559b7213887762d5229550c2b","182.69.12.91","Mozilla/5.0 (Windows NT 10.0; Win64; x64) AppleWebKit/537.36 (KHTML, like Gecko) Chrome/138.0.0.0 Safari/537.36","WebKit","Chrome","138.0.0.0","Windows","10.0","https://app.prolific.com/","en-US,en;q=0.9","664b3888f484550fe6d377bc","6877631c9844ddd5501205fc","6889df5ccfc14caa3fd71545","3","1","664b3888f484550fe6d377bc","3","1","2025-07-30T09:10:45.334Z","","","","","","","","","","","AttribQ","","50","","","","","","","","","","","","","","","","","","","","","","","","","","","","",""
"3340","","<div style=""width:500px;"">
  <p>How much control did you have over the ball?</p>
  </div>","9","html-slider-response","46","535252","0.0-5.0-2.7","276","1","2025-07-30 09:01:51","1f75c3e559b7213887762d5229550c2b","182.69.12.91","Mozilla/5.0 (Windows NT 10.0; Win64; x64) AppleWebKit/537.36 (KHTML, like Gecko) Chrome/138.0.0.0 Safari/537.36","WebKit","Chrome","138.0.0.0","Windows","10.0","https://app.prolific.com/","en-US,en;q=0.9","664b3888f484550fe6d377bc","6877631c9844ddd5501205fc","6889df5ccfc14caa3fd71545","3","1","664b3888f484550fe6d377bc","3","1","2025-07-30T09:10:48.675Z","","","","","","","","","","","ControlQ","","50","","","","","","","","","","","","","","","","","","","","","","","","","","","","",""
"2802","","<div style=""width:500px;"">
  <p>How would you describe your current emotional state?</p>
  </div>","29","html-slider-response","47","538055","0.0-5.0-3.7","276","1","2025-07-30 09:01:51","1f75c3e559b7213887762d5229550c2b","182.69.12.91","Mozilla/5.0 (Windows NT 10.0; Win64; x64) AppleWebKit/537.36 (KHTML, like Gecko) Chrome/138.0.0.0 Safari/537.36","WebKit","Chrome","138.0.0.0","Windows","10.0","https://app.prolific.com/","en-US,en;q=0.9","664b3888f484550fe6d377bc","6877631c9844ddd5501205fc","6889df5ccfc14caa3fd71545","3","1","664b3888f484550fe6d377bc","3","1","2025-07-30T09:10:51.479Z","","","","","","","","","","","StressQ","","50","","","","","","","","","","","","","","","","","","","","","","","","","","","","",""
"1948","","<div style=""width:500px;"">
  <p>What best describes how you currently feel?</p>
  </div>","74","html-slider-response","48","540005","0.0-5.0-4.7","276","1","2025-07-30 09:01:51","1f75c3e559b7213887762d5229550c2b","182.69.12.91","Mozilla/5.0 (Windows NT 10.0; Win64; x64) AppleWebKit/537.36 (KHTML, like Gecko) Chrome/138.0.0.0 Safari/537.36","WebKit","Chrome","138.0.0.0","Windows","10.0","https://app.prolific.com/","en-US,en;q=0.9","664b3888f484550fe6d377bc","6877631c9844ddd5501205fc","6889df5ccfc14caa3fd71545","3","1","664b3888f484550fe6d377bc","3","1","2025-07-30T09:10:53.428Z","","","","","","","","","","","MotivationQ","","50","","","","","","","","","","","","","","","","","","","","","","","","","","","","",""
"","","","","ctl-task-cpt","49","585166","0.0-5.0-0.8","276","1","2025-07-30 09:01:51","1f75c3e559b7213887762d5229550c2b","182.69.12.91","Mozilla/5.0 (Windows NT 10.0; Win64; x64) AppleWebKit/537.36 (KHTML, like Gecko) Chrome/138.0.0.0 Safari/537.36","WebKit","Chrome","138.0.0.0","Windows","10.0","https://app.prolific.com/","en-US,en;q=0.9","664b3888f484550fe6d377bc","6877631c9844ddd5501205fc","6889df5ccfc14caa3fd71545","3","1","664b3888f484550fe6d377bc","3","1","2025-07-30T09:11:38.589Z","","","","","","","","","","","","","","win-only","1","g1:NE,g2:SW","0.2","9","0","546135.7","1366.8","6373.4","42146.5","1","4","8","6","2","-8","-9","0","0","0","791.5","3000","-2405","[""down"",""left""]","{""num_key_presses"":10,""num_perfect"":2,""num_errors"":1,""num_randdir"":7,""num_randdir_good_moves"":5,""num_whilered"":0,""num_whileblue"":1,""num_blue"":3,""num_good_moves"":7}","[411.5714133126395,406.57142761775424,0.2,411.5714133126395,406.57142761775424,107.2,411.5714133126395,406.57142761775424,211,471.5714133126395,341.57142761775424,314.2,302.8214133126395,357.82142761775424,419.6,144.0714133126395,657.8214276177542,526.3,97.8214133126395,732.8214276177542,629.8,84.0714133126395,767.8214276177542,729.8,84.0714133126395,767.8214276177542,830,84.0714133126395,767.8214276177542,933.8,81.5714133126395,767.8214276177542,1034.5,81.5714133126395,767.8214276177542,1135.1,81.5714133126395,767.8214276177542,1242.6,81.5714133126395,767.8214276177542,1344.3,81.5714133126395,767.8214276177542,1447.7,81.5714133126395,767.8214276177542,1548.4,81.5714133126395,767.8214276177542,1649.3,81.5714133126395,767.8214276177542,1749.3,81.5714133126395,767.8214276177542,1857.8,81.5714133126395,767.8214276177542,1959.5,81.5714133126395,767.8214276177542,2063.8,81.5714133126395,767.8214276177542,2164.5,81.5714133126395,767.8214276177542,2270.6,81.5714133126395,767.8214276177542,2374.1,81.5714133126395,767.8214276177542,2478.6,81.5714133126395,767.8214276177542,2584.2,81.5714133126395,767.8214276177542,2685,81.5714133126395,767.8214276177542,2791.8,81.5714133126395,767.8214276177542,2893.8,81.5714133126395,767.8214276177542,2994.5,81.5714133126395,767.8214276177542,3097.6,81.5714133126395,767.8214276177542,3199.6,81.5714133126395,767.8214276177542,3305.2,81.5714133126395,767.8214276177542,3410.6,81.5714133126395,767.8214276177542,3515,81.5714133126395,767.8214276177542,3615,81.5714133126395,767.8214276177542,3720.4,81.5714133126395,767.8214276177542,3823.5,81.5714133126395,767.8214276177542,3925.1,81.5714133126395,767.8214276177542,4027.5,81.5714133126395,767.8214276177542,4129.4,81.5714133126395,767.8214276177542,4229.9,81.5714133126395,767.8214276177542,4334.1,81.5714133126395,767.8214276177542,4434.2,81.5714133126395,767.8214276177542,4534.2,81.5714133126395,767.8214276177542,4634.3,81.5714133126395,767.8214276177542,4734.6,81.5714133126395,767.8214276177542,4839.3,81.5714133126395,767.8214276177542,4939.7]","[1388.9,1388.9,1000,0,388.9,""smooth"",""down"",""down"",""good_move"",3917.7,2528.6,2191.4,1389.1,337.3,""smooth"",""down"",""down"",""good_move"",6600.9,2683,2309,3918,373.9,""oops"",""down"",""left"",""good_move"",9158,2556.7,2217.3,6601.3,339.4,""oops"",""down"",""down"",""good_move"",19730.8,10572.6,2719.2,16622.9,388.7,""oops"",""left"",""left"",""good_move"",22609.1,2878,2517.1,19731.1,360.9,""oops"",""left"",""right"",""bad_move"",25091.4,2482,2144.5,22609.5,337.4,""oops"",""left"",""up"",""bad_move"",27809.4,2717.7,2414.4,25091.7,303.3,""oops"",""left"",""down"",""good_move"",29936.6,2127,1795.1,27809.6,331.9,""oops"",""left"",""left"",""good_move"",33687.7,3750.5,3374.7,29937.2,375.8,""while_blue"",""left"",""up"",""bad_move""]","",""
"2751","","<div style=""width:500px;"">
  <p>What determined the result of this run?</p>
  </div>","19","html-slider-response","50","587919","0.0-5.0-1.8","276","1","2025-07-30 09:01:51","1f75c3e559b7213887762d5229550c2b","182.69.12.91","Mozilla/5.0 (Windows NT 10.0; Win64; x64) AppleWebKit/537.36 (KHTML, like Gecko) Chrome/138.0.0.0 Safari/537.36","WebKit","Chrome","138.0.0.0","Windows","10.0","https://app.prolific.com/","en-US,en;q=0.9","664b3888f484550fe6d377bc","6877631c9844ddd5501205fc","6889df5ccfc14caa3fd71545","3","1","664b3888f484550fe6d377bc","3","1","2025-07-30T09:11:41.342Z","","","","","","","","","","","AttribQ","","50","","","","","","","","","","","","","","","","","","","","","","","","","","","","",""
"2245","","<div style=""width:500px;"">
  <p>How much control did you have over the ball?</p>
  </div>","21","html-slider-response","51","590167","0.0-5.0-2.8","276","1","2025-07-30 09:01:51","1f75c3e559b7213887762d5229550c2b","182.69.12.91","Mozilla/5.0 (Windows NT 10.0; Win64; x64) AppleWebKit/537.36 (KHTML, like Gecko) Chrome/138.0.0.0 Safari/537.36","WebKit","Chrome","138.0.0.0","Windows","10.0","https://app.prolific.com/","en-US,en;q=0.9","664b3888f484550fe6d377bc","6877631c9844ddd5501205fc","6889df5ccfc14caa3fd71545","3","1","664b3888f484550fe6d377bc","3","1","2025-07-30T09:11:43.590Z","","","","","","","","","","","ControlQ","","50","","","","","","","","","","","","","","","","","","","","","","","","","","","","",""
"1941","","<div style=""width:500px;"">
  <p>How would you describe your current emotional state?</p>
  </div>","30","html-slider-response","52","592111","0.0-5.0-3.8","276","1","2025-07-30 09:01:51","1f75c3e559b7213887762d5229550c2b","182.69.12.91","Mozilla/5.0 (Windows NT 10.0; Win64; x64) AppleWebKit/537.36 (KHTML, like Gecko) Chrome/138.0.0.0 Safari/537.36","WebKit","Chrome","138.0.0.0","Windows","10.0","https://app.prolific.com/","en-US,en;q=0.9","664b3888f484550fe6d377bc","6877631c9844ddd5501205fc","6889df5ccfc14caa3fd71545","3","1","664b3888f484550fe6d377bc","3","1","2025-07-30T09:11:45.534Z","","","","","","","","","","","StressQ","","50","","","","","","","","","","","","","","","","","","","","","","","","","","","","",""
"2970","","<div style=""width:500px;"">
  <p>What best describes how you currently feel?</p>
  </div>","66","html-slider-response","53","595084","0.0-5.0-4.8","276","1","2025-07-30 09:01:51","1f75c3e559b7213887762d5229550c2b","182.69.12.91","Mozilla/5.0 (Windows NT 10.0; Win64; x64) AppleWebKit/537.36 (KHTML, like Gecko) Chrome/138.0.0.0 Safari/537.36","WebKit","Chrome","138.0.0.0","Windows","10.0","https://app.prolific.com/","en-US,en;q=0.9","664b3888f484550fe6d377bc","6877631c9844ddd5501205fc","6889df5ccfc14caa3fd71545","3","1","664b3888f484550fe6d377bc","3","1","2025-07-30T09:11:48.507Z","","","","","","","","","","","MotivationQ","","50","","","","","","","","","","","","","","","","","","","","","","","","","","","","",""
"","","","","ctl-task-cpt","54","650053","0.0-5.0-0.9","276","1","2025-07-30 09:01:51","1f75c3e559b7213887762d5229550c2b","182.69.12.91","Mozilla/5.0 (Windows NT 10.0; Win64; x64) AppleWebKit/537.36 (KHTML, like Gecko) Chrome/138.0.0.0 Safari/537.36","WebKit","Chrome","138.0.0.0","Windows","10.0","https://app.prolific.com/","en-US,en;q=0.9","664b3888f484550fe6d377bc","6877631c9844ddd5501205fc","6889df5ccfc14caa3fd71545","3","1","664b3888f484550fe6d377bc","3","1","2025-07-30T09:12:43.476Z","","","","","","","","","","","","","","win-only","1","g1:NE,g2:SW","0.4","10","0","601214.6","749.4","5750.5","51950.9","1","4","4","6","2","-4","-4","0","0","0","786","3000","-2835","[""down"",""left""]","{""num_key_presses"":9,""num_perfect"":4,""num_errors"":0,""num_randdir"":5,""num_randdir_good_moves"":2,""num_whilered"":0,""num_whileblue"":0,""num_blue"":5,""num_good_moves"":6}","[422.8214133126395,406.57142761775424,0.2,422.8214133126395,406.57142761775424,101.2,422.8214133126395,406.57142761775424,202,501.5714133126395,336.57142761775424,306.2,365.3214133126395,371.57142761775424,419.7,101.5714133126395,656.5714276177542,520.9,95.3214133126395,694.0714276177542,621.1,91.5714133126395,741.5714276177542,734.8,91.5714133126395,741.5714276177542,834.9,91.5714133126395,741.5714276177542,936.5,91.5714133126395,741.5714276177542,1036.9,91.5714133126395,741.5714276177542,1152.4,91.5714133126395,741.5714276177542,1255.2,91.5714133126395,741.5714276177542,1355.2,91.5714133126395,741.5714276177542,1456.3,91.5714133126395,741.5714276177542,1560.8,91.5714133126395,741.5714276177542,1670.9,91.5714133126395,741.5714276177542,1771.2,91.5714133126395,741.5714276177542,1876,91.5714133126395,741.5714276177542,1981.5,91.5714133126395,741.5714276177542,2086.3,91.5714133126395,741.5714276177542,2191.4,91.5714133126395,741.5714276177542,2301.5,91.5714133126395,741.5714276177542,2401.6,91.5714133126395,741.5714276177542,2506.7,91.5714133126395,741.5714276177542,2611.8,91.5714133126395,741.5714276177542,2716.7,91.5714133126395,741.5714276177542,2819.8,91.5714133126395,741.5714276177542,2921.5,91.5714133126395,741.5714276177542,3025.8,91.5714133126395,741.5714276177542,3125.9,91.5714133126395,741.5714276177542,3226.4,91.5714133126395,741.5714276177542,3327,91.5714133126395,741.5714276177542,3434.6,91.5714133126395,741.5714276177542,3535.8,91.5714133126395,741.5714276177542,3636.8,91.5714133126395,741.5714276177542,3741.1,91.5714133126395,741.5714276177542,3841.2,91.5714133126395,741.5714276177542,3946.7,91.5714133126395,741.5714276177542,4049.6,91.5714133126395,741.5714276177542,4150.2,91.5714133126395,741.5714276177542,4251.1,91.5714133126395,739.0714276177542,4351.5,91.5714133126395,739.0714276177542,4466.3,91.5714133126395,739.0714276177542,4583,91.5714133126395,739.0714276177542,4686.1,91.5714133126395,739.0714276177542,4786.8,91.5714133126395,739.0714276177542,4886.8,91.5714133126395,739.0714276177542,4991.1]","[1387.5,1387.5,1000,0,387.5,""oops"",""down"",""up"",""bad_move"",9020.2,7632.5,2848,5840,332.2,""oops"",""left"",""right"",""bad_move"",12149.3,3128.8,2722.9,9020.5,405.9,""oops"",""down"",""right"",""bad_move"",15403.6,3254.2,2857.7,12149.4,396.5,""oops"",""down"",""down"",""good_move"",28178,12774.2,2406.9,25420.4,350.7,""smooth"",""left"",""left"",""good_move"",35330.5,7152.3,3131.8,31825,373.7,""smooth"",""left"",""left"",""good_move"",38238.2,2907.3,2479.5,35330.9,427.8,""smooth"",""down"",""down"",""good_move"",40875.8,2637.4,2311.3,38238.4,326.1,""oops"",""left"",""left"",""good_move"",44011.8,3135.9,2838.9,40875.9,297,""smooth"",""down"",""down"",""good_move""]","",""
"2664","","<div style=""width:500px;"">
  <p>What determined the result of this run?</p>
  </div>","22","html-slider-response","55","652719","0.0-5.0-1.9","276","1","2025-07-30 09:01:51","1f75c3e559b7213887762d5229550c2b","182.69.12.91","Mozilla/5.0 (Windows NT 10.0; Win64; x64) AppleWebKit/537.36 (KHTML, like Gecko) Chrome/138.0.0.0 Safari/537.36","WebKit","Chrome","138.0.0.0","Windows","10.0","https://app.prolific.com/","en-US,en;q=0.9","664b3888f484550fe6d377bc","6877631c9844ddd5501205fc","6889df5ccfc14caa3fd71545","3","1","664b3888f484550fe6d377bc","3","1","2025-07-30T09:12:46.142Z","","","","","","","","","","","AttribQ","","50","","","","","","","","","","","","","","","","","","","","","","","","","","","","",""
"1806","","<div style=""width:500px;"">
  <p>How much control did you have over the ball?</p>
  </div>","18","html-slider-response","56","654528","0.0-5.0-2.9","276","1","2025-07-30 09:01:51","1f75c3e559b7213887762d5229550c2b","182.69.12.91","Mozilla/5.0 (Windows NT 10.0; Win64; x64) AppleWebKit/537.36 (KHTML, like Gecko) Chrome/138.0.0.0 Safari/537.36","WebKit","Chrome","138.0.0.0","Windows","10.0","https://app.prolific.com/","en-US,en;q=0.9","664b3888f484550fe6d377bc","6877631c9844ddd5501205fc","6889df5ccfc14caa3fd71545","3","1","664b3888f484550fe6d377bc","3","1","2025-07-30T09:12:47.951Z","","","","","","","","","","","ControlQ","","50","","","","","","","","","","","","","","","","","","","","","","","","","","","","",""
"3012","","<div style=""width:500px;"">
  <p>How would you describe your current emotional state?</p>
  </div>","59","html-slider-response","57","657543","0.0-5.0-3.9","276","1","2025-07-30 09:01:51","1f75c3e559b7213887762d5229550c2b","182.69.12.91","Mozilla/5.0 (Windows NT 10.0; Win64; x64) AppleWebKit/537.36 (KHTML, like Gecko) Chrome/138.0.0.0 Safari/537.36","WebKit","Chrome","138.0.0.0","Windows","10.0","https://app.prolific.com/","en-US,en;q=0.9","664b3888f484550fe6d377bc","6877631c9844ddd5501205fc","6889df5ccfc14caa3fd71545","3","1","664b3888f484550fe6d377bc","3","1","2025-07-30T09:12:50.966Z","","","","","","","","","","","StressQ","","50","","","","","","","","","","","","","","","","","","","","","","","","","","","","",""
"3151","","<div style=""width:500px;"">
  <p>What best describes how you currently feel?</p>
  </div>","57","html-slider-response","58","660696","0.0-5.0-4.9","276","1","2025-07-30 09:01:51","1f75c3e559b7213887762d5229550c2b","182.69.12.91","Mozilla/5.0 (Windows NT 10.0; Win64; x64) AppleWebKit/537.36 (KHTML, like Gecko) Chrome/138.0.0.0 Safari/537.36","WebKit","Chrome","138.0.0.0","Windows","10.0","https://app.prolific.com/","en-US,en;q=0.9","664b3888f484550fe6d377bc","6877631c9844ddd5501205fc","6889df5ccfc14caa3fd71545","3","1","664b3888f484550fe6d377bc","3","1","2025-07-30T09:12:54.119Z","","","","","","","","","","","MotivationQ","","50","","","","","","","","","","","","","","","","","","","","","","","","","","","","",""
"","","","","ctl-task-cpt","59","708301","0.0-5.0-0.10","276","1","2025-07-30 09:01:51","1f75c3e559b7213887762d5229550c2b","182.69.12.91","Mozilla/5.0 (Windows NT 10.0; Win64; x64) AppleWebKit/537.36 (KHTML, like Gecko) Chrome/138.0.0.0 Safari/537.36","WebKit","Chrome","138.0.0.0","Windows","10.0","https://app.prolific.com/","en-US,en;q=0.9","664b3888f484550fe6d377bc","6877631c9844ddd5501205fc","6889df5ccfc14caa3fd71545","3","1","664b3888f484550fe6d377bc","3","1","2025-07-30T09:13:41.724Z","","","","","","","","","","","","","","win-only","1","g1:NE,g2:SW","0.5","11","0","666829.1","1112.4","6116.2","44575.2","1","4","8","6","2","-8","-9","0","0","0","946.8","3000","-2125","[""down"",""left""]","{""num_key_presses"":12,""num_perfect"":6,""num_errors"":1,""num_randdir"":5,""num_randdir_good_moves"":2,""num_whilered"":0,""num_whileblue"":1,""num_blue"":3,""num_good_moves"":8}","[419.0714133126395,417.82142761775424,0.2,419.0714133126395,417.82142761775424,103.3,419.0714133126395,417.82142761775424,203.9,419.0714133126395,417.82142761775424,313.1,437.8214133126395,396.57142761775424,414.5,111.5714133126395,666.5714276177542,515,-28.428586687360493,782.8214276177542,617.9,-27.178586687360493,785.3214276177542,718.8,94.0714133126395,771.5714276177542,823.1,101.5714133126395,767.8214276177542,929.4,101.5714133126395,767.8214276177542,1032.8,101.5714133126395,767.8214276177542,1133.4,91.5714133126395,786.5714276177542,1249.5,91.5714133126395,786.5714276177542,1353.9,91.5714133126395,786.5714276177542,1457.9,91.5714133126395,786.5714276177542,1558.5,91.5714133126395,786.5714276177542,1658.7,91.5714133126395,786.5714276177542,1759,91.5714133126395,786.5714276177542,1859.1,91.5714133126395,786.5714276177542,1963,91.5714133126395,786.5714276177542,2063.5,91.5714133126395,786.5714276177542,2168.6,91.5714133126395,786.5714276177542,2280.4,91.5714133126395,786.5714276177542,2383.1,91.5714133126395,786.5714276177542,2488.2,91.5714133126395,786.5714276177542,2589,91.5714133126395,786.5714276177542,2689.1,91.5714133126395,786.5714276177542,2793.4,91.5714133126395,786.5714276177542,2894,91.5714133126395,786.5714276177542,2994,91.5714133126395,786.5714276177542,3094.1,91.5714133126395,786.5714276177542,3198.5,91.5714133126395,786.5714276177542,3314.4,91.5714133126395,786.5714276177542,3417.9,91.5714133126395,786.5714276177542,3518.2,91.5714133126395,786.5714276177542,3618.5,91.5714133126395,786.5714276177542,3723.5,91.5714133126395,786.5714276177542,3828.2,91.5714133126395,786.5714276177542,3928.3,91.5714133126395,786.5714276177542,4028.4,91.5714133126395,786.5714276177542,4128.4,91.5714133126395,786.5714276177542,4228.6,91.5714133126395,786.5714276177542,4344.2,91.5714133126395,786.5714276177542,4448.5,91.5714133126395,786.5714276177542,4548.7,91.5714133126395,786.5714276177542,4659.8,91.5714133126395,786.5714276177542,4763,91.5714133126395,786.5714276177542,4863.4,91.5714133126395,786.5714276177542,4963.8]","[1390.4,1390.4,1000,0,390.4,""oops"",""down"",""left"",""good_move"",7577.4,6186.7,2720.7,4440,416.7,""oops"",""down"",""up"",""bad_move"",10429.5,2851.7,2478.4,7577.8,373.3,""smooth"",""down"",""down"",""good_move"",12694.1,2264.3,1915.3,10429.8,349,""oops"",""left"",""up"",""bad_move"",15298.6,2604.3,2254.5,12694.3,349.8,""oops"",""down"",""left"",""good_move"",18273.8,2974.9,2586,15298.9,388.9,""smooth"",""down"",""down"",""good_move"",21288.8,3014.6,2522.5,18274.2,492.1,""oops"",""left"",""up"",""bad_move"",23800.8,2511.7,2189.3,21289.1,322.4,""smooth"",""down"",""down"",""good_move"",25747,1946.1,1583.1,23800.9,363,""while_blue"",""down"",""up"",""bad_move"",31670.3,5923,2091.2,29104.5,474.7,""smooth"",""down"",""down"",""good_move"",33958.8,2288.1,1902.1,31670.7,386,""smooth"",""down"",""down"",""good_move"",36892.7,2933.7,2560,33959,373.7,""smooth"",""down"",""down"",""good_move""]","",""
"2024","","<div style=""width:500px;"">
  <p>What determined the result of this run?</p>
  </div>","14","html-slider-response","60","710326","0.0-5.0-1.10","276","1","2025-07-30 09:01:51","1f75c3e559b7213887762d5229550c2b","182.69.12.91","Mozilla/5.0 (Windows NT 10.0; Win64; x64) AppleWebKit/537.36 (KHTML, like Gecko) Chrome/138.0.0.0 Safari/537.36","WebKit","Chrome","138.0.0.0","Windows","10.0","https://app.prolific.com/","en-US,en;q=0.9","664b3888f484550fe6d377bc","6877631c9844ddd5501205fc","6889df5ccfc14caa3fd71545","3","1","664b3888f484550fe6d377bc","3","1","2025-07-30T09:13:43.750Z","","","","","","","","","","","AttribQ","","50","","","","","","","","","","","","","","","","","","","","","","","","","","","","",""
"2422","","<div style=""width:500px;"">
  <p>How much control did you have over the ball?</p>
  </div>","15","html-slider-response","61","712751","0.0-5.0-2.10","276","1","2025-07-30 09:01:51","1f75c3e559b7213887762d5229550c2b","182.69.12.91","Mozilla/5.0 (Windows NT 10.0; Win64; x64) AppleWebKit/537.36 (KHTML, like Gecko) Chrome/138.0.0.0 Safari/537.36","WebKit","Chrome","138.0.0.0","Windows","10.0","https://app.prolific.com/","en-US,en;q=0.9","664b3888f484550fe6d377bc","6877631c9844ddd5501205fc","6889df5ccfc14caa3fd71545","3","1","664b3888f484550fe6d377bc","3","1","2025-07-30T09:13:46.174Z","","","","","","","","","","","ControlQ","","50","","","","","","","","","","","","","","","","","","","","","","","","","","","","",""
"4261","","<div style=""width:500px;"">
  <p>How would you describe your current emotional state?</p>
  </div>","53","html-slider-response","62","717014","0.0-5.0-3.10","276","1","2025-07-30 09:01:51","1f75c3e559b7213887762d5229550c2b","182.69.12.91","Mozilla/5.0 (Windows NT 10.0; Win64; x64) AppleWebKit/537.36 (KHTML, like Gecko) Chrome/138.0.0.0 Safari/537.36","WebKit","Chrome","138.0.0.0","Windows","10.0","https://app.prolific.com/","en-US,en;q=0.9","664b3888f484550fe6d377bc","6877631c9844ddd5501205fc","6889df5ccfc14caa3fd71545","3","1","664b3888f484550fe6d377bc","3","1","2025-07-30T09:13:50.438Z","","","","","","","","","","","StressQ","","50","","","","","","","","","","","","","","","","","","","","","","","","","","","","",""
"2861","","<div style=""width:500px;"">
  <p>What best describes how you currently feel?</p>
  </div>","43","html-slider-response","63","719878","0.0-5.0-4.10","276","1","2025-07-30 09:01:51","1f75c3e559b7213887762d5229550c2b","182.69.12.91","Mozilla/5.0 (Windows NT 10.0; Win64; x64) AppleWebKit/537.36 (KHTML, like Gecko) Chrome/138.0.0.0 Safari/537.36","WebKit","Chrome","138.0.0.0","Windows","10.0","https://app.prolific.com/","en-US,en;q=0.9","664b3888f484550fe6d377bc","6877631c9844ddd5501205fc","6889df5ccfc14caa3fd71545","3","1","664b3888f484550fe6d377bc","3","1","2025-07-30T09:13:53.302Z","","","","","","","","","","","MotivationQ","","50","","","","","","","","","","","","","","","","","","","","","","","","","","","","",""
"","","","","ctl-task-cpt","64","755842","0.0-5.0-0.11","276","1","2025-07-30 09:01:51","1f75c3e559b7213887762d5229550c2b","182.69.12.91","Mozilla/5.0 (Windows NT 10.0; Win64; x64) AppleWebKit/537.36 (KHTML, like Gecko) Chrome/138.0.0.0 Safari/537.36","WebKit","Chrome","138.0.0.0","Windows","10.0","https://app.prolific.com/","en-US,en;q=0.9","664b3888f484550fe6d377bc","6877631c9844ddd5501205fc","6889df5ccfc14caa3fd71545","3","1","664b3888f484550fe6d377bc","3","1","2025-07-30T09:14:29.266Z","","","","","","","","","","","","","","win-only","1","g1:NE,g2:SW","0.6","12","0","726011.7","2937.8","7938.2","32929.1","1","4","4","6","2","4","4","4","0","0.030303030303030304","799.8","3000","1415","[""down"",""left""]","{""num_key_presses"":6,""num_perfect"":4,""num_errors"":0,""num_randdir"":2,""num_randdir_good_moves"":2,""num_whilered"":0,""num_whileblue"":0,""num_blue"":2,""num_good_moves"":6}","[416.5714133126395,411.57142761775424,0.3,416.5714133126395,411.57142761775424,118.8,416.5714133126395,411.57142761775424,218.9,440.3214133126395,419.07142761775424,320.1,264.0714133126395,601.5714276177542,420.2,225.3214133126395,742.8214276177542,521.1,136.5714133126395,786.5714276177542,623.8,91.5714133126395,786.5714276177542,728.5,91.5714133126395,781.5714276177542,836,91.5714133126395,781.5714276177542,938.5,91.5714133126395,781.5714276177542,1038.6,91.5714133126395,781.5714276177542,1143.5,91.5714133126395,781.5714276177542,1245.3,91.5714133126395,781.5714276177542,1348,91.5714133126395,781.5714276177542,1448.2,91.5714133126395,781.5714276177542,1553,91.5714133126395,781.5714276177542,1669,91.5714133126395,781.5714276177542,1769.2,91.5714133126395,781.5714276177542,1873.1,91.5714133126395,781.5714276177542,1974,91.5714133126395,781.5714276177542,2079.1,91.5714133126395,781.5714276177542,2183.7,91.5714133126395,781.5714276177542,2300.2,91.5714133126395,781.5714276177542,2402.5,91.5714133126395,781.5714276177542,2503.3,91.5714133126395,781.5714276177542,2608.3,91.5714133126395,781.5714276177542,2708.3,91.5714133126395,781.5714276177542,2812.6,91.5714133126395,781.5714276177542,2913,91.5714133126395,781.5714276177542,3018.9,91.5714133126395,781.5714276177542,3131,91.5714133126395,781.5714276177542,3233.6,91.5714133126395,781.5714276177542,3333.7,91.5714133126395,781.5714276177542,3437.9,91.5714133126395,781.5714276177542,3538.1,91.5714133126395,781.5714276177542,3638.5,91.5714133126395,781.5714276177542,3743.4,91.5714133126395,781.5714276177542,3843.8,91.5714133126395,781.5714276177542,3944.2,91.5714133126395,781.5714276177542,4047.8,91.5714133126395,781.5714276177542,4148.2,91.5714133126395,781.5714276177542,4248.5,91.5714133126395,781.5714276177542,4365.4,91.5714133126395,781.5714276177542,4468.9,91.5714133126395,781.5714276177542,4574.1,91.5714133126395,781.5714276177542,4678,91.5714133126395,781.5714276177542,4778.7,91.5714133126395,781.5714276177542,4883,91.5714133126395,781.5714276177542,4983.2]","[1372.7,1372.8,1000,0,372.8,""smooth"",""down"",""down"",""good_move"",3834.1,2461,2122,1373.2,338.9,""oops"",""down"",""down"",""good_move"",7007,3172.6,2838.3,3834.6,334.3,""smooth"",""left"",""left"",""good_move"",9682.8,2675.2,2291.2,7007.6,384,""smooth"",""left"",""left"",""good_move"",17779.1,8096.2,3115.7,14234.4,429,""oops"",""down"",""down"",""good_move"",24849.8,7070.5,2557.9,21845,446.9,""smooth"",""left"",""left"",""good_move""]","",""
"3427","","<div style=""width:500px;"">
  <p>What determined the result of this run?</p>
  </div>","58","html-slider-response","65","759270","0.0-5.0-1.11","276","1","2025-07-30 09:01:51","1f75c3e559b7213887762d5229550c2b","182.69.12.91","Mozilla/5.0 (Windows NT 10.0; Win64; x64) AppleWebKit/537.36 (KHTML, like Gecko) Chrome/138.0.0.0 Safari/537.36","WebKit","Chrome","138.0.0.0","Windows","10.0","https://app.prolific.com/","en-US,en;q=0.9","664b3888f484550fe6d377bc","6877631c9844ddd5501205fc","6889df5ccfc14caa3fd71545","3","1","664b3888f484550fe6d377bc","3","1","2025-07-30T09:14:32.694Z","","","","","","","","","","","AttribQ","","50","","","","","","","","","","","","","","","","","","","","","","","","","","","","",""
"2333","","<div style=""width:500px;"">
  <p>How much control did you have over the ball?</p>
  </div>","58","html-slider-response","66","761606","0.0-5.0-2.11","276","1","2025-07-30 09:01:51","1f75c3e559b7213887762d5229550c2b","182.69.12.91","Mozilla/5.0 (Windows NT 10.0; Win64; x64) AppleWebKit/537.36 (KHTML, like Gecko) Chrome/138.0.0.0 Safari/537.36","WebKit","Chrome","138.0.0.0","Windows","10.0","https://app.prolific.com/","en-US,en;q=0.9","664b3888f484550fe6d377bc","6877631c9844ddd5501205fc","6889df5ccfc14caa3fd71545","3","1","664b3888f484550fe6d377bc","3","1","2025-07-30T09:14:35.030Z","","","","","","","","","","","ControlQ","","50","","","","","","","","","","","","","","","","","","","","","","","","","","","","",""
"7022","","<div style=""width:500px;"">
  <p>How would you describe your current emotional state?</p>
  </div>","40","html-slider-response","67","768631","0.0-5.0-3.11","276","1","2025-07-30 09:01:51","1f75c3e559b7213887762d5229550c2b","182.69.12.91","Mozilla/5.0 (Windows NT 10.0; Win64; x64) AppleWebKit/537.36 (KHTML, like Gecko) Chrome/138.0.0.0 Safari/537.36","WebKit","Chrome","138.0.0.0","Windows","10.0","https://app.prolific.com/","en-US,en;q=0.9","664b3888f484550fe6d377bc","6877631c9844ddd5501205fc","6889df5ccfc14caa3fd71545","3","1","664b3888f484550fe6d377bc","3","1","2025-07-30T09:14:42.054Z","","","","","","","","","","","StressQ","","50","","","","","","","","","","","","","","","","","","","","","","","","","","","","",""
"2597","","<div style=""width:500px;"">
  <p>What best describes how you currently feel?</p>
  </div>","54","html-slider-response","68","771230","0.0-5.0-4.11","276","1","2025-07-30 09:01:51","1f75c3e559b7213887762d5229550c2b","182.69.12.91","Mozilla/5.0 (Windows NT 10.0; Win64; x64) AppleWebKit/537.36 (KHTML, like Gecko) Chrome/138.0.0.0 Safari/537.36","WebKit","Chrome","138.0.0.0","Windows","10.0","https://app.prolific.com/","en-US,en;q=0.9","664b3888f484550fe6d377bc","6877631c9844ddd5501205fc","6889df5ccfc14caa3fd71545","3","1","664b3888f484550fe6d377bc","3","1","2025-07-30T09:14:44.653Z","","","","","","","","","","","MotivationQ","","50","","","","","","","","","","","","","","","","","","","","","","","","","","","","",""
"","","","","ctl-task-cpt","69","795889","0.0-5.0-0.12","276","1","2025-07-30 09:01:51","1f75c3e559b7213887762d5229550c2b","182.69.12.91","Mozilla/5.0 (Windows NT 10.0; Win64; x64) AppleWebKit/537.36 (KHTML, like Gecko) Chrome/138.0.0.0 Safari/537.36","WebKit","Chrome","138.0.0.0","Windows","10.0","https://app.prolific.com/","en-US,en;q=0.9","664b3888f484550fe6d377bc","6877631c9844ddd5501205fc","6889df5ccfc14caa3fd71545","3","1","664b3888f484550fe6d377bc","3","1","2025-07-30T09:15:09.312Z","","","","","","","","","","","","","","win-only","2","g1:SE,g2:NW","0.7","13","0","777363.2","1971.2","6988.4","21640.8","1","4","8","6","2","8","8","12","4","0.09090909090909091","970.4","3000","1420","[""left"",""up""]","{""num_key_presses"":6,""num_perfect"":5,""num_errors"":0,""num_randdir"":1,""num_randdir_good_moves"":1,""num_whilered"":0,""num_whileblue"":0,""num_blue"":0,""num_good_moves"":6}","[419.0714133126395,424.07142761775424,0.2,419.0714133126395,424.07142761775424,102.2,419.0714133126395,424.07142761775424,202.7,419.0714133126395,426.57142761775424,304.6,376.5714133126395,379.07142761775424,410,336.5714133126395,336.57142761775424,510.2,314.0714133126395,326.57142761775424,614.6,140.3214133126395,170.32142761775424,719.4,92.8214133126395,64.07142761775425,838.3,91.5714133126395,62.82142761775425,939.9,91.5714133126395,62.82142761775425,1044.8,91.5714133126395,62.82142761775425,1144.8,91.5714133126395,62.82142761775425,1245.1,91.5714133126395,65.32142761775425,1349.6,91.5714133126395,65.32142761775425,1449.9,91.5714133126395,65.32142761775425,1555.1,91.5714133126395,65.32142761775425,1667.2,91.5714133126395,65.32142761775425,1767.7,91.5714133126395,65.32142761775425,1869.8,91.5714133126395,65.32142761775425,1979.3,91.5714133126395,65.32142761775425,2086.6,91.5714133126395,65.32142761775425,2187.5,91.5714133126395,65.32142761775425,2289.8,91.5714133126395,65.32142761775425,2394.9,91.5714133126395,65.32142761775425,2499,91.5714133126395,65.32142761775425,2599.1,91.5714133126395,65.32142761775425,2699.8,91.5714133126395,65.32142761775425,2817.2,91.5714133126395,65.32142761775425,2919.9,91.5714133126395,65.32142761775425,3026,91.5714133126395,65.32142761775425,3129.7,91.5714133126395,65.32142761775425,3231,91.5714133126395,65.32142761775425,3335.6,91.5714133126395,65.32142761775425,3452.1,91.5714133126395,65.32142761775425,3554.4,91.5714133126395,65.32142761775425,3659.5,91.5714133126395,65.32142761775425,3765,91.5714133126395,65.32142761775425,3881.2,91.5714133126395,65.32142761775425,3982.5,91.5714133126395,65.32142761775425,4082.8,91.5714133126395,65.32142761775425,4185.7,91.5714133126395,65.32142761775425,4291,91.5714133126395,65.32142761775425,4395.1,91.5714133126395,65.32142761775425,4501,91.5714133126395,65.32142761775425,4617.3,91.5714133126395,65.32142761775425,4717.3,91.5714133126395,65.32142761775425,4819.6,91.5714133126395,65.32142761775425,4925.1]","[1427.8,1427.8,1000,0,427.8,""smooth"",""left"",""left"",""good_move"",3887,2458.8,2059.2,1428.2,399.6,""smooth"",""up"",""up"",""good_move"",6927.4,3040,2631.7,3887.5,408.2,""smooth"",""up"",""up"",""good_move"",9575.1,2647.5,2265.4,6927.6,382.1,""smooth"",""left"",""left"",""good_move"",12324.1,2748.8,2389.2,9575.3,359.6,""oops"",""up"",""up"",""good_move"",14524.5,2200.4,1857.4,12324.1,343,""smooth"",""left"",""left"",""good_move""]","",""
"2212","","<div style=""width:500px;"">
  <p>What determined the result of this run?</p>
  </div>","63","html-slider-response","70","798102","0.0-5.0-1.12","276","1","2025-07-30 09:01:51","1f75c3e559b7213887762d5229550c2b","182.69.12.91","Mozilla/5.0 (Windows NT 10.0; Win64; x64) AppleWebKit/537.36 (KHTML, like Gecko) Chrome/138.0.0.0 Safari/537.36","WebKit","Chrome","138.0.0.0","Windows","10.0","https://app.prolific.com/","en-US,en;q=0.9","664b3888f484550fe6d377bc","6877631c9844ddd5501205fc","6889df5ccfc14caa3fd71545","3","1","664b3888f484550fe6d377bc","3","1","2025-07-30T09:15:11.525Z","","","","","","","","","","","AttribQ","","50","","","","","","","","","","","","","","","","","","","","","","","","","","","","",""
"1862","","<div style=""width:500px;"">
  <p>How much control did you have over the ball?</p>
  </div>","65","html-slider-response","71","799966","0.0-5.0-2.12","276","1","2025-07-30 09:01:51","1f75c3e559b7213887762d5229550c2b","182.69.12.91","Mozilla/5.0 (Windows NT 10.0; Win64; x64) AppleWebKit/537.36 (KHTML, like Gecko) Chrome/138.0.0.0 Safari/537.36","WebKit","Chrome","138.0.0.0","Windows","10.0","https://app.prolific.com/","en-US,en;q=0.9","664b3888f484550fe6d377bc","6877631c9844ddd5501205fc","6889df5ccfc14caa3fd71545","3","1","664b3888f484550fe6d377bc","3","1","2025-07-30T09:15:13.390Z","","","","","","","","","","","ControlQ","","50","","","","","","","","","","","","","","","","","","","","","","","","","","","","",""
"2989","","<div style=""width:500px;"">
  <p>How would you describe your current emotional state?</p>
  </div>","35","html-slider-response","72","802958","0.0-5.0-3.12","276","1","2025-07-30 09:01:51","1f75c3e559b7213887762d5229550c2b","182.69.12.91","Mozilla/5.0 (Windows NT 10.0; Win64; x64) AppleWebKit/537.36 (KHTML, like Gecko) Chrome/138.0.0.0 Safari/537.36","WebKit","Chrome","138.0.0.0","Windows","10.0","https://app.prolific.com/","en-US,en;q=0.9","664b3888f484550fe6d377bc","6877631c9844ddd5501205fc","6889df5ccfc14caa3fd71545","3","1","664b3888f484550fe6d377bc","3","1","2025-07-30T09:15:16.381Z","","","","","","","","","","","StressQ","","50","","","","","","","","","","","","","","","","","","","","","","","","","","","","",""
"3309","","<div style=""width:500px;"">
  <p>What best describes how you currently feel?</p>
  </div>","61","html-slider-response","73","806270","0.0-5.0-4.12","276","1","2025-07-30 09:01:51","1f75c3e559b7213887762d5229550c2b","182.69.12.91","Mozilla/5.0 (Windows NT 10.0; Win64; x64) AppleWebKit/537.36 (KHTML, like Gecko) Chrome/138.0.0.0 Safari/537.36","WebKit","Chrome","138.0.0.0","Windows","10.0","https://app.prolific.com/","en-US,en;q=0.9","664b3888f484550fe6d377bc","6877631c9844ddd5501205fc","6889df5ccfc14caa3fd71545","3","1","664b3888f484550fe6d377bc","3","1","2025-07-30T09:15:19.693Z","","","","","","","","","","","MotivationQ","","50","","","","","","","","","","","","","","","","","","","","","","","","","","","","",""
"","","","","ctl-task-cpt","74","850666","0.0-5.0-0.13","276","1","2025-07-30 09:01:51","1f75c3e559b7213887762d5229550c2b","182.69.12.91","Mozilla/5.0 (Windows NT 10.0; Win64; x64) AppleWebKit/537.36 (KHTML, like Gecko) Chrome/138.0.0.0 Safari/537.36","WebKit","Chrome","138.0.0.0","Windows","10.0","https://app.prolific.com/","en-US,en;q=0.9","664b3888f484550fe6d377bc","6877631c9844ddd5501205fc","6889df5ccfc14caa3fd71545","3","1","664b3888f484550fe6d377bc","3","1","2025-07-30T09:16:04.089Z","","","","","","","","","","","","","","win-only","2","g1:SE,g2:NW","0.8","14","0","812403.3","1281.6","6299.9","41375.4","1","4","4","6","2","4","4","16","12","0.12121212121212122","683.9","3000","30","[""left"",""up""]","{""num_key_presses"":10,""num_perfect"":8,""num_errors"":0,""num_randdir"":2,""num_randdir_good_moves"":0,""num_whilered"":0,""num_whileblue"":0,""num_blue"":2,""num_good_moves"":8}","[411.5714133126395,424.07142761775424,0.2,411.5714133126395,424.07142761775424,117.9,411.5714133126395,421.57142761775424,218.9,267.8214133126395,326.57142761775424,319.1,97.8214133126395,207.82142761775424,435.6,86.5714133126395,177.82142761775424,536.1,35.32141331263951,56.57142761775425,639.4,35.32141331263951,56.57142761775425,751.1,35.32141331263951,56.57142761775425,851.6,35.32141331263951,56.57142761775425,954.5,35.32141331263951,65.32142761775425,1059.5,35.32141331263951,65.32142761775425,1164.5,35.32141331263951,65.32142761775425,1264.9,35.32141331263951,65.32142761775425,1365.6,35.32141331263951,65.32142761775425,1469.2,35.32141331263951,65.32142761775425,1569.5,35.32141331263951,65.32142761775425,1687.8,35.32141331263951,65.32142761775425,1789.4,35.32141331263951,65.32142761775425,1889.5,35.32141331263951,65.32142761775425,1989.9,35.32141331263951,65.32142761775425,2094.1,35.32141331263951,65.32142761775425,2199.7,35.32141331263951,65.32142761775425,2319,35.32141331263951,65.32142761775425,2423.9,35.32141331263951,65.32142761775425,2524,35.32141331263951,65.32142761775425,2624.1,35.32141331263951,65.32142761775425,2728.7,35.32141331263951,65.32142761775425,2829.3,35.32141331263951,65.32142761775425,2929.3,35.32141331263951,65.32142761775425,3033.6,35.32141331263951,65.32142761775425,3133.8,35.32141331263951,65.32142761775425,3234.3,35.32141331263951,65.32142761775425,3353.2,35.32141331263951,65.32142761775425,3453.9,35.32141331263951,65.32142761775425,3554.3,35.32141331263951,65.32142761775425,3658.8,35.32141331263951,65.32142761775425,3758.8,35.32141331263951,65.32142761775425,3859.7,35.32141331263951,65.32142761775425,3959.9,35.32141331263951,65.32142761775425,4064,35.32141331263951,65.32142761775425,4164,35.32141331263951,65.32142761775425,4283.6,35.32141331263951,65.32142761775425,4387.1,35.32141331263951,65.32142761775425,4488.9,35.32141331263951,65.32142761775425,4590.3,35.32141331263951,65.32142761775425,4695.2,35.32141331263951,65.32142761775425,4798.9,35.32141331263951,65.32142761775425,4899.4]","[1378.5,1378.5,1000,0,378.5,""smooth"",""up"",""up"",""good_move"",4308.6,2929.8,2508.8,1378.8,421,""smooth"",""left"",""left"",""good_move"",7307.9,2999.1,2612.9,4308.8,386.2,""oops"",""up"",""right"",""bad_move"",10049.1,2740.9,2311.2,7308.2,429.7,""smooth"",""up"",""up"",""good_move"",13199.5,3150.2,2433.8,10049.3,716.4,""smooth"",""up"",""up"",""good_move"",16654.3,3454.5,3139.7,13199.8,314.8,""smooth"",""left"",""left"",""good_move"",22826.6,6171.9,2361.5,20141.5,323.6,""oops"",""left"",""down"",""bad_move"",25204.6,2377.7,2020,22826.9,357.7,""smooth"",""left"",""left"",""good_move"",28099.1,2894.3,2534.3,25204.8,360,""smooth"",""up"",""up"",""good_move"",34976.2,6876.6,2715.3,31946.6,314.3,""smooth"",""left"",""left"",""good_move""]","",""
"2619","","<div style=""width:500px;"">
  <p>What determined the result of this run?</p>
  </div>","60","html-slider-response","75","853286","0.0-5.0-1.13","276","1","2025-07-30 09:01:51","1f75c3e559b7213887762d5229550c2b","182.69.12.91","Mozilla/5.0 (Windows NT 10.0; Win64; x64) AppleWebKit/537.36 (KHTML, like Gecko) Chrome/138.0.0.0 Safari/537.36","WebKit","Chrome","138.0.0.0","Windows","10.0","https://app.prolific.com/","en-US,en;q=0.9","664b3888f484550fe6d377bc","6877631c9844ddd5501205fc","6889df5ccfc14caa3fd71545","3","1","664b3888f484550fe6d377bc","3","1","2025-07-30T09:16:06.709Z","","","","","","","","","","","AttribQ","","50","","","","","","","","","","","","","","","","","","","","","","","","","","","","",""
"4061","","<div style=""width:500px;"">
  <p>How much control did you have over the ball?</p>
