"rt","response_timestamp","stimulus","response","trial_type","trial_index","time_elapsed","internal_node_id","run_id","condition","recorded_at","source_code_version","ip","user_agent","device","browser","browser_version","platform","platform_version","referer","accept_language","PROLIFIC_PID","STUDY_ID","SESSION_ID","WEEK","prolific_id","week","realtime","success","responses","item_order","radio_event_ids","radio_event_times","key_event_times","mouse_event_times","straightlining","zigzagging","honeypot","eventType","view_history","slider_start","which_type","canvas_config","goals_layout","control_level","trial_number","tutorial_trial_number","trial_start_time","phase1_start_time","phase2_start_time","phase3_start_time","goal_1_value","goal_1_distance","goal_2_value","goal_2_distance","goal_selected","outcome","outcome_total","participant_final_score","participant_initial_score","participant_final_score_prop","goal_choice_rt","allocated_time","allocated_time_remaining","goal_direction","counts","mouse_movements","key_presses","question_order","question_id"
"6888","1752051857162","<p style='font-size:40px;line-height:1.25'><strong>Welcome to the experiment!</strong></p><p style='font-size:1.1em;line-height:1.25'>Thank you for participanting in our experiment again! You will be asked to play the Dysfunctional Ball Game again. We will briefly recap the rules before we start.</p><p style='font-size:1.1em;line-height:1.25'>Press <strong>Next</strong> to continue.</p>","0","custom-html-button-response","0","6890","0.0-0.0","21","1","2025-07-09 09:02:16","01610cd0009c79a99da7d0a3353eb402","216.120.189.168","Mozilla/5.0 (Windows NT 10.0; Win64; x64) AppleWebKit/537.36 (KHTML, like Gecko) Chrome/137.0.0.0 Safari/537.36","WebKit","Chrome","137.0.0.0","Windows","10.0","https://app.prolific.com/","en-US,en;q=0.9","674eae0026291e33be89b46f","683db7602f5db6a34d12d064","686e2fda8fe2c90e762e9d7f","1","674eae0026291e33be89b46f","1","2025-07-09T09:04:17.163Z","","","","","","","","","","","","","","","","","","","","","","","","","","","","","","","","","","","","","","","","","",""
"10190","","","","fullscreen","1","18126","0.0-1.0","21","1","2025-07-09 09:02:16","01610cd0009c79a99da7d0a3353eb402","216.120.189.168","Mozilla/5.0 (Windows NT 10.0; Win64; x64) AppleWebKit/537.36 (KHTML, like Gecko) Chrome/137.0.0.0 Safari/537.36","WebKit","Chrome","137.0.0.0","Windows","10.0","https://app.prolific.com/","en-US,en;q=0.9","674eae0026291e33be89b46f","683db7602f5db6a34d12d064","686e2fda8fe2c90e762e9d7f","1","674eae0026291e33be89b46f","1","","true","","","","","","","","","","","","","","","","","","","","","","","","","","","","","","","","","","","","","","","","",""
"76640","1752051945039","<p style='font-size:1.1em;line-height:1.25'>In the following, we will ask you a few questions relating to your feelings in the last 24 hours.<br></p><p style='font-size:1.1em;line-height:1.25'>Press the <strong>Next</strong> button to continue.</p>","0","custom-html-button-response","2","94767","0.0-2.0-0.0","21","1","2025-07-09 09:02:16","01610cd0009c79a99da7d0a3353eb402","216.120.189.168","Mozilla/5.0 (Windows NT 10.0; Win64; x64) AppleWebKit/537.36 (KHTML, like Gecko) Chrome/137.0.0.0 Safari/537.36","WebKit","Chrome","137.0.0.0","Windows","10.0","https://app.prolific.com/","en-US,en;q=0.9","674eae0026291e33be89b46f","683db7602f5db6a34d12d064","686e2fda8fe2c90e762e9d7f","1","674eae0026291e33be89b46f","1","2025-07-09T09:05:45.040Z","","","","","","","","","","","","","","","","","","","","","","","","","","","","","","","","","","","","","","","","","",""
"91486","","","","survey-template","3","186281","0.0-2.0-1.0","21","1","2025-07-09 09:02:16","01610cd0009c79a99da7d0a3353eb402","216.120.189.168","Mozilla/5.0 (Windows NT 10.0; Win64; x64) AppleWebKit/537.36 (KHTML, like Gecko) Chrome/137.0.0.0 Safari/537.36","WebKit","Chrome","137.0.0.0","Windows","10.0","https://app.prolific.com/","en-US,en;q=0.9","674eae0026291e33be89b46f","683db7602f5db6a34d12d064","686e2fda8fe2c90e762e9d7f","1","674eae0026291e33be89b46f","1","2025-07-09T09:07:16.554Z","","{""Q01"":""0"",""Q02"":""0"",""Q03"":""0"",""Q04"":""1"",""Q05"":""1"",""Q06"":""1"",""Q07"":""1"",""Q08"":""1"",""Q09"":""1"",""Q10"":""1"",""Q11"":""1"",""Q12"":""1"",""Q13"":""5"",""Q14"":""1"",""Q15"":""0"",""Q16"":""0"",""Q17"":""1"",""Q18"":""1"",""Q19"":""1"",""Q20"":""1"",""Q21"":""1"",""Q22"":""1""}","[0,1,2,3,4,5,6,7,8,9,10,11,12,13,14,15,16,17,18,19,20,21]","[""Q01"",""Q02"",""Q03"",""Q04"",""Q05"",""Q06"",""Q07"",""Q08"",""Q09"",""Q10"",""Q11"",""Q12"",""Q13"",""Q14"",""Q15"",""Q16"",""Q17"",""Q18"",""Q19"",""Q20"",""Q21"",""Q22""]","[11194.90000000596,18477.90000000596,19968.60000000149,22005.10000000149,23542.70000000298,27094.40000000596,28985.60000000149,30431,38378.5,40253.5,44564.10000000149,52940.40000000596,57890,60956.30000000447,65404.70000000298,67741.60000000149,70637.40000000596,72612.90000000596,77054.60000000149,82202.5,86319.5,89424.60000000149]","[]","[0.10000000149011612,11194.90000000596,18477.90000000596,19968.60000000149,22005.10000000149,23542.70000000298,27094.40000000596,28985.60000000149,30431,38378.5,40253.5,44564.10000000149,52940.40000000596,57890,60956.30000000447,65404.70000000298,66957.20000000298,67741.60000000149,70637.40000000596,72612.90000000596,77054.60000000149,82202.5,86319.5,89424.60000000149,91444.90000000596]","0.7272727272727273","0.14285714285714285","0","drsp","","","","","","","","","","","","","","","","","","","","","","","","","","","","","","",""
"41495.70000000298","","","","survey-template","4","227779","0.0-2.0-2.0","21","1","2025-07-09 09:02:16","01610cd0009c79a99da7d0a3353eb402","216.120.189.168","Mozilla/5.0 (Windows NT 10.0; Win64; x64) AppleWebKit/537.36 (KHTML, like Gecko) Chrome/137.0.0.0 Safari/537.36","WebKit","Chrome","137.0.0.0","Windows","10.0","https://app.prolific.com/","en-US,en;q=0.9","674eae0026291e33be89b46f","683db7602f5db6a34d12d064","686e2fda8fe2c90e762e9d7f","1","674eae0026291e33be89b46f","1","2025-07-09T09:07:58.052Z","","{""Q01"":""1"",""Q02"":""1"",""Q03"":""1""}","[0,1,2]","[""Q01"",""Q02"",""Q03""]","[3575.89999999851,9038.29999999702,16989.10000000149]","[]","[3575.89999999851,9038.29999999702,16989.10000000149,41494.89999999851]","0.6666666666666666","0","0","stress","","","","","","","","","","","","","","","","","","","","","","","","","","","","","","",""
"68437","","","","instructions","5","296217","0.0-3.0-0.0","21","1","2025-07-09 09:02:16","01610cd0009c79a99da7d0a3353eb402","216.120.189.168","Mozilla/5.0 (Windows NT 10.0; Win64; x64) AppleWebKit/537.36 (KHTML, like Gecko) Chrome/137.0.0.0 Safari/537.36","WebKit","Chrome","137.0.0.0","Windows","10.0","https://app.prolific.com/","en-US,en;q=0.9","674eae0026291e33be89b46f","683db7602f5db6a34d12d064","686e2fda8fe2c90e762e9d7f","1","674eae0026291e33be89b46f","1","","","","","","","","","","","","","[{""page_index"":0,""viewing_time"":68436}]","","","","","","","","","","","","","","","","","","","","","","","","","","","","","",""
"100500","","<p>Before you start with this game please answer the following three questions yourself. </p>
  <p>Through this game, we measure several aspects of your cognitive performance, such as reaction times, multi-tasking capabilities </p>
  <p>and the ability to assess the situation you are in.</p>
  <p></p>
  <p><b>How good do you usually are in such tasks?</b></p>","91","html-slider-response","6","396783","0.0-4.0-0.0","21","1","2025-07-09 09:02:16","01610cd0009c79a99da7d0a3353eb402","216.120.189.168","Mozilla/5.0 (Windows NT 10.0; Win64; x64) AppleWebKit/537.36 (KHTML, like Gecko) Chrome/137.0.0.0 Safari/537.36","WebKit","Chrome","137.0.0.0","Windows","10.0","https://app.prolific.com/","en-US,en;q=0.9","674eae0026291e33be89b46f","683db7602f5db6a34d12d064","686e2fda8fe2c90e762e9d7f","1","674eae0026291e33be89b46f","1","2025-07-09T09:10:47.056Z","","","","","","","","","","","PreSkillQ","","50","","","","","","","","","","","","","","","","","","","","","","","","","","","","",""
"5145","","<div style=""width:500px;"">
  <p>How well do you think you will perform in this task compared to other participants?</p>
  </div>","84","html-slider-response","7","401928","0.0-4.0-1.0","21","1","2025-07-09 09:02:16","01610cd0009c79a99da7d0a3353eb402","216.120.189.168","Mozilla/5.0 (Windows NT 10.0; Win64; x64) AppleWebKit/537.36 (KHTML, like Gecko) Chrome/137.0.0.0 Safari/537.36","WebKit","Chrome","137.0.0.0","Windows","10.0","https://app.prolific.com/","en-US,en;q=0.9","674eae0026291e33be89b46f","683db7602f5db6a34d12d064","686e2fda8fe2c90e762e9d7f","1","674eae0026291e33be89b46f","1","2025-07-09T09:10:52.202Z","","","","","","","","","","","PrePerfQ","","50","","","","","","","","","","","","","","","","","","","","","","","","","","","","",""
"36081","","<div style=""width:500px;"">
  <p>What best describes how you currently feel?</p>
  </div>","93","html-slider-response","8","438011","0.0-4.0-2.0","21","1","2025-07-09 09:02:16","01610cd0009c79a99da7d0a3353eb402","216.120.189.168","Mozilla/5.0 (Windows NT 10.0; Win64; x64) AppleWebKit/537.36 (KHTML, like Gecko) Chrome/137.0.0.0 Safari/537.36","WebKit","Chrome","137.0.0.0","Windows","10.0","https://app.prolific.com/","en-US,en;q=0.9","674eae0026291e33be89b46f","683db7602f5db6a34d12d064","686e2fda8fe2c90e762e9d7f","1","674eae0026291e33be89b46f","1","2025-07-09T09:11:28.284Z","","","","","","","","","","","PreMotivationQ","","50","","","","","","","","","","","","","","","","","","","","","","","","","","","","",""
"","","","","ctl-task-cpt","9","474083","0.0-5.0-0.0","21","1","2025-07-09 09:02:16","01610cd0009c79a99da7d0a3353eb402","216.120.189.168","Mozilla/5.0 (Windows NT 10.0; Win64; x64) AppleWebKit/537.36 (KHTML, like Gecko) Chrome/137.0.0.0 Safari/537.36","WebKit","Chrome","137.0.0.0","Windows","10.0","https://app.prolific.com/","en-US,en;q=0.9","674eae0026291e33be89b46f","683db7602f5db6a34d12d064","686e2fda8fe2c90e762e9d7f","1","674eae0026291e33be89b46f","1","2025-07-09T09:12:04.356Z","","","","","","","","","","","","","","win-only","0","g1:NW,g2:SE","1","1","0","469835.6","8046.3","13051.4","32959.2","1","4","8","6","1","-1","-3","0","0","0","5005.1","3000","-2940","[""left"",""up""]","{""num_key_presses"":7,""num_perfect"":5,""num_errors"":2,""num_randdir"":0,""num_randdir_good_moves"":0,""num_whilered"":0,""num_whileblue"":1,""num_blue"":1,""num_good_moves"":1}","[294.22232142857143,292.12857142857143,0.1,294.22232142857143,292.12857142857143,100.3,294.22232142857143,292.12857142857143,204.4,294.22232142857143,292.12857142857143,315.4,294.22232142857143,292.12857142857143,479.4,294.22232142857143,292.12857142857143,579.6,294.22232142857143,292.12857142857143,679.9,294.22232142857143,292.12857142857143,784.7,294.22232142857143,292.12857142857143,889.5,294.22232142857143,292.12857142857143,994.2,294.22232142857143,292.12857142857143,1094.3,294.22232142857143,292.12857142857143,1194.4,294.22232142857143,292.12857142857143,1294.4,294.22232142857143,292.12857142857143,1394.4,294.22232142857143,292.12857142857143,1494.4,294.22232142857143,292.12857142857143,1594.5,294.22232142857143,292.12857142857143,1694.9,294.22232142857143,292.12857142857143,1799.8,294.22232142857143,292.12857142857143,1904.5,294.22232142857143,292.12857142857143,2009.2,294.22232142857143,292.12857142857143,2113.7,294.22232142857143,292.12857142857143,2213.8,294.22232142857143,292.12857142857143,2314.3,294.22232142857143,292.12857142857143,2419,294.22232142857143,292.12857142857143,2519.7,294.22232142857143,292.12857142857143,2630.1,294.22232142857143,292.12857142857143,2730.3,294.22232142857143,292.12857142857143,2830.5,294.22232142857143,292.12857142857143,2935.6,294.22232142857143,292.12857142857143,3039.9,294.22232142857143,292.12857142857143,3147.2,294.22232142857143,292.12857142857143,3249.2,294.22232142857143,292.12857142857143,3350.8,294.22232142857143,292.12857142857143,3454.3,294.22232142857143,292.12857142857143,3554.6,294.22232142857143,292.12857142857143,3663.3,294.22232142857143,292.12857142857143,3763.5,294.22232142857143,292.12857142857143,3903.8,294.22232142857143,292.12857142857143,4004.3,294.22232142857143,292.12857142857143,4104.6,294.22232142857143,292.12857142857143,4209.3,294.22232142857143,292.12857142857143,4310.9,294.22232142857143,292.12857142857143,4415.7,616.2223214285714,428.12857142857143,4802.4,632.2223214285714,462.12857142857143,4905.4]","[1520.8,1520.8,1000,0,520.8,""smooth"",""down"",""down"",""bad_move"",1648,127,2264.8,1521,-2137.8,""error"",""-"",""-"",""no_move"",5816.3,4168.2,2272.8,2649.1,894.4,""smooth"",""down"",""down"",""bad_move"",8387.6,2545.8,1815.8,5841.9,730,""smooth"",""down"",""down"",""bad_move"",11579.8,3191.6,2525.6,8388.2,666,""smooth"",""down"",""right"",""bad_move"",14398.2,2818.1,2403.6,11580.1,414.5,""smooth"",""right"",""right"",""bad_move"",17505.6,3107,2810.6,14398.6,296.4,""while_blue"",""right"",""up"",""good_move""]","",""
"75682","","<div style=""width:500px;"">
  <p>What determined the result of this run?</p>
  </div>","82","html-slider-response","10","549766","0.0-5.0-1.0","21","1","2025-07-09 09:02:16","01610cd0009c79a99da7d0a3353eb402","216.120.189.168","Mozilla/5.0 (Windows NT 10.0; Win64; x64) AppleWebKit/537.36 (KHTML, like Gecko) Chrome/137.0.0.0 Safari/537.36","WebKit","Chrome","137.0.0.0","Windows","10.0","https://app.prolific.com/","en-US,en;q=0.9","674eae0026291e33be89b46f","683db7602f5db6a34d12d064","686e2fda8fe2c90e762e9d7f","1","674eae0026291e33be89b46f","1","2025-07-09T09:13:20.039Z","","","","","","","","","","","AttribQ","","50","","","","","","","","","","","","","","","","","","","","","","","","","","","","",""
"3440","","<div style=""width:500px;"">
  <p>How much control did you have over the ball?</p>
  </div>","66","html-slider-response","11","553208","0.0-5.0-2.0","21","1","2025-07-09 09:02:16","01610cd0009c79a99da7d0a3353eb402","216.120.189.168","Mozilla/5.0 (Windows NT 10.0; Win64; x64) AppleWebKit/537.36 (KHTML, like Gecko) Chrome/137.0.0.0 Safari/537.36","WebKit","Chrome","137.0.0.0","Windows","10.0","https://app.prolific.com/","en-US,en;q=0.9","674eae0026291e33be89b46f","683db7602f5db6a34d12d064","686e2fda8fe2c90e762e9d7f","1","674eae0026291e33be89b46f","1","2025-07-09T09:13:23.481Z","","","","","","","","","","","ControlQ","","50","","","","","","","","","","","","","","","","","","","","","","","","","","","","",""
"2995","","<div style=""width:500px;"">
  <p>How would you describe your current emotional state?</p>
  </div>","69","html-slider-response","12","556204","0.0-5.0-3.0","21","1","2025-07-09 09:02:16","01610cd0009c79a99da7d0a3353eb402","216.120.189.168","Mozilla/5.0 (Windows NT 10.0; Win64; x64) AppleWebKit/537.36 (KHTML, like Gecko) Chrome/137.0.0.0 Safari/537.36","WebKit","Chrome","137.0.0.0","Windows","10.0","https://app.prolific.com/","en-US,en;q=0.9","674eae0026291e33be89b46f","683db7602f5db6a34d12d064","686e2fda8fe2c90e762e9d7f","1","674eae0026291e33be89b46f","1","2025-07-09T09:13:26.477Z","","","","","","","","","","","StressQ","","50","","","","","","","","","","","","","","","","","","","","","","","","","","","","",""
"2887","","<div style=""width:500px;"">
  <p>What best describes how you currently feel?</p>
  </div>","64","html-slider-response","13","559091","0.0-5.0-4.0","21","1","2025-07-09 09:02:16","01610cd0009c79a99da7d0a3353eb402","216.120.189.168","Mozilla/5.0 (Windows NT 10.0; Win64; x64) AppleWebKit/537.36 (KHTML, like Gecko) Chrome/137.0.0.0 Safari/537.36","WebKit","Chrome","137.0.0.0","Windows","10.0","https://app.prolific.com/","en-US,en;q=0.9","674eae0026291e33be89b46f","683db7602f5db6a34d12d064","686e2fda8fe2c90e762e9d7f","1","674eae0026291e33be89b46f","1","2025-07-09T09:13:29.365Z","","","","","","","","","","","MotivationQ","","50","","","","","","","","","","","","","","","","","","","","","","","","","","","","",""
"","","","","ctl-task-cpt","14","585557","0.0-5.0-0.1","21","1","2025-07-09 09:02:16","01610cd0009c79a99da7d0a3353eb402","216.120.189.168","Mozilla/5.0 (Windows NT 10.0; Win64; x64) AppleWebKit/537.36 (KHTML, like Gecko) Chrome/137.0.0.0 Safari/537.36","WebKit","Chrome","137.0.0.0","Windows","10.0","https://app.prolific.com/","en-US,en;q=0.9","674eae0026291e33be89b46f","683db7602f5db6a34d12d064","686e2fda8fe2c90e762e9d7f","1","674eae0026291e33be89b46f","1","2025-07-09T09:13:55.830Z","","","","","","","","","","","","","","win-only","3","g1:SW,g2:NE","0.9","2","0","590807.4","3299.9","8300.9","23446.6","1","4","4","6","2","4","4","4","0","0.030303030303030304","1498.9","3000","440","[""up"",""right""]","{""num_key_presses"":6,""num_perfect"":6,""num_errors"":0,""num_randdir"":0,""num_randdir_good_moves"":0,""num_whilered"":0,""num_whileblue"":0,""num_blue"":0,""num_good_moves"":6}","[296.22232142857143,298.12857142857143,0.2,296.22232142857143,298.12857142857143,112.5,296.22232142857143,298.12857142857143,215.3,296.22232142857143,298.12857142857143,315.6,296.22232142857143,298.12857142857143,415.9,296.22232142857143,298.12857142857143,521.2,296.22232142857143,298.12857142857143,621.9,296.22232142857143,297.12857142857143,726.1,435.22232142857143,73.12857142857143,831.3,437.22232142857143,71.12857142857143,932,444.22232142857143,70.12857142857143,1035.3,509.22232142857143,56.128571428571426,1136.7,513.2223214285714,56.128571428571426,1240.5,513.2223214285714,56.128571428571426,1340.7,513.2223214285714,56.128571428571426,1441,513.2223214285714,56.128571428571426,1541,513.2223214285714,56.128571428571426,1641.6,513.2223214285714,56.128571428571426,1745.9,513.2223214285714,56.128571428571426,1858.9,513.2223214285714,56.128571428571426,1964.9,513.2223214285714,56.128571428571426,2065.5,513.2223214285714,56.128571428571426,2166.7,513.2223214285714,56.128571428571426,2270.8,513.2223214285714,56.128571428571426,2371.6,513.2223214285714,56.128571428571426,2480.3,513.2223214285714,56.128571428571426,2587,513.2223214285714,56.128571428571426,2690.5,513.2223214285714,56.128571428571426,2797.7,513.2223214285714,56.128571428571426,2900.6,513.2223214285714,56.128571428571426,3001.2,513.2223214285714,56.128571428571426,3105.6,513.2223214285714,56.128571428571426,3205.9,513.2223214285714,56.128571428571426,3313.9,513.2223214285714,56.128571428571426,3415.5,513.2223214285714,56.128571428571426,3521.9,513.2223214285714,56.128571428571426,3630.3,513.2223214285714,56.128571428571426,3731.3,513.2223214285714,56.128571428571426,3835.6,513.2223214285714,56.128571428571426,3940.4,513.2223214285714,56.128571428571426,4041.4,513.2223214285714,56.128571428571426,4148.3,513.2223214285714,56.128571428571426,4250.8,513.2223214285714,56.128571428571426,4351.9,513.2223214285714,56.128571428571426,4455.2,513.2223214285714,56.128571428571426,4555.8,513.2223214285714,56.128571428571426,4664,513.2223214285714,56.128571428571426,4765.6,513.2223214285714,56.128571428571426,4865.7,513.2223214285714,56.128571428571426,4970.6]","[1379.4,1379.4,1000,0.1,379.3,""smooth"",""up"",""up"",""good_move"",4486.4,3106.4,2537.5,1380,568.9,""smooth"",""up"",""up"",""good_move"",7444.8,2958.1,2450.2,4486.7,507.9,""smooth"",""up"",""up"",""good_move"",10295.2,2850,2434.5,7445.2,415.5,""smooth"",""right"",""right"",""good_move"",12980.1,2684.2,2254.5,10295.9,429.7,""smooth"",""right"",""right"",""good_move"",15049.7,2069.4,1674.6,12980.3,394.8,""smooth"",""right"",""right"",""good_move""]","",""
"12949","","<div style=""width:500px;"">
  <p>What determined the result of this run?</p>
  </div>","73","html-slider-response","15","598507","0.0-5.0-1.1","21","1","2025-07-09 09:02:16","01610cd0009c79a99da7d0a3353eb402","216.120.189.168","Mozilla/5.0 (Windows NT 10.0; Win64; x64) AppleWebKit/537.36 (KHTML, like Gecko) Chrome/137.0.0.0 Safari/537.36","WebKit","Chrome","137.0.0.0","Windows","10.0","https://app.prolific.com/","en-US,en;q=0.9","674eae0026291e33be89b46f","683db7602f5db6a34d12d064","686e2fda8fe2c90e762e9d7f","1","674eae0026291e33be89b46f","1","2025-07-09T09:14:08.780Z","","","","","","","","","","","AttribQ","","50","","","","","","","","","","","","","","","","","","","","","","","","","","","","",""
"20528","","<div style=""width:500px;"">
  <p>How much control did you have over the ball?</p>
  </div>","77","html-slider-response","16","619037","0.0-5.0-2.1","21","1","2025-07-09 09:02:16","01610cd0009c79a99da7d0a3353eb402","216.120.189.168","Mozilla/5.0 (Windows NT 10.0; Win64; x64) AppleWebKit/537.36 (KHTML, like Gecko) Chrome/137.0.0.0 Safari/537.36","WebKit","Chrome","137.0.0.0","Windows","10.0","https://app.prolific.com/","en-US,en;q=0.9","674eae0026291e33be89b46f","683db7602f5db6a34d12d064","686e2fda8fe2c90e762e9d7f","1","674eae0026291e33be89b46f","1","2025-07-09T09:14:29.310Z","","","","","","","","","","","ControlQ","","50","","","","","","","","","","","","","","","","","","","","","","","","","","","","",""
"2767","","<div style=""width:500px;"">
  <p>How would you describe your current emotional state?</p>
  </div>","77","html-slider-response","17","621804","0.0-5.0-3.1","21","1","2025-07-09 09:02:16","01610cd0009c79a99da7d0a3353eb402","216.120.189.168","Mozilla/5.0 (Windows NT 10.0; Win64; x64) AppleWebKit/537.36 (KHTML, like Gecko) Chrome/137.0.0.0 Safari/537.36","WebKit","Chrome","137.0.0.0","Windows","10.0","https://app.prolific.com/","en-US,en;q=0.9","674eae0026291e33be89b46f","683db7602f5db6a34d12d064","686e2fda8fe2c90e762e9d7f","1","674eae0026291e33be89b46f","1","2025-07-09T09:14:32.077Z","","","","","","","","","","","StressQ","","50","","","","","","","","","","","","","","","","","","","","","","","","","","","","",""
"4132","","<div style=""width:500px;"">
  <p>What best describes how you currently feel?</p>
  </div>","80","html-slider-response","18","625937","0.0-5.0-4.1","21","1","2025-07-09 09:02:16","01610cd0009c79a99da7d0a3353eb402","216.120.189.168","Mozilla/5.0 (Windows NT 10.0; Win64; x64) AppleWebKit/537.36 (KHTML, like Gecko) Chrome/137.0.0.0 Safari/537.36","WebKit","Chrome","137.0.0.0","Windows","10.0","https://app.prolific.com/","en-US,en;q=0.9","674eae0026291e33be89b46f","683db7602f5db6a34d12d064","686e2fda8fe2c90e762e9d7f","1","674eae0026291e33be89b46f","1","2025-07-09T09:14:36.210Z","","","","","","","","","","","MotivationQ","","50","","","","","","","","","","","","","","","","","","","","","","","","","","","","",""
"","","","","ctl-task-cpt","19","675854","0.0-5.0-0.2","21","1","2025-07-09 09:02:16","01610cd0009c79a99da7d0a3353eb402","216.120.189.168","Mozilla/5.0 (Windows NT 10.0; Win64; x64) AppleWebKit/537.36 (KHTML, like Gecko) Chrome/137.0.0.0 Safari/537.36","WebKit","Chrome","137.0.0.0","Windows","10.0","https://app.prolific.com/","en-US,en;q=0.9","674eae0026291e33be89b46f","683db7602f5db6a34d12d064","686e2fda8fe2c90e762e9d7f","1","674eae0026291e33be89b46f","1","2025-07-09T09:15:26.127Z","","","","","","","","","","","","","","win-only","1","g1:NE,g2:SW","0.8","3","0","657652.3","1450.5","6450.9","46901","1","4","4","6","2","4","4","8","4","0.06060606060606061","1430.3","3000","695","[""down"",""left""]","{""num_key_presses"":6,""num_perfect"":6,""num_errors"":0,""num_randdir"":0,""num_randdir_good_moves"":0,""num_whilered"":0,""num_whileblue"":0,""num_blue"":7,""num_good_moves"":6}","[296.22232142857143,295.12857142857143,0.2,296.22232142857143,295.12857142857143,100.2,296.22232142857143,295.12857142857143,200.6,296.22232142857143,295.12857142857143,305.2,296.22232142857143,295.12857142857143,410.3,296.22232142857143,295.12857142857143,510.7,267.22232142857143,334.12857142857143,616.3,99.22232142857143,477.12857142857143,716.8,47.222321428571426,515.1285714285714,817,27.222321428571426,547.1285714285714,920.4,21.222321428571426,560.1285714285714,1020.4,21.222321428571426,560.1285714285714,1121,27.222321428571426,548.1285714285714,1226.2,29.222321428571426,546.1285714285714,1326.8,29.222321428571426,546.1285714285714,1433.9,29.222321428571426,546.1285714285714,1535.9,29.222321428571426,546.1285714285714,1636,29.222321428571426,546.1285714285714,1740.9,29.222321428571426,546.1285714285714,1846,29.222321428571426,546.1285714285714,1947.4,29.222321428571426,546.1285714285714,2050.2,29.222321428571426,546.1285714285714,2154.9,29.222321428571426,546.1285714285714,2255.7,29.222321428571426,546.1285714285714,2355.9,29.222321428571426,546.1285714285714,2461.3,29.222321428571426,546.1285714285714,2565.9,29.222321428571426,546.1285714285714,2666.2,29.222321428571426,546.1285714285714,2766.2,29.222321428571426,546.1285714285714,2869.8,29.222321428571426,546.1285714285714,2970.4,29.222321428571426,546.1285714285714,3075.7,29.222321428571426,546.1285714285714,3176.7,29.222321428571426,546.1285714285714,3281.1,29.222321428571426,546.1285714285714,3381.6,29.222321428571426,546.1285714285714,3485.2,29.222321428571426,546.1285714285714,3585.3,29.222321428571426,546.1285714285714,3685.4,29.222321428571426,546.1285714285714,3786.3,29.222321428571426,546.1285714285714,3886.3,29.222321428571426,546.1285714285714,3990.5,29.222321428571426,546.1285714285714,4095.6,29.222321428571426,546.1285714285714,4196.1,29.222321428571426,546.1285714285714,4296.3,29.222321428571426,546.1285714285714,4400.8,29.222321428571426,546.1285714285714,4506.7,29.222321428571426,546.1285714285714,4610.3,29.222321428571426,546.1285714285714,4714.8,29.222321428571426,546.1285714285714,4815.7,29.222321428571426,546.1285714285714,4920.2]","[1344.5,1344.5,1000,0,344.5,""smooth"",""down"",""down"",""good_move"",4264,2918.6,2489,1345.5,429.5,""smooth"",""down"",""down"",""good_move"",14766.8,10502.6,2381.8,12030.5,354.5,""smooth"",""down"",""down"",""good_move"",20351.9,5584.8,1991.4,17796.9,563.6,""smooth"",""left"",""left"",""good_move"",23055,2702.8,2270.1,20352.2,432.7,""smooth"",""left"",""left"",""good_move"",40343.8,17288.6,2935.6,36962.9,445.3,""smooth"",""left"",""left"",""good_move""]","",""
"3385","","<div style=""width:500px;"">
  <p>What determined the result of this run?</p>
  </div>","85","html-slider-response","20","679241","0.0-5.0-1.2","21","1","2025-07-09 09:02:16","01610cd0009c79a99da7d0a3353eb402","216.120.189.168","Mozilla/5.0 (Windows NT 10.0; Win64; x64) AppleWebKit/537.36 (KHTML, like Gecko) Chrome/137.0.0.0 Safari/537.36","WebKit","Chrome","137.0.0.0","Windows","10.0","https://app.prolific.com/","en-US,en;q=0.9","674eae0026291e33be89b46f","683db7602f5db6a34d12d064","686e2fda8fe2c90e762e9d7f","1","674eae0026291e33be89b46f","1","2025-07-09T09:15:29.514Z","","","","","","","","","","","AttribQ","","50","","","","","","","","","","","","","","","","","","","","","","","","","","","","",""
"2588","","<div style=""width:500px;"">
  <p>How much control did you have over the ball?</p>
  </div>","69","html-slider-response","21","681829","0.0-5.0-2.2","21","1","2025-07-09 09:02:16","01610cd0009c79a99da7d0a3353eb402","216.120.189.168","Mozilla/5.0 (Windows NT 10.0; Win64; x64) AppleWebKit/537.36 (KHTML, like Gecko) Chrome/137.0.0.0 Safari/537.36","WebKit","Chrome","137.0.0.0","Windows","10.0","https://app.prolific.com/","en-US,en;q=0.9","674eae0026291e33be89b46f","683db7602f5db6a34d12d064","686e2fda8fe2c90e762e9d7f","1","674eae0026291e33be89b46f","1","2025-07-09T09:15:32.102Z","","","","","","","","","","","ControlQ","","50","","","","","","","","","","","","","","","","","","","","","","","","","","","","",""
"5017","","<div style=""width:500px;"">
  <p>How would you describe your current emotional state?</p>
  </div>","36","html-slider-response","22","686847","0.0-5.0-3.2","21","1","2025-07-09 09:02:16","01610cd0009c79a99da7d0a3353eb402","216.120.189.168","Mozilla/5.0 (Windows NT 10.0; Win64; x64) AppleWebKit/537.36 (KHTML, like Gecko) Chrome/137.0.0.0 Safari/537.36","WebKit","Chrome","137.0.0.0","Windows","10.0","https://app.prolific.com/","en-US,en;q=0.9","674eae0026291e33be89b46f","683db7602f5db6a34d12d064","686e2fda8fe2c90e762e9d7f","1","674eae0026291e33be89b46f","1","2025-07-09T09:15:37.120Z","","","","","","","","","","","StressQ","","50","","","","","","","","","","","","","","","","","","","","","","","","","","","","",""
"6446","","<div style=""width:500px;"">
  <p>What best describes how you currently feel?</p>
  </div>","71","html-slider-response","23","693294","0.0-5.0-4.2","21","1","2025-07-09 09:02:16","01610cd0009c79a99da7d0a3353eb402","216.120.189.168","Mozilla/5.0 (Windows NT 10.0; Win64; x64) AppleWebKit/537.36 (KHTML, like Gecko) Chrome/137.0.0.0 Safari/537.36","WebKit","Chrome","137.0.0.0","Windows","10.0","https://app.prolific.com/","en-US,en;q=0.9","674eae0026291e33be89b46f","683db7602f5db6a34d12d064","686e2fda8fe2c90e762e9d7f","1","674eae0026291e33be89b46f","1","2025-07-09T09:15:43.567Z","","","","","","","","","","","MotivationQ","","50","","","","","","","","","","","","","","","","","","","","","","","","","","","","",""
"","","","","ctl-task-cpt","24","739131","0.0-5.0-0.3","21","1","2025-07-09 09:02:16","01610cd0009c79a99da7d0a3353eb402","216.120.189.168","Mozilla/5.0 (Windows NT 10.0; Win64; x64) AppleWebKit/537.36 (KHTML, like Gecko) Chrome/137.0.0.0 Safari/537.36","WebKit","Chrome","137.0.0.0","Windows","10.0","https://app.prolific.com/","en-US,en;q=0.9","674eae0026291e33be89b46f","683db7602f5db6a34d12d064","686e2fda8fe2c90e762e9d7f","1","674eae0026291e33be89b46f","1","2025-07-09T09:16:29.404Z","","","","","","","","","","","","","","win-only","1","g1:NE,g2:SW","0.7","4","0","725009.3","6544.4","11545.9","42831.7","1","4","8","6","2","-8","-8","0","8","0","1261.9","3000","-2995","[""down"",""left""]","{""num_key_presses"":7,""num_perfect"":4,""num_errors"":0,""num_randdir"":3,""num_randdir_good_moves"":1,""num_whilered"":0,""num_whileblue"":0,""num_blue"":3,""num_good_moves"":5}","[296.22232142857143,299.12857142857143,0.3,296.22232142857143,299.12857142857143,101.4,296.22232142857143,299.12857142857143,201.9,296.22232142857143,299.12857142857143,310.4,296.22232142857143,299.12857142857143,410.6,296.22232142857143,299.12857142857143,516.1,296.22232142857143,299.12857142857143,616.4,296.22232142857143,299.12857142857143,717.1,275.22232142857143,329.12857142857143,821,23.222321428571426,566.1285714285714,921.1,3.2223214285714263,583.1285714285714,1029.1,3.2223214285714263,583.1285714285714,1132,3.2223214285714263,583.1285714285714,1232.2,3.2223214285714263,583.1285714285714,1336,6.222321428571426,579.1285714285714,1437,38.222321428571426,556.1285714285714,1537.1,40.222321428571426,555.1285714285714,1637.4,40.222321428571426,555.1285714285714,1743.6,40.222321428571426,555.1285714285714,1844,40.222321428571426,555.1285714285714,1946.4,40.222321428571426,555.1285714285714,2046.7,40.222321428571426,555.1285714285714,2146.9,40.222321428571426,555.1285714285714,2251,40.222321428571426,555.1285714285714,2359.8,40.222321428571426,555.1285714285714,2460.7,40.222321428571426,555.1285714285714,2561.2,69.22232142857143,552.1285714285714,2661.2,98.22232142857143,557.1285714285714,2766.1,102.22232142857143,558.1285714285714,2866.5,102.22232142857143,558.1285714285714,2967.7,102.22232142857143,558.1285714285714,3077,102.22232142857143,558.1285714285714,3181.2,102.22232142857143,558.1285714285714,3286.9,102.22232142857143,558.1285714285714,3393.4,102.22232142857143,558.1285714285714,3494.2,102.22232142857143,558.1285714285714,3595.8,102.22232142857143,558.1285714285714,3697,102.22232142857143,558.1285714285714,3797,102.22232142857143,558.1285714285714,3902,102.22232142857143,558.1285714285714,4010.5,102.22232142857143,558.1285714285714,4111.4,102.22232142857143,558.1285714285714,4216.3,102.22232142857143,558.1285714285714,4326.7,102.22232142857143,558.1285714285714,4428.5,102.22232142857143,558.1285714285714,4531.1,102.22232142857143,558.1285714285714,4637.1,102.22232142857143,558.1285714285714,4743.9,102.22232142857143,558.1285714285714,4846,102.22232142857143,558.1285714285714,4946]","[4327.8,4327.9,1910.6,2000.8,416.5,""smooth"",""down"",""down"",""good_move"",7485.4,3157.1,2750.6,4328.3,406.5,""smooth"",""down"",""down"",""good_move"",10067.1,2581,2169.6,7486.1,411.4,""oops"",""down"",""down"",""good_move"",13184.2,3116.8,2707.6,10067.4,409.2,""smooth"",""left"",""left"",""good_move"",23306.8,10122.4,2020.8,20855.7,430.3,""smooth"",""left"",""left"",""good_move"",25627.5,2320.1,1826.7,23307.4,493.4,""oops"",""left"",""right"",""bad_move"",28806.4,3178.5,2813.5,25627.9,365,""oops"",""left"",""up"",""bad_move""]","",""
"3652","","<div style=""width:500px;"">
  <p>What determined the result of this run?</p>
  </div>","36","html-slider-response","25","742783","0.0-5.0-1.3","21","1","2025-07-09 09:02:16","01610cd0009c79a99da7d0a3353eb402","216.120.189.168","Mozilla/5.0 (Windows NT 10.0; Win64; x64) AppleWebKit/537.36 (KHTML, like Gecko) Chrome/137.0.0.0 Safari/537.36","WebKit","Chrome","137.0.0.0","Windows","10.0","https://app.prolific.com/","en-US,en;q=0.9","674eae0026291e33be89b46f","683db7602f5db6a34d12d064","686e2fda8fe2c90e762e9d7f","1","674eae0026291e33be89b46f","1","2025-07-09T09:16:33.056Z","","","","","","","","","","","AttribQ","","50","","","","","","","","","","","","","","","","","","","","","","","","","","","","",""
"3243","","<div style=""width:500px;"">
  <p>How much control did you have over the ball?</p>
  </div>","33","html-slider-response","26","746027","0.0-5.0-2.3","21","1","2025-07-09 09:02:16","01610cd0009c79a99da7d0a3353eb402","216.120.189.168","Mozilla/5.0 (Windows NT 10.0; Win64; x64) AppleWebKit/537.36 (KHTML, like Gecko) Chrome/137.0.0.0 Safari/537.36","WebKit","Chrome","137.0.0.0","Windows","10.0","https://app.prolific.com/","en-US,en;q=0.9","674eae0026291e33be89b46f","683db7602f5db6a34d12d064","686e2fda8fe2c90e762e9d7f","1","674eae0026291e33be89b46f","1","2025-07-09T09:16:36.300Z","","","","","","","","","","","ControlQ","","50","","","","","","","","","","","","","","","","","","","","","","","","","","","","",""
"3134","","<div style=""width:500px;"">
  <p>How would you describe your current emotional state?</p>
  </div>","62","html-slider-response","27","749162","0.0-5.0-3.3","21","1","2025-07-09 09:02:16","01610cd0009c79a99da7d0a3353eb402","216.120.189.168","Mozilla/5.0 (Windows NT 10.0; Win64; x64) AppleWebKit/537.36 (KHTML, like Gecko) Chrome/137.0.0.0 Safari/537.36","WebKit","Chrome","137.0.0.0","Windows","10.0","https://app.prolific.com/","en-US,en;q=0.9","674eae0026291e33be89b46f","683db7602f5db6a34d12d064","686e2fda8fe2c90e762e9d7f","1","674eae0026291e33be89b46f","1","2025-07-09T09:16:39.435Z","","","","","","","","","","","StressQ","","50","","","","","","","","","","","","","","","","","","","","","","","","","","","","",""
"54663","","<div style=""width:500px;"">
  <p>What best describes how you currently feel?</p>
  </div>","70","html-slider-response","28","803826","0.0-5.0-4.3","21","1","2025-07-09 09:02:16","01610cd0009c79a99da7d0a3353eb402","216.120.189.168","Mozilla/5.0 (Windows NT 10.0; Win64; x64) AppleWebKit/537.36 (KHTML, like Gecko) Chrome/137.0.0.0 Safari/537.36","WebKit","Chrome","137.0.0.0","Windows","10.0","https://app.prolific.com/","en-US,en;q=0.9","674eae0026291e33be89b46f","683db7602f5db6a34d12d064","686e2fda8fe2c90e762e9d7f","1","674eae0026291e33be89b46f","1","2025-07-09T09:17:34.100Z","","","","","","","","","","","MotivationQ","","50","","","","","","","","","","","","","","","","","","","","","","","","","","","","",""
"","","","","ctl-task-cpt","29","854367","0.0-5.0-0.4","21","1","2025-07-09 09:02:16","01610cd0009c79a99da7d0a3353eb402","216.120.189.168","Mozilla/5.0 (Windows NT 10.0; Win64; x64) AppleWebKit/537.36 (KHTML, like Gecko) Chrome/137.0.0.0 Safari/537.36","WebKit","Chrome","137.0.0.0","Windows","10.0","https://app.prolific.com/","en-US,en;q=0.9","674eae0026291e33be89b46f","683db7602f5db6a34d12d064","686e2fda8fe2c90e762e9d7f","1","674eae0026291e33be89b46f","1","2025-07-09T09:18:24.640Z","","","","","","","","","","","","","","win-only","3","g1:SW,g2:NE","0.6","5","0","835541.9","3566.3","8570.9","47522","1","4","4","6","2","-4","-4","0","0","0","1467","3000","-2995","[""up"",""right""]","{""num_key_presses"":7,""num_perfect"":4,""num_errors"":0,""num_randdir"":3,""num_randdir_good_moves"":0,""num_whilered"":0,""num_whileblue"":0,""num_blue"":5,""num_good_moves"":4}","[291.22232142857143,297.12857142857143,0.6,291.22232142857143,297.12857142857143,104.3,291.22232142857143,297.12857142857143,204.6,291.22232142857143,297.12857142857143,311.9,291.22232142857143,297.12857142857143,417.6,291.22232142857143,297.12857142857143,520.9,291.22232142857143,297.12857142857143,624,397.22232142857143,195.12857142857143,724.2,423.22232142857143,173.12857142857143,825.8,452.22232142857143,139.12857142857143,931.8,509.22232142857143,88.12857142857143,1037.2,518.2223214285714,84.12857142857143,1140.6,522.2223214285714,84.12857142857143,1245.1,522.2223214285714,84.12857142857143,1346.1,522.2223214285714,84.12857142857143,1450.1,522.2223214285714,84.12857142857143,1550.7,522.2223214285714,84.12857142857143,1654.6,522.2223214285714,84.12857142857143,1754.9,522.2223214285714,84.12857142857143,1855.4,522.2223214285714,84.12857142857143,1959.7,522.2223214285714,84.12857142857143,2064.8,522.2223214285714,84.12857142857143,2168,522.2223214285714,84.12857142857143,2269.6,522.2223214285714,84.12857142857143,2371,522.2223214285714,84.12857142857143,2474.7,522.2223214285714,84.12857142857143,2574.9,522.2223214285714,84.12857142857143,2683.6,522.2223214285714,84.12857142857143,2785.4,522.2223214285714,84.12857142857143,2890.4,522.2223214285714,84.12857142857143,2994.4,522.2223214285714,84.12857142857143,3095.1,522.2223214285714,84.12857142857143,3199.4,522.2223214285714,84.12857142857143,3301.4,522.2223214285714,84.12857142857143,3405.8,522.2223214285714,84.12857142857143,3509.6,522.2223214285714,84.12857142857143,3609.7,522.2223214285714,84.12857142857143,3716.4,522.2223214285714,84.12857142857143,3819.4,522.2223214285714,84.12857142857143,3919.9,522.2223214285714,84.12857142857143,4020.3,522.2223214285714,84.12857142857143,4125.8,522.2223214285714,84.12857142857143,4229.7,522.2223214285714,84.12857142857143,4330.5,522.2223214285714,84.12857142857143,4431.9,522.2223214285714,84.12857142857143,4535.2,522.2223214285714,84.12857142857143,4639.7,522.2223214285714,84.12857142857143,4739.7,522.2223214285714,84.12857142857143,4839.8,522.2223214285714,84.12857142857143,4940.8]","[1385.7,1385.8,1000,0,385.8,""oops"",""up"",""left"",""bad_move"",11598,10211.8,2274.3,8955.6,368.1,""smooth"",""up"",""up"",""good_move"",14562.7,2964.2,2583.4,11598.5,380.8,""smooth"",""up"",""up"",""good_move"",18308.3,3745.4,3447,14562.9,298.4,""smooth"",""up"",""up"",""good_move"",20975.6,2666,2315.1,18309.6,350.9,""oops"",""right"",""left"",""bad_move"",29847.3,8870.8,2299.7,27185.2,362.4,""oops"",""right"",""down"",""bad_move"",32417.2,2569.6,2178.1,29847.6,391.5,""smooth"",""right"",""right"",""good_move""]","",""
"3746","","<div style=""width:500px;"">
  <p>What determined the result of this run?</p>
  </div>","72","html-slider-response","30","858113","0.0-5.0-1.4","21","1","2025-07-09 09:02:16","01610cd0009c79a99da7d0a3353eb402","216.120.189.168","Mozilla/5.0 (Windows NT 10.0; Win64; x64) AppleWebKit/537.36 (KHTML, like Gecko) Chrome/137.0.0.0 Safari/537.36","WebKit","Chrome","137.0.0.0","Windows","10.0","https://app.prolific.com/","en-US,en;q=0.9","674eae0026291e33be89b46f","683db7602f5db6a34d12d064","686e2fda8fe2c90e762e9d7f","1","674eae0026291e33be89b46f","1","2025-07-09T09:18:28.387Z","","","","","","","","","","","AttribQ","","50","","","","","","","","","","","","","","","","","","","","","","","","","","","","",""
"2652","","<div style=""width:500px;"">
  <p>How much control did you have over the ball?</p>
  </div>","62","html-slider-response","31","860767","0.0-5.0-2.4","21","1","2025-07-09 09:02:16","01610cd0009c79a99da7d0a3353eb402","216.120.189.168","Mozilla/5.0 (Windows NT 10.0; Win64; x64) AppleWebKit/537.36 (KHTML, like Gecko) Chrome/137.0.0.0 Safari/537.36","WebKit","Chrome","137.0.0.0","Windows","10.0","https://app.prolific.com/","en-US,en;q=0.9","674eae0026291e33be89b46f","683db7602f5db6a34d12d064","686e2fda8fe2c90e762e9d7f","1","674eae0026291e33be89b46f","1","2025-07-09T09:18:31.040Z","","","","","","","","","","","ControlQ","","50","","","","","","","","","","","","","","","","","","","","","","","","","","","","",""
"3330","","<div style=""width:500px;"">
  <p>How would you describe your current emotional state?</p>
  </div>","60","html-slider-response","32","864101","0.0-5.0-3.4","21","1","2025-07-09 09:02:16","01610cd0009c79a99da7d0a3353eb402","216.120.189.168","Mozilla/5.0 (Windows NT 10.0; Win64; x64) AppleWebKit/537.36 (KHTML, like Gecko) Chrome/137.0.0.0 Safari/537.36","WebKit","Chrome","137.0.0.0","Windows","10.0","https://app.prolific.com/","en-US,en;q=0.9","674eae0026291e33be89b46f","683db7602f5db6a34d12d064","686e2fda8fe2c90e762e9d7f","1","674eae0026291e33be89b46f","1","2025-07-09T09:18:34.374Z","","","","","","","","","","","StressQ","","50","","","","","","","","","","","","","","","","","","","","","","","","","","","","",""
"3281","","<div style=""width:500px;"">
  <p>What best describes how you currently feel?</p>
  </div>","60","html-slider-response","33","867383","0.0-5.0-4.4","21","1","2025-07-09 09:02:16","01610cd0009c79a99da7d0a3353eb402","216.120.189.168","Mozilla/5.0 (Windows NT 10.0; Win64; x64) AppleWebKit/537.36 (KHTML, like Gecko) Chrome/137.0.0.0 Safari/537.36","WebKit","Chrome","137.0.0.0","Windows","10.0","https://app.prolific.com/","en-US,en;q=0.9","674eae0026291e33be89b46f","683db7602f5db6a34d12d064","686e2fda8fe2c90e762e9d7f","1","674eae0026291e33be89b46f","1","2025-07-09T09:18:37.656Z","","","","","","","","","","","MotivationQ","","50","","","","","","","","","","","","","","","","","","","","","","","","","","","","",""
"","","","","ctl-task-cpt","34","909858","0.0-5.0-0.5","21","1","2025-07-09 09:02:16","01610cd0009c79a99da7d0a3353eb402","216.120.189.168","Mozilla/5.0 (Windows NT 10.0; Win64; x64) AppleWebKit/537.36 (KHTML, like Gecko) Chrome/137.0.0.0 Safari/537.36","WebKit","Chrome","137.0.0.0","Windows","10.0","https://app.prolific.com/","en-US,en;q=0.9","674eae0026291e33be89b46f","683db7602f5db6a34d12d064","686e2fda8fe2c90e762e9d7f","1","674eae0026291e33be89b46f","1","2025-07-09T09:19:20.131Z","","","","","","","","","","","","","","win-only","0","g1:NW,g2:SE","0.5","6","0","899098.6","1794.8","6796.3","39457.1","1","4","8","6","2","-8","-9","0","0","0","1475.2","3000","-2530","[""down"",""right""]","{""num_key_presses"":10,""num_perfect"":4,""num_errors"":1,""num_randdir"":5,""num_randdir_good_moves"":2,""num_whilered"":0,""num_whileblue"":0,""num_blue"":2,""num_good_moves"":6}","[296.22232142857143,299.12857142857143,0.2,296.22232142857143,299.12857142857143,100.7,296.22232142857143,299.12857142857143,210.6,296.22232142857143,299.12857142857143,311.9,296.22232142857143,299.12857142857143,415.5,296.22232142857143,299.12857142857143,515.7,296.22232142857143,299.12857142857143,615.7,487.22232142857143,429.12857142857143,720.7,547.2223214285714,511.12857142857143,827.6,547.2223214285714,511.12857142857143,930.4,550.2223214285714,513.1285714285714,1031.3,568.2223214285714,532.1285714285714,1137.3,570.2223214285714,535.1285714285714,1244.5,570.2223214285714,535.1285714285714,1345.8,570.2223214285714,535.1285714285714,1447.2,570.2223214285714,535.1285714285714,1550.6,570.2223214285714,535.1285714285714,1652.3,570.2223214285714,535.1285714285714,1760,570.2223214285714,535.1285714285714,1860.1,570.2223214285714,535.1285714285714,1960.9,570.2223214285714,535.1285714285714,2066,570.2223214285714,535.1285714285714,2166,570.2223214285714,535.1285714285714,2266,548.2223214285714,544.1285714285714,2376.4,503.22232142857143,541.1285714285714,2478,499.22232142857143,538.1285714285714,2581.4,499.22232142857143,538.1285714285714,2682.1,499.22232142857143,538.1285714285714,2782.2,499.22232142857143,538.1285714285714,2886.8,499.22232142857143,538.1285714285714,2994.8,499.22232142857143,538.1285714285714,3096.4,499.22232142857143,538.1285714285714,3197.2,499.22232142857143,538.1285714285714,3302,499.22232142857143,538.1285714285714,3410.3,499.22232142857143,538.1285714285714,3512.1,499.22232142857143,538.1285714285714,3617,499.22232142857143,538.1285714285714,3717.1,499.22232142857143,538.1285714285714,3821.8,499.22232142857143,538.1285714285714,3926.6,499.22232142857143,538.1285714285714,4028.5,499.22232142857143,538.1285714285714,4130.7,499.22232142857143,538.1285714285714,4237.3,499.22232142857143,538.1285714285714,4344.1,499.22232142857143,538.1285714285714,4445.6,499.22232142857143,538.1285714285714,4546.2,499.22232142857143,538.1285714285714,4646.2,499.22232142857143,538.1285714285714,4752.2,499.22232142857143,538.1285714285714,4852.2,499.22232142857143,538.1285714285714,4952.3]","[4423.5,4423.5,2002.4,2009.9,411.2,""smooth"",""down"",""down"",""good_move"",6640,2216,1797.6,4424,418.4,""oops"",""down"",""up"",""bad_move"",12061.4,5421.1,1757.8,9844.1,459.5,""smooth"",""down"",""down"",""good_move"",15097.1,3035.5,2571.4,12061.6,464.1,""oops"",""down"",""left"",""bad_move"",18023.4,2925.9,2578.2,15097.5,347.7,""oops"",""down"",""up"",""bad_move"",20860.2,2836.6,2493,18023.6,343.6,""smooth"",""down"",""down"",""good_move"",23758.6,2898.3,2557.9,20860.3,340.4,""oops"",""down"",""down"",""good_move"",23939.2,180.4,2413.1,23758.8,-2232.7,""error"",""-"",""-"",""no_move"",27665,3725.8,2335.1,24939.8,390.2,""smooth"",""down"",""down"",""good_move"",30363.6,2698.2,2334.1,27665.4,364.1,""oops"",""right"",""right"",""good_move""]","",""
"3676","","<div style=""width:500px;"">
  <p>What determined the result of this run?</p>
  </div>","73","html-slider-response","35","913535","0.0-5.0-1.5","21","1","2025-07-09 09:02:16","01610cd0009c79a99da7d0a3353eb402","216.120.189.168","Mozilla/5.0 (Windows NT 10.0; Win64; x64) AppleWebKit/537.36 (KHTML, like Gecko) Chrome/137.0.0.0 Safari/537.36","WebKit","Chrome","137.0.0.0","Windows","10.0","https://app.prolific.com/","en-US,en;q=0.9","674eae0026291e33be89b46f","683db7602f5db6a34d12d064","686e2fda8fe2c90e762e9d7f","1","674eae0026291e33be89b46f","1","2025-07-09T09:19:23.808Z","","","","","","","","","","","AttribQ","","50","","","","","","","","","","","","","","","","","","","","","","","","","","","","",""
"2952","","<div style=""width:500px;"">
  <p>How much control did you have over the ball?</p>
  </div>","68","html-slider-response","36","916488","0.0-5.0-2.5","21","1","2025-07-09 09:02:16","01610cd0009c79a99da7d0a3353eb402","216.120.189.168","Mozilla/5.0 (Windows NT 10.0; Win64; x64) AppleWebKit/537.36 (KHTML, like Gecko) Chrome/137.0.0.0 Safari/537.36","WebKit","Chrome","137.0.0.0","Windows","10.0","https://app.prolific.com/","en-US,en;q=0.9","674eae0026291e33be89b46f","683db7602f5db6a34d12d064","686e2fda8fe2c90e762e9d7f","1","674eae0026291e33be89b46f","1","2025-07-09T09:19:26.761Z","","","","","","","","","","","ControlQ","","50","","","","","","","","","","","","","","","","","","","","","","","","","","","","",""
"2894","","<div style=""width:500px;"">
  <p>How would you describe your current emotional state?</p>
  </div>","65","html-slider-response","37","919383","0.0-5.0-3.5","21","1","2025-07-09 09:02:16","01610cd0009c79a99da7d0a3353eb402","216.120.189.168","Mozilla/5.0 (Windows NT 10.0; Win64; x64) AppleWebKit/537.36 (KHTML, like Gecko) Chrome/137.0.0.0 Safari/537.36","WebKit","Chrome","137.0.0.0","Windows","10.0","https://app.prolific.com/","en-US,en;q=0.9","674eae0026291e33be89b46f","683db7602f5db6a34d12d064","686e2fda8fe2c90e762e9d7f","1","674eae0026291e33be89b46f","1","2025-07-09T09:19:29.656Z","","","","","","","","","","","StressQ","","50","","","","","","","","","","","","","","","","","","","","","","","","","","","","",""
"2528","","<div style=""width:500px;"">
  <p>What best describes how you currently feel?</p>
  </div>","64","html-slider-response","38","921912","0.0-5.0-4.5","21","1","2025-07-09 09:02:16","01610cd0009c79a99da7d0a3353eb402","216.120.189.168","Mozilla/5.0 (Windows NT 10.0; Win64; x64) AppleWebKit/537.36 (KHTML, like Gecko) Chrome/137.0.0.0 Safari/537.36","WebKit","Chrome","137.0.0.0","Windows","10.0","https://app.prolific.com/","en-US,en;q=0.9","674eae0026291e33be89b46f","683db7602f5db6a34d12d064","686e2fda8fe2c90e762e9d7f","1","674eae0026291e33be89b46f","1","2025-07-09T09:19:32.185Z","","","","","","","","","","","MotivationQ","","50","","","","","","","","","","","","","","","","","","","","","","","","","","","","",""
"","","","","ctl-task-cpt","39","963870","0.0-5.0-0.6","21","1","2025-07-09 09:02:16","01610cd0009c79a99da7d0a3353eb402","216.120.189.168","Mozilla/5.0 (Windows NT 10.0; Win64; x64) AppleWebKit/537.36 (KHTML, like Gecko) Chrome/137.0.0.0 Safari/537.36","WebKit","Chrome","137.0.0.0","Windows","10.0","https://app.prolific.com/","en-US,en;q=0.9","674eae0026291e33be89b46f","683db7602f5db6a34d12d064","686e2fda8fe2c90e762e9d7f","1","674eae0026291e33be89b46f","1","2025-07-09T09:20:14.143Z","","","","","","","","","","","","","","win-only","1","g1:NE,g2:SW","0.4","7","0","953626.8","2068.1","7074.7","38940.7","1","4","8","6","1","1","1","1","0","0.007575757575757576","1634.8","3000","135","[""up"",""right""]","{""num_key_presses"":8,""num_perfect"":3,""num_errors"":0,""num_randdir"":5,""num_randdir_good_moves"":3,""num_whilered"":0,""num_whileblue"":0,""num_blue"":3,""num_good_moves"":6}","[292.22232142857143,296.12857142857143,0.2,292.22232142857143,296.12857142857143,108.3,292.22232142857143,296.12857142857143,210.6,292.22232142857143,296.12857142857143,312.7,292.22232142857143,296.12857142857143,413.2,292.22232142857143,296.12857142857143,523,292.22232142857143,296.12857142857143,623.8,411.22232142857143,156.12857142857143,725.7,439.22232142857143,123.12857142857143,826.4,441.22232142857143,119.12857142857143,928.4,469.22232142857143,88.12857142857143,1032.2,516.2223214285714,45.128571428571426,1141.4,516.2223214285714,44.128571428571426,1242.8,516.2223214285714,44.128571428571426,1351,516.2223214285714,44.128571428571426,1458.3,516.2223214285714,44.128571428571426,1560.4,516.2223214285714,44.128571428571426,1664.7,516.2223214285714,44.128571428571426,1767.4,516.2223214285714,44.128571428571426,1868.2,516.2223214285714,44.128571428571426,1973.6,516.2223214285714,44.128571428571426,2077.5,516.2223214285714,44.128571428571426,2178.6,516.2223214285714,44.128571428571426,2278.9,516.2223214285714,44.128571428571426,2393.4,516.2223214285714,44.128571428571426,2498,516.2223214285714,44.128571428571426,2608.9,516.2223214285714,44.128571428571426,2713.4,516.2223214285714,44.128571428571426,2824.1,516.2223214285714,44.128571428571426,2927,516.2223214285714,44.128571428571426,3027.6,516.2223214285714,44.128571428571426,3128.4,516.2223214285714,44.128571428571426,3235.3,516.2223214285714,44.128571428571426,3341.7,516.2223214285714,44.128571428571426,3442.9,516.2223214285714,44.128571428571426,3543.5,516.2223214285714,44.128571428571426,3656.8,516.2223214285714,44.128571428571426,3757.3,516.2223214285714,44.128571428571426,3857.8,516.2223214285714,44.128571428571426,3962.4,516.2223214285714,44.128571428571426,4062.5,516.2223214285714,44.128571428571426,4162.7,516.2223214285714,44.128571428571426,4268.2,516.2223214285714,44.128571428571426,4369.4,516.2223214285714,44.128571428571426,4471.4,516.2223214285714,44.128571428571426,4574,516.2223214285714,44.128571428571426,4678.6,516.2223214285714,44.128571428571426,4778.6,516.2223214285714,44.128571428571426,4892.7,516.2223214285714,44.128571428571426,4992.8]","[1369.8,1369.8,1000,0,369.8,""oops"",""up"",""down"",""bad_move"",7832.9,6462.6,2421.7,5064.6,346.7,""smooth"",""up"",""up"",""good_move"",11332.3,3498.9,3115.5,7833.4,383.4,""smooth"",""up"",""up"",""good_move"",14062.3,2729.8,2233.7,11332.5,496.1,""oops"",""up"",""right"",""good_move"",23218.7,9156,2526.5,20321.1,371.1,""oops"",""up"",""right"",""good_move"",26803.6,3584.7,2921.9,23218.9,662.8,""oops"",""up"",""down"",""bad_move"",28812.4,2008.5,1435.5,26803.9,573,""smooth"",""up"",""up"",""good_move"",31763.5,2950.6,2636,28812.9,314.6,""oops"",""up"",""up"",""good_move""]","",""
"3285","","<div style=""width:500px;"">
  <p>What determined the result of this run?</p>
  </div>","75","html-slider-response","40","967156","0.0-5.0-1.6","21","1","2025-07-09 09:02:16","01610cd0009c79a99da7d0a3353eb402","216.120.189.168","Mozilla/5.0 (Windows NT 10.0; Win64; x64) AppleWebKit/537.36 (KHTML, like Gecko) Chrome/137.0.0.0 Safari/537.36","WebKit","Chrome","137.0.0.0","Windows","10.0","https://app.prolific.com/","en-US,en;q=0.9","674eae0026291e33be89b46f","683db7602f5db6a34d12d064","686e2fda8fe2c90e762e9d7f","1","674eae0026291e33be89b46f","1","2025-07-09T09:20:17.429Z","","","","","","","","","","","AttribQ","","50","","","","","","","","","","","","","","","","","","","","","","","","","","","","",""
"5068","","<div style=""width:500px;"">
  <p>How much control did you have over the ball?</p>
  </div>","67","html-slider-response","41","972225","0.0-5.0-2.6","21","1","2025-07-09 09:02:16","01610cd0009c79a99da7d0a3353eb402","216.120.189.168","Mozilla/5.0 (Windows NT 10.0; Win64; x64) AppleWebKit/537.36 (KHTML, like Gecko) Chrome/137.0.0.0 Safari/537.36","WebKit","Chrome","137.0.0.0","Windows","10.0","https://app.prolific.com/","en-US,en;q=0.9","674eae0026291e33be89b46f","683db7602f5db6a34d12d064","686e2fda8fe2c90e762e9d7f","1","674eae0026291e33be89b46f","1","2025-07-09T09:20:22.498Z","","","","","","","","","","","ControlQ","","50","","","","","","","","","","","","","","","","","","","","","","","","","","","","",""
"4264","","<div style=""width:500px;"">
  <p>How would you describe your current emotional state?</p>
  </div>","67","html-slider-response","42","976490","0.0-5.0-3.6","21","1","2025-07-09 09:02:16","01610cd0009c79a99da7d0a3353eb402","216.120.189.168","Mozilla/5.0 (Windows NT 10.0; Win64; x64) AppleWebKit/537.36 (KHTML, like Gecko) Chrome/137.0.0.0 Safari/537.36","WebKit","Chrome","137.0.0.0","Windows","10.0","https://app.prolific.com/","en-US,en;q=0.9","674eae0026291e33be89b46f","683db7602f5db6a34d12d064","686e2fda8fe2c90e762e9d7f","1","674eae0026291e33be89b46f","1","2025-07-09T09:20:26.763Z","","","","","","","","","","","StressQ","","50","","","","","","","","","","","","","","","","","","","","","","","","","","","","",""
"6346","","<div style=""width:500px;"">
  <p>What best describes how you currently feel?</p>
  </div>","66","html-slider-response","43","982839","0.0-5.0-4.6","21","1","2025-07-09 09:02:16","01610cd0009c79a99da7d0a3353eb402","216.120.189.168","Mozilla/5.0 (Windows NT 10.0; Win64; x64) AppleWebKit/537.36 (KHTML, like Gecko) Chrome/137.0.0.0 Safari/537.36","WebKit","Chrome","137.0.0.0","Windows","10.0","https://app.prolific.com/","en-US,en;q=0.9","674eae0026291e33be89b46f","683db7602f5db6a34d12d064","686e2fda8fe2c90e762e9d7f","1","674eae0026291e33be89b46f","1","2025-07-09T09:20:33.112Z","","","","","","","","","","","MotivationQ","","50","","","","","","","","","","","","","","","","","","","","","","","","","","","","",""
"","","","","ctl-task-cpt","44","1078433","0.0-5.0-0.7","21","1","2025-07-09 09:02:16","01610cd0009c79a99da7d0a3353eb402","216.120.189.168","Mozilla/5.0 (Windows NT 10.0; Win64; x64) AppleWebKit/537.36 (KHTML, like Gecko) Chrome/137.0.0.0 Safari/537.36","WebKit","Chrome","137.0.0.0","Windows","10.0","https://app.prolific.com/","en-US,en;q=0.9","674eae0026291e33be89b46f","683db7602f5db6a34d12d064","686e2fda8fe2c90e762e9d7f","1","674eae0026291e33be89b46f","1","2025-07-09T09:22:08.706Z","","","","","","","","","","","","","","win-only","0","g1:NW,g2:SE","0.3","8","0","1014555.8","58437.7","63440.6","92582.5","1","4","4","6","1","-1","-1","0","1","0","2583.8","3000","-2750","[""left"",""up""]","{""num_key_presses"":7,""num_perfect"":3,""num_errors"":0,""num_randdir"":4,""num_randdir_good_moves"":2,""num_whilered"":0,""num_whileblue"":0,""num_blue"":2,""num_good_moves"":5}","[298.22232142857143,292.12857142857143,0.2,298.22232142857143,292.12857142857143,100.2,298.22232142857143,292.12857142857143,205.1,298.22232142857143,292.12857142857143,310.4,298.22232142857143,292.12857142857143,417.5,298.22232142857143,292.12857142857143,517.6,298.22232142857143,292.12857142857143,618.5,300.22232142857143,295.12857142857143,719.2,464.22232142857143,416.12857142857143,823.3,547.2223214285714,588.1285714285714,923.9,547.2223214285714,589.1285714285714,1030.5,547.2223214285714,590.1285714285714,1132.8,549.2223214285714,589.1285714285714,1233.1,553.2223214285714,568.1285714285714,1333.4,553.2223214285714,565.1285714285714,1434,553.2223214285714,565.1285714285714,1534.7,553.2223214285714,565.1285714285714,1638.5,301.22232142857143,304.12857142857143,1740.6,235.22232142857143,243.12857142857143,1849.6,235.22232142857143,243.12857142857143,1950.2,124.22232142857143,114.12857142857143,2054.9,102.22232142857143,82.12857142857143,2158.2,101.22232142857143,80.12857142857143,2258.5,85.22232142857143,79.12857142857143,2367.6,70.22232142857143,79.12857142857143,2468.2,70.22232142857143,79.12857142857143,2568.8,70.22232142857143,79.12857142857143,2673.1,70.22232142857143,79.12857142857143,2773.7,70.22232142857143,79.12857142857143,2881.7,70.22232142857143,79.12857142857143,2983.1,70.22232142857143,79.12857142857143,3083.4,70.22232142857143,79.12857142857143,3184.2,70.22232142857143,79.12857142857143,3289,70.22232142857143,79.12857142857143,3396.9,70.22232142857143,79.12857142857143,3499,70.22232142857143,79.12857142857143,3603.7,70.22232142857143,79.12857142857143,3707.6,70.22232142857143,79.12857142857143,3813,70.22232142857143,79.12857142857143,3915.4,70.22232142857143,79.12857142857143,4018.4,70.22232142857143,79.12857142857143,4119.3,70.22232142857143,79.12857142857143,4223.2,70.22232142857143,79.12857142857143,4323.7,70.22232142857143,79.12857142857143,4424,70.22232142857143,79.12857142857143,4530.5,70.22232142857143,79.12857142857143,4633.8,70.22232142857143,79.12857142857143,4738.1,70.22232142857143,79.12857142857143,4838.1,70.22232142857143,79.12857142857143,4938.2]","[1326.4,1326.4,1000,0,326.4,""oops"",""up"",""right"",""bad_move"",4527.4,3200.4,2857.2,1327,343.2,""oops"",""up"",""down"",""bad_move"",7451.4,2923.7,2427.5,4527.7,496.2,""smooth"",""up"",""up"",""good_move"",17548.7,10096.9,2942.2,14265.7,340.8,""smooth"",""left"",""left"",""good_move"",20456.5,2907.6,2002.3,17549,905.2,""smooth"",""left"",""left"",""good_move"",23886.7,3430,3073.5,20456.7,356.5,""oops"",""left"",""up"",""good_move"",26150.4,2263.2,1945.1,23887.4,318,""oops"",""left"",""left"",""good_move""]","",""
"2611","","<div style=""width:500px;"">
  <p>What determined the result of this run?</p>
  </div>","65","html-slider-response","45","1081045","0.0-5.0-1.7","21","1","2025-07-09 09:02:16","01610cd0009c79a99da7d0a3353eb402","216.120.189.168","Mozilla/5.0 (Windows NT 10.0; Win64; x64) AppleWebKit/537.36 (KHTML, like Gecko) Chrome/137.0.0.0 Safari/537.36","WebKit","Chrome","137.0.0.0","Windows","10.0","https://app.prolific.com/","en-US,en;q=0.9","674eae0026291e33be89b46f","683db7602f5db6a34d12d064","686e2fda8fe2c90e762e9d7f","1","674eae0026291e33be89b46f","1","2025-07-09T09:22:11.318Z","","","","","","","","","","","AttribQ","","50","","","","","","","","","","","","","","","","","","","","","","","","","","","","",""
"2382","","<div style=""width:500px;"">
  <p>How much control did you have over the ball?</p>
  </div>","65","html-slider-response","46","1083428","0.0-5.0-2.7","21","1","2025-07-09 09:02:16","01610cd0009c79a99da7d0a3353eb402","216.120.189.168","Mozilla/5.0 (Windows NT 10.0; Win64; x64) AppleWebKit/537.36 (KHTML, like Gecko) Chrome/137.0.0.0 Safari/537.36","WebKit","Chrome","137.0.0.0","Windows","10.0","https://app.prolific.com/","en-US,en;q=0.9","674eae0026291e33be89b46f","683db7602f5db6a34d12d064","686e2fda8fe2c90e762e9d7f","1","674eae0026291e33be89b46f","1","2025-07-09T09:22:13.701Z","","","","","","","","","","","ControlQ","","50","","","","","","","","","","","","","","","","","","","","","","","","","","","","",""
"2482","","<div style=""width:500px;"">
  <p>How would you describe your current emotional state?</p>
  </div>","39","html-slider-response","47","1085911","0.0-5.0-3.7","21","1","2025-07-09 09:02:16","01610cd0009c79a99da7d0a3353eb402","216.120.189.168","Mozilla/5.0 (Windows NT 10.0; Win64; x64) AppleWebKit/537.36 (KHTML, like Gecko) Chrome/137.0.0.0 Safari/537.36","WebKit","Chrome","137.0.0.0","Windows","10.0","https://app.prolific.com/","en-US,en;q=0.9","674eae0026291e33be89b46f","683db7602f5db6a34d12d064","686e2fda8fe2c90e762e9d7f","1","674eae0026291e33be89b46f","1","2025-07-09T09:22:16.185Z","","","","","","","","","","","StressQ","","50","","","","","","","","","","","","","","","","","","","","","","","","","","","","",""
"5600","","<div style=""width:500px;"">
  <p>What best describes how you currently feel?</p>
  </div>","54","html-slider-response","48","1091514","0.0-5.0-4.7","21","1","2025-07-09 09:02:16","01610cd0009c79a99da7d0a3353eb402","216.120.189.168","Mozilla/5.0 (Windows NT 10.0; Win64; x64) AppleWebKit/537.36 (KHTML, like Gecko) Chrome/137.0.0.0 Safari/537.36","WebKit","Chrome","137.0.0.0","Windows","10.0","https://app.prolific.com/","en-US,en;q=0.9","674eae0026291e33be89b46f","683db7602f5db6a34d12d064","686e2fda8fe2c90e762e9d7f","1","674eae0026291e33be89b46f","1","2025-07-09T09:22:21.787Z","","","","","","","","","","","MotivationQ","","50","","","","","","","","","","","","","","","","","","","","","","","","","","","","",""
"","","","","ctl-task-cpt","49","1143808","0.0-5.0-0.8","21","1","2025-07-09 09:02:16","01610cd0009c79a99da7d0a3353eb402","216.120.189.168","Mozilla/5.0 (Windows NT 10.0; Win64; x64) AppleWebKit/537.36 (KHTML, like Gecko) Chrome/137.0.0.0 Safari/537.36","WebKit","Chrome","137.0.0.0","Windows","10.0","https://app.prolific.com/","en-US,en;q=0.9","674eae0026291e33be89b46f","683db7602f5db6a34d12d064","686e2fda8fe2c90e762e9d7f","1","674eae0026291e33be89b46f","1","2025-07-09T09:23:14.081Z","","","","","","","","","","","","","","win-only","0","g1:NW,g2:SE","0.2","9","0","1123229.1","1949.1","6951","49275.2","1","4","4","6","2","-4","-6","0","0","0","2478.4","3000","-2405","[""down"",""right""]","{""num_key_presses"":10,""num_perfect"":2,""num_errors"":2,""num_randdir"":6,""num_randdir_good_moves"":2,""num_whilered"":0,""num_whileblue"":1,""num_blue"":4,""num_good_moves"":5}","[293.22232142857143,294.12857142857143,0.1,293.22232142857143,294.12857142857143,101.6,293.22232142857143,294.12857142857143,208.5,293.22232142857143,294.12857142857143,312.2,293.22232142857143,294.12857142857143,414,293.22232142857143,294.12857142857143,517.1,293.22232142857143,294.12857142857143,617.7,294.22232142857143,298.12857142857143,725.4,299.22232142857143,308.12857142857143,830.8,300.22232142857143,310.12857142857143,931.8,294.22232142857143,302.12857142857143,1036.6,294.22232142857143,301.12857142857143,1138,294.22232142857143,301.12857142857143,1248.3,294.22232142857143,301.12857142857143,1351.3,308.22232142857143,309.12857142857143,1451.3,382.22232142857143,373.12857142857143,1552.1,382.22232142857143,373.12857142857143,1661.5,402.22232142857143,402.12857142857143,1766.9,489.22232142857143,489.12857142857143,1868.1,505.22232142857143,506.12857142857143,1971.3,520.2223214285714,520.1285714285714,2075.8,541.2223214285714,543.1285714285714,2179.3,541.2223214285714,543.1285714285714,2281.3,541.2223214285714,543.1285714285714,2384,541.2223214285714,543.1285714285714,2486.1,541.2223214285714,543.1285714285714,2586.6,541.2223214285714,543.1285714285714,2696.6,541.2223214285714,543.1285714285714,2798.5,541.2223214285714,543.1285714285714,2898.5,541.2223214285714,543.1285714285714,2998.8,541.2223214285714,543.1285714285714,3101.7,541.2223214285714,543.1285714285714,3209.3,541.2223214285714,543.1285714285714,3313.7,541.2223214285714,543.1285714285714,3417.9,541.2223214285714,543.1285714285714,3523.5,541.2223214285714,543.1285714285714,3627.3,541.2223214285714,543.1285714285714,3728.7,541.2223214285714,543.1285714285714,3831.9,541.2223214285714,543.1285714285714,3936.8,541.2223214285714,543.1285714285714,4039.5,541.2223214285714,543.1285714285714,4145,541.2223214285714,543.1285714285714,4245.7,541.2223214285714,543.1285714285714,4346.9,541.2223214285714,543.1285714285714,4448.6,541.2223214285714,543.1285714285714,4552.6,541.2223214285714,543.1285714285714,4662.5,541.2223214285714,543.1285714285714,4766.8,541.2223214285714,543.1285714285714,4867.4,541.2223214285714,543.1285714285714,4975.8]","[1376.7,1376.7,1000,0,376.7,""oops"",""down"",""up"",""bad_move"",7357,5979.9,1907,5091.7,358.3,""smooth"",""down"",""down"",""good_move"",9887.1,2529.7,2177,7357.4,352.7,""oops"",""down"",""down"",""good_move"",12634.1,2746.9,2389.3,9887.2,357.6,""oops"",""down"",""left"",""bad_move"",15756.9,3122.4,2817.7,12634.5,304.7,""oops"",""down"",""left"",""bad_move"",17873.2,2116.1,2716.8,15757.1,-600.7,""error"",""-"",""-"",""no_move"",22261.5,4388,3014.5,18876.7,370.3,""while_blue"",""down"",""right"",""good_move"",25115.6,2853.8,2413.7,22261.8,440.1,""smooth"",""down"",""down"",""good_move"",35555.6,10439.7,2871.8,32277.7,406.1,""oops"",""down"",""down"",""good_move"",38889.5,3333.6,2942.6,35555.9,391,""oops"",""right"",""left"",""bad_move""]","",""
"3860","","<div style=""width:500px;"">
  <p>What determined the result of this run?</p>
  </div>","77","html-slider-response","50","1147668","0.0-5.0-1.8","21","1","2025-07-09 09:02:16","01610cd0009c79a99da7d0a3353eb402","216.120.189.168","Mozilla/5.0 (Windows NT 10.0; Win64; x64) AppleWebKit/537.36 (KHTML, like Gecko) Chrome/137.0.0.0 Safari/537.36","WebKit","Chrome","137.0.0.0","Windows","10.0","https://app.prolific.com/","en-US,en;q=0.9","674eae0026291e33be89b46f","683db7602f5db6a34d12d064","686e2fda8fe2c90e762e9d7f","1","674eae0026291e33be89b46f","1","2025-07-09T09:23:17.941Z","","","","","","","","","","","AttribQ","","50","","","","","","","","","","","","","","","","","","","","","","","","","","","","",""
"2452","","<div style=""width:500px;"">
  <p>How much control did you have over the ball?</p>
  </div>","63","html-slider-response","51","1150121","0.0-5.0-2.8","21","1","2025-07-09 09:02:16","01610cd0009c79a99da7d0a3353eb402","216.120.189.168","Mozilla/5.0 (Windows NT 10.0; Win64; x64) AppleWebKit/537.36 (KHTML, like Gecko) Chrome/137.0.0.0 Safari/537.36","WebKit","Chrome","137.0.0.0","Windows","10.0","https://app.prolific.com/","en-US,en;q=0.9","674eae0026291e33be89b46f","683db7602f5db6a34d12d064","686e2fda8fe2c90e762e9d7f","1","674eae0026291e33be89b46f","1","2025-07-09T09:23:20.394Z","","","","","","","","","","","ControlQ","","50","","","","","","","","","","","","","","","","","","","","","","","","","","","","",""
"2614","","<div style=""width:500px;"">
  <p>How would you describe your current emotional state?</p>
  </div>","66","html-slider-response","52","1152736","0.0-5.0-3.8","21","1","2025-07-09 09:02:16","01610cd0009c79a99da7d0a3353eb402","216.120.189.168","Mozilla/5.0 (Windows NT 10.0; Win64; x64) AppleWebKit/537.36 (KHTML, like Gecko) Chrome/137.0.0.0 Safari/537.36","WebKit","Chrome","137.0.0.0","Windows","10.0","https://app.prolific.com/","en-US,en;q=0.9","674eae0026291e33be89b46f","683db7602f5db6a34d12d064","686e2fda8fe2c90e762e9d7f","1","674eae0026291e33be89b46f","1","2025-07-09T09:23:23.009Z","","","","","","","","","","","StressQ","","50","","","","","","","","","","","","","","","","","","","","","","","","","","","","",""
"3343","","<div style=""width:500px;"">
  <p>What best describes how you currently feel?</p>
  </div>","68","html-slider-response","53","1156080","0.0-5.0-4.8","21","1","2025-07-09 09:02:16","01610cd0009c79a99da7d0a3353eb402","216.120.189.168","Mozilla/5.0 (Windows NT 10.0; Win64; x64) AppleWebKit/537.36 (KHTML, like Gecko) Chrome/137.0.0.0 Safari/537.36","WebKit","Chrome","137.0.0.0","Windows","10.0","https://app.prolific.com/","en-US,en;q=0.9","674eae0026291e33be89b46f","683db7602f5db6a34d12d064","686e2fda8fe2c90e762e9d7f","1","674eae0026291e33be89b46f","1","2025-07-09T09:23:26.354Z","","","","","","","","","","","MotivationQ","","50","","","","","","","","","","","","","","","","","","","","","","","","","","","","",""
"","","","","ctl-task-cpt","54","1213809","0.0-5.0-0.9","21","1","2025-07-09 09:02:16","01610cd0009c79a99da7d0a3353eb402","216.120.189.168","Mozilla/5.0 (Windows NT 10.0; Win64; x64) AppleWebKit/537.36 (KHTML, like Gecko) Chrome/137.0.0.0 Safari/537.36","WebKit","Chrome","137.0.0.0","Windows","10.0","https://app.prolific.com/","en-US,en;q=0.9","674eae0026291e33be89b46f","683db7602f5db6a34d12d064","686e2fda8fe2c90e762e9d7f","1","674eae0026291e33be89b46f","1","2025-07-09T09:24:24.082Z","","","","","","","","","","","","","","win-only","2","g1:SE,g2:NW","0.4","10","0","1187796.4","24459.1","29461.1","54707.2","1","4","8","6","1","-1","-2","0","0","0","1899.2","3000","-2700","[""down"",""right""]","{""num_key_presses"":5,""num_perfect"":2,""num_errors"":1,""num_randdir"":2,""num_randdir_good_moves"":0,""num_whilered"":0,""num_whileblue"":0,""num_blue"":2,""num_good_moves"":2}","[291.22232142857143,299.12857142857143,0.3,291.22232142857143,299.12857142857143,102.3,291.22232142857143,299.12857142857143,202.5,291.22232142857143,299.12857142857143,306.9,291.22232142857143,299.12857142857143,413.8,291.22232142857143,299.12857142857143,519.1,291.22232142857143,299.12857142857143,625.5,302.22232142857143,304.12857142857143,728.6,323.22232142857143,318.12857142857143,829.4,398.22232142857143,402.12857142857143,931.2,439.22232142857143,480.12857142857143,1032.9,439.22232142857143,480.12857142857143,1136.8,439.22232142857143,480.12857142857143,1237.9,457.22232142857143,485.12857142857143,1342.7,513.2223214285714,516.1285714285714,1449,533.2223214285714,531.1285714285714,1551.3,534.2223214285714,531.1285714285714,1662.6,534.2223214285714,531.1285714285714,1765.3,534.2223214285714,531.1285714285714,1867.7,534.2223214285714,531.1285714285714,1971.3,534.2223214285714,531.1285714285714,2072.8,534.2223214285714,531.1285714285714,2180.1,534.2223214285714,531.1285714285714,2281.1,534.2223214285714,531.1285714285714,2383.5,534.2223214285714,531.1285714285714,2486.5,534.2223214285714,531.1285714285714,2595.2,534.2223214285714,531.1285714285714,2697.9,534.2223214285714,531.1285714285714,2803,534.2223214285714,531.1285714285714,2906.9,534.2223214285714,531.1285714285714,3009.7,534.2223214285714,531.1285714285714,3113,534.2223214285714,531.1285714285714,3216.4,534.2223214285714,531.1285714285714,3318,534.2223214285714,531.1285714285714,3427.9,534.2223214285714,531.1285714285714,3532.6,534.2223214285714,531.1285714285714,3636.4,534.2223214285714,531.1285714285714,3736.5,534.2223214285714,531.1285714285714,3836.5,534.2223214285714,531.1285714285714,3942.1,534.2223214285714,531.1285714285714,4048.7,534.2223214285714,531.1285714285714,4148.8,534.2223214285714,531.1285714285714,4251.2,534.2223214285714,531.1285714285714,4352.6,534.2223214285714,531.1285714285714,4463.2,534.2223214285714,531.1285714285714,4565.1,534.2223214285714,531.1285714285714,4668.4,534.2223214285714,531.1285714285714,4773.4,534.2223214285714,531.1285714285714,4878,534.2223214285714,531.1285714285714,4981.2]","[650.9,650.9,1000,0,-349.1,""error"",""-"",""-"",""no_move"",6441.9,5790.6,3104.1,1657.3,1680.5,""smooth"",""down"",""down"",""good_move"",9794.7,3352.1,2972.6,6442.6,379.5,""oops"",""down"",""left"",""bad_move"",19337.9,9542.7,2711.7,16223.4,402.8,""oops"",""down"",""left"",""bad_move"",22612.4,3274,2722.4,19338.4,551.6,""smooth"",""down"",""down"",""good_move""]","",""
"4085","","<div style=""width:500px;"">
  <p>What determined the result of this run?</p>
  </div>","72","html-slider-response","55","1217895","0.0-5.0-1.9","21","1","2025-07-09 09:02:16","01610cd0009c79a99da7d0a3353eb402","216.120.189.168","Mozilla/5.0 (Windows NT 10.0; Win64; x64) AppleWebKit/537.36 (KHTML, like Gecko) Chrome/137.0.0.0 Safari/537.36","WebKit","Chrome","137.0.0.0","Windows","10.0","https://app.prolific.com/","en-US,en;q=0.9","674eae0026291e33be89b46f","683db7602f5db6a34d12d064","686e2fda8fe2c90e762e9d7f","1","674eae0026291e33be89b46f","1","2025-07-09T09:24:28.168Z","","","","","","","","","","","AttribQ","","50","","","","","","","","","","","","","","","","","","","","","","","","","","","","",""
"9345","","<div style=""width:500px;"">
  <p>How much control did you have over the ball?</p>
  </div>","68","html-slider-response","56","1227241","0.0-5.0-2.9","21","1","2025-07-09 09:02:16","01610cd0009c79a99da7d0a3353eb402","216.120.189.168","Mozilla/5.0 (Windows NT 10.0; Win64; x64) AppleWebKit/537.36 (KHTML, like Gecko) Chrome/137.0.0.0 Safari/537.36","WebKit","Chrome","137.0.0.0","Windows","10.0","https://app.prolific.com/","en-US,en;q=0.9","674eae0026291e33be89b46f","683db7602f5db6a34d12d064","686e2fda8fe2c90e762e9d7f","1","674eae0026291e33be89b46f","1","2025-07-09T09:24:37.514Z","","","","","","","","","","","ControlQ","","50","","","","","","","","","","","","","","","","","","","","","","","","","","","","",""
"3313","","<div style=""width:500px;"">
  <p>How would you describe your current emotional state?</p>
  </div>","65","html-slider-response","57","1230556","0.0-5.0-3.9","21","1","2025-07-09 09:02:16","01610cd0009c79a99da7d0a3353eb402","216.120.189.168","Mozilla/5.0 (Windows NT 10.0; Win64; x64) AppleWebKit/537.36 (KHTML, like Gecko) Chrome/137.0.0.0 Safari/537.36","WebKit","Chrome","137.0.0.0","Windows","10.0","https://app.prolific.com/","en-US,en;q=0.9","674eae0026291e33be89b46f","683db7602f5db6a34d12d064","686e2fda8fe2c90e762e9d7f","1","674eae0026291e33be89b46f","1","2025-07-09T09:24:40.829Z","","","","","","","","","","","StressQ","","50","","","","","","","","","","","","","","","","","","","","","","","","","","","","",""
"3731","","<div style=""width:500px;"">
  <p>What best describes how you currently feel?</p>
  </div>","69","html-slider-response","58","1234288","0.0-5.0-4.9","21","1","2025-07-09 09:02:16","01610cd0009c79a99da7d0a3353eb402","216.120.189.168","Mozilla/5.0 (Windows NT 10.0; Win64; x64) AppleWebKit/537.36 (KHTML, like Gecko) Chrome/137.0.0.0 Safari/537.36","WebKit","Chrome","137.0.0.0","Windows","10.0","https://app.prolific.com/","en-US,en;q=0.9","674eae0026291e33be89b46f","683db7602f5db6a34d12d064","686e2fda8fe2c90e762e9d7f","1","674eae0026291e33be89b46f","1","2025-07-09T09:24:44.561Z","","","","","","","","","","","MotivationQ","","50","","","","","","","","","","","","","","","","","","","","","","","","","","","","",""
"","","","","ctl-task-cpt","59","1278622","0.0-5.0-0.10","21","1","2025-07-09 09:02:16","01610cd0009c79a99da7d0a3353eb402","216.120.189.168","Mozilla/5.0 (Windows NT 10.0; Win64; x64) AppleWebKit/537.36 (KHTML, like Gecko) Chrome/137.0.0.0 Safari/537.36","WebKit","Chrome","137.0.0.0","Windows","10.0","https://app.prolific.com/","en-US,en;q=0.9","674eae0026291e33be89b46f","683db7602f5db6a34d12d064","686e2fda8fe2c90e762e9d7f","1","674eae0026291e33be89b46f","1","2025-07-09T09:25:28.895Z","","","","","","","","","","","","","","win-only","2","g1:SE,g2:NW","0.5","11","0","1266003.1","1326.9","6328.6","41316.1","1","4","4","6","2","-4","-5","0","0","0","1970.5","3000","-2265","[""left"",""up""]","{""num_key_presses"":11,""num_perfect"":5,""num_errors"":1,""num_randdir"":5,""num_randdir_good_moves"":1,""num_whilered"":0,""num_whileblue"":1,""num_blue"":1,""num_good_moves"":7}","[299.22232142857143,294.12857142857143,0.1,299.22232142857143,294.12857142857143,101.4,299.22232142857143,294.12857142857143,203.5,299.22232142857143,294.12857142857143,303.5,299.22232142857143,294.12857142857143,404.1,299.22232142857143,294.12857142857143,509.5,299.22232142857143,294.12857142857143,618.8,299.22232142857143,294.12857142857143,719.5,299.22232142857143,294.12857142857143,822,299.22232142857143,294.12857142857143,923.5,299.22232142857143,294.12857142857143,1024.3,299.22232142857143,294.12857142857143,1131.2,299.22232142857143,294.12857142857143,1234.7,299.22232142857143,294.12857142857143,1336.7,90.22232142857143,95.12857142857143,1438.6,40.222321428571426,49.128571428571426,1547.5,33.222321428571426,42.128571428571426,1655,33.222321428571426,42.128571428571426,1755.2,33.222321428571426,42.128571428571426,1857.1,33.222321428571426,42.128571428571426,1958.6,33.222321428571426,42.128571428571426,2060,33.222321428571426,42.128571428571426,2162,33.222321428571426,42.128571428571426,2270.5,33.222321428571426,42.128571428571426,2371.4,33.222321428571426,42.128571428571426,2473.7,33.222321428571426,42.128571428571426,2574.3,33.222321428571426,42.128571428571426,2682.3,33.222321428571426,42.128571428571426,2785.5,33.222321428571426,42.128571428571426,2886,33.222321428571426,42.128571428571426,2989.2,33.222321428571426,42.128571428571426,3094.6,33.222321428571426,42.128571428571426,3201.6,33.222321428571426,42.128571428571426,3301.6,33.222321428571426,42.128571428571426,3403.5,33.222321428571426,42.128571428571426,3503.7,33.222321428571426,42.128571428571426,3605.5,33.222321428571426,42.128571428571426,3708.8,33.222321428571426,42.128571428571426,3820.1,33.222321428571426,42.128571428571426,3923.5,33.222321428571426,42.128571428571426,4029.1,33.222321428571426,42.128571428571426,4134.4,33.222321428571426,42.128571428571426,4238.3,33.222321428571426,42.128571428571426,4338.4,33.222321428571426,42.128571428571426,4438.5,33.222321428571426,42.128571428571426,4539.5,33.222321428571426,42.128571428571426,4652.5,33.222321428571426,42.128571428571426,4755.3,33.222321428571426,42.128571428571426,4855.6,33.222321428571426,42.128571428571426,4955.8]","[1345,1345,1000,0,345,""smooth"",""up"",""up"",""good_move"",4367.2,3021.5,2502.4,1345.7,519.1,""smooth"",""up"",""up"",""good_move"",8147.7,3780.4,3379.8,4367.3,400.6,""smooth"",""up"",""up"",""good_move"",11606.1,3458.1,2934,8148,524.1,""smooth"",""left"",""left"",""good_move"",15172.4,3566.1,3125.5,11606.3,440.6,""smooth"",""left"",""left"",""good_move"",17997.6,2824.8,2482,15172.8,342.8,""oops"",""left"",""right"",""bad_move"",20935.9,2937.9,2557.5,17998,380.4,""oops"",""left"",""down"",""bad_move"",23678.9,2742.5,2411.3,20936.4,331.2,""while_blue"",""left"",""left"",""good_move"",26584,2904.8,2549,23679.2,355.8,""oops"",""left"",""up"",""good_move"",29641.6,3057.3,2730.6,26584.3,326.7,""oops"",""left"",""down"",""bad_move"",32542.7,2899.1,2551,29643.6,348.1,""oops"",""left"",""down"",""bad_move""]","",""
"12261","","<div style=""width:500px;"">
  <p>What determined the result of this run?</p>
  </div>","66","html-slider-response","60","1290884","0.0-5.0-1.10","21","1","2025-07-09 09:02:16","01610cd0009c79a99da7d0a3353eb402","216.120.189.168","Mozilla/5.0 (Windows NT 10.0; Win64; x64) AppleWebKit/537.36 (KHTML, like Gecko) Chrome/137.0.0.0 Safari/537.36","WebKit","Chrome","137.0.0.0","Windows","10.0","https://app.prolific.com/","en-US,en;q=0.9","674eae0026291e33be89b46f","683db7602f5db6a34d12d064","686e2fda8fe2c90e762e9d7f","1","674eae0026291e33be89b46f","1","2025-07-09T09:25:41.157Z","","","","","","","","","","","AttribQ","","50","","","","","","","","","","","","","","","","","","","","","","","","","","","","",""
"5162","","<div style=""width:500px;"">
  <p>How much control did you have over the ball?</p>
  </div>","52","html-slider-response","61","1296048","0.0-5.0-2.10","21","1","2025-07-09 09:02:16","01610cd0009c79a99da7d0a3353eb402","216.120.189.168","Mozilla/5.0 (Windows NT 10.0; Win64; x64) AppleWebKit/537.36 (KHTML, like Gecko) Chrome/137.0.0.0 Safari/537.36","WebKit","Chrome","137.0.0.0","Windows","10.0","https://app.prolific.com/","en-US,en;q=0.9","674eae0026291e33be89b46f","683db7602f5db6a34d12d064","686e2fda8fe2c90e762e9d7f","1","674eae0026291e33be89b46f","1","2025-07-09T09:25:46.322Z","","","","","","","","","","","ControlQ","","50","","","","","","","","","","","","","","","","","","","","","","","","","","","","",""
"3873","","<div style=""width:500px;"">
  <p>How would you describe your current emotional state?</p>
  </div>","38","html-slider-response","62","1299923","0.0-5.0-3.10","21","1","2025-07-09 09:02:16","01610cd0009c79a99da7d0a3353eb402","216.120.189.168","Mozilla/5.0 (Windows NT 10.0; Win64; x64) AppleWebKit/537.36 (KHTML, like Gecko) Chrome/137.0.0.0 Safari/537.36","WebKit","Chrome","137.0.0.0","Windows","10.0","https://app.prolific.com/","en-US,en;q=0.9","674eae0026291e33be89b46f","683db7602f5db6a34d12d064","686e2fda8fe2c90e762e9d7f","1","674eae0026291e33be89b46f","1","2025-07-09T09:25:50.196Z","","","","","","","","","","","StressQ","","50","","","","","","","","","","","","","","","","","","","","","","","","","","","","",""
"2311","","<div style=""width:500px;"">
  <p>What best describes how you currently feel?</p>
  </div>","60","html-slider-response","63","1302235","0.0-5.0-4.10","21","1","2025-07-09 09:02:16","01610cd0009c79a99da7d0a3353eb402","216.120.189.168","Mozilla/5.0 (Windows NT 10.0; Win64; x64) AppleWebKit/537.36 (KHTML, like Gecko) Chrome/137.0.0.0 Safari/537.36","WebKit","Chrome","137.0.0.0","Windows","10.0","https://app.prolific.com/","en-US,en;q=0.9","674eae0026291e33be89b46f","683db7602f5db6a34d12d064","686e2fda8fe2c90e762e9d7f","1","674eae0026291e33be89b46f","1","2025-07-09T09:25:52.508Z","","","","","","","","","","","MotivationQ","","50","","","","","","","","","","","","","","","","","","","","","","","","","","","","",""
"","","","","ctl-task-cpt","64","1341564","0.0-5.0-0.11","21","1","2025-07-09 09:02:16","01610cd0009c79a99da7d0a3353eb402","216.120.189.168","Mozilla/5.0 (Windows NT 10.0; Win64; x64) AppleWebKit/537.36 (KHTML, like Gecko) Chrome/137.0.0.0 Safari/537.36","WebKit","Chrome","137.0.0.0","Windows","10.0","https://app.prolific.com/","en-US,en;q=0.9","674eae0026291e33be89b46f","683db7602f5db6a34d12d064","686e2fda8fe2c90e762e9d7f","1","674eae0026291e33be89b46f","1","2025-07-09T09:26:31.837Z","","","","","","","","","","","","","","win-only","3","g1:SW,g2:NE","0.6","12","0","1333951.7","4915.2","9915.9","36306.7","1","4","8","6","2","8","8","8","0","0.06060606060606061","1977.7","3000","810","[""up"",""right""]","{""num_key_presses"":8,""num_perfect"":6,""num_errors"":0,""num_randdir"":2,""num_randdir_good_moves"":1,""num_whilered"":0,""num_whileblue"":0,""num_blue"":1,""num_good_moves"":7}","[294.22232142857143,292.12857142857143,0.2,294.22232142857143,292.12857142857143,110.4,294.22232142857143,292.12857142857143,213.9,294.22232142857143,292.12857142857143,315.1,294.22232142857143,292.12857142857143,415.1,294.22232142857143,292.12857142857143,515.6,294.22232142857143,292.12857142857143,615.6,294.22232142857143,292.12857142857143,716.4,294.22232142857143,292.12857142857143,823.8,294.22232142857143,292.12857142857143,929.5,294.22232142857143,292.12857142857143,1030.3,520.2223214285714,-16.871428571428574,1131.1,591.2223214285714,-75.87142857142857,1244.3,591.2223214285714,-75.87142857142857,1347.9,581.2223214285714,-45.871428571428574,1450.9,557.2223214285714,5.128571428571426,1552.8,544.2223214285714,34.128571428571426,1657.1,544.2223214285714,34.128571428571426,1760.7,544.2223214285714,34.128571428571426,1861.2,544.2223214285714,34.128571428571426,1961.7,544.2223214285714,34.128571428571426,2065.2,544.2223214285714,34.128571428571426,2165.7,544.2223214285714,34.128571428571426,2280.4,544.2223214285714,34.128571428571426,2380.8,544.2223214285714,34.128571428571426,2486,544.2223214285714,34.128571428571426,2589.5,544.2223214285714,34.128571428571426,2690.6,544.2223214285714,34.128571428571426,2794.7,544.2223214285714,34.128571428571426,2896.9,544.2223214285714,34.128571428571426,3000.5,544.2223214285714,34.128571428571426,3100.7,544.2223214285714,34.128571428571426,3212,544.2223214285714,34.128571428571426,3312.2,544.2223214285714,34.128571428571426,3413.9,544.2223214285714,34.128571428571426,3515.1,544.2223214285714,34.128571428571426,3615.9,544.2223214285714,34.128571428571426,3716.9,544.2223214285714,34.128571428571426,3822,544.2223214285714,34.128571428571426,3928.8,544.2223214285714,34.128571428571426,4030,544.2223214285714,34.128571428571426,4141.5,544.2223214285714,34.128571428571426,4243.3,544.2223214285714,34.128571428571426,4347.1,544.2223214285714,34.128571428571426,4450.5,544.2223214285714,34.128571428571426,4557.4,544.2223214285714,34.128571428571426,4658.8,544.2223214285714,34.128571428571426,4759.6,544.2223214285714,34.128571428571426,4862.2,544.2223214285714,34.128571428571426,4966.1]","[5459.2,5459.2,3079,2000.7,379.5,""smooth"",""right"",""right"",""good_move"",8349.3,2889.6,2446.1,5459.7,443.5,""smooth"",""up"",""up"",""good_move"",11140.2,2790.5,2436.4,8349.7,354.1,""oops"",""right"",""down"",""bad_move"",14387.1,3246.6,2857.4,11140.5,389.2,""smooth"",""up"",""up"",""good_move"",17789.5,3401,3004.4,14388.6,396.5,""smooth"",""up"",""up"",""good_move"",20392.2,2602.2,2261.5,17790,340.7,""oops"",""right"",""right"",""good_move"",23306.5,2913.8,2564.4,20392.7,349.4,""smooth"",""up"",""up"",""good_move"",26274.2,2967.4,2622.7,23306.8,344.7,""smooth"",""right"",""right"",""good_move""]","",""
"3757","","<div style=""width:500px;"">
  <p>What determined the result of this run?</p>
  </div>","70","html-slider-response","65","1345322","0.0-5.0-1.11","21","1","2025-07-09 09:02:16","01610cd0009c79a99da7d0a3353eb402","216.120.189.168","Mozilla/5.0 (Windows NT 10.0; Win64; x64) AppleWebKit/537.36 (KHTML, like Gecko) Chrome/137.0.0.0 Safari/537.36","WebKit","Chrome","137.0.0.0","Windows","10.0","https://app.prolific.com/","en-US,en;q=0.9","674eae0026291e33be89b46f","683db7602f5db6a34d12d064","686e2fda8fe2c90e762e9d7f","1","674eae0026291e33be89b46f","1","2025-07-09T09:26:35.595Z","","","","","","","","","","","AttribQ","","50","","","","","","","","","","","","","","","","","","","","","","","","","","","","",""
"2841","","<div style=""width:500px;"">
  <p>How much control did you have over the ball?</p>
  </div>","71","html-slider-response","66","1348166","0.0-5.0-2.11","21","1","2025-07-09 09:02:16","01610cd0009c79a99da7d0a3353eb402","216.120.189.168","Mozilla/5.0 (Windows NT 10.0; Win64; x64) AppleWebKit/537.36 (KHTML, like Gecko) Chrome/137.0.0.0 Safari/537.36","WebKit","Chrome","137.0.0.0","Windows","10.0","https://app.prolific.com/","en-US,en;q=0.9","674eae0026291e33be89b46f","683db7602f5db6a34d12d064","686e2fda8fe2c90e762e9d7f","1","674eae0026291e33be89b46f","1","2025-07-09T09:26:38.439Z","","","","","","","","","","","ControlQ","","50","","","","","","","","","","","","","","","","","","","","","","","","","","","","",""
"2608","","<div style=""width:500px;"">
  <p>How would you describe your current emotional state?</p>
  </div>","68","html-slider-response","67","1350777","0.0-5.0-3.11","21","1","2025-07-09 09:02:16","01610cd0009c79a99da7d0a3353eb402","216.120.189.168","Mozilla/5.0 (Windows NT 10.0; Win64; x64) AppleWebKit/537.36 (KHTML, like Gecko) Chrome/137.0.0.0 Safari/537.36","WebKit","Chrome","137.0.0.0","Windows","10.0","https://app.prolific.com/","en-US,en;q=0.9","674eae0026291e33be89b46f","683db7602f5db6a34d12d064","686e2fda8fe2c90e762e9d7f","1","674eae0026291e33be89b46f","1","2025-07-09T09:26:41.050Z","","","","","","","","","","","StressQ","","50","","","","","","","","","","","","","","","","","","","","","","","","","","","","",""
"2819","","<div style=""width:500px;"">
  <p>What best describes how you currently feel?</p>
  </div>","55","html-slider-response","68","1353613","0.0-5.0-4.11","21","1","2025-07-09 09:02:16","01610cd0009c79a99da7d0a3353eb402","216.120.189.168","Mozilla/5.0 (Windows NT 10.0; Win64; x64) AppleWebKit/537.36 (KHTML, like Gecko) Chrome/137.0.0.0 Safari/537.36","WebKit","Chrome","137.0.0.0","Windows","10.0","https://app.prolific.com/","en-US,en;q=0.9","674eae0026291e33be89b46f","683db7602f5db6a34d12d064","686e2fda8fe2c90e762e9d7f","1","674eae0026291e33be89b46f","1","2025-07-09T09:26:43.886Z","","","","","","","","","","","MotivationQ","","50","","","","","","","","","","","","","","","","","","","","","","","","","","","","",""
"","","","","ctl-task-cpt","69","1413648","0.0-5.0-0.12","21","1","2025-07-09 09:02:16","01610cd0009c79a99da7d0a3353eb402","216.120.189.168","Mozilla/5.0 (Windows NT 10.0; Win64; x64) AppleWebKit/537.36 (KHTML, like Gecko) Chrome/137.0.0.0 Safari/537.36","WebKit","Chrome","137.0.0.0","Windows","10.0","https://app.prolific.com/","en-US,en;q=0.9","674eae0026291e33be89b46f","683db7602f5db6a34d12d064","686e2fda8fe2c90e762e9d7f","1","674eae0026291e33be89b46f","1","2025-07-09T09:27:43.921Z","","","","","","","","","","","","","","win-only","2","g1:SE,g2:NW","0.7","13","0","1385328.3","2235.9","7236.3","57015.7","1","4","8","6","2","-8","-9","0","8","0","1796.5","3000","-2185","[""left"",""up""]","{""num_key_presses"":12,""num_perfect"":7,""num_errors"":1,""num_randdir"":4,""num_randdir_good_moves"":2,""num_whilered"":0,""num_whileblue"":0,""num_blue"":4,""num_good_moves"":8}","[296.22232142857143,300.12857142857143,0.3,296.22232142857143,300.12857142857143,100.6,296.22232142857143,300.12857142857143,210,296.22232142857143,300.12857142857143,314.8,296.22232142857143,300.12857142857143,422.8,296.22232142857143,300.12857142857143,524.9,296.22232142857143,300.12857142857143,626.3,296.22232142857143,300.12857142857143,729.5,289.22232142857143,297.12857142857143,833.2,97.22232142857143,66.12857142857143,941.6,37.222321428571426,22.128571428571426,1041.6,15.222321428571426,11.128571428571426,1145.1,12.222321428571426,9.128571428571426,1245.2,17.222321428571426,13.128571428571426,1349.7,46.222321428571426,40.128571428571426,1464.1,46.222321428571426,42.128571428571426,1564.8,46.222321428571426,42.128571428571426,1666,46.222321428571426,42.128571428571426,1775.7,46.222321428571426,42.128571428571426,1879.7,46.222321428571426,42.128571428571426,1980.8,46.222321428571426,42.128571428571426,2084.5,46.222321428571426,42.128571428571426,2186.6,46.222321428571426,42.128571428571426,2288.4,46.222321428571426,42.128571428571426,2389.1,46.222321428571426,42.128571428571426,2492.1,46.222321428571426,42.128571428571426,2595.7,46.222321428571426,42.128571428571426,2695.8,46.222321428571426,42.128571428571426,2796.6,46.222321428571426,42.128571428571426,2900.3,46.222321428571426,42.128571428571426,3000.3,46.222321428571426,42.128571428571426,3110.5,46.222321428571426,42.128571428571426,3214.3,46.222321428571426,42.128571428571426,3314.8,46.222321428571426,42.128571428571426,3415.3,46.222321428571426,42.128571428571426,3525.4,46.222321428571426,42.128571428571426,3626.6,46.222321428571426,42.128571428571426,3730.1,46.222321428571426,42.128571428571426,3830.6,46.222321428571426,42.128571428571426,3939.4,46.222321428571426,42.128571428571426,4045.2,46.222321428571426,42.128571428571426,4150.3,46.222321428571426,42.128571428571426,4250.4,46.222321428571426,42.128571428571426,4362.3,46.222321428571426,42.128571428571426,4464.9,46.222321428571426,42.128571428571426,4566.7,46.222321428571426,42.128571428571426,4675,46.222321428571426,42.128571428571426,4937.3]","[5011.5,5011.5,2633.3,2008.4,369.8,""smooth"",""left"",""left"",""good_move"",10995,5983,2815,7793.3,386.7,""oops"",""up"",""right"",""bad_move"",13055.5,2059.9,1637,10995.6,422.9,""smooth"",""left"",""left"",""good_move"",16220.4,3164.4,2801.7,13056,362.7,""smooth"",""left"",""left"",""good_move"",19964.5,3743.8,3371,16220.7,372.8,""smooth"",""up"",""up"",""good_move"",29957.4,9992.5,2144.3,27396,417.1,""oops"",""left"",""up"",""good_move"",33126.6,3168.6,2817,29958.1,351.5,""smooth"",""left"",""left"",""good_move"",36137.9,3011.1,2636,33126.9,375,""smooth"",""left"",""down"",""bad_move"",36708.5,570.2,2820.6,36138.3,-2250.4,""error"",""-"",""-"",""no_move"",41025.4,4316.6,2974,37709.2,342.2,""smooth"",""up"",""up"",""good_move"",44847.6,3822,3480.9,41025.7,341.1,""oops"",""up"",""right"",""bad_move"",47186.8,2338.2,1995.8,44848.6,342.4,""oops"",""left"",""up"",""good_move""]","",""
"3506","","<div style=""width:500px;"">
  <p>What determined the result of this run?</p>
  </div>","68","html-slider-response","70","1417155","0.0-5.0-1.12","21","1","2025-07-09 09:02:16","01610cd0009c79a99da7d0a3353eb402","216.120.189.168","Mozilla/5.0 (Windows NT 10.0; Win64; x64) AppleWebKit/537.36 (KHTML, like Gecko) Chrome/137.0.0.0 Safari/537.36","WebKit","Chrome","137.0.0.0","Windows","10.0","https://app.prolific.com/","en-US,en;q=0.9","674eae0026291e33be89b46f","683db7602f5db6a34d12d064","686e2fda8fe2c90e762e9d7f","1","674eae0026291e33be89b46f","1","2025-07-09T09:27:47.428Z","","","","","","","","","","","AttribQ","","50","","","","","","","","","","","","","","","","","","","","","","","","","","","","",""
"2982","","<div style=""width:500px;"">
  <p>How much control did you have over the ball?</p>
  </div>","44","html-slider-response","71","1420138","0.0-5.0-2.12","21","1","2025-07-09 09:02:16","01610cd0009c79a99da7d0a3353eb402","216.120.189.168","Mozilla/5.0 (Windows NT 10.0; Win64; x64) AppleWebKit/537.36 (KHTML, like Gecko) Chrome/137.0.0.0 Safari/537.36","WebKit","Chrome","137.0.0.0","Windows","10.0","https://app.prolific.com/","en-US,en;q=0.9","674eae0026291e33be89b46f","683db7602f5db6a34d12d064","686e2fda8fe2c90e762e9d7f","1","674eae0026291e33be89b46f","1","2025-07-09T09:27:50.412Z","","","","","","","","","","","ControlQ","","50","","","","","","","","","","","","","","","","","","","","","","","","","","","","",""
"3177","","<div style=""width:500px;"">
  <p>How would you describe your current emotional state?</p>
  </div>","59","html-slider-response","72","1423318","0.0-5.0-3.12","21","1","2025-07-09 09:02:16","01610cd0009c79a99da7d0a3353eb402","216.120.189.168","Mozilla/5.0 (Windows NT 10.0; Win64; x64) AppleWebKit/537.36 (KHTML, like Gecko) Chrome/137.0.0.0 Safari/537.36","WebKit","Chrome","137.0.0.0","Windows","10.0","https://app.prolific.com/","en-US,en;q=0.9","674eae0026291e33be89b46f","683db7602f5db6a34d12d064","686e2fda8fe2c90e762e9d7f","1","674eae0026291e33be89b46f","1","2025-07-09T09:27:53.591Z","","","","","","","","","","","StressQ","","50","","","","","","","","","","","","","","","","","","","","","","","","","","","","",""
"2691","","<div style=""width:500px;"">
  <p>What best describes how you currently feel?</p>
  </div>","61","html-slider-response","73","1426011","0.0-5.0-4.12","21","1","2025-07-09 09:02:16","01610cd0009c79a99da7d0a3353eb402","216.120.189.168","Mozilla/5.0 (Windows NT 10.0; Win64; x64) AppleWebKit/537.36 (KHTML, like Gecko) Chrome/137.0.0.0 Safari/537.36","WebKit","Chrome","137.0.0.0","Windows","10.0","https://app.prolific.com/","en-US,en;q=0.9","674eae0026291e33be89b46f","683db7602f5db6a34d12d064","686e2fda8fe2c90e762e9d7f","1","674eae0026291e33be89b46f","1","2025-07-09T09:27:56.284Z","","","","","","","","","","","MotivationQ","","50","","","","","","","","","","","","","","","","","","","","","","","","","","","","",""
"","","","","ctl-task-cpt","74","1471656","0.0-5.0-0.13","21","1","2025-07-09 09:02:16","01610cd0009c79a99da7d0a3353eb402","216.120.189.168","Mozilla/5.0 (Windows NT 10.0; Win64; x64) AppleWebKit/537.36 (KHTML, like Gecko) Chrome/137.0.0.0 Safari/537.36","WebKit","Chrome","137.0.0.0","Windows","10.0","https://app.prolific.com/","en-US,en;q=0.9","674eae0026291e33be89b46f","683db7602f5db6a34d12d064","686e2fda8fe2c90e762e9d7f","1","674eae0026291e33be89b46f","1","2025-07-09T09:28:41.929Z","","","","","","","","","","","","","","win-only","2","g1:SE,g2:NW","0.8","14","0","1457729.1","2556.5","7557.7","42622.4","1","4","4","6","2","4","2","2","0","0.015151515151515152","1898.9","3000","500","[""left"",""up""]","{""num_key_presses"":12,""num_perfect"":8,""num_errors"":2,""num_randdir"":2,""num_randdir_good_moves"":0,""num_whilered"":0,""num_whileblue"":2,""num_blue"":3,""num_good_moves"":9}","[293.22232142857143,297.12857142857143,0.8,293.22232142857143,297.12857142857143,103.2,293.22232142857143,297.12857142857143,206.5,293.22232142857143,297.12857142857143,306.5,293.22232142857143,297.12857142857143,412.4,293.22232142857143,297.12857142857143,512.5,293.22232142857143,297.12857142857143,614.2,293.22232142857143,297.12857142857143,714.7,288.22232142857143,295.12857142857143,821.1,102.22232142857143,137.12857142857143,930.4,88.22232142857143,121.12857142857143,1038.6,88.22232142857143,121.12857142857143,1139,88.22232142857143,121.12857142857143,1239.6,88.22232142857143,121.12857142857143,1346.6,78.22232142857143,93.12857142857143,1448.3,62.222321428571426,58.128571428571426,1559.8,62.222321428571426,57.128571428571426,1661.2,62.222321428571426,57.128571428571426,1762.2,62.222321428571426,57.128571428571426,1866.4,62.222321428571426,57.128571428571426,1969.8,62.222321428571426,57.128571428571426,2072.1,62.222321428571426,57.128571428571426,2186.7,62.222321428571426,57.128571428571426,2287.9,62.222321428571426,57.128571428571426,2388.9,62.222321428571426,57.128571428571426,2500.3,62.222321428571426,57.128571428571426,2601.6,62.222321428571426,57.128571428571426,2704.4,62.222321428571426,57.128571428571426,2819.2,62.222321428571426,57.128571428571426,2922.8,62.222321428571426,57.128571428571426,3031.6,62.222321428571426,57.128571428571426,3134.2,62.222321428571426,57.128571428571426,3235.3,62.222321428571426,57.128571428571426,3336.9,62.222321428571426,57.128571428571426,3437.6,62.222321428571426,57.128571428571426,3539.5,62.222321428571426,57.128571428571426,3640.5,62.222321428571426,57.128571428571426,3751.4,62.222321428571426,57.128571428571426,3852.7,62.222321428571426,57.128571428571426,3953.9,62.222321428571426,57.128571428571426,4055,62.222321428571426,57.128571428571426,4155.4,62.222321428571426,57.128571428571426,4269.1,62.222321428571426,57.128571428571426,4369.9,62.222321428571426,57.128571428571426,4474.2,62.222321428571426,57.128571428571426,4576.1,62.222321428571426,57.128571428571426,4680.9,62.222321428571426,57.128571428571426,4782.4,62.222321428571426,57.128571428571426,4887,62.222321428571426,57.128571428571426,4987.3]","[1447.9,1447.9,1000,0,447.9,""smooth"",""up"",""up"",""good_move"",4428.4,2980,2646,1448.4,334,""smooth"",""left"",""left"",""good_move"",7326.3,2895.9,2534.4,4430.5,361.4,""smooth"",""up"",""up"",""good_move"",10453.8,3127,2753.5,7326.8,373.5,""while_blue"",""left"",""up"",""good_move"",12800.5,2346.4,1989.2,10454.1,357.2,""smooth"",""left"",""left"",""good_move"",15181.4,2380.5,2038.4,12800.9,342.1,""oops"",""left"",""right"",""bad_move"",17600,2416.1,1965.8,15183.9,450.3,""oops"",""left"",""right"",""bad_move"",20817.2,3216.9,2891.1,17600.3,325.8,""smooth"",""left"",""left"",""good_move"",23789.6,2971.9,2648.8,20817.7,323.1,""smooth"",""left"",""left"",""good_move"",26582.9,2792.9,2490.9,23790,302,""while_blue"",""left"",""right"",""bad_move"",29199.3,2615.1,2270.2,26584.3,344.9,""smooth"",""left"",""left"",""good_move"",34941.1,5741.4,1626.3,32949.9,364.9,""smooth"",""left"",""left"",""good_move""]","",""
"3537","","<div style=""width:500px;"">
  <p>What determined the result of this run?</p>
  </div>","59","html-slider-response","75","1475196","0.0-5.0-1.13","21","1","2025-07-09 09:02:16","01610cd0009c79a99da7d0a3353eb402","216.120.189.168","Mozilla/5.0 (Windows NT 10.0; Win64; x64) AppleWebKit/537.36 (KHTML, like Gecko) Chrome/137.0.0.0 Safari/537.36","WebKit","Chrome","137.0.0.0","Windows","10.0","https://app.prolific.com/","en-US,en;q=0.9","674eae0026291e33be89b46f","683db7602f5db6a34d12d064","686e2fda8fe2c90e762e9d7f","1","674eae0026291e33be89b46f","1","2025-07-09T09:28:45.469Z","","","","","","","","","","","AttribQ","","50","","","","","","","","","","","","","","","","","","","","","","","","","","","","",""
"2510","","<div style=""width:500px;"">
  <p>How much control did you have over the ball?</p>
  </div>","66","html-slider-response","76","1477708","0.0-5.0-2.13","21","1","2025-07-09 09:02:16","01610cd0009c79a99da7d0a3353eb402","216.120.189.168","Mozilla/5.0 (Windows NT 10.0; Win64; x64) AppleWebKit/537.36 (KHTML, like Gecko) Chrome/137.0.0.0 Safari/537.36","WebKit","Chrome","137.0.0.0","Windows","10.0","https://app.prolific.com/","en-US,en;q=0.9","674eae0026291e33be89b46f","683db7602f5db6a34d12d064","686e2fda8fe2c90e762e9d7f","1","674eae0026291e33be89b46f","1","2025-07-09T09:28:47.981Z","","","","","","","","","","","ControlQ","","50","","","","","","","","","","","","","","","","","","","","","","","","","","","","",""
