"rt","response_timestamp","stimulus","response","trial_type","trial_index","time_elapsed","internal_node_id","run_id","condition","recorded_at","source_code_version","ip","user_agent","device","browser","browser_version","platform","platform_version","referer","accept_language","PROLIFIC_PID","STUDY_ID","SESSION_ID","WEEK","BATCH","prolific_id","week","batch","realtime","success","responses","item_order","radio_event_ids","radio_event_times","key_event_times","mouse_event_times","straightlining","zigzagging","honeypot","eventType","view_history","slider_start","which_type","canvas_config","goals_layout","control_level","trial_number","tutorial_trial_number","trial_start_time","phase1_start_time","phase2_start_time","phase3_start_time","goal_1_value","goal_1_distance","goal_2_value","goal_2_distance","goal_selected","outcome","outcome_total","participant_final_score","participant_initial_score","participant_final_score_prop","goal_choice_rt","allocated_time","allocated_time_remaining","goal_direction","counts","mouse_movements","key_presses","question_order","question_id"
"13930","1753252342830","<p style='font-size:40px;line-height:1.25'><strong>Welcome to the experiment!</strong></p><p style='font-size:1.1em;line-height:1.25'>Thank you for participanting in our experiment again! You will be asked to play the Dysfunctional Ball Game again. We will briefly recap the rules before we start.</p><p style='font-size:1.1em;line-height:1.25'>Press <strong>Next</strong> to continue.</p>","0","custom-html-button-response","0","13931","0.0-0.0","147","1","2025-07-23 06:32:08","1f75c3e559b7213887762d5229550c2b","93.108.112.26","Mozilla/5.0 (Windows NT 10.0; Win64; x64) AppleWebKit/537.36 (KHTML, like Gecko) Chrome/138.0.0.0 Safari/537.36","WebKit","Chrome","138.0.0.0","Windows","10.0","https://app.prolific.com/","en-US,en;q=0.9","6140ef8d27499e70e8740918","683dba2a8a9dda3513610c04","688081db2c7a83a035c2908e","3","0","6140ef8d27499e70e8740918","3","0","2025-07-23T06:32:22.830Z","","","","","","","","","","","","","","","","","","","","","","","","","","","","","","","","","","","","","","","","","",""
"6135","","","","fullscreen","1","21068","0.0-1.0","147","1","2025-07-23 06:32:08","1f75c3e559b7213887762d5229550c2b","93.108.112.26","Mozilla/5.0 (Windows NT 10.0; Win64; x64) AppleWebKit/537.36 (KHTML, like Gecko) Chrome/138.0.0.0 Safari/537.36","WebKit","Chrome","138.0.0.0","Windows","10.0","https://app.prolific.com/","en-US,en;q=0.9","6140ef8d27499e70e8740918","683dba2a8a9dda3513610c04","688081db2c7a83a035c2908e","3","0","6140ef8d27499e70e8740918","3","0","","true","","","","","","","","","","","","","","","","","","","","","","","","","","","","","","","","","","","","","","","","",""
"15440","1753252365407","<p style='font-size:1.1em;line-height:1.25'>In the following, we will ask you a few questions relating to your feelings in the last 24 hours.<br></p><p style='font-size:1.1em;line-height:1.25'>Press the <strong>Next</strong> button to continue.</p>","0","custom-html-button-response","2","36508","0.0-2.0-0.0","147","1","2025-07-23 06:32:08","1f75c3e559b7213887762d5229550c2b","93.108.112.26","Mozilla/5.0 (Windows NT 10.0; Win64; x64) AppleWebKit/537.36 (KHTML, like Gecko) Chrome/138.0.0.0 Safari/537.36","WebKit","Chrome","138.0.0.0","Windows","10.0","https://app.prolific.com/","en-US,en;q=0.9","6140ef8d27499e70e8740918","683dba2a8a9dda3513610c04","688081db2c7a83a035c2908e","3","0","6140ef8d27499e70e8740918","3","0","2025-07-23T06:32:45.408Z","","","","","","","","","","","","","","","","","","","","","","","","","","","","","","","","","","","","","","","","","",""
"79747.30000019073","","","","survey-template","3","116258","0.0-2.0-1.0","147","1","2025-07-23 06:32:08","1f75c3e559b7213887762d5229550c2b","93.108.112.26","Mozilla/5.0 (Windows NT 10.0; Win64; x64) AppleWebKit/537.36 (KHTML, like Gecko) Chrome/138.0.0.0 Safari/537.36","WebKit","Chrome","138.0.0.0","Windows","10.0","https://app.prolific.com/","en-US,en;q=0.9","6140ef8d27499e70e8740918","683dba2a8a9dda3513610c04","688081db2c7a83a035c2908e","3","0","6140ef8d27499e70e8740918","3","0","2025-07-23T06:34:05.157Z","","{""Q01"":""1"",""Q02"":""1"",""Q03"":""1"",""Q04"":""2"",""Q05"":""1"",""Q06"":""1"",""Q07"":""0"",""Q08"":""0"",""Q09"":""0"",""Q10"":""2"",""Q11"":""3"",""Q12"":""2"",""Q13"":""5"",""Q14"":""2"",""Q15"":""3"",""Q16"":""3"",""Q17"":""1"",""Q18"":""0"",""Q19"":""2"",""Q20"":""0"",""Q21"":""0"",""Q22"":""0""}","[0,1,2,3,4,5,6,7,8,9,10,11,12,13,14,15,16,17,18,19,20,21]","[""Q01"",""Q01"",""Q02"",""Q03"",""Q04"",""Q05"",""Q06"",""Q07"",""Q08"",""Q09"",""Q10"",""Q11"",""Q12"",""Q13"",""Q14"",""Q15"",""Q16"",""Q17"",""Q18"",""Q19"",""Q20"",""Q21"",""Q22""]","[7426.5,11835.5,14775.300000190735,15704.400000095367,17551.300000190735,20983.400000095367,23252.200000047684,25072.300000190735,28326.400000095367,30431.400000095367,33012.40000009537,36004.300000190735,42870.40000009537,45694.300000190735,49754.300000190735,52928.300000190735,55381.300000190735,58599.200000047684,62742.200000047684,68962.20000004768,72250.20000004768,77080.20000004768,78409.10000014305]","[]","[0.10000014305114746,7426.5,11218.100000143051,11835.5,13339.5,14775.300000190735,15704.400000095367,17551.300000190735,20983.400000095367,23252.200000047684,25072.300000190735,27068.200000047684,28326.400000095367,30431.400000095367,33012.40000009537,36004.300000190735,39819.200000047684,42870.40000009537,45694.300000190735,49754.300000190735,52928.300000190735,55381.300000190735,58599.200000047684,62742.200000047684,68962.20000004768,72250.20000004768,77080.20000004768,78409.10000014305,79744.40000009537]","0.3181818181818182","0.3333333333333333","0","drsp","","","","","","","","","","","","","","","","","","","","","","","","","","","","","","",""
"27424.700000047684","","","","survey-template","4","143684","0.0-2.0-2.0","147","1","2025-07-23 06:32:08","1f75c3e559b7213887762d5229550c2b","93.108.112.26","Mozilla/5.0 (Windows NT 10.0; Win64; x64) AppleWebKit/537.36 (KHTML, like Gecko) Chrome/138.0.0.0 Safari/537.36","WebKit","Chrome","138.0.0.0","Windows","10.0","https://app.prolific.com/","en-US,en;q=0.9","6140ef8d27499e70e8740918","683dba2a8a9dda3513610c04","688081db2c7a83a035c2908e","3","0","6140ef8d27499e70e8740918","3","0","2025-07-23T06:34:32.583Z","","{""Q01"":""2"",""Q02"":""2"",""Q03"":""1""}","[0,1,2]","[""Q01"",""Q02"",""Q03""]","[13875.299999952316,20386.299999952316,26623.099999904633]","[]","[13875.299999952316,20386.299999952316,26623.099999904633,27424.200000047684]","0.3333333333333333","0.5","0","stress","","","","","","","","","","","","","","","","","","","","","","","","","","","","","","",""
"36683","","","","instructions","5","180367","0.0-3.0-0.0","147","1","2025-07-23 06:32:08","1f75c3e559b7213887762d5229550c2b","93.108.112.26","Mozilla/5.0 (Windows NT 10.0; Win64; x64) AppleWebKit/537.36 (KHTML, like Gecko) Chrome/138.0.0.0 Safari/537.36","WebKit","Chrome","138.0.0.0","Windows","10.0","https://app.prolific.com/","en-US,en;q=0.9","6140ef8d27499e70e8740918","683dba2a8a9dda3513610c04","688081db2c7a83a035c2908e","3","0","6140ef8d27499e70e8740918","3","0","","","","","","","","","","","","","[{""page_index"":0,""viewing_time"":36683}]","","","","","","","","","","","","","","","","","","","","","","","","","","","","","",""
"7102","","<p>Before you start with this game please answer the following three questions yourself. </p>
  <p>Through this game, we measure several aspects of your cognitive performance, such as reaction times, multi-tasking capabilities </p>
  <p>and the ability to assess the situation you are in.</p>
  <p></p>
  <p><b>How good do you usually are in such tasks?</b></p>","57","html-slider-response","6","187470","0.0-4.0-0.0","147","1","2025-07-23 06:32:08","1f75c3e559b7213887762d5229550c2b","93.108.112.26","Mozilla/5.0 (Windows NT 10.0; Win64; x64) AppleWebKit/537.36 (KHTML, like Gecko) Chrome/138.0.0.0 Safari/537.36","WebKit","Chrome","138.0.0.0","Windows","10.0","https://app.prolific.com/","en-US,en;q=0.9","6140ef8d27499e70e8740918","683dba2a8a9dda3513610c04","688081db2c7a83a035c2908e","3","0","6140ef8d27499e70e8740918","3","0","2025-07-23T06:35:16.369Z","","","","","","","","","","","PreSkillQ","","50","","","","","","","","","","","","","","","","","","","","","","","","","","","","",""
"4553","","<div style=""width:500px;"">
  <p>How well do you think you will perform in this task compared to other participants?</p>
  </div>","39","html-slider-response","7","192024","0.0-4.0-1.0","147","1","2025-07-23 06:32:08","1f75c3e559b7213887762d5229550c2b","93.108.112.26","Mozilla/5.0 (Windows NT 10.0; Win64; x64) AppleWebKit/537.36 (KHTML, like Gecko) Chrome/138.0.0.0 Safari/537.36","WebKit","Chrome","138.0.0.0","Windows","10.0","https://app.prolific.com/","en-US,en;q=0.9","6140ef8d27499e70e8740918","683dba2a8a9dda3513610c04","688081db2c7a83a035c2908e","3","0","6140ef8d27499e70e8740918","3","0","2025-07-23T06:35:20.923Z","","","","","","","","","","","PrePerfQ","","50","","","","","","","","","","","","","","","","","","","","","","","","","","","","",""
"7344","","<div style=""width:500px;"">
  <p>What best describes how you currently feel?</p>
  </div>","53","html-slider-response","8","199368","0.0-4.0-2.0","147","1","2025-07-23 06:32:08","1f75c3e559b7213887762d5229550c2b","93.108.112.26","Mozilla/5.0 (Windows NT 10.0; Win64; x64) AppleWebKit/537.36 (KHTML, like Gecko) Chrome/138.0.0.0 Safari/537.36","WebKit","Chrome","138.0.0.0","Windows","10.0","https://app.prolific.com/","en-US,en;q=0.9","6140ef8d27499e70e8740918","683dba2a8a9dda3513610c04","688081db2c7a83a035c2908e","3","0","6140ef8d27499e70e8740918","3","0","2025-07-23T06:35:28.267Z","","","","","","","","","","","PreMotivationQ","","50","","","","","","","","","","","","","","","","","","","","","","","","","","","","",""
"","","","","ctl-task-cpt","9","232161","0.0-5.0-0.0","147","1","2025-07-23 06:32:08","1f75c3e559b7213887762d5229550c2b","93.108.112.26","Mozilla/5.0 (Windows NT 10.0; Win64; x64) AppleWebKit/537.36 (KHTML, like Gecko) Chrome/138.0.0.0 Safari/537.36","WebKit","Chrome","138.0.0.0","Windows","10.0","https://app.prolific.com/","en-US,en;q=0.9","6140ef8d27499e70e8740918","683dba2a8a9dda3513610c04","688081db2c7a83a035c2908e","3","0","6140ef8d27499e70e8740918","3","0","2025-07-23T06:36:01.060Z","","","","","","","","","","","","","","win-only","3","g1:SW,g2:NE","1","1","0","200517.5","8280.7","13285.4","29786.2","1","4","8","6","2","8","8","8","0","0.06060606060606061","1240.9","3000","970","[""up"",""right""]","{""num_key_presses"":6,""num_perfect"":6,""num_errors"":0,""num_randdir"":0,""num_randdir_good_moves"":0,""num_whilered"":0,""num_whileblue"":0,""num_blue"":0,""num_good_moves"":6}","[413.57142857142856,418.47767857142856,0.1,413.57142857142856,418.47767857142856,104.6,413.57142857142856,418.47767857142856,204.6,413.57142857142856,418.47767857142856,304.7,413.57142857142856,418.47767857142856,410.1,413.57142857142856,418.47767857142856,515,197.57142857142856,562.4776785714286,615,85.57142857142857,716.4776785714286,715.2,166.57142857142856,666.4776785714286,820,641.5714285714286,271.47767857142856,920.1,732.5714285714286,175.47767857142856,1020.2,745.5714285714286,112.47767857142857,1120.3,762.5714285714286,67.47767857142857,1225.4,765.5714285714286,69.47767857142857,1329.9,1048.5714285714287,173.47767857142856,1434.9,1110.5714285714287,181.47767857142856,1535,1110.5714285714287,181.47767857142856,1635.2,1110.5714285714287,181.47767857142856,1740.4,1110.5714285714287,181.47767857142856,1845.1,1110.5714285714287,181.47767857142856,1945.8,1110.5714285714287,181.47767857142856,2051.1,1110.5714285714287,181.47767857142856,2154.7,1110.5714285714287,181.47767857142856,2259.7,1110.5714285714287,181.47767857142856,2359.7,1110.5714285714287,181.47767857142856,2459.7,1110.5714285714287,181.47767857142856,2560.5,1110.5714285714287,181.47767857142856,2664.8,1110.5714285714287,181.47767857142856,2764.9,1110.5714285714287,181.47767857142856,2865.8,1110.5714285714287,181.47767857142856,2966,1110.5714285714287,181.47767857142856,3069.9,1110.5714285714287,181.47767857142856,3170.7,1110.5714285714287,181.47767857142856,3275.4,1110.5714285714287,181.47767857142856,3375.5,1110.5714285714287,181.47767857142856,3479.6,1110.5714285714287,181.47767857142856,3579.7,1110.5714285714287,181.47767857142856,3685,1110.5714285714287,181.47767857142856,3790.3,1110.5714285714287,181.47767857142856,3895,1110.5714285714287,181.47767857142856,3996,1110.5714285714287,181.47767857142856,4099.8,1110.5714285714287,181.47767857142856,4199.8,1110.5714285714287,181.47767857142856,4300.5,1110.5714285714287,181.47767857142856,4404.6,1110.5714285714287,181.47767857142856,4504.6,1110.5714285714287,181.47767857142856,4604.7,1110.5714285714287,181.47767857142856,4709.6,1110.5714285714287,181.47767857142856,4810.1,1110.5714285714287,181.47767857142856,4914.8]","[1334.5,1334.5,1000,0,334.5,""smooth"",""up"",""up"",""good_move"",4510.2,3175.5,2827.8,1334.7,347.7,""smooth"",""up"",""up"",""good_move"",7574.3,3064,2730.6,4510.4,333.3,""smooth"",""up"",""up"",""good_move"",10150.4,2575.9,2253.5,7574.5,322.4,""smooth"",""right"",""right"",""good_move"",13758.3,3607.7,3267.1,10150.6,340.6,""smooth"",""right"",""right"",""good_move"",16414.1,2655.8,2266.7,13758.4,389.1,""smooth"",""right"",""right"",""good_move""]","",""
"2969","","<div style=""width:500px;"">
  <p>What determined the result of this run?</p>
  </div>","100","html-slider-response","10","235130","0.0-5.0-1.0","147","1","2025-07-23 06:32:08","1f75c3e559b7213887762d5229550c2b","93.108.112.26","Mozilla/5.0 (Windows NT 10.0; Win64; x64) AppleWebKit/537.36 (KHTML, like Gecko) Chrome/138.0.0.0 Safari/537.36","WebKit","Chrome","138.0.0.0","Windows","10.0","https://app.prolific.com/","en-US,en;q=0.9","6140ef8d27499e70e8740918","683dba2a8a9dda3513610c04","688081db2c7a83a035c2908e","3","0","6140ef8d27499e70e8740918","3","0","2025-07-23T06:36:04.029Z","","","","","","","","","","","AttribQ","","50","","","","","","","","","","","","","","","","","","","","","","","","","","","","",""
"1775","","<div style=""width:500px;"">
  <p>How much control did you have over the ball?</p>
  </div>","100","html-slider-response","11","236906","0.0-5.0-2.0","147","1","2025-07-23 06:32:08","1f75c3e559b7213887762d5229550c2b","93.108.112.26","Mozilla/5.0 (Windows NT 10.0; Win64; x64) AppleWebKit/537.36 (KHTML, like Gecko) Chrome/138.0.0.0 Safari/537.36","WebKit","Chrome","138.0.0.0","Windows","10.0","https://app.prolific.com/","en-US,en;q=0.9","6140ef8d27499e70e8740918","683dba2a8a9dda3513610c04","688081db2c7a83a035c2908e","3","0","6140ef8d27499e70e8740918","3","0","2025-07-23T06:36:05.805Z","","","","","","","","","","","ControlQ","","50","","","","","","","","","","","","","","","","","","","","","","","","","","","","",""
"4051","","<div style=""width:500px;"">
  <p>How would you describe your current emotional state?</p>
  </div>","14","html-slider-response","12","240957","0.0-5.0-3.0","147","1","2025-07-23 06:32:08","1f75c3e559b7213887762d5229550c2b","93.108.112.26","Mozilla/5.0 (Windows NT 10.0; Win64; x64) AppleWebKit/537.36 (KHTML, like Gecko) Chrome/138.0.0.0 Safari/537.36","WebKit","Chrome","138.0.0.0","Windows","10.0","https://app.prolific.com/","en-US,en;q=0.9","6140ef8d27499e70e8740918","683dba2a8a9dda3513610c04","688081db2c7a83a035c2908e","3","0","6140ef8d27499e70e8740918","3","0","2025-07-23T06:36:09.856Z","","","","","","","","","","","StressQ","","50","","","","","","","","","","","","","","","","","","","","","","","","","","","","",""
"4355","","<div style=""width:500px;"">
  <p>What best describes how you currently feel?</p>
  </div>","71","html-slider-response","13","245313","0.0-5.0-4.0","147","1","2025-07-23 06:32:08","1f75c3e559b7213887762d5229550c2b","93.108.112.26","Mozilla/5.0 (Windows NT 10.0; Win64; x64) AppleWebKit/537.36 (KHTML, like Gecko) Chrome/138.0.0.0 Safari/537.36","WebKit","Chrome","138.0.0.0","Windows","10.0","https://app.prolific.com/","en-US,en;q=0.9","6140ef8d27499e70e8740918","683dba2a8a9dda3513610c04","688081db2c7a83a035c2908e","3","0","6140ef8d27499e70e8740918","3","0","2025-07-23T06:36:14.212Z","","","","","","","","","","","MotivationQ","","50","","","","","","","","","","","","","","","","","","","","","","","","","","","","",""
"","","","","ctl-task-cpt","14","277651","0.0-5.0-0.1","147","1","2025-07-23 06:32:08","1f75c3e559b7213887762d5229550c2b","93.108.112.26","Mozilla/5.0 (Windows NT 10.0; Win64; x64) AppleWebKit/537.36 (KHTML, like Gecko) Chrome/138.0.0.0 Safari/537.36","WebKit","Chrome","138.0.0.0","Windows","10.0","https://app.prolific.com/","en-US,en;q=0.9","6140ef8d27499e70e8740918","683dba2a8a9dda3513610c04","688081db2c7a83a035c2908e","3","0","6140ef8d27499e70e8740918","3","0","2025-07-23T06:36:46.550Z","","","","","","","","","","","","","","win-only","2","g1:SE,g2:NW","0.9","2","0","246462.2","1173.7","6175.8","29336","1","4","4","6","2","4","4","12","8","0.09090909090909091","640.2","3000","1160","[""left"",""up""]","{""num_key_presses"":6,""num_perfect"":6,""num_errors"":0,""num_randdir"":0,""num_randdir_good_moves"":0,""num_whilered"":0,""num_whileblue"":0,""num_blue"":2,""num_good_moves"":6}","[415.57142857142856,417.47767857142856,0.2,415.57142857142856,417.47767857142856,102,415.57142857142856,417.47767857142856,202.4,348.57142857142856,395.47767857142856,307.4,140.57142857142856,256.47767857142856,407.4,66.57142857142857,145.47767857142856,512.1,61.57142857142857,111.47767857142857,612.8,62.57142857142857,109.47767857142857,718.1,291.57142857142856,150.47767857142856,821.7,959.5714285714286,228.47767857142856,921.7,1030.5714285714287,230.47767857142856,1021.8,1030.5714285714287,230.47767857142856,1121.8,1030.5714285714287,230.47767857142856,1222,1030.5714285714287,230.47767857142856,1326.8,1030.5714285714287,230.47767857142856,1427.4,1030.5714285714287,230.47767857142856,1532.4,1030.5714285714287,230.47767857142856,1637.3,1030.5714285714287,230.47767857142856,1741.9,1030.5714285714287,230.47767857142856,1841.9,1030.5714285714287,230.47767857142856,1947.4,1030.5714285714287,230.47767857142856,2048.5,1030.5714285714287,230.47767857142856,2152.1,1030.5714285714287,230.47767857142856,2252.6,1030.5714285714287,230.47767857142856,2357.1,1030.5714285714287,230.47767857142856,2462,1030.5714285714287,230.47767857142856,2562.3,1030.5714285714287,230.47767857142856,2667.2,1030.5714285714287,230.47767857142856,2771.9,1030.5714285714287,230.47767857142856,2872.5,1030.5714285714287,230.47767857142856,2973.5,1030.5714285714287,230.47767857142856,3077.2,1030.5714285714287,230.47767857142856,3182.5,1030.5714285714287,230.47767857142856,3287.2,1030.5714285714287,230.47767857142856,3387.6,1030.5714285714287,230.47767857142856,3491.8,1030.5714285714287,230.47767857142856,3596.8,1030.5714285714287,230.47767857142856,3697.1,1030.5714285714287,230.47767857142856,3802.4,1030.5714285714287,230.47767857142856,3902.4,1030.5714285714287,230.47767857142856,4008,1030.5714285714287,230.47767857142856,4112.4,1030.5714285714287,230.47767857142856,4212.6,1030.5714285714287,230.47767857142856,4316.8,1030.5714285714287,230.47767857142856,4424,1030.5714285714287,230.47767857142856,4527.3,1030.5714285714287,230.47767857142856,4632.2,1030.5714285714287,230.47767857142856,4737.1,1030.5714285714287,230.47767857142856,4837.1,1030.5714285714287,230.47767857142856,4937.4]","[1315.3,1315.3,1000,0,315.3,""smooth"",""up"",""up"",""good_move"",10802.9,9487.2,2345.4,8184.3,273.2,""smooth"",""up"",""up"",""good_move"",13466.7,2663.7,2317.8,10803,345.9,""smooth"",""left"",""left"",""good_move"",16690.8,3223.9,2921.8,13466.9,302.1,""smooth"",""up"",""up"",""good_move"",19651,2960.1,2668.6,16690.9,291.5,""smooth"",""left"",""left"",""good_move"",23074.7,3423.5,3092.4,19651.2,331.1,""smooth"",""left"",""left"",""good_move""]","",""
"2793","","<div style=""width:500px;"">
  <p>What determined the result of this run?</p>
  </div>","100","html-slider-response","15","280445","0.0-5.0-1.1","147","1","2025-07-23 06:32:08","1f75c3e559b7213887762d5229550c2b","93.108.112.26","Mozilla/5.0 (Windows NT 10.0; Win64; x64) AppleWebKit/537.36 (KHTML, like Gecko) Chrome/138.0.0.0 Safari/537.36","WebKit","Chrome","138.0.0.0","Windows","10.0","https://app.prolific.com/","en-US,en;q=0.9","6140ef8d27499e70e8740918","683dba2a8a9dda3513610c04","688081db2c7a83a035c2908e","3","0","6140ef8d27499e70e8740918","3","0","2025-07-23T06:36:49.344Z","","","","","","","","","","","AttribQ","","50","","","","","","","","","","","","","","","","","","","","","","","","","","","","",""
"1081","","<div style=""width:500px;"">
  <p>How much control did you have over the ball?</p>
  </div>","100","html-slider-response","16","281527","0.0-5.0-2.1","147","1","2025-07-23 06:32:08","1f75c3e559b7213887762d5229550c2b","93.108.112.26","Mozilla/5.0 (Windows NT 10.0; Win64; x64) AppleWebKit/537.36 (KHTML, like Gecko) Chrome/138.0.0.0 Safari/537.36","WebKit","Chrome","138.0.0.0","Windows","10.0","https://app.prolific.com/","en-US,en;q=0.9","6140ef8d27499e70e8740918","683dba2a8a9dda3513610c04","688081db2c7a83a035c2908e","3","0","6140ef8d27499e70e8740918","3","0","2025-07-23T06:36:50.426Z","","","","","","","","","","","ControlQ","","50","","","","","","","","","","","","","","","","","","","","","","","","","","","","",""
"1902","","<div style=""width:500px;"">
  <p>How would you describe your current emotional state?</p>
  </div>","16","html-slider-response","17","283429","0.0-5.0-3.1","147","1","2025-07-23 06:32:08","1f75c3e559b7213887762d5229550c2b","93.108.112.26","Mozilla/5.0 (Windows NT 10.0; Win64; x64) AppleWebKit/537.36 (KHTML, like Gecko) Chrome/138.0.0.0 Safari/537.36","WebKit","Chrome","138.0.0.0","Windows","10.0","https://app.prolific.com/","en-US,en;q=0.9","6140ef8d27499e70e8740918","683dba2a8a9dda3513610c04","688081db2c7a83a035c2908e","3","0","6140ef8d27499e70e8740918","3","0","2025-07-23T06:36:52.328Z","","","","","","","","","","","StressQ","","50","","","","","","","","","","","","","","","","","","","","","","","","","","","","",""
"1866","","<div style=""width:500px;"">
  <p>What best describes how you currently feel?</p>
  </div>","75","html-slider-response","18","285296","0.0-5.0-4.1","147","1","2025-07-23 06:32:08","1f75c3e559b7213887762d5229550c2b","93.108.112.26","Mozilla/5.0 (Windows NT 10.0; Win64; x64) AppleWebKit/537.36 (KHTML, like Gecko) Chrome/138.0.0.0 Safari/537.36","WebKit","Chrome","138.0.0.0","Windows","10.0","https://app.prolific.com/","en-US,en;q=0.9","6140ef8d27499e70e8740918","683dba2a8a9dda3513610c04","688081db2c7a83a035c2908e","3","0","6140ef8d27499e70e8740918","3","0","2025-07-23T06:36:54.195Z","","","","","","","","","","","MotivationQ","","50","","","","","","","","","","","","","","","","","","","","","","","","","","","","",""
"","","","","ctl-task-cpt","19","316013","0.0-5.0-0.2","147","1","2025-07-23 06:32:08","1f75c3e559b7213887762d5229550c2b","93.108.112.26","Mozilla/5.0 (Windows NT 10.0; Win64; x64) AppleWebKit/537.36 (KHTML, like Gecko) Chrome/138.0.0.0 Safari/537.36","WebKit","Chrome","138.0.0.0","Windows","10.0","https://app.prolific.com/","en-US,en;q=0.9","6140ef8d27499e70e8740918","683dba2a8a9dda3513610c04","688081db2c7a83a035c2908e","3","0","6140ef8d27499e70e8740918","3","0","2025-07-23T06:37:24.912Z","","","","","","","","","","","","","","win-only","2","g1:SE,g2:NW","0.8","3","0","286444.8","1223","6225.5","27701","1","4","8","6","2","8","8","20","12","0.15151515151515152","616.1","3000","670","[""left"",""up""]","{""num_key_presses"":8,""num_perfect"":7,""num_errors"":0,""num_randdir"":1,""num_randdir_good_moves"":0,""num_whilered"":0,""num_whileblue"":0,""num_blue"":0,""num_good_moves"":7}","[409.57142857142856,418.47767857142856,0.2,409.57142857142856,418.47767857142856,102.5,409.57142857142856,418.47767857142856,202.8,368.57142857142856,393.47767857142856,307.3,208.57142857142856,251.47767857142856,407.4,106.57142857142857,129.47767857142856,507.4,98.57142857142857,104.47767857142857,608.2,113.57142857142857,108.47767857142857,712.5,683.5714285714286,176.47767857142856,812.6,1055.5714285714287,208.47767857142856,917.4,1055.5714285714287,208.47767857142856,1022.3,1055.5714285714287,208.47767857142856,1122.3,1055.5714285714287,208.47767857142856,1222.3,1055.5714285714287,208.47767857142856,1322.3,1055.5714285714287,208.47767857142856,1427.3,1055.5714285714287,208.47767857142856,1527.6,1055.5714285714287,208.47767857142856,1633,1055.5714285714287,208.47767857142856,1738.4,1055.5714285714287,208.47767857142856,1843,1055.5714285714287,208.47767857142856,1943.2,1055.5714285714287,208.47767857142856,2047.2,1055.5714285714287,208.47767857142856,2147.2,1055.5714285714287,208.47767857142856,2247.2,1055.5714285714287,208.47767857142856,2347.3,1055.5714285714287,208.47767857142856,2453.4,1055.5714285714287,208.47767857142856,2557.4,1055.5714285714287,208.47767857142856,2658.1,1055.5714285714287,208.47767857142856,2762.2,1055.5714285714287,208.47767857142856,2863,1055.5714285714287,208.47767857142856,2968,1055.5714285714287,208.47767857142856,3072.3,1055.5714285714287,208.47767857142856,3172.4,1055.5714285714287,208.47767857142856,3277.2,1055.5714285714287,208.47767857142856,3378.3,1055.5714285714287,208.47767857142856,3483.1,1055.5714285714287,208.47767857142856,3587.6,1055.5714285714287,208.47767857142856,3688.4,1055.5714285714287,208.47767857142856,3792.2,1055.5714285714287,208.47767857142856,3893,1055.5714285714287,208.47767857142856,3997.1,1055.5714285714287,208.47767857142856,4097.2,1055.5714285714287,208.47767857142856,4197.3,1055.5714285714287,208.47767857142856,4302.3,1055.5714285714287,208.47767857142856,4403.1,1055.5714285714287,208.47767857142856,4507.2,1055.5714285714287,208.47767857142856,4608.1,1055.5714285714287,208.47767857142856,4712.6,1055.5714285714287,208.47767857142856,4812.7,1055.5714285714287,208.47767857142856,4918]","[1370.7,1370.7,1000,0,370.7,""smooth"",""up"",""up"",""good_move"",4562.6,3191.8,2900.1,1370.8,291.7,""smooth"",""up"",""up"",""good_move"",6954.1,2391.3,2094,4562.8,297.3,""smooth"",""up"",""up"",""good_move"",9802.3,2848,2557.4,6954.3,290.6,""oops"",""left"",""right"",""bad_move"",13466.6,3664,3399.4,9802.6,264.6,""smooth"",""left"",""left"",""good_move"",16482.1,3015.4,2734.7,13466.7,280.7,""smooth"",""left"",""left"",""good_move"",18906.1,2423.8,2113.8,16482.3,310,""smooth"",""left"",""left"",""good_move"",21386.2,2480,2210.7,18906.2,269.3,""smooth"",""left"",""left"",""good_move""]","",""
"2203","","<div style=""width:500px;"">
  <p>What determined the result of this run?</p>
  </div>","100","html-slider-response","20","318217","0.0-5.0-1.2","147","1","2025-07-23 06:32:08","1f75c3e559b7213887762d5229550c2b","93.108.112.26","Mozilla/5.0 (Windows NT 10.0; Win64; x64) AppleWebKit/537.36 (KHTML, like Gecko) Chrome/138.0.0.0 Safari/537.36","WebKit","Chrome","138.0.0.0","Windows","10.0","https://app.prolific.com/","en-US,en;q=0.9","6140ef8d27499e70e8740918","683dba2a8a9dda3513610c04","688081db2c7a83a035c2908e","3","0","6140ef8d27499e70e8740918","3","0","2025-07-23T06:37:27.116Z","","","","","","","","","","","AttribQ","","50","","","","","","","","","","","","","","","","","","","","","","","","","","","","",""
"3968","","<div style=""width:500px;"">
  <p>How much control did you have over the ball?</p>
  </div>","100","html-slider-response","21","322186","0.0-5.0-2.2","147","1","2025-07-23 06:32:08","1f75c3e559b7213887762d5229550c2b","93.108.112.26","Mozilla/5.0 (Windows NT 10.0; Win64; x64) AppleWebKit/537.36 (KHTML, like Gecko) Chrome/138.0.0.0 Safari/537.36","WebKit","Chrome","138.0.0.0","Windows","10.0","https://app.prolific.com/","en-US,en;q=0.9","6140ef8d27499e70e8740918","683dba2a8a9dda3513610c04","688081db2c7a83a035c2908e","3","0","6140ef8d27499e70e8740918","3","0","2025-07-23T06:37:31.085Z","","","","","","","","","","","ControlQ","","50","","","","","","","","","","","","","","","","","","","","","","","","","","","","",""
"5322","","<div style=""width:500px;"">
  <p>How would you describe your current emotional state?</p>
  </div>","21","html-slider-response","22","327509","0.0-5.0-3.2","147","1","2025-07-23 06:32:08","1f75c3e559b7213887762d5229550c2b","93.108.112.26","Mozilla/5.0 (Windows NT 10.0; Win64; x64) AppleWebKit/537.36 (KHTML, like Gecko) Chrome/138.0.0.0 Safari/537.36","WebKit","Chrome","138.0.0.0","Windows","10.0","https://app.prolific.com/","en-US,en;q=0.9","6140ef8d27499e70e8740918","683dba2a8a9dda3513610c04","688081db2c7a83a035c2908e","3","0","6140ef8d27499e70e8740918","3","0","2025-07-23T06:37:36.408Z","","","","","","","","","","","StressQ","","50","","","","","","","","","","","","","","","","","","","","","","","","","","","","",""
"2101","","<div style=""width:500px;"">
  <p>What best describes how you currently feel?</p>
  </div>","69","html-slider-response","23","329611","0.0-5.0-4.2","147","1","2025-07-23 06:32:08","1f75c3e559b7213887762d5229550c2b","93.108.112.26","Mozilla/5.0 (Windows NT 10.0; Win64; x64) AppleWebKit/537.36 (KHTML, like Gecko) Chrome/138.0.0.0 Safari/537.36","WebKit","Chrome","138.0.0.0","Windows","10.0","https://app.prolific.com/","en-US,en;q=0.9","6140ef8d27499e70e8740918","683dba2a8a9dda3513610c04","688081db2c7a83a035c2908e","3","0","6140ef8d27499e70e8740918","3","0","2025-07-23T06:37:38.510Z","","","","","","","","","","","MotivationQ","","50","","","","","","","","","","","","","","","","","","","","","","","","","","","","",""
"","","","","ctl-task-cpt","24","372148","0.0-5.0-0.3","147","1","2025-07-23 06:32:08","1f75c3e559b7213887762d5229550c2b","93.108.112.26","Mozilla/5.0 (Windows NT 10.0; Win64; x64) AppleWebKit/537.36 (KHTML, like Gecko) Chrome/138.0.0.0 Safari/537.36","WebKit","Chrome","138.0.0.0","Windows","10.0","https://app.prolific.com/","en-US,en;q=0.9","6140ef8d27499e70e8740918","683dba2a8a9dda3513610c04","688081db2c7a83a035c2908e","3","0","6140ef8d27499e70e8740918","3","0","2025-07-23T06:38:21.048Z","","","","","","","","","","","","","","win-only","2","g1:SE,g2:NW","0.7","4","0","330760.1","924.8","5926.3","39520.2","1","4","4","6","2","-4","-4","16","20","0.12121212121212122","839.8","3000","-3015","[""left"",""up""]","{""num_key_presses"":10,""num_perfect"":7,""num_errors"":0,""num_randdir"":3,""num_randdir_good_moves"":0,""num_whilered"":0,""num_whileblue"":0,""num_blue"":1,""num_good_moves"":7}","[409.57142857142856,421.47767857142856,0.1,409.57142857142856,421.47767857142856,101.2,409.57142857142856,421.47767857142856,205.3,402.57142857142856,417.47767857142856,305.4,223.57142857142856,274.47767857142856,405.5,135.57142857142856,189.47767857142856,510.6,91.57142857142857,116.47767857142857,611,87.57142857142857,103.47767857142857,716.2,87.57142857142857,103.47767857142857,821.1,87.57142857142857,103.47767857142857,921.5,145.57142857142856,115.47767857142857,1025.5,780.5714285714286,164.47767857142856,1130.3,976.5714285714286,185.47767857142856,1231,976.5714285714286,185.47767857142856,1336.1,976.5714285714286,185.47767857142856,1440.5,976.5714285714286,185.47767857142856,1545.2,976.5714285714286,185.47767857142856,1645.6,976.5714285714286,185.47767857142856,1745.7,976.5714285714286,185.47767857142856,1846.6,976.5714285714286,185.47767857142856,1950.9,976.5714285714286,185.47767857142856,2051,976.5714285714286,185.47767857142856,2151,976.5714285714286,185.47767857142856,2251,976.5714285714286,185.47767857142856,2351,976.5714285714286,185.47767857142856,2451,976.5714285714286,185.47767857142856,2551,976.5714285714286,185.47767857142856,2651,976.5714285714286,185.47767857142856,2751,976.5714285714286,185.47767857142856,2851,976.5714285714286,185.47767857142856,2955.4,976.5714285714286,185.47767857142856,3061.1,976.5714285714286,185.47767857142856,3166.1,976.5714285714286,185.47767857142856,3271.4,976.5714285714286,185.47767857142856,3376.1,976.5714285714286,185.47767857142856,3480.3,976.5714285714286,185.47767857142856,3580.9,976.5714285714286,185.47767857142856,3681,976.5714285714286,185.47767857142856,3786,976.5714285714286,185.47767857142856,3890.3,976.5714285714286,185.47767857142856,3990.3,976.5714285714286,185.47767857142856,4091,976.5714285714286,185.47767857142856,4191.1,976.5714285714286,185.47767857142856,4295.4,976.5714285714286,185.47767857142856,4395.6,976.5714285714286,185.47767857142856,4501,976.5714285714286,185.47767857142856,4605.3,976.5714285714286,185.47767857142856,4706.1,976.5714285714286,185.47767857142856,4811,976.5714285714286,185.47767857142856,4915.5]","[1289.8,1289.8,1000,0,289.8,""smooth"",""up"",""up"",""good_move"",4473.9,3183.9,2923.3,1290,260.6,""smooth"",""up"",""up"",""good_move"",7074,2599.9,2280.2,4474.1,319.7,""smooth"",""left"",""left"",""good_move"",13657.6,6583.2,2471.3,10859.6,326.7,""smooth"",""up"",""up"",""good_move"",16745.9,3088.2,2776,13657.7,312.2,""oops"",""left"",""down"",""bad_move"",19617.8,2871.7,2567.3,16746.1,304.4,""smooth"",""left"",""left"",""good_move"",22377.6,2759.8,2415.9,19617.8,343.9,""smooth"",""left"",""left"",""good_move"",25137.5,2759.9,2481.1,22377.6,278.8,""oops"",""up"",""down"",""bad_move"",28369.5,3231.9,3001.2,25137.6,230.7,""smooth"",""up"",""up"",""good_move"",31209.5,2839.8,2573.1,28369.7,266.7,""oops"",""up"",""right"",""bad_move""]","",""
"5572","","<div style=""width:500px;"">
  <p>What determined the result of this run?</p>
  </div>","41","html-slider-response","25","377721","0.0-5.0-1.3","147","1","2025-07-23 06:32:08","1f75c3e559b7213887762d5229550c2b","93.108.112.26","Mozilla/5.0 (Windows NT 10.0; Win64; x64) AppleWebKit/537.36 (KHTML, like Gecko) Chrome/138.0.0.0 Safari/537.36","WebKit","Chrome","138.0.0.0","Windows","10.0","https://app.prolific.com/","en-US,en;q=0.9","6140ef8d27499e70e8740918","683dba2a8a9dda3513610c04","688081db2c7a83a035c2908e","3","0","6140ef8d27499e70e8740918","3","0","2025-07-23T06:38:26.620Z","","","","","","","","","","","AttribQ","","50","","","","","","","","","","","","","","","","","","","","","","","","","","","","",""
"3472","","<div style=""width:500px;"">
  <p>How much control did you have over the ball?</p>
  </div>","55","html-slider-response","26","381194","0.0-5.0-2.3","147","1","2025-07-23 06:32:08","1f75c3e559b7213887762d5229550c2b","93.108.112.26","Mozilla/5.0 (Windows NT 10.0; Win64; x64) AppleWebKit/537.36 (KHTML, like Gecko) Chrome/138.0.0.0 Safari/537.36","WebKit","Chrome","138.0.0.0","Windows","10.0","https://app.prolific.com/","en-US,en;q=0.9","6140ef8d27499e70e8740918","683dba2a8a9dda3513610c04","688081db2c7a83a035c2908e","3","0","6140ef8d27499e70e8740918","3","0","2025-07-23T06:38:30.093Z","","","","","","","","","","","ControlQ","","50","","","","","","","","","","","","","","","","","","","","","","","","","","","","",""
"2397","","<div style=""width:500px;"">
  <p>How would you describe your current emotional state?</p>
  </div>","19","html-slider-response","27","383592","0.0-5.0-3.3","147","1","2025-07-23 06:32:08","1f75c3e559b7213887762d5229550c2b","93.108.112.26","Mozilla/5.0 (Windows NT 10.0; Win64; x64) AppleWebKit/537.36 (KHTML, like Gecko) Chrome/138.0.0.0 Safari/537.36","WebKit","Chrome","138.0.0.0","Windows","10.0","https://app.prolific.com/","en-US,en;q=0.9","6140ef8d27499e70e8740918","683dba2a8a9dda3513610c04","688081db2c7a83a035c2908e","3","0","6140ef8d27499e70e8740918","3","0","2025-07-23T06:38:32.491Z","","","","","","","","","","","StressQ","","50","","","","","","","","","","","","","","","","","","","","","","","","","","","","",""
"1859","","<div style=""width:500px;"">
  <p>What best describes how you currently feel?</p>
  </div>","71","html-slider-response","28","385452","0.0-5.0-4.3","147","1","2025-07-23 06:32:08","1f75c3e559b7213887762d5229550c2b","93.108.112.26","Mozilla/5.0 (Windows NT 10.0; Win64; x64) AppleWebKit/537.36 (KHTML, like Gecko) Chrome/138.0.0.0 Safari/537.36","WebKit","Chrome","138.0.0.0","Windows","10.0","https://app.prolific.com/","en-US,en;q=0.9","6140ef8d27499e70e8740918","683dba2a8a9dda3513610c04","688081db2c7a83a035c2908e","3","0","6140ef8d27499e70e8740918","3","0","2025-07-23T06:38:34.351Z","","","","","","","","","","","MotivationQ","","50","","","","","","","","","","","","","","","","","","","","","","","","","","","","",""
"","","","","ctl-task-cpt","29","427524","0.0-5.0-0.4","147","1","2025-07-23 06:32:08","1f75c3e559b7213887762d5229550c2b","93.108.112.26","Mozilla/5.0 (Windows NT 10.0; Win64; x64) AppleWebKit/537.36 (KHTML, like Gecko) Chrome/138.0.0.0 Safari/537.36","WebKit","Chrome","138.0.0.0","Windows","10.0","https://app.prolific.com/","en-US,en;q=0.9","6140ef8d27499e70e8740918","683dba2a8a9dda3513610c04","688081db2c7a83a035c2908e","3","0","6140ef8d27499e70e8740918","3","0","2025-07-23T06:39:16.423Z","","","","","","","","","","","","","","win-only","1","g1:NE,g2:SW","0.6","5","0","386600.9","924.8","5925.4","39055.3","1","4","4","6","1","1","1","17","16","0.12878787878787878","776.1","3000","430","[""up"",""right""]","{""num_key_presses"":8,""num_perfect"":4,""num_errors"":0,""num_randdir"":4,""num_randdir_good_moves"":2,""num_whilered"":0,""num_whileblue"":0,""num_blue"":3,""num_good_moves"":6}","[416.57142857142856,423.47767857142856,0.1,416.57142857142856,423.47767857142856,100.4,416.57142857142856,423.47767857142856,200.4,416.57142857142856,423.47767857142856,300.8,540.5714285714286,277.47767857142856,405.9,676.5714285714286,151.47767857142856,505.9,695.5714285714286,134.47767857142856,606,724.5714285714286,110.47767857142857,710.4,743.5714285714286,96.47767857142857,811.1,796.5714285714286,134.47767857142856,916.4,1027.5714285714287,251.47767857142856,1016.4,1047.5714285714287,257.47767857142856,1120.4,1047.5714285714287,257.47767857142856,1220.5,1047.5714285714287,257.47767857142856,1325.4,1047.5714285714287,257.47767857142856,1425.7,1047.5714285714287,257.47767857142856,1526.3,1047.5714285714287,257.47767857142856,1630.5,1047.5714285714287,257.47767857142856,1730.7,1047.5714285714287,257.47767857142856,1831.3,1047.5714285714287,257.47767857142856,1935.6,1047.5714285714287,257.47767857142856,2035.6,1047.5714285714287,257.47767857142856,2140.4,1047.5714285714287,257.47767857142856,2240.6,1047.5714285714287,257.47767857142856,2341,1047.5714285714287,257.47767857142856,2445.5,1047.5714285714287,257.47767857142856,2545.5,1047.5714285714287,257.47767857142856,2650.5,1047.5714285714287,257.47767857142856,2751.2,1047.5714285714287,257.47767857142856,2855.5,1047.5714285714287,257.47767857142856,2955.7,1047.5714285714287,257.47767857142856,3061.3,1047.5714285714287,257.47767857142856,3165.5,1047.5714285714287,257.47767857142856,3265.5,1047.5714285714287,257.47767857142856,3366.3,1047.5714285714287,257.47767857142856,3471.3,1047.5714285714287,257.47767857142856,3576.4,1047.5714285714287,257.47767857142856,3680.6,1047.5714285714287,257.47767857142856,3786.2,1047.5714285714287,257.47767857142856,3886.2,1047.5714285714287,257.47767857142856,3990.9,1047.5714285714287,257.47767857142856,4091.3,1047.5714285714287,257.47767857142856,4196.1,1047.5714285714287,257.47767857142856,4301.3,1047.5714285714287,257.47767857142856,4405.4,1047.5714285714287,257.47767857142856,4505.4,1047.5714285714287,257.47767857142856,4605.7,1047.5714285714287,257.47767857142856,4705.7,1047.5714285714287,257.47767857142856,4810.7,1047.5714285714287,257.47767857142856,4910.7]","[5377.3,5377.3,3009.9,2010.6,356.8,""smooth"",""up"",""up"",""good_move"",7649.6,2272.1,1964.1,5377.5,308,""oops"",""right"",""left"",""bad_move"",11321.3,3671.5,3383.8,7649.8,287.7,""smooth"",""up"",""up"",""good_move"",18193.2,6871.8,2952.6,14980.4,260.2,""smooth"",""right"",""right"",""good_move"",24713.3,6519.9,2831.9,21565.7,315.7,""oops"",""right"",""left"",""bad_move"",27921.4,3207.9,2762.5,24713.5,445.4,""oops"",""right"",""right"",""good_move"",30449.5,2527.8,2161,27921.7,366.8,""oops"",""right"",""right"",""good_move"",33041.5,2591.9,2317.4,30449.6,274.5,""smooth"",""right"",""right"",""good_move""]","",""
"7909","","<div style=""width:500px;"">
  <p>What determined the result of this run?</p>
  </div>","61","html-slider-response","30","435434","0.0-5.0-1.4","147","1","2025-07-23 06:32:08","1f75c3e559b7213887762d5229550c2b","93.108.112.26","Mozilla/5.0 (Windows NT 10.0; Win64; x64) AppleWebKit/537.36 (KHTML, like Gecko) Chrome/138.0.0.0 Safari/537.36","WebKit","Chrome","138.0.0.0","Windows","10.0","https://app.prolific.com/","en-US,en;q=0.9","6140ef8d27499e70e8740918","683dba2a8a9dda3513610c04","688081db2c7a83a035c2908e","3","0","6140ef8d27499e70e8740918","3","0","2025-07-23T06:39:24.333Z","","","","","","","","","","","AttribQ","","50","","","","","","","","","","","","","","","","","","","","","","","","","","","","",""
"3102","","<div style=""width:500px;"">
  <p>How much control did you have over the ball?</p>
  </div>","63","html-slider-response","31","438537","0.0-5.0-2.4","147","1","2025-07-23 06:32:08","1f75c3e559b7213887762d5229550c2b","93.108.112.26","Mozilla/5.0 (Windows NT 10.0; Win64; x64) AppleWebKit/537.36 (KHTML, like Gecko) Chrome/138.0.0.0 Safari/537.36","WebKit","Chrome","138.0.0.0","Windows","10.0","https://app.prolific.com/","en-US,en;q=0.9","6140ef8d27499e70e8740918","683dba2a8a9dda3513610c04","688081db2c7a83a035c2908e","3","0","6140ef8d27499e70e8740918","3","0","2025-07-23T06:39:27.436Z","","","","","","","","","","","ControlQ","","50","","","","","","","","","","","","","","","","","","","","","","","","","","","","",""
"4551","","<div style=""width:500px;"">
  <p>How would you describe your current emotional state?</p>
  </div>","27","html-slider-response","32","443089","0.0-5.0-3.4","147","1","2025-07-23 06:32:08","1f75c3e559b7213887762d5229550c2b","93.108.112.26","Mozilla/5.0 (Windows NT 10.0; Win64; x64) AppleWebKit/537.36 (KHTML, like Gecko) Chrome/138.0.0.0 Safari/537.36","WebKit","Chrome","138.0.0.0","Windows","10.0","https://app.prolific.com/","en-US,en;q=0.9","6140ef8d27499e70e8740918","683dba2a8a9dda3513610c04","688081db2c7a83a035c2908e","3","0","6140ef8d27499e70e8740918","3","0","2025-07-23T06:39:31.988Z","","","","","","","","","","","StressQ","","50","","","","","","","","","","","","","","","","","","","","","","","","","","","","",""
"2523","","<div style=""width:500px;"">
  <p>What best describes how you currently feel?</p>
  </div>","77","html-slider-response","33","445612","0.0-5.0-4.4","147","1","2025-07-23 06:32:08","1f75c3e559b7213887762d5229550c2b","93.108.112.26","Mozilla/5.0 (Windows NT 10.0; Win64; x64) AppleWebKit/537.36 (KHTML, like Gecko) Chrome/138.0.0.0 Safari/537.36","WebKit","Chrome","138.0.0.0","Windows","10.0","https://app.prolific.com/","en-US,en;q=0.9","6140ef8d27499e70e8740918","683dba2a8a9dda3513610c04","688081db2c7a83a035c2908e","3","0","6140ef8d27499e70e8740918","3","0","2025-07-23T06:39:34.511Z","","","","","","","","","","","MotivationQ","","50","","","","","","","","","","","","","","","","","","","","","","","","","","","","",""
"","","","","ctl-task-cpt","34","489019","0.0-5.0-0.5","147","1","2025-07-23 06:32:08","1f75c3e559b7213887762d5229550c2b","93.108.112.26","Mozilla/5.0 (Windows NT 10.0; Win64; x64) AppleWebKit/537.36 (KHTML, like Gecko) Chrome/138.0.0.0 Safari/537.36","WebKit","Chrome","138.0.0.0","Windows","10.0","https://app.prolific.com/","en-US,en;q=0.9","6140ef8d27499e70e8740918","683dba2a8a9dda3513610c04","688081db2c7a83a035c2908e","3","0","6140ef8d27499e70e8740918","3","0","2025-07-23T06:40:17.918Z","","","","","","","","","","","","","","win-only","3","g1:SW,g2:NE","0.5","6","0","446760.8","1501.9","6505.8","40385.3","1","4","8","6","1","-1","-1","16","17","0.12121212121212122","740.9","3000","-3015","[""down"",""left""]","{""num_key_presses"":9,""num_perfect"":5,""num_errors"":0,""num_randdir"":4,""num_randdir_good_moves"":1,""num_whilered"":0,""num_whileblue"":0,""num_blue"":2,""num_good_moves"":6}","[421.57142857142856,416.47767857142856,0.1,421.57142857142856,416.47767857142856,103.4,420.57142857142856,419.47767857142856,203.5,420.57142857142856,419.47767857142856,303.9,298.57142857142856,502.47767857142856,408.3,90.57142857142857,673.4776785714286,509.3,78.57142857142857,693.4776785714286,613.5,67.57142857142857,714.4776785714286,713.7,64.57142857142857,721.4776785714286,818.7,182.57142857142856,732.4776785714286,923.3,911.5714285714286,645.4776785714286,1023.3,1375.5714285714287,592.4776785714286,1124.1,1375.5714285714287,591.4776785714286,1228.3,1375.5714285714287,591.4776785714286,1328.8,1375.5714285714287,591.4776785714286,1433.4,1375.5714285714287,591.4776785714286,1538.4,1375.5714285714287,591.4776785714286,1638.8,1375.5714285714287,591.4776785714286,1743.3,1375.5714285714287,591.4776785714286,1843.5,1375.5714285714287,591.4776785714286,1943.4,1375.5714285714287,591.4776785714286,2043.4,1375.5714285714287,591.4776785714286,2143.8,1375.5714285714287,591.4776785714286,2248.4,1375.5714285714287,591.4776785714286,2348.7,1375.5714285714287,591.4776785714286,2453.5,1375.5714285714287,591.4776785714286,2553.5,1375.5714285714287,591.4776785714286,2653.8,1375.5714285714287,591.4776785714286,2753.8,1375.5714285714287,591.4776785714286,2854.2,1375.5714285714287,591.4776785714286,2958.3,1375.5714285714287,591.4776785714286,3058.4,1375.5714285714287,591.4776785714286,3158.4,1375.5714285714287,591.4776785714286,3258.6,1375.5714285714287,591.4776785714286,3364,1375.5714285714287,591.4776785714286,3468.3,1375.5714285714287,591.4776785714286,3568.7,1375.5714285714287,591.4776785714286,3668.9,1375.5714285714287,591.4776785714286,3773.9,1375.5714285714287,591.4776785714286,3874.1,1375.5714285714287,591.4776785714286,3978.4,1375.5714285714287,591.4776785714286,4083.5,1375.5714285714287,591.4776785714286,4188.4,1375.5714285714287,591.4776785714286,4289.3,1375.5714285714287,591.4776785714286,4395.6,1375.5714285714287,591.4776785714286,4499.2,1375.5714285714287,591.4776785714286,4599.3,1375.5714285714287,591.4776785714286,4703.7,1375.5714285714287,591.4776785714286,4808.5,1375.5714285714287,591.4776785714286,4908.5]","[1308.6,1308.6,1000,0,308.6,""smooth"",""down"",""down"",""good_move"",4372.5,3063.6,2652.5,1308.9,411.1,""smooth"",""down"",""down"",""good_move"",8012.7,3639.9,3385.1,4372.8,254.8,""oops"",""left"",""right"",""bad_move"",10308.7,2295.7,1978.2,8013,317.5,""oops"",""left"",""left"",""good_move"",16852.5,6543.5,2903.5,13644.6,304.4,""oops"",""left"",""right"",""bad_move"",19796.4,2943.6,2640,16852.8,303.6,""smooth"",""left"",""left"",""good_move"",25476.4,5679.8,1602.2,23564.6,309.6,""oops"",""left"",""right"",""bad_move"",28780.4,3303.9,2914.5,25476.6,389.3,""smooth"",""left"",""left"",""good_move"",31276.4,2495.9,2185.3,28780.5,310.6,""smooth"",""left"",""left"",""good_move""]","",""
"5915","","<div style=""width:500px;"">
  <p>What determined the result of this run?</p>
  </div>","42","html-slider-response","35","494935","0.0-5.0-1.5","147","1","2025-07-23 06:32:08","1f75c3e559b7213887762d5229550c2b","93.108.112.26","Mozilla/5.0 (Windows NT 10.0; Win64; x64) AppleWebKit/537.36 (KHTML, like Gecko) Chrome/138.0.0.0 Safari/537.36","WebKit","Chrome","138.0.0.0","Windows","10.0","https://app.prolific.com/","en-US,en;q=0.9","6140ef8d27499e70e8740918","683dba2a8a9dda3513610c04","688081db2c7a83a035c2908e","3","0","6140ef8d27499e70e8740918","3","0","2025-07-23T06:40:23.834Z","","","","","","","","","","","AttribQ","","50","","","","","","","","","","","","","","","","","","","","","","","","","","","","",""
"4768","","<div style=""width:500px;"">
  <p>How much control did you have over the ball?</p>
  </div>","57","html-slider-response","36","499704","0.0-5.0-2.5","147","1","2025-07-23 06:32:08","1f75c3e559b7213887762d5229550c2b","93.108.112.26","Mozilla/5.0 (Windows NT 10.0; Win64; x64) AppleWebKit/537.36 (KHTML, like Gecko) Chrome/138.0.0.0 Safari/537.36","WebKit","Chrome","138.0.0.0","Windows","10.0","https://app.prolific.com/","en-US,en;q=0.9","6140ef8d27499e70e8740918","683dba2a8a9dda3513610c04","688081db2c7a83a035c2908e","3","0","6140ef8d27499e70e8740918","3","0","2025-07-23T06:40:28.603Z","","","","","","","","","","","ControlQ","","50","","","","","","","","","","","","","","","","","","","","","","","","","","","","",""
"2067","","<div style=""width:500px;"">
  <p>How would you describe your current emotional state?</p>
  </div>","23","html-slider-response","37","501772","0.0-5.0-3.5","147","1","2025-07-23 06:32:08","1f75c3e559b7213887762d5229550c2b","93.108.112.26","Mozilla/5.0 (Windows NT 10.0; Win64; x64) AppleWebKit/537.36 (KHTML, like Gecko) Chrome/138.0.0.0 Safari/537.36","WebKit","Chrome","138.0.0.0","Windows","10.0","https://app.prolific.com/","en-US,en;q=0.9","6140ef8d27499e70e8740918","683dba2a8a9dda3513610c04","688081db2c7a83a035c2908e","3","0","6140ef8d27499e70e8740918","3","0","2025-07-23T06:40:30.671Z","","","","","","","","","","","StressQ","","50","","","","","","","","","","","","","","","","","","","","","","","","","","","","",""
"1845","","<div style=""width:500px;"">
  <p>What best describes how you currently feel?</p>
  </div>","76","html-slider-response","38","503618","0.0-5.0-4.5","147","1","2025-07-23 06:32:08","1f75c3e559b7213887762d5229550c2b","93.108.112.26","Mozilla/5.0 (Windows NT 10.0; Win64; x64) AppleWebKit/537.36 (KHTML, like Gecko) Chrome/138.0.0.0 Safari/537.36","WebKit","Chrome","138.0.0.0","Windows","10.0","https://app.prolific.com/","en-US,en;q=0.9","6140ef8d27499e70e8740918","683dba2a8a9dda3513610c04","688081db2c7a83a035c2908e","3","0","6140ef8d27499e70e8740918","3","0","2025-07-23T06:40:32.517Z","","","","","","","","","","","MotivationQ","","50","","","","","","","","","","","","","","","","","","","","","","","","","","","","",""
"","","","","ctl-task-cpt","39","530870","0.0-5.0-0.6","147","1","2025-07-23 06:32:08","1f75c3e559b7213887762d5229550c2b","93.108.112.26","Mozilla/5.0 (Windows NT 10.0; Win64; x64) AppleWebKit/537.36 (KHTML, like Gecko) Chrome/138.0.0.0 Safari/537.36","WebKit","Chrome","138.0.0.0","Windows","10.0","https://app.prolific.com/","en-US,en;q=0.9","6140ef8d27499e70e8740918","683dba2a8a9dda3513610c04","688081db2c7a83a035c2908e","3","0","6140ef8d27499e70e8740918","3","0","2025-07-23T06:40:59.770Z","","","","","","","","","","","","","","win-only","2","g1:SE,g2:NW","0.4","7","0","504761.6","2279.2","7280.4","24235.5","1","4","8","6","1","1","1","17","16","0.12878787878787878","713.2","3000","1615","[""down"",""right""]","{""num_key_presses"":4,""num_perfect"":2,""num_errors"":0,""num_randdir"":2,""num_randdir_good_moves"":2,""num_whilered"":0,""num_whileblue"":0,""num_blue"":2,""num_good_moves"":4}","[420.57142857142856,418.47767857142856,0.2,420.57142857142856,418.47767857142856,101.2,420.57142857142856,418.47767857142856,206.4,413.57142857142856,418.47767857142856,306.4,419.57142857142856,446.47767857142856,410.9,684.5714285714286,762.4776785714286,511.2,715.5714285714286,770.4776785714286,611.2,739.5714285714286,778.4776785714286,711.3,778.5714285714286,779.4776785714286,816.4,1122.5714285714287,751.4776785714286,917,1375.5714285714287,724.4776785714286,1021.5,1375.5714285714287,724.4776785714286,1127.1,1375.5714285714287,724.4776785714286,1231.1,1375.5714285714287,724.4776785714286,1336.1,1375.5714285714287,724.4776785714286,1436.2,1375.5714285714287,724.4776785714286,1536.8,1375.5714285714287,724.4776785714286,1641,1375.5714285714287,724.4776785714286,1741.1,1375.5714285714287,724.4776785714286,1841.2,1375.5714285714287,724.4776785714286,1946.2,1375.5714285714287,724.4776785714286,2046.8,1375.5714285714287,724.4776785714286,2151,1375.5714285714287,724.4776785714286,2251.4,1375.5714285714287,724.4776785714286,2356.3,1375.5714285714287,724.4776785714286,2456.9,1375.5714285714287,724.4776785714286,2561.1,1375.5714285714287,724.4776785714286,2661.1,1375.5714285714287,724.4776785714286,2766.1,1375.5714285714287,724.4776785714286,2871.4,1375.5714285714287,724.4776785714286,2976.4,1375.5714285714287,724.4776785714286,3081.1,1375.5714285714287,724.4776785714286,3181.4,1375.5714285714287,724.4776785714286,3286.1,1375.5714285714287,724.4776785714286,3391.6,1375.5714285714287,724.4776785714286,3496.1,1375.5714285714287,724.4776785714286,3596.5,1375.5714285714287,724.4776785714286,3696.6,1375.5714285714287,724.4776785714286,3801.9,1375.5714285714287,724.4776785714286,3906.4,1375.5714285714287,724.4776785714286,4011.7,1375.5714285714287,724.4776785714286,4116,1375.5714285714287,724.4776785714286,4216.1,1375.5714285714287,724.4776785714286,4321.9,1375.5714285714287,724.4776785714286,4426.5,1375.5714285714287,724.4776785714286,4526.5,1375.5714285714287,724.4776785714286,4626.5,1375.5714285714287,724.4776785714286,4727.7,1375.5714285714287,724.4776785714286,4831.5,1375.5714285714287,724.4776785714286,4931.5]","[7804.8,7804.8,2424.4,5015.5,364.9,""oops"",""right"",""down"",""good_move"",10500.6,2695.5,2306.2,7805.1,389.3,""oops"",""right"",""down"",""good_move"",14212.4,3711.7,3387.8,10500.7,323.9,""smooth"",""right"",""right"",""good_move"",16868.6,2656,2324.6,14212.6,331.4,""smooth"",""right"",""right"",""good_move""]","",""
"3206","","<div style=""width:500px;"">
  <p>What determined the result of this run?</p>
  </div>","37","html-slider-response","40","534077","0.0-5.0-1.6","147","1","2025-07-23 06:32:08","1f75c3e559b7213887762d5229550c2b","93.108.112.26","Mozilla/5.0 (Windows NT 10.0; Win64; x64) AppleWebKit/537.36 (KHTML, like Gecko) Chrome/138.0.0.0 Safari/537.36","WebKit","Chrome","138.0.0.0","Windows","10.0","https://app.prolific.com/","en-US,en;q=0.9","6140ef8d27499e70e8740918","683dba2a8a9dda3513610c04","688081db2c7a83a035c2908e","3","0","6140ef8d27499e70e8740918","3","0","2025-07-23T06:41:02.976Z","","","","","","","","","","","AttribQ","","50","","","","","","","","","","","","","","","","","","","","","","","","","","","","",""
"6229","","<div style=""width:500px;"">
  <p>How much control did you have over the ball?</p>
  </div>","41","html-slider-response","41","540307","0.0-5.0-2.6","147","1","2025-07-23 06:32:08","1f75c3e559b7213887762d5229550c2b","93.108.112.26","Mozilla/5.0 (Windows NT 10.0; Win64; x64) AppleWebKit/537.36 (KHTML, like Gecko) Chrome/138.0.0.0 Safari/537.36","WebKit","Chrome","138.0.0.0","Windows","10.0","https://app.prolific.com/","en-US,en;q=0.9","6140ef8d27499e70e8740918","683dba2a8a9dda3513610c04","688081db2c7a83a035c2908e","3","0","6140ef8d27499e70e8740918","3","0","2025-07-23T06:41:09.206Z","","","","","","","","","","","ControlQ","","50","","","","","","","","","","","","","","","","","","","","","","","","","","","","",""
"2403","","<div style=""width:500px;"">
  <p>How would you describe your current emotional state?</p>
  </div>","27","html-slider-response","42","542711","0.0-5.0-3.6","147","1","2025-07-23 06:32:08","1f75c3e559b7213887762d5229550c2b","93.108.112.26","Mozilla/5.0 (Windows NT 10.0; Win64; x64) AppleWebKit/537.36 (KHTML, like Gecko) Chrome/138.0.0.0 Safari/537.36","WebKit","Chrome","138.0.0.0","Windows","10.0","https://app.prolific.com/","en-US,en;q=0.9","6140ef8d27499e70e8740918","683dba2a8a9dda3513610c04","688081db2c7a83a035c2908e","3","0","6140ef8d27499e70e8740918","3","0","2025-07-23T06:41:11.610Z","","","","","","","","","","","StressQ","","50","","","","","","","","","","","","","","","","","","","","","","","","","","","","",""
"1519","","<div style=""width:500px;"">
  <p>What best describes how you currently feel?</p>
  </div>","78","html-slider-response","43","544235","0.0-5.0-4.6","147","1","2025-07-23 06:32:08","1f75c3e559b7213887762d5229550c2b","93.108.112.26","Mozilla/5.0 (Windows NT 10.0; Win64; x64) AppleWebKit/537.36 (KHTML, like Gecko) Chrome/138.0.0.0 Safari/537.36","WebKit","Chrome","138.0.0.0","Windows","10.0","https://app.prolific.com/","en-US,en;q=0.9","6140ef8d27499e70e8740918","683dba2a8a9dda3513610c04","688081db2c7a83a035c2908e","3","0","6140ef8d27499e70e8740918","3","0","2025-07-23T06:41:13.134Z","","","","","","","","","","","MotivationQ","","50","","","","","","","","","","","","","","","","","","","","","","","","","","","","",""
"","","","","ctl-task-cpt","44","588258","0.0-5.0-0.7","147","1","2025-07-23 06:32:08","1f75c3e559b7213887762d5229550c2b","93.108.112.26","Mozilla/5.0 (Windows NT 10.0; Win64; x64) AppleWebKit/537.36 (KHTML, like Gecko) Chrome/138.0.0.0 Safari/537.36","WebKit","Chrome","138.0.0.0","Windows","10.0","https://app.prolific.com/","en-US,en;q=0.9","6140ef8d27499e70e8740918","683dba2a8a9dda3513610c04","688081db2c7a83a035c2908e","3","0","6140ef8d27499e70e8740918","3","0","2025-07-23T06:41:57.157Z","","","","","","","","","","","","","","win-only","2","g1:SE,g2:NW","0.3","8","0","545373.8","923.7","5925.4","41005.4","1","4","4","6","1","-1","-2","15","17","0.11363636363636363","625.1","3000","-3015","[""down"",""right""]","{""num_key_presses"":11,""num_perfect"":3,""num_errors"":1,""num_randdir"":7,""num_randdir_good_moves"":4,""num_whilered"":0,""num_whileblue"":1,""num_blue"":2,""num_good_moves"":7}","[416.57142857142856,411.47767857142856,0.1,416.57142857142856,411.47767857142856,102.3,416.57142857142856,411.47767857142856,202.5,416.57142857142856,411.47767857142856,307,544.5714285714286,561.4776785714286,407,696.5714285714286,679.4776785714286,507.3,730.5714285714286,714.4776785714286,611.4,741.5714285714286,730.4776785714286,711.5,908.5714285714286,713.4776785714286,811.9,1144.5714285714287,648.4776785714286,912.5,1155.5714285714287,644.4776785714286,1016.8,1155.5714285714287,644.4776785714286,1116.8,1155.5714285714287,644.4776785714286,1222,1155.5714285714287,644.4776785714286,1322.4,1155.5714285714287,644.4776785714286,1427.4,1155.5714285714287,644.4776785714286,1527.4,1155.5714285714287,644.4776785714286,1632.4,1155.5714285714287,644.4776785714286,1737.4,1155.5714285714287,644.4776785714286,1841.4,1155.5714285714287,644.4776785714286,1941.8,1155.5714285714287,644.4776785714286,2042,1155.5714285714287,644.4776785714286,2146.9,1155.5714285714287,644.4776785714286,2252.2,1155.5714285714287,644.4776785714286,2352.6,1155.5714285714287,644.4776785714286,2457.3,1155.5714285714287,644.4776785714286,2562.4,1155.5714285714287,644.4776785714286,2666.7,1155.5714285714287,644.4776785714286,2772,1155.5714285714287,644.4776785714286,2877.1,1155.5714285714287,644.4776785714286,2982.4,1155.5714285714287,644.4776785714286,3082.4,1155.5714285714287,644.4776785714286,3186.4,1155.5714285714287,644.4776785714286,3287,1155.5714285714287,644.4776785714286,3392.3,1155.5714285714287,644.4776785714286,3492.4,1155.5714285714287,644.4776785714286,3597.4,1155.5714285714287,644.4776785714286,3701.5,1155.5714285714287,644.4776785714286,3801.9,1155.5714285714287,644.4776785714286,3902,1155.5714285714287,644.4776785714286,4006.5,1155.5714285714287,644.4776785714286,4107.3,1155.5714285714287,644.4776785714286,4212.2,1155.5714285714287,644.4776785714286,4312.3,1155.5714285714287,644.4776785714286,4416.8,1155.5714285714287,644.4776785714286,4516.8,1155.5714285714287,644.4776785714286,4617.1,1155.5714285714287,644.4776785714286,4722.4,1155.5714285714287,644.4776785714286,4827.6,1155.5714285714287,644.4776785714286,4931.4]","[1307.1,1307.1,1000,0,307.1,""oops"",""down"",""right"",""good_move"",3859.1,2551.8,2267.5,1307.3,284.3,""smooth"",""down"",""down"",""good_move"",6331,2471.7,2176.4,3859.3,295.3,""while_blue"",""down"",""left"",""bad_move"",9539,3207.7,2821.4,6331.3,386.3,""oops"",""right"",""left"",""bad_move"",12170.9,2631.8,2306.7,9539.1,325.1,""oops"",""right"",""left"",""bad_move"",15235.1,3064,2779.8,12171.1,284.2,""smooth"",""down"",""down"",""good_move"",17194.8,1959.5,1651.3,15235.3,308.2,""oops"",""right"",""right"",""good_move"",20034.8,2839.8,2610.7,17195,229.1,""oops"",""right"",""right"",""good_move"",27250.8,7215.8,2568.7,24335.5,346.6,""oops"",""right"",""right"",""good_move"",30002.8,2751.8,2484.9,27251,266.9,""oops"",""right"",""left"",""bad_move"",32842.7,2839.6,2615.4,30003.1,224.2,""smooth"",""right"",""right"",""good_move""]","",""
"4227","","<div style=""width:500px;"">
  <p>What determined the result of this run?</p>
  </div>","32","html-slider-response","45","592486","0.0-5.0-1.7","147","1","2025-07-23 06:32:08","1f75c3e559b7213887762d5229550c2b","93.108.112.26","Mozilla/5.0 (Windows NT 10.0; Win64; x64) AppleWebKit/537.36 (KHTML, like Gecko) Chrome/138.0.0.0 Safari/537.36","WebKit","Chrome","138.0.0.0","Windows","10.0","https://app.prolific.com/","en-US,en;q=0.9","6140ef8d27499e70e8740918","683dba2a8a9dda3513610c04","688081db2c7a83a035c2908e","3","0","6140ef8d27499e70e8740918","3","0","2025-07-23T06:42:01.385Z","","","","","","","","","","","AttribQ","","50","","","","","","","","","","","","","","","","","","","","","","","","","","","","",""
"2846","","<div style=""width:500px;"">
  <p>How much control did you have over the ball?</p>
  </div>","39","html-slider-response","46","595332","0.0-5.0-2.7","147","1","2025-07-23 06:32:08","1f75c3e559b7213887762d5229550c2b","93.108.112.26","Mozilla/5.0 (Windows NT 10.0; Win64; x64) AppleWebKit/537.36 (KHTML, like Gecko) Chrome/138.0.0.0 Safari/537.36","WebKit","Chrome","138.0.0.0","Windows","10.0","https://app.prolific.com/","en-US,en;q=0.9","6140ef8d27499e70e8740918","683dba2a8a9dda3513610c04","688081db2c7a83a035c2908e","3","0","6140ef8d27499e70e8740918","3","0","2025-07-23T06:42:04.232Z","","","","","","","","","","","ControlQ","","50","","","","","","","","","","","","","","","","","","","","","","","","","","","","",""
"2818","","<div style=""width:500px;"">
  <p>How would you describe your current emotional state?</p>
  </div>","38","html-slider-response","47","598151","0.0-5.0-3.7","147","1","2025-07-23 06:32:08","1f75c3e559b7213887762d5229550c2b","93.108.112.26","Mozilla/5.0 (Windows NT 10.0; Win64; x64) AppleWebKit/537.36 (KHTML, like Gecko) Chrome/138.0.0.0 Safari/537.36","WebKit","Chrome","138.0.0.0","Windows","10.0","https://app.prolific.com/","en-US,en;q=0.9","6140ef8d27499e70e8740918","683dba2a8a9dda3513610c04","688081db2c7a83a035c2908e","3","0","6140ef8d27499e70e8740918","3","0","2025-07-23T06:42:07.051Z","","","","","","","","","","","StressQ","","50","","","","","","","","","","","","","","","","","","","","","","","","","","","","",""
"2532","","<div style=""width:500px;"">
  <p>What best describes how you currently feel?</p>
  </div>","84","html-slider-response","48","600684","0.0-5.0-4.7","147","1","2025-07-23 06:32:08","1f75c3e559b7213887762d5229550c2b","93.108.112.26","Mozilla/5.0 (Windows NT 10.0; Win64; x64) AppleWebKit/537.36 (KHTML, like Gecko) Chrome/138.0.0.0 Safari/537.36","WebKit","Chrome","138.0.0.0","Windows","10.0","https://app.prolific.com/","en-US,en;q=0.9","6140ef8d27499e70e8740918","683dba2a8a9dda3513610c04","688081db2c7a83a035c2908e","3","0","6140ef8d27499e70e8740918","3","0","2025-07-23T06:42:09.584Z","","","","","","","","","","","MotivationQ","","50","","","","","","","","","","","","","","","","","","","","","","","","","","","","",""
"","","","","ctl-task-cpt","49","649617","0.0-5.0-0.8","147","1","2025-07-23 06:32:08","1f75c3e559b7213887762d5229550c2b","93.108.112.26","Mozilla/5.0 (Windows NT 10.0; Win64; x64) AppleWebKit/537.36 (KHTML, like Gecko) Chrome/138.0.0.0 Safari/537.36","WebKit","Chrome","138.0.0.0","Windows","10.0","https://app.prolific.com/","en-US,en;q=0.9","6140ef8d27499e70e8740918","683dba2a8a9dda3513610c04","688081db2c7a83a035c2908e","3","0","6140ef8d27499e70e8740918","3","0","2025-07-23T06:42:58.516Z","","","","","","","","","","","","","","win-only","1","g1:NE,g2:SW","0.2","9","0","601823.7","1838.7","6840.5","45910.9","1","4","8","6","1","-1","-2","13","15","0.09848484848484848","599","3000","-3015","[""up"",""right""]","{""num_key_presses"":10,""num_perfect"":2,""num_errors"":1,""num_randdir"":7,""num_randdir_good_moves"":4,""num_whilered"":0,""num_whileblue"":1,""num_blue"":4,""num_good_moves"":6}","[412.57142857142856,410.47767857142856,0.1,412.57142857142856,412.47767857142856,101.5,413.57142857142856,414.47767857142856,201.6,420.57142857142856,414.47767857142856,301.8,693.5714285714286,208.47767857142856,406.5,763.5714285714286,134.47767857142856,506.9,767.5714285714286,113.47767857142857,611.8,768.5714285714286,113.47767857142857,712.4,905.5714285714286,124.47767857142857,816.6,937.5714285714286,131.47767857142856,917.2,937.5714285714286,131.47767857142856,1022.3,937.5714285714286,131.47767857142856,1122.3,937.5714285714286,131.47767857142856,1222.4,937.5714285714286,131.47767857142856,1326.9,937.5714285714286,131.47767857142856,1426.8,937.5714285714286,131.47767857142856,1527,937.5714285714286,131.47767857142856,1632,937.5714285714286,131.47767857142856,1737.1,937.5714285714286,131.47767857142856,1842.4,937.5714285714286,131.47767857142856,1946.6,937.5714285714286,131.47767857142856,2046.7,937.5714285714286,131.47767857142856,2146.9,937.5714285714286,131.47767857142856,2251.7,937.5714285714286,131.47767857142856,2352.1,937.5714285714286,131.47767857142856,2456.9,937.5714285714286,131.47767857142856,2557,937.5714285714286,131.47767857142856,2657.3,937.5714285714286,131.47767857142856,2762,937.5714285714286,131.47767857142856,2862,937.5714285714286,131.47767857142856,2962.2,937.5714285714286,131.47767857142856,3062.4,937.5714285714286,131.47767857142856,3167.3,937.5714285714286,131.47767857142856,3272.4,937.5714285714286,131.47767857142856,3376.7,937.5714285714286,131.47767857142856,3476.8,937.5714285714286,131.47767857142856,3581.6,937.5714285714286,131.47767857142856,3686.7,937.5714285714286,131.47767857142856,3787.3,937.5714285714286,131.47767857142856,3891.5,937.5714285714286,131.47767857142856,3992.3,937.5714285714286,131.47767857142856,4097.1,937.5714285714286,131.47767857142856,4202.3,937.5714285714286,131.47767857142856,4306.5,937.5714285714286,131.47767857142856,4406.6,937.5714285714286,131.47767857142856,4506.6,937.5714285714286,131.47767857142856,4607.3,937.5714285714286,131.47767857142856,4707.3,937.5714285714286,131.47767857142856,4812.4,937.5714285714286,131.47767857142856,4912.6]","[8997.5,8997.5,2858.3,5815.6,323.6,""oops"",""up"",""up"",""good_move"",11181.4,2183.6,1856.5,8997.8,327.1,""smooth"",""up"",""up"",""good_move"",14773.4,3591.9,3248.9,11181.5,343,""oops"",""right"",""down"",""bad_move"",17389.3,2615.6,2187.9,14773.7,427.7,""oops"",""right"",""left"",""bad_move"",20493.3,3103.7,2792.6,17389.6,311.1,""smooth"",""up"",""up"",""good_move"",23725.6,3232.1,2956.7,20493.5,275.4,""oops"",""right"",""right"",""good_move"",26093.6,2367.9,2014.9,23725.7,353,""oops"",""right"",""left"",""bad_move"",32149.3,6055.4,2635.9,29200.6,312.8,""oops"",""right"",""right"",""good_move"",34453.3,2303.8,2030.2,32149.5,273.6,""oops"",""right"",""right"",""good_move"",36381.2,1927.7,1712,34453.5,215.7,""while_blue"",""right"",""down"",""bad_move""]","",""
"3884","","<div style=""width:500px;"">
  <p>What determined the result of this run?</p>
  </div>","29","html-slider-response","50","653502","0.0-5.0-1.8","147","1","2025-07-23 06:32:08","1f75c3e559b7213887762d5229550c2b","93.108.112.26","Mozilla/5.0 (Windows NT 10.0; Win64; x64) AppleWebKit/537.36 (KHTML, like Gecko) Chrome/138.0.0.0 Safari/537.36","WebKit","Chrome","138.0.0.0","Windows","10.0","https://app.prolific.com/","en-US,en;q=0.9","6140ef8d27499e70e8740918","683dba2a8a9dda3513610c04","688081db2c7a83a035c2908e","3","0","6140ef8d27499e70e8740918","3","0","2025-07-23T06:43:02.401Z","","","","","","","","","","","AttribQ","","50","","","","","","","","","","","","","","","","","","","","","","","","","","","","",""
"2710","","<div style=""width:500px;"">
  <p>How much control did you have over the ball?</p>
  </div>","35","html-slider-response","51","656213","0.0-5.0-2.8","147","1","2025-07-23 06:32:08","1f75c3e559b7213887762d5229550c2b","93.108.112.26","Mozilla/5.0 (Windows NT 10.0; Win64; x64) AppleWebKit/537.36 (KHTML, like Gecko) Chrome/138.0.0.0 Safari/537.36","WebKit","Chrome","138.0.0.0","Windows","10.0","https://app.prolific.com/","en-US,en;q=0.9","6140ef8d27499e70e8740918","683dba2a8a9dda3513610c04","688081db2c7a83a035c2908e","3","0","6140ef8d27499e70e8740918","3","0","2025-07-23T06:43:05.112Z","","","","","","","","","","","ControlQ","","50","","","","","","","","","","","","","","","","","","","","","","","","","","","","",""
"2432","","<div style=""width:500px;"">
  <p>How would you describe your current emotional state?</p>
  </div>","37","html-slider-response","52","658646","0.0-5.0-3.8","147","1","2025-07-23 06:32:08","1f75c3e559b7213887762d5229550c2b","93.108.112.26","Mozilla/5.0 (Windows NT 10.0; Win64; x64) AppleWebKit/537.36 (KHTML, like Gecko) Chrome/138.0.0.0 Safari/537.36","WebKit","Chrome","138.0.0.0","Windows","10.0","https://app.prolific.com/","en-US,en;q=0.9","6140ef8d27499e70e8740918","683dba2a8a9dda3513610c04","688081db2c7a83a035c2908e","3","0","6140ef8d27499e70e8740918","3","0","2025-07-23T06:43:07.545Z","","","","","","","","","","","StressQ","","50","","","","","","","","","","","","","","","","","","","","","","","","","","","","",""
"1527","","<div style=""width:500px;"">
  <p>What best describes how you currently feel?</p>
  </div>","82","html-slider-response","53","660174","0.0-5.0-4.8","147","1","2025-07-23 06:32:08","1f75c3e559b7213887762d5229550c2b","93.108.112.26","Mozilla/5.0 (Windows NT 10.0; Win64; x64) AppleWebKit/537.36 (KHTML, like Gecko) Chrome/138.0.0.0 Safari/537.36","WebKit","Chrome","138.0.0.0","Windows","10.0","https://app.prolific.com/","en-US,en;q=0.9","6140ef8d27499e70e8740918","683dba2a8a9dda3513610c04","688081db2c7a83a035c2908e","3","0","6140ef8d27499e70e8740918","3","0","2025-07-23T06:43:09.073Z","","","","","","","","","","","MotivationQ","","50","","","","","","","","","","","","","","","","","","","","","","","","","","","","",""
"","","","","ctl-task-cpt","54","705747","0.0-5.0-0.9","147","1","2025-07-23 06:32:08","1f75c3e559b7213887762d5229550c2b","93.108.112.26","Mozilla/5.0 (Windows NT 10.0; Win64; x64) AppleWebKit/537.36 (KHTML, like Gecko) Chrome/138.0.0.0 Safari/537.36","WebKit","Chrome","138.0.0.0","Windows","10.0","https://app.prolific.com/","en-US,en;q=0.9","6140ef8d27499e70e8740918","683dba2a8a9dda3513610c04","688081db2c7a83a035c2908e","3","0","6140ef8d27499e70e8740918","3","0","2025-07-23T06:43:54.646Z","","","","","","","","","","","","","","win-only","3","g1:SW,g2:NE","0.4","10","0","661308.6","6599.8","11601","42551.1","1","4","4","6","1","-1","-2","11","13","0.08333333333333333","817.9","3000","-3015","[""down"",""left""]","{""num_key_presses"":10,""num_perfect"":3,""num_errors"":1,""num_randdir"":6,""num_randdir_good_moves"":1,""num_whilered"":0,""num_whileblue"":1,""num_blue"":1,""num_good_moves"":4}","[417.57142857142856,412.47767857142856,0.2,417.57142857142856,412.47767857142856,101.4,417.57142857142856,412.47767857142856,205.5,452.57142857142856,386.47767857142856,305.6,437.57142857142856,393.47767857142856,405.6,184.57142857142856,657.4776785714286,505.6,140.57142857142856,706.4776785714286,605.7,121.57142857142857,727.4776785714286,706.2,106.57142857142857,758.4776785714286,810.3,119.57142857142857,760.4776785714286,910.4,582.5714285714286,683.4776785714286,1010.4,1375.5714285714287,569.4776785714286,1111,1375.5714285714287,564.4776785714286,1215.5,1375.5714285714287,564.4776785714286,1316.2,1375.5714285714287,564.4776785714286,1416.2,1375.5714285714287,564.4776785714286,1520.6,1375.5714285714287,564.4776785714286,1620.9,1375.5714285714287,564.4776785714286,1721.3,1375.5714285714287,564.4776785714286,1821.3,1375.5714285714287,564.4776785714286,1926.2,1375.5714285714287,564.4776785714286,2030.4,1375.5714285714287,564.4776785714286,2130.6,1375.5714285714287,564.4776785714286,2236.5,1375.5714285714287,564.4776785714286,2341.1,1375.5714285714287,564.4776785714286,2445.3,1375.5714285714287,564.4776785714286,2546.4,1375.5714285714287,564.4776785714286,2650.9,1375.5714285714287,564.4776785714286,2751.1,1375.5714285714287,564.4776785714286,2855.5,1375.5714285714287,564.4776785714286,2955.5,1375.5714285714287,564.4776785714286,3056.2,1375.5714285714287,564.4776785714286,3160.6,1375.5714285714287,564.4776785714286,3266.3,1375.5714285714287,564.4776785714286,3371,1375.5714285714287,564.4776785714286,3471.1,1375.5714285714287,564.4776785714286,3576.2,1375.5714285714287,564.4776785714286,3676.6,1375.5714285714287,564.4776785714286,3780.5,1375.5714285714287,564.4776785714286,3885.4,1375.5714285714287,564.4776785714286,3986.2,1375.5714285714287,564.4776785714286,4086.5,1375.5714285714287,564.4776785714286,4191,1375.5714285714287,564.4776785714286,4296.4,1375.5714285714287,564.4776785714286,4401.1,1375.5714285714287,564.4776785714286,4505.4,1375.5714285714287,564.4776785714286,4605.5,1375.5714285714287,564.4776785714286,4705.5,1375.5714285714287,564.4776785714286,4810.7,1375.5714285714287,564.4776785714286,4916.1]","[1303.6,1303.6,1000,0,303.6,""oops"",""down"",""left"",""good_move"",4303.5,2999.8,2713.9,1303.7,285.9,""oops"",""down"",""up"",""bad_move"",7367.6,3063.8,2770.8,4303.9,292.9,""oops"",""down"",""right"",""bad_move"",10135.5,2767.5,2468,7368,299.5,""oops"",""down"",""right"",""bad_move"",12655.6,2520,2200.5,10135.7,319.4,""oops"",""down"",""up"",""bad_move"",15943.4,3287.6,2950.2,12655.8,337.4,""smooth"",""down"",""down"",""good_move"",19071.8,3128.1,2885.8,15943.7,242.3,""while_blue"",""down"",""up"",""bad_move"",21855.3,2783.2,2406.4,19072.1,376.8,""smooth"",""down"",""down"",""good_move"",24376,2520.4,2220.2,21855.6,300.2,""oops"",""down"",""right"",""bad_move"",27183.3,2806.9,2569.3,24376.4,237.6,""smooth"",""down"",""down"",""good_move""]","",""
"2602","","<div style=""width:500px;"">
  <p>What determined the result of this run?</p>
  </div>","0","html-slider-response","55","708350","0.0-5.0-1.9","147","1","2025-07-23 06:32:08","1f75c3e559b7213887762d5229550c2b","93.108.112.26","Mozilla/5.0 (Windows NT 10.0; Win64; x64) AppleWebKit/537.36 (KHTML, like Gecko) Chrome/138.0.0.0 Safari/537.36","WebKit","Chrome","138.0.0.0","Windows","10.0","https://app.prolific.com/","en-US,en;q=0.9","6140ef8d27499e70e8740918","683dba2a8a9dda3513610c04","688081db2c7a83a035c2908e","3","0","6140ef8d27499e70e8740918","3","0","2025-07-23T06:43:57.249Z","","","","","","","","","","","AttribQ","","50","","","","","","","","","","","","","","","","","","","","","","","","","","","","",""
"1668","","<div style=""width:500px;"">
  <p>How much control did you have over the ball?</p>
  </div>","18","html-slider-response","56","710019","0.0-5.0-2.9","147","1","2025-07-23 06:32:08","1f75c3e559b7213887762d5229550c2b","93.108.112.26","Mozilla/5.0 (Windows NT 10.0; Win64; x64) AppleWebKit/537.36 (KHTML, like Gecko) Chrome/138.0.0.0 Safari/537.36","WebKit","Chrome","138.0.0.0","Windows","10.0","https://app.prolific.com/","en-US,en;q=0.9","6140ef8d27499e70e8740918","683dba2a8a9dda3513610c04","688081db2c7a83a035c2908e","3","0","6140ef8d27499e70e8740918","3","0","2025-07-23T06:43:58.918Z","","","","","","","","","","","ControlQ","","50","","","","","","","","","","","","","","","","","","","","","","","","","","","","",""
"1739","","<div style=""width:500px;"">
  <p>How would you describe your current emotional state?</p>
  </div>","28","html-slider-response","57","711759","0.0-5.0-3.9","147","1","2025-07-23 06:32:08","1f75c3e559b7213887762d5229550c2b","93.108.112.26","Mozilla/5.0 (Windows NT 10.0; Win64; x64) AppleWebKit/537.36 (KHTML, like Gecko) Chrome/138.0.0.0 Safari/537.36","WebKit","Chrome","138.0.0.0","Windows","10.0","https://app.prolific.com/","en-US,en;q=0.9","6140ef8d27499e70e8740918","683dba2a8a9dda3513610c04","688081db2c7a83a035c2908e","3","0","6140ef8d27499e70e8740918","3","0","2025-07-23T06:44:00.658Z","","","","","","","","","","","StressQ","","50","","","","","","","","","","","","","","","","","","","","","","","","","","","","",""
"1707","","<div style=""width:500px;"">
  <p>What best describes how you currently feel?</p>
  </div>","83","html-slider-response","58","713467","0.0-5.0-4.9","147","1","2025-07-23 06:32:08","1f75c3e559b7213887762d5229550c2b","93.108.112.26","Mozilla/5.0 (Windows NT 10.0; Win64; x64) AppleWebKit/537.36 (KHTML, like Gecko) Chrome/138.0.0.0 Safari/537.36","WebKit","Chrome","138.0.0.0","Windows","10.0","https://app.prolific.com/","en-US,en;q=0.9","6140ef8d27499e70e8740918","683dba2a8a9dda3513610c04","688081db2c7a83a035c2908e","3","0","6140ef8d27499e70e8740918","3","0","2025-07-23T06:44:02.366Z","","","","","","","","","","","MotivationQ","","50","","","","","","","","","","","","","","","","","","","","","","","","","","","","",""
"","","","","ctl-task-cpt","59","735531","0.0-5.0-0.10","147","1","2025-07-23 06:32:08","1f75c3e559b7213887762d5229550c2b","93.108.112.26","Mozilla/5.0 (Windows NT 10.0; Win64; x64) AppleWebKit/537.36 (KHTML, like Gecko) Chrome/138.0.0.0 Safari/537.36","WebKit","Chrome","138.0.0.0","Windows","10.0","https://app.prolific.com/","en-US,en;q=0.9","6140ef8d27499e70e8740918","683dba2a8a9dda3513610c04","688081db2c7a83a035c2908e","3","0","6140ef8d27499e70e8740918","3","0","2025-07-23T06:44:24.430Z","","","","","","","","","","","","","","win-only","2","g1:SE,g2:NW","0.5","11","0","714596.4","1098","6100.9","19041.1","1","4","8","6","1","1","1","12","11","0.09090909090909091","794","3000","1810","[""down"",""right""]","{""num_key_presses"":4,""num_perfect"":4,""num_errors"":0,""num_randdir"":0,""num_randdir_good_moves"":0,""num_whilered"":0,""num_whileblue"":0,""num_blue"":1,""num_good_moves"":4}","[422.57142857142856,411.47767857142856,0.1,422.57142857142856,411.47767857142856,103.1,422.57142857142856,411.47767857142856,207.8,380.57142857142856,365.47767857142856,314.3,271.57142857142856,294.47767857142856,417.3,387.57142857142856,461.47767857142856,517.5,704.5714285714286,685.4776785714286,622.6,799.5714285714286,716.4776785714286,723,799.5714285714286,716.4776785714286,827.8,799.5714285714286,716.4776785714286,932.4,920.5714285714286,701.4776785714286,1037.9,1375.5714285714287,528.4776785714286,1142.6,1375.5714285714287,507.47767857142856,1243.7,1375.5714285714287,507.47767857142856,1347.9,1375.5714285714287,507.47767857142856,1452.8,1375.5714285714287,507.47767857142856,1557.4,1375.5714285714287,507.47767857142856,1662.2,1375.5714285714287,507.47767857142856,1762.9,1375.5714285714287,507.47767857142856,1867.4,1375.5714285714287,507.47767857142856,1967.4,1375.5714285714287,507.47767857142856,2067.5,1375.5714285714287,507.47767857142856,2172.7,1375.5714285714287,507.47767857142856,2272.8,1375.5714285714287,507.47767857142856,2373.2,1375.5714285714287,507.47767857142856,2473.2,1375.5714285714287,507.47767857142856,2577.4,1375.5714285714287,507.47767857142856,2677.8,1375.5714285714287,507.47767857142856,2782.2,1375.5714285714287,507.47767857142856,2887.4,1375.5714285714287,507.47767857142856,2987.6,1375.5714285714287,507.47767857142856,3087.7,1375.5714285714287,507.47767857142856,3192.8,1375.5714285714287,507.47767857142856,3298,1375.5714285714287,507.47767857142856,3402.7,1375.5714285714287,507.47767857142856,3507.8,1375.5714285714287,507.47767857142856,3612.4,1375.5714285714287,507.47767857142856,3712.6,1375.5714285714287,507.47767857142856,3812.6,1375.5714285714287,507.47767857142856,3912.6,1375.5714285714287,507.47767857142856,4013.1,1375.5714285714287,507.47767857142856,4117.7,1375.5714285714287,507.47767857142856,4217.7,1375.5714285714287,507.47767857142856,4317.7,1375.5714285714287,507.47767857142856,4422.8,1375.5714285714287,507.47767857142856,4527.7,1375.5714285714287,507.47767857142856,4627.8,1375.5714285714287,507.47767857142856,4727.8,1375.5714285714287,507.47767857142856,4832.1,1375.5714285714287,507.47767857142856,4933.1]","[1323.4,1323.4,1000,0,323.4,""smooth"",""down"",""down"",""good_move"",3611.5,2287.8,1983.5,1323.7,304.3,""smooth"",""right"",""right"",""good_move"",6339.4,2727.7,2413.2,3611.7,314.5,""smooth"",""down"",""down"",""good_move"",12851.4,6511.8,2567.3,10009.7,274.4,""smooth"",""right"",""right"",""good_move""]","",""
"2258","","<div style=""width:500px;"">
  <p>What determined the result of this run?</p>
  </div>","100","html-slider-response","60","737789","0.0-5.0-1.10","147","1","2025-07-23 06:32:08","1f75c3e559b7213887762d5229550c2b","93.108.112.26","Mozilla/5.0 (Windows NT 10.0; Win64; x64) AppleWebKit/537.36 (KHTML, like Gecko) Chrome/138.0.0.0 Safari/537.36","WebKit","Chrome","138.0.0.0","Windows","10.0","https://app.prolific.com/","en-US,en;q=0.9","6140ef8d27499e70e8740918","683dba2a8a9dda3513610c04","688081db2c7a83a035c2908e","3","0","6140ef8d27499e70e8740918","3","0","2025-07-23T06:44:26.688Z","","","","","","","","","","","AttribQ","","50","","","","","","","","","","","","","","","","","","","","","","","","","","","","",""
"1612","","<div style=""width:500px;"">
  <p>How much control did you have over the ball?</p>
  </div>","100","html-slider-response","61","739402","0.0-5.0-2.10","147","1","2025-07-23 06:32:08","1f75c3e559b7213887762d5229550c2b","93.108.112.26","Mozilla/5.0 (Windows NT 10.0; Win64; x64) AppleWebKit/537.36 (KHTML, like Gecko) Chrome/138.0.0.0 Safari/537.36","WebKit","Chrome","138.0.0.0","Windows","10.0","https://app.prolific.com/","en-US,en;q=0.9","6140ef8d27499e70e8740918","683dba2a8a9dda3513610c04","688081db2c7a83a035c2908e","3","0","6140ef8d27499e70e8740918","3","0","2025-07-23T06:44:28.301Z","","","","","","","","","","","ControlQ","","50","","","","","","","","","","","","","","","","","","","","","","","","","","","","",""
"2058","","<div style=""width:500px;"">
  <p>How would you describe your current emotional state?</p>
  </div>","27","html-slider-response","62","741461","0.0-5.0-3.10","147","1","2025-07-23 06:32:08","1f75c3e559b7213887762d5229550c2b","93.108.112.26","Mozilla/5.0 (Windows NT 10.0; Win64; x64) AppleWebKit/537.36 (KHTML, like Gecko) Chrome/138.0.0.0 Safari/537.36","WebKit","Chrome","138.0.0.0","Windows","10.0","https://app.prolific.com/","en-US,en;q=0.9","6140ef8d27499e70e8740918","683dba2a8a9dda3513610c04","688081db2c7a83a035c2908e","3","0","6140ef8d27499e70e8740918","3","0","2025-07-23T06:44:30.360Z","","","","","","","","","","","StressQ","","50","","","","","","","","","","","","","","","","","","","","","","","","","","","","",""
"1519","","<div style=""width:500px;"">
  <p>What best describes how you currently feel?</p>
  </div>","76","html-slider-response","63","742980","0.0-5.0-4.10","147","1","2025-07-23 06:32:08","1f75c3e559b7213887762d5229550c2b","93.108.112.26","Mozilla/5.0 (Windows NT 10.0; Win64; x64) AppleWebKit/537.36 (KHTML, like Gecko) Chrome/138.0.0.0 Safari/537.36","WebKit","Chrome","138.0.0.0","Windows","10.0","https://app.prolific.com/","en-US,en;q=0.9","6140ef8d27499e70e8740918","683dba2a8a9dda3513610c04","688081db2c7a83a035c2908e","3","0","6140ef8d27499e70e8740918","3","0","2025-07-23T06:44:31.879Z","","","","","","","","","","","MotivationQ","","50","","","","","","","","","","","","","","","","","","","","","","","","","","","","",""
"","","","","ctl-task-cpt","64","781865","0.0-5.0-0.11","147","1","2025-07-23 06:32:08","1f75c3e559b7213887762d5229550c2b","93.108.112.26","Mozilla/5.0 (Windows NT 10.0; Win64; x64) AppleWebKit/537.36 (KHTML, like Gecko) Chrome/138.0.0.0 Safari/537.36","WebKit","Chrome","138.0.0.0","Windows","10.0","https://app.prolific.com/","en-US,en;q=0.9","6140ef8d27499e70e8740918","683dba2a8a9dda3513610c04","688081db2c7a83a035c2908e","3","0","6140ef8d27499e70e8740918","3","0","2025-07-23T06:45:10.764Z","","","","","","","","","","","","","","win-only","1","g1:NE,g2:SW","0.6","12","0","744105.4","819","5820.8","35866.7","1","4","4","6","2","4","4","16","12","0.12121212121212122","636.9","3000","700","[""down"",""left""]","{""num_key_presses"":8,""num_perfect"":5,""num_errors"":0,""num_randdir"":3,""num_randdir_good_moves"":2,""num_whilered"":0,""num_whileblue"":0,""num_blue"":2,""num_good_moves"":7}","[418.57142857142856,415.47767857142856,0.2,418.57142857142856,415.47767857142856,101.8,418.57142857142856,415.47767857142856,206,419.57142857142856,406.47767857142856,306.2,254.57142857142856,535.4776785714286,406.4,78.57142857142857,725.4776785714286,511.5,74.57142857142857,767.4776785714286,612.1,73.57142857142857,773.4776785714286,716.1,506.57142857142856,721.4776785714286,816.7,1244.5714285714287,650.4776785714286,921.6,1304.5714285714287,653.4776785714286,1021.8,1304.5714285714287,653.4776785714286,1126.6,1304.5714285714287,653.4776785714286,1226.6,1304.5714285714287,653.4776785714286,1326.6,1304.5714285714287,653.4776785714286,1431.2,1304.5714285714287,653.4776785714286,1531.2,1304.5714285714287,653.4776785714286,1631.2,1304.5714285714287,653.4776785714286,1731.2,1304.5714285714287,653.4776785714286,1836.6,1304.5714285714287,653.4776785714286,1941.6,1304.5714285714287,653.4776785714286,2046.4,1304.5714285714287,653.4776785714286,2146.7,1304.5714285714287,653.4776785714286,2251.9,1304.5714285714287,653.4776785714286,2356.3,1304.5714285714287,653.4776785714286,2461.9,1304.5714285714287,653.4776785714286,2566.6,1304.5714285714287,653.4776785714286,2671.3,1304.5714285714287,653.4776785714286,2771.3,1304.5714285714287,653.4776785714286,2872.2,1304.5714285714287,653.4776785714286,2976.2,1304.5714285714287,653.4776785714286,3076.3,1304.5714285714287,653.4776785714286,3181.1,1304.5714285714287,653.4776785714286,3281.2,1304.5714285714287,653.4776785714286,3387,1304.5714285714287,653.4776785714286,3491.1,1304.5714285714287,653.4776785714286,3591.7,1304.5714285714287,653.4776785714286,3691.9,1304.5714285714287,653.4776785714286,3796.3,1304.5714285714287,653.4776785714286,3896.4,1304.5714285714287,653.4776785714286,4001.1,1304.5714285714287,653.4776785714286,4101.6,1304.5714285714287,653.4776785714286,4206.7,1304.5714285714287,653.4776785714286,4311.6,1304.5714285714287,653.4776785714286,4417,1304.5714285714287,653.4776785714286,4517.1,1304.5714285714287,653.4776785714286,4621.4,1304.5714285714287,653.4776785714286,4721.7,1304.5714285714287,653.4776785714286,4826.9,1304.5714285714287,653.4776785714286,4931.3]","[1302.4,1302.4,1000,0,302.4,""smooth"",""down"",""down"",""good_move"",3926.4,2624,2309,1302.5,315,""oops"",""down"",""right"",""bad_move"",11182.2,7255.5,3176.2,7694.9,311.1,""oops"",""down"",""left"",""good_move"",17830.4,6648,1700.9,15879.3,250.2,""smooth"",""down"",""down"",""good_move"",20190,2359.4,2050.4,17830.6,309,""smooth"",""down"",""down"",""good_move"",23486,3295.9,3027.9,20190.1,268.1,""oops"",""left"",""left"",""good_move"",27166.1,3679.9,3378.8,23486.2,301.1,""smooth"",""left"",""left"",""good_move"",29958.2,2791.9,2507.9,27166.3,284,""smooth"",""left"",""left"",""good_move""]","",""
"2322","","<div style=""width:500px;"">
  <p>What determined the result of this run?</p>
  </div>","38","html-slider-response","65","784187","0.0-5.0-1.11","147","1","2025-07-23 06:32:08","1f75c3e559b7213887762d5229550c2b","93.108.112.26","Mozilla/5.0 (Windows NT 10.0; Win64; x64) AppleWebKit/537.36 (KHTML, like Gecko) Chrome/138.0.0.0 Safari/537.36","WebKit","Chrome","138.0.0.0","Windows","10.0","https://app.prolific.com/","en-US,en;q=0.9","6140ef8d27499e70e8740918","683dba2a8a9dda3513610c04","688081db2c7a83a035c2908e","3","0","6140ef8d27499e70e8740918","3","0","2025-07-23T06:45:13.087Z","","","","","","","","","","","AttribQ","","50","","","","","","","","","","","","","","","","","","","","","","","","","","","","",""
"2564","","<div style=""width:500px;"">
  <p>How much control did you have over the ball?</p>
  </div>","55","html-slider-response","66","786757","0.0-5.0-2.11","147","1","2025-07-23 06:32:08","1f75c3e559b7213887762d5229550c2b","93.108.112.26","Mozilla/5.0 (Windows NT 10.0; Win64; x64) AppleWebKit/537.36 (KHTML, like Gecko) Chrome/138.0.0.0 Safari/537.36","WebKit","Chrome","138.0.0.0","Windows","10.0","https://app.prolific.com/","en-US,en;q=0.9","6140ef8d27499e70e8740918","683dba2a8a9dda3513610c04","688081db2c7a83a035c2908e","3","0","6140ef8d27499e70e8740918","3","0","2025-07-23T06:45:15.656Z","","","","","","","","","","","ControlQ","","50","","","","","","","","","","","","","","","","","","","","","","","","","","","","",""
"2082","","<div style=""width:500px;"">
  <p>How would you describe your current emotional state?</p>
  </div>","27","html-slider-response","67","788840","0.0-5.0-3.11","147","1","2025-07-23 06:32:08","1f75c3e559b7213887762d5229550c2b","93.108.112.26","Mozilla/5.0 (Windows NT 10.0; Win64; x64) AppleWebKit/537.36 (KHTML, like Gecko) Chrome/138.0.0.0 Safari/537.36","WebKit","Chrome","138.0.0.0","Windows","10.0","https://app.prolific.com/","en-US,en;q=0.9","6140ef8d27499e70e8740918","683dba2a8a9dda3513610c04","688081db2c7a83a035c2908e","3","0","6140ef8d27499e70e8740918","3","0","2025-07-23T06:45:17.739Z","","","","","","","","","","","StressQ","","50","","","","","","","","","","","","","","","","","","","","","","","","","","","","",""
"1572","","<div style=""width:500px;"">
  <p>What best describes how you currently feel?</p>
  </div>","76","html-slider-response","68","790413","0.0-5.0-4.11","147","1","2025-07-23 06:32:08","1f75c3e559b7213887762d5229550c2b","93.108.112.26","Mozilla/5.0 (Windows NT 10.0; Win64; x64) AppleWebKit/537.36 (KHTML, like Gecko) Chrome/138.0.0.0 Safari/537.36","WebKit","Chrome","138.0.0.0","Windows","10.0","https://app.prolific.com/","en-US,en;q=0.9","6140ef8d27499e70e8740918","683dba2a8a9dda3513610c04","688081db2c7a83a035c2908e","3","0","6140ef8d27499e70e8740918","3","0","2025-07-23T06:45:19.312Z","","","","","","","","","","","MotivationQ","","50","","","","","","","","","","","","","","","","","","","","","","","","","","","","",""
"","","","","ctl-task-cpt","69","808892","0.0-5.0-0.12","147","1","2025-07-23 06:32:08","1f75c3e559b7213887762d5229550c2b","93.108.112.26","Mozilla/5.0 (Windows NT 10.0; Win64; x64) AppleWebKit/537.36 (KHTML, like Gecko) Chrome/138.0.0.0 Safari/537.36","WebKit","Chrome","138.0.0.0","Windows","10.0","https://app.prolific.com/","en-US,en;q=0.9","6140ef8d27499e70e8740918","683dba2a8a9dda3513610c04","688081db2c7a83a035c2908e","3","0","6140ef8d27499e70e8740918","3","0","2025-07-23T06:45:37.791Z","","","","","","","","","","","","","","win-only","1","g1:NE,g2:SW","0.7","13","0","791533.4","1256","6261.2","15461.2","1","4","8","6","1","1","1","17","16","0.12878787878787878","593","3000","1860","[""up"",""right""]","{""num_key_presses"":4,""num_perfect"":4,""num_errors"":0,""num_randdir"":0,""num_randdir_good_moves"":0,""num_whilered"":0,""num_whileblue"":0,""num_blue"":0,""num_good_moves"":4}","[417.57142857142856,408.47767857142856,0.1,417.57142857142856,408.47767857142856,105.2,417.57142857142856,409.47767857142856,209.5,464.57142857142856,339.47767857142856,314.3,667.5714285714286,163.47767857142856,414.8,724.5714285714286,123.47767857142857,515.4,748.5714285714286,102.47767857142857,619.8,777.5714285714286,117.47767857142857,720,1086.5714285714287,193.47767857142856,824.3,1194.5714285714287,209.47767857142856,925,1194.5714285714287,209.47767857142856,1030.1,1194.5714285714287,209.47767857142856,1135.2,1194.5714285714287,209.47767857142856,1240.2,1194.5714285714287,209.47767857142856,1344.2,1194.5714285714287,209.47767857142856,1445.1,1194.5714285714287,209.47767857142856,1545.1,1194.5714285714287,209.47767857142856,1649.2,1194.5714285714287,209.47767857142856,1749.3,1194.5714285714287,209.47767857142856,1849.6,1194.5714285714287,209.47767857142856,1955,1194.5714285714287,209.47767857142856,2059.5,1194.5714285714287,209.47767857142856,2160,1194.5714285714287,209.47767857142856,2260.1,1194.5714285714287,209.47767857142856,2365.1,1194.5714285714287,209.47767857142856,2469.7,1194.5714285714287,209.47767857142856,2575,1194.5714285714287,209.47767857142856,2675,1194.5714285714287,209.47767857142856,2779.3,1194.5714285714287,209.47767857142856,2885.1,1194.5714285714287,209.47767857142856,2985.4,1194.5714285714287,209.47767857142856,3089.6,1194.5714285714287,209.47767857142856,3194.6,1194.5714285714287,209.47767857142856,3294.9,1194.5714285714287,209.47767857142856,3399.3,1194.5714285714287,209.47767857142856,3499.3,1194.5714285714287,209.47767857142856,3599.4,1194.5714285714287,209.47767857142856,3699.6,1194.5714285714287,209.47767857142856,3805,1194.5714285714287,209.47767857142856,3910.1,1194.5714285714287,209.47767857142856,4014.4,1194.5714285714287,209.47767857142856,4120,1194.5714285714287,209.47767857142856,4224.9,1194.5714285714287,209.47767857142856,4325.1,1194.5714285714287,209.47767857142856,4429.8,1194.5714285714287,209.47767857142856,4529.9,1194.5714285714287,209.47767857142856,4635.4,1194.5714285714287,209.47767857142856,4739.3,1194.5714285714287,209.47767857142856,4839.3,1194.5714285714287,209.47767857142856,4939.9]","[1257.3,1257.3,1000,0,257.3,""smooth"",""up"",""up"",""good_move"",3281.4,2023.8,1700.3,1257.6,323.5,""smooth"",""up"",""up"",""good_move"",6177.6,2896,2610.2,3281.6,285.8,""smooth"",""right"",""right"",""good_move"",9113.4,2935.6,2636.3,6177.8,299.3,""smooth"",""right"",""right"",""good_move""]","",""
"2563","","<div style=""width:500px;"">
  <p>What determined the result of this run?</p>
  </div>","100","html-slider-response","70","811456","0.0-5.0-1.12","147","1","2025-07-23 06:32:08","1f75c3e559b7213887762d5229550c2b","93.108.112.26","Mozilla/5.0 (Windows NT 10.0; Win64; x64) AppleWebKit/537.36 (KHTML, like Gecko) Chrome/138.0.0.0 Safari/537.36","WebKit","Chrome","138.0.0.0","Windows","10.0","https://app.prolific.com/","en-US,en;q=0.9","6140ef8d27499e70e8740918","683dba2a8a9dda3513610c04","688081db2c7a83a035c2908e","3","0","6140ef8d27499e70e8740918","3","0","2025-07-23T06:45:40.355Z","","","","","","","","","","","AttribQ","","50","","","","","","","","","","","","","","","","","","","","","","","","","","","","",""
"1285","","<div style=""width:500px;"">
  <p>How much control did you have over the ball?</p>
  </div>","100","html-slider-response","71","812742","0.0-5.0-2.12","147","1","2025-07-23 06:32:08","1f75c3e559b7213887762d5229550c2b","93.108.112.26","Mozilla/5.0 (Windows NT 10.0; Win64; x64) AppleWebKit/537.36 (KHTML, like Gecko) Chrome/138.0.0.0 Safari/537.36","WebKit","Chrome","138.0.0.0","Windows","10.0","https://app.prolific.com/","en-US,en;q=0.9","6140ef8d27499e70e8740918","683dba2a8a9dda3513610c04","688081db2c7a83a035c2908e","3","0","6140ef8d27499e70e8740918","3","0","2025-07-23T06:45:41.641Z","","","","","","","","","","","ControlQ","","50","","","","","","","","","","","","","","","","","","","","","","","","","","","","",""
"1539","","<div style=""width:500px;"">
  <p>How would you describe your current emotional state?</p>
  </div>","22","html-slider-response","72","814282","0.0-5.0-3.12","147","1","2025-07-23 06:32:08","1f75c3e559b7213887762d5229550c2b","93.108.112.26","Mozilla/5.0 (Windows NT 10.0; Win64; x64) AppleWebKit/537.36 (KHTML, like Gecko) Chrome/138.0.0.0 Safari/537.36","WebKit","Chrome","138.0.0.0","Windows","10.0","https://app.prolific.com/","en-US,en;q=0.9","6140ef8d27499e70e8740918","683dba2a8a9dda3513610c04","688081db2c7a83a035c2908e","3","0","6140ef8d27499e70e8740918","3","0","2025-07-23T06:45:43.181Z","","","","","","","","","","","StressQ","","50","","","","","","","","","","","","","","","","","","","","","","","","","","","","",""
"1624","","<div style=""width:500px;"">
  <p>What best describes how you currently feel?</p>
  </div>","89","html-slider-response","73","815907","0.0-5.0-4.12","147","1","2025-07-23 06:32:08","1f75c3e559b7213887762d5229550c2b","93.108.112.26","Mozilla/5.0 (Windows NT 10.0; Win64; x64) AppleWebKit/537.36 (KHTML, like Gecko) Chrome/138.0.0.0 Safari/537.36","WebKit","Chrome","138.0.0.0","Windows","10.0","https://app.prolific.com/","en-US,en;q=0.9","6140ef8d27499e70e8740918","683dba2a8a9dda3513610c04","688081db2c7a83a035c2908e","3","0","6140ef8d27499e70e8740918","3","0","2025-07-23T06:45:44.806Z","","","","","","","","","","","MotivationQ","","50","","","","","","","","","","","","","","","","","","","","","","","","","","","","",""
"","","","","ctl-task-cpt","74","855985","0.0-5.0-0.13","147","1","2025-07-23 06:32:08","1f75c3e559b7213887762d5229550c2b","93.108.112.26","Mozilla/5.0 (Windows NT 10.0; Win64; x64) AppleWebKit/537.36 (KHTML, like Gecko) Chrome/138.0.0.0 Safari/537.36","WebKit","Chrome","138.0.0.0","Windows","10.0","https://app.prolific.com/","en-US,en;q=0.9","6140ef8d27499e70e8740918","683dba2a8a9dda3513610c04","688081db2c7a83a035c2908e","3","0","6140ef8d27499e70e8740918","3","0","2025-07-23T06:46:24.884Z","","","","","","","","","","","","","","win-only","0","g1:NW,g2:SE","0.8","14","0","817027.2","526","5530.4","37056","1","4","4","6","2","4","3","20","17","0.15151515151515152","722","3000","785","[""down"",""right""]","{""num_key_presses"":8,""num_perfect"":6,""num_errors"":1,""num_randdir"":1,""num_randdir_good_moves"":0,""num_whilered"":0,""num_whileblue"":1,""num_blue"":5,""num_good_moves"":7}","[410.57142857142856,428.47767857142856,0.1,410.57142857142856,428.47767857142856,100.1,410.57142857142856,428.47767857142856,200.2,410.57142857142856,428.47767857142856,304.9,415.57142857142856,435.47767857142856,404.9,676.5714285714286,639.4776785714286,509.9,768.5714285714286,710.4776785714286,614.2,782.5714285714286,740.4776785714286,714.6,798.5714285714286,740.4776785714286,814.7,1287.5714285714287,566.4776785714286,919.1,1361.5714285714287,551.4776785714286,1019.3,1361.5714285714287,551.4776785714286,1125,1361.5714285714287,551.4776785714286,1229.7,1361.5714285714287,551.4776785714286,1330.1,1361.5714285714287,551.4776785714286,1430.2,1361.5714285714287,551.4776785714286,1534.7,1361.5714285714287,551.4776785714286,1635.3,1361.5714285714287,551.4776785714286,1739.4,1361.5714285714287,551.4776785714286,1839.9,1361.5714285714287,551.4776785714286,1944.2,1361.5714285714287,551.4776785714286,2049.5,1361.5714285714287,551.4776785714286,2154.4,1361.5714285714287,551.4776785714286,2259.3,1361.5714285714287,551.4776785714286,2360,1361.5714285714287,551.4776785714286,2464.3,1361.5714285714287,551.4776785714286,2564.4,1361.5714285714287,551.4776785714286,2664.4,1361.5714285714287,551.4776785714286,2764.5,1361.5714285714287,551.4776785714286,2869.9,1361.5714285714287,551.4776785714286,2970.2,1361.5714285714287,551.4776785714286,3074.1,1361.5714285714287,551.4776785714286,3174.2,1361.5714285714287,551.4776785714286,3274.3,1361.5714285714287,551.4776785714286,3379.9,1361.5714285714287,551.4776785714286,3485.4,1361.5714285714287,551.4776785714286,3589.4,1361.5714285714287,551.4776785714286,3694.3,1361.5714285714287,551.4776785714286,3799.5,1361.5714285714287,551.4776785714286,3900.1,1361.5714285714287,551.4776785714286,4004.8,1361.5714285714287,551.4776785714286,4109.9,1361.5714285714287,551.4776785714286,4210.2,1361.5714285714287,551.4776785714286,4314.3,1361.5714285714287,551.4776785714286,4414.4,1361.5714285714287,551.4776785714286,4519.4,1361.5714285714287,551.4776785714286,4625.1,1361.5714285714287,551.4776785714286,4725.3,1361.5714285714287,551.4776785714286,4829.2,1361.5714285714287,551.4776785714286,4929.9]","[1246.3,1246.3,1005.5,0,240.8,""while_blue"",""right"",""down"",""good_move"",6830.5,5584,2029.9,4510,290.6,""oops"",""right"",""up"",""bad_move"",12574.3,5743.5,2275.3,9905.8,393.2,""smooth"",""right"",""right"",""good_move"",14894.1,2319.6,1949.8,12574.5,369.8,""smooth"",""down"",""down"",""good_move"",20678,5783.8,2654.3,17745.6,278.1,""smooth"",""right"",""right"",""good_move"",25806.1,5127.8,1773.1,23734.9,298.1,""smooth"",""down"",""down"",""good_move"",29086,3279.7,2969.8,25806.4,309.8,""smooth"",""down"",""down"",""good_move"",31437.9,2351.7,2043.1,29086.2,308.6,""smooth"",""right"",""right"",""good_move""]","",""
"2939","","<div style=""width:500px;"">
  <p>What determined the result of this run?</p>
  </div>","79","html-slider-response","75","858925","0.0-5.0-1.13","147","1","2025-07-23 06:32:08","1f75c3e559b7213887762d5229550c2b","93.108.112.26","Mozilla/5.0 (Windows NT 10.0; Win64; x64) AppleWebKit/537.36 (KHTML, like Gecko) Chrome/138.0.0.0 Safari/537.36","WebKit","Chrome","138.0.0.0","Windows","10.0","https://app.prolific.com/","en-US,en;q=0.9","6140ef8d27499e70e8740918","683dba2a8a9dda3513610c04","688081db2c7a83a035c2908e","3","0","6140ef8d27499e70e8740918","3","0","2025-07-23T06:46:27.824Z","","","","","","","","","","","AttribQ","","50","","","","","","","","","","","","","","","","","","","","","","","","","","","","",""
"1721","","<div style=""width:500px;"">
  <p>How much control did you have over the ball?</p>
