"rt","response_timestamp","stimulus","response","trial_type","trial_index","time_elapsed","internal_node_id","run_id","condition","recorded_at","source_code_version","ip","user_agent","device","browser","browser_version","platform","platform_version","referer","accept_language","PROLIFIC_PID","STUDY_ID","SESSION_ID","WEEK","prolific_id","week","realtime","success","responses","item_order","radio_event_ids","radio_event_times","key_event_times","mouse_event_times","straightlining","zigzagging","honeypot","eventType","view_history","slider_start","which_type","canvas_config","goals_layout","control_level","trial_number","tutorial_trial_number","trial_start_time","phase1_start_time","phase2_start_time","phase3_start_time","goal_1_value","goal_1_distance","goal_2_value","goal_2_distance","goal_selected","outcome","outcome_total","participant_final_score","participant_initial_score","participant_final_score_prop","goal_choice_rt","allocated_time","allocated_time_remaining","goal_direction","counts","mouse_movements","key_presses","question_order","question_id"
"20031","1752050379967","<p style='font-size:40px;line-height:1.25'><strong>Welcome to the experiment!</strong></p><p style='font-size:1.1em;line-height:1.25'>Thank you for participanting in our experiment again! You will be asked to play the Dysfunctional Ball Game again. We will briefly recap the rules before we start.</p><p style='font-size:1.1em;line-height:1.25'>Press <strong>Next</strong> to continue.</p>","0","custom-html-button-response","0","20034","0.0-0.0","8","1","2025-07-09 08:39:16","01610cd0009c79a99da7d0a3353eb402","216.120.189.119","Mozilla/5.0 (Windows NT 10.0; Win64; x64) AppleWebKit/537.36 (KHTML, like Gecko) Chrome/137.0.0.0 Safari/537.36","WebKit","Chrome","137.0.0.0","Windows","10.0","https://app.prolific.com/","en-US,en;q=0.9","669c1e1fdb95a995eb1d3077","683db7602f5db6a34d12d064","686e2a77392783fd0cf08e58","1","669c1e1fdb95a995eb1d3077","1","2025-07-09T08:39:39.968Z","","","","","","","","","","","","","","","","","","","","","","","","","","","","","","","","","","","","","","","","","",""
"77991","","","","fullscreen","1","99043","0.0-1.0","8","1","2025-07-09 08:39:16","01610cd0009c79a99da7d0a3353eb402","216.120.189.119","Mozilla/5.0 (Windows NT 10.0; Win64; x64) AppleWebKit/537.36 (KHTML, like Gecko) Chrome/137.0.0.0 Safari/537.36","WebKit","Chrome","137.0.0.0","Windows","10.0","https://app.prolific.com/","en-US,en;q=0.9","669c1e1fdb95a995eb1d3077","683db7602f5db6a34d12d064","686e2a77392783fd0cf08e58","1","669c1e1fdb95a995eb1d3077","1","","true","","","","","","","","","","","","","","","","","","","","","","","","","","","","","","","","","","","","","","","","",""
"8861","1752050467841","<p style='font-size:1.1em;line-height:1.25'>In the following, we will ask you a few questions relating to your feelings in the last 24 hours.<br></p><p style='font-size:1.1em;line-height:1.25'>Press the <strong>Next</strong> button to continue.</p>","0","custom-html-button-response","2","107907","0.0-2.0-0.0","8","1","2025-07-09 08:39:16","01610cd0009c79a99da7d0a3353eb402","216.120.189.119","Mozilla/5.0 (Windows NT 10.0; Win64; x64) AppleWebKit/537.36 (KHTML, like Gecko) Chrome/137.0.0.0 Safari/537.36","WebKit","Chrome","137.0.0.0","Windows","10.0","https://app.prolific.com/","en-US,en;q=0.9","669c1e1fdb95a995eb1d3077","683db7602f5db6a34d12d064","686e2a77392783fd0cf08e58","1","669c1e1fdb95a995eb1d3077","1","2025-07-09T08:41:07.842Z","","","","","","","","","","","","","","","","","","","","","","","","","","","","","","","","","","","","","","","","","",""
"138294.80000007153","","","","survey-template","3","246210","0.0-2.0-1.0","8","1","2025-07-09 08:39:16","01610cd0009c79a99da7d0a3353eb402","216.120.189.119","Mozilla/5.0 (Windows NT 10.0; Win64; x64) AppleWebKit/537.36 (KHTML, like Gecko) Chrome/137.0.0.0 Safari/537.36","WebKit","Chrome","137.0.0.0","Windows","10.0","https://app.prolific.com/","en-US,en;q=0.9","669c1e1fdb95a995eb1d3077","683db7602f5db6a34d12d064","686e2a77392783fd0cf08e58","1","669c1e1fdb95a995eb1d3077","1","2025-07-09T08:43:26.144Z","","{""Q01"":""0"",""Q02"":""0"",""Q03"":""0"",""Q04"":""0"",""Q05"":""1"",""Q06"":""0"",""Q07"":""0"",""Q08"":""0"",""Q09"":""0"",""Q10"":""0"",""Q11"":""0"",""Q12"":""1"",""Q13"":""5"",""Q14"":""1"",""Q15"":""0"",""Q16"":""0"",""Q17"":""2"",""Q18"":""0"",""Q19"":""0"",""Q20"":""0"",""Q21"":""0"",""Q22"":""0""}","[0,1,2,3,4,5,6,7,8,9,10,11,12,13,14,15,16,17,18,19,20,21]","[""Q01"",""Q02"",""Q04"",""Q03"",""Q05"",""Q05"",""Q06"",""Q07"",""Q08"",""Q09"",""Q10"",""Q11"",""Q12"",""Q13"",""Q14"",""Q15"",""Q16"",""Q17"",""Q18"",""Q19"",""Q20"",""Q21"",""Q22""]","[43834.60000002384,44623.40000009537,49077.700000047684,49728.800000071526,53172.90000009537,56743.60000002384,60314.800000071526,63682.40000009537,68697.80000007153,72128.10000002384,76899.5,79493.5,83547.90000009537,87147.60000002384,91229.60000002384,95943.5,100042.80000007153,103394.60000002384,105801.30000007153,111055.70000004768,127535.5,131573.5,136430.70000004768]","[]","[0.10000002384185791,40458.60000002384,42345.60000002384,43044.60000002384,43834.60000002384,44623.40000009537,46886.90000009537,49077.700000047684,49728.800000071526,53172.90000009537,55946.800000071526,56743.60000002384,59667.40000009537,60314.800000071526,63150.5,63682.40000009537,66569.80000007153,67238.5,68133.60000002384,68697.80000007153,71486.40000009537,72128.10000002384,75230.80000007153,76899.5,79493.5,83547.90000009537,86658.90000009537,87147.60000002384,91229.60000002384,95943.5,100042.80000007153,103394.60000002384,105801.30000007153,111055.70000004768,126325.80000007153,127535.5,130656,131573.5,135573.90000009537,136430.70000004768,138287.5]","0.7727272727272727","0.19047619047619047","0","drsp","","","","","","","","","","","","","","","","","","","","","","","","","","","","","","",""
"43076.39999997616","","","","survey-template","4","289289","0.0-2.0-2.0","8","1","2025-07-09 08:39:16","01610cd0009c79a99da7d0a3353eb402","216.120.189.119","Mozilla/5.0 (Windows NT 10.0; Win64; x64) AppleWebKit/537.36 (KHTML, like Gecko) Chrome/137.0.0.0 Safari/537.36","WebKit","Chrome","137.0.0.0","Windows","10.0","https://app.prolific.com/","en-US,en;q=0.9","669c1e1fdb95a995eb1d3077","683db7602f5db6a34d12d064","686e2a77392783fd0cf08e58","1","669c1e1fdb95a995eb1d3077","1","2025-07-09T08:44:09.223Z","","{""Q01"":""0"",""Q02"":""2"",""Q03"":""0""}","[0,1,2]","[""Q02"",""Q02"",""Q03"",""Q01""]","[10993.199999928474,15716,32240.199999928474,40871]","[]","[5242.099999904633,10993.199999928474,14189.599999904633,14790.199999928474,15716,32240.199999928474,40871,43075.39999997616]","0.6666666666666666","0","0","stress","","","","","","","","","","","","","","","","","","","","","","","","","","","","","","",""
"75244","","","","instructions","5","364534","0.0-3.0-0.0","8","1","2025-07-09 08:39:16","01610cd0009c79a99da7d0a3353eb402","216.120.189.119","Mozilla/5.0 (Windows NT 10.0; Win64; x64) AppleWebKit/537.36 (KHTML, like Gecko) Chrome/137.0.0.0 Safari/537.36","WebKit","Chrome","137.0.0.0","Windows","10.0","https://app.prolific.com/","en-US,en;q=0.9","669c1e1fdb95a995eb1d3077","683db7602f5db6a34d12d064","686e2a77392783fd0cf08e58","1","669c1e1fdb95a995eb1d3077","1","","","","","","","","","","","","","[{""page_index"":0,""viewing_time"":75244}]","","","","","","","","","","","","","","","","","","","","","","","","","","","","","",""
"53818","","<p>Before you start with this game please answer the following three questions yourself. </p>
  <p>Through this game, we measure several aspects of your cognitive performance, such as reaction times, multi-tasking capabilities </p>
  <p>and the ability to assess the situation you are in.</p>
  <p></p>
  <p><b>How good do you usually are in such tasks?</b></p>","99","html-slider-response","6","418355","0.0-4.0-0.0","8","1","2025-07-09 08:39:16","01610cd0009c79a99da7d0a3353eb402","216.120.189.119","Mozilla/5.0 (Windows NT 10.0; Win64; x64) AppleWebKit/537.36 (KHTML, like Gecko) Chrome/137.0.0.0 Safari/537.36","WebKit","Chrome","137.0.0.0","Windows","10.0","https://app.prolific.com/","en-US,en;q=0.9","669c1e1fdb95a995eb1d3077","683db7602f5db6a34d12d064","686e2a77392783fd0cf08e58","1","669c1e1fdb95a995eb1d3077","1","2025-07-09T08:46:18.289Z","","","","","","","","","","","PreSkillQ","","50","","","","","","","","","","","","","","","","","","","","","","","","","","","","",""
"10373","","<div style=""width:500px;"">
  <p>How well do you think you will perform in this task compared to other participants?</p>
  </div>","100","html-slider-response","7","428729","0.0-4.0-1.0","8","1","2025-07-09 08:39:16","01610cd0009c79a99da7d0a3353eb402","216.120.189.119","Mozilla/5.0 (Windows NT 10.0; Win64; x64) AppleWebKit/537.36 (KHTML, like Gecko) Chrome/137.0.0.0 Safari/537.36","WebKit","Chrome","137.0.0.0","Windows","10.0","https://app.prolific.com/","en-US,en;q=0.9","669c1e1fdb95a995eb1d3077","683db7602f5db6a34d12d064","686e2a77392783fd0cf08e58","1","669c1e1fdb95a995eb1d3077","1","2025-07-09T08:46:28.664Z","","","","","","","","","","","PrePerfQ","","50","","","","","","","","","","","","","","","","","","","","","","","","","","","","",""
"16510","","<div style=""width:500px;"">
  <p>What best describes how you currently feel?</p>
  </div>","100","html-slider-response","8","445241","0.0-4.0-2.0","8","1","2025-07-09 08:39:16","01610cd0009c79a99da7d0a3353eb402","216.120.189.119","Mozilla/5.0 (Windows NT 10.0; Win64; x64) AppleWebKit/537.36 (KHTML, like Gecko) Chrome/137.0.0.0 Safari/537.36","WebKit","Chrome","137.0.0.0","Windows","10.0","https://app.prolific.com/","en-US,en;q=0.9","669c1e1fdb95a995eb1d3077","683db7602f5db6a34d12d064","686e2a77392783fd0cf08e58","1","669c1e1fdb95a995eb1d3077","1","2025-07-09T08:46:45.175Z","","","","","","","","","","","PreMotivationQ","","50","","","","","","","","","","","","","","","","","","","","","","","","","","","","",""
"","","","","ctl-task-cpt","9","478285","0.0-5.0-0.0","8","1","2025-07-09 08:39:16","01610cd0009c79a99da7d0a3353eb402","216.120.189.119","Mozilla/5.0 (Windows NT 10.0; Win64; x64) AppleWebKit/537.36 (KHTML, like Gecko) Chrome/137.0.0.0 Safari/537.36","WebKit","Chrome","137.0.0.0","Windows","10.0","https://app.prolific.com/","en-US,en;q=0.9","669c1e1fdb95a995eb1d3077","683db7602f5db6a34d12d064","686e2a77392783fd0cf08e58","1","669c1e1fdb95a995eb1d3077","1","2025-07-09T08:47:18.220Z","","","","","","","","","","","","","","win-only","3","g1:SW,g2:NE","1","1","0","451080","2734.8","7741.1","30034.9","1","4","8","6","2","8","8","8","0","0.06060606060606061","983.2","3000","1100","[""up"",""right""]","{""num_key_presses"":6,""num_perfect"":6,""num_errors"":0,""num_randdir"":0,""num_randdir_good_moves"":0,""num_whilered"":0,""num_whileblue"":0,""num_blue"":1,""num_good_moves"":6}","[300.22232142857143,295.12857142857143,0.4,300.22232142857143,295.12857142857143,105.1,301.22232142857143,293.12857142857143,205.2,303.22232142857143,284.12857142857143,305.4,347.22232142857143,204.12857142857143,413.7,484.22232142857143,70.12857142857143,516.1,511.22232142857143,43.128571428571426,617.1,519.2223214285714,43.128571428571426,725.7,534.2223214285714,54.128571428571426,841.5,540.2223214285714,54.128571428571426,946.9,543.2223214285714,56.128571428571426,1048.2,544.2223214285714,58.128571428571426,1155,503.22232142857143,101.12857142857143,1255.2,393.22232142857143,194.12857142857143,1357,336.22232142857143,287.12857142857143,1461.9,333.22232142857143,317.12857142857143,1563.8,345.22232142857143,331.12857142857143,1668.4,349.22232142857143,338.12857142857143,1773.2,349.22232142857143,343.12857142857143,1875,349.22232142857143,344.12857142857143,1975.3,349.22232142857143,344.12857142857143,2075.7,349.22232142857143,344.12857142857143,2175.7,349.22232142857143,344.12857142857143,2275.8,349.22232142857143,344.12857142857143,2379,349.22232142857143,344.12857142857143,2479.6,349.22232142857143,344.12857142857143,2579.9,349.22232142857143,344.12857142857143,2685.4,349.22232142857143,344.12857142857143,2785.7,349.22232142857143,344.12857142857143,2886.4,349.22232142857143,344.12857142857143,2988.8,349.22232142857143,344.12857142857143,3097.4,349.22232142857143,344.12857142857143,3214.8,349.22232142857143,344.12857142857143,3325,349.22232142857143,344.12857142857143,3428.3,349.22232142857143,344.12857142857143,3528.6,349.22232142857143,344.12857142857143,3635.3,349.22232142857143,344.12857142857143,3745.6,349.22232142857143,344.12857142857143,3846.6,349.22232142857143,344.12857142857143,3958.6,349.22232142857143,344.12857142857143,4064,349.22232142857143,344.12857142857143,4175,349.22232142857143,344.12857142857143,4275.2,349.22232142857143,344.12857142857143,4375.3,349.22232142857143,344.12857142857143,4478.2,349.22232142857143,344.12857142857143,4583.2,349.22232142857143,344.12857142857143,4685.4,349.22232142857143,344.12857142857143,4785.4,349.22232142857143,344.12857142857143,4885.9,349.22232142857143,344.12857142857143,4986.4]","[5420.7,5420.8,2979.8,2007.9,433.2,""smooth"",""right"",""right"",""good_move"",9365,3942.7,3470.2,5422.3,472.5,""smooth"",""right"",""right"",""good_move"",12357.2,2991.4,2482.5,9365.8,508.9,""smooth"",""up"",""up"",""good_move"",15261.6,2901.8,2403.4,12359.8,498.4,""smooth"",""up"",""up"",""good_move"",18223.2,2960.5,2445.5,15262.8,514.9,""smooth"",""up"",""up"",""good_move"",22183.1,3958.5,3496.4,18224.6,462.1,""smooth"",""right"",""right"",""good_move""]","",""
"4784","","<div style=""width:500px;"">
  <p>What determined the result of this run?</p>
  </div>","99","html-slider-response","10","483072","0.0-5.0-1.0","8","1","2025-07-09 08:39:16","01610cd0009c79a99da7d0a3353eb402","216.120.189.119","Mozilla/5.0 (Windows NT 10.0; Win64; x64) AppleWebKit/537.36 (KHTML, like Gecko) Chrome/137.0.0.0 Safari/537.36","WebKit","Chrome","137.0.0.0","Windows","10.0","https://app.prolific.com/","en-US,en;q=0.9","669c1e1fdb95a995eb1d3077","683db7602f5db6a34d12d064","686e2a77392783fd0cf08e58","1","669c1e1fdb95a995eb1d3077","1","2025-07-09T08:47:23.007Z","","","","","","","","","","","AttribQ","","50","","","","","","","","","","","","","","","","","","","","","","","","","","","","",""
"3269","","<div style=""width:500px;"">
  <p>How much control did you have over the ball?</p>
  </div>","100","html-slider-response","11","486343","0.0-5.0-2.0","8","1","2025-07-09 08:39:16","01610cd0009c79a99da7d0a3353eb402","216.120.189.119","Mozilla/5.0 (Windows NT 10.0; Win64; x64) AppleWebKit/537.36 (KHTML, like Gecko) Chrome/137.0.0.0 Safari/537.36","WebKit","Chrome","137.0.0.0","Windows","10.0","https://app.prolific.com/","en-US,en;q=0.9","669c1e1fdb95a995eb1d3077","683db7602f5db6a34d12d064","686e2a77392783fd0cf08e58","1","669c1e1fdb95a995eb1d3077","1","2025-07-09T08:47:26.278Z","","","","","","","","","","","ControlQ","","50","","","","","","","","","","","","","","","","","","","","","","","","","","","","",""
"3614","","<div style=""width:500px;"">
  <p>How would you describe your current emotional state?</p>
  </div>","0","html-slider-response","12","489959","0.0-5.0-3.0","8","1","2025-07-09 08:39:16","01610cd0009c79a99da7d0a3353eb402","216.120.189.119","Mozilla/5.0 (Windows NT 10.0; Win64; x64) AppleWebKit/537.36 (KHTML, like Gecko) Chrome/137.0.0.0 Safari/537.36","WebKit","Chrome","137.0.0.0","Windows","10.0","https://app.prolific.com/","en-US,en;q=0.9","669c1e1fdb95a995eb1d3077","683db7602f5db6a34d12d064","686e2a77392783fd0cf08e58","1","669c1e1fdb95a995eb1d3077","1","2025-07-09T08:47:29.894Z","","","","","","","","","","","StressQ","","50","","","","","","","","","","","","","","","","","","","","","","","","","","","","",""
"6991","","<div style=""width:500px;"">
  <p>What best describes how you currently feel?</p>
  </div>","100","html-slider-response","13","496951","0.0-5.0-4.0","8","1","2025-07-09 08:39:16","01610cd0009c79a99da7d0a3353eb402","216.120.189.119","Mozilla/5.0 (Windows NT 10.0; Win64; x64) AppleWebKit/537.36 (KHTML, like Gecko) Chrome/137.0.0.0 Safari/537.36","WebKit","Chrome","137.0.0.0","Windows","10.0","https://app.prolific.com/","en-US,en;q=0.9","669c1e1fdb95a995eb1d3077","683db7602f5db6a34d12d064","686e2a77392783fd0cf08e58","1","669c1e1fdb95a995eb1d3077","1","2025-07-09T08:47:36.886Z","","","","","","","","","","","MotivationQ","","50","","","","","","","","","","","","","","","","","","","","","","","","","","","","",""
"","","","","ctl-task-cpt","14","525144","0.0-5.0-0.1","8","1","2025-07-09 08:39:16","01610cd0009c79a99da7d0a3353eb402","216.120.189.119","Mozilla/5.0 (Windows NT 10.0; Win64; x64) AppleWebKit/537.36 (KHTML, like Gecko) Chrome/137.0.0.0 Safari/537.36","WebKit","Chrome","137.0.0.0","Windows","10.0","https://app.prolific.com/","en-US,en;q=0.9","669c1e1fdb95a995eb1d3077","683db7602f5db6a34d12d064","686e2a77392783fd0cf08e58","1","669c1e1fdb95a995eb1d3077","1","2025-07-09T08:48:05.078Z","","","","","","","","","","","","","","win-only","1","g1:NE,g2:SW","0.9","2","0","502787.8","2844.4","7854.7","25187.9","1","4","4","6","2","4","4","12","8","0.09090909090909091","3952.4","3000","1160","[""down"",""left""]","{""num_key_presses"":6,""num_perfect"":6,""num_errors"":0,""num_randdir"":0,""num_randdir_good_moves"":0,""num_whilered"":0,""num_whileblue"":0,""num_blue"":0,""num_good_moves"":6}","[299.22232142857143,296.12857142857143,1.3,299.22232142857143,296.12857142857143,109.6,299.22232142857143,292.12857142857143,213.3,309.22232142857143,284.12857142857143,316.9,364.22232142857143,250.12857142857143,422.2,435.22232142857143,194.12857142857143,529.1,376.22232142857143,222.12857142857143,632.3,214.22232142857143,395.12857142857143,742.3,145.22232142857143,476.12857142857143,844.9,117.22232142857143,518.1285714285714,949.3,91.22232142857143,551.1285714285714,1053,62.222321428571426,552.1285714285714,1166.3,58.222321428571426,552.1285714285714,1272.2,58.222321428571426,552.1285714285714,1386.8,63.222321428571426,548.1285714285714,1487.9,77.22232142857143,533.1285714285714,1593.3,152.22232142857143,478.12857142857143,1693.5,225.22232142857143,409.12857142857143,1794.3,245.22232142857143,398.12857142857143,1902.4,245.22232142857143,398.12857142857143,2002.4,241.22232142857143,397.12857142857143,2103.3,175.22232142857143,441.12857142857143,2209.3,98.22232142857143,492.12857142857143,2310.1,81.22232142857143,507.12857142857143,2422.1,107.22232142857143,504.12857142857143,2522.7,215.22232142857143,429.12857142857143,2627.7,396.22232142857143,366.12857142857143,2731.8,406.22232142857143,358.12857142857143,2832.6,406.22232142857143,358.12857142857143,2939.2,406.22232142857143,358.12857142857143,3043.9,406.22232142857143,358.12857142857143,3146.9,406.22232142857143,358.12857142857143,3252.4,356.22232142857143,394.12857142857143,3352.9,68.22232142857143,490.12857142857143,3463.3,65.22232142857143,499.12857142857143,3571.9,76.22232142857143,500.12857142857143,3672.4,66.22232142857143,513.1285714285714,3783.7,56.222321428571426,522.1285714285714,3892.7,56.222321428571426,523.1285714285714,3993.1,56.222321428571426,523.1285714285714,4093.4,53.222321428571426,520.1285714285714,4202.3,53.222321428571426,520.1285714285714,4304,54.222321428571426,516.1285714285714,4406.4,157.22232142857143,448.12857142857143,4511.2,389.22232142857143,318.12857142857143,4613.6,439.22232142857143,290.12857142857143,4723,439.22232142857143,290.12857142857143,4836.2,439.22232142857143,290.12857142857143,4942.2]","[1357,1356.9,1000,0.1,356.9,""smooth"",""left"",""left"",""good_move"",4395.5,3037.6,2525.1,1357.9,512.5,""smooth"",""left"",""left"",""good_move"",7253.3,2854.7,2468.2,4398.6,386.5,""smooth"",""down"",""down"",""good_move"",10857.1,3601.3,3164.7,7255.8,436.6,""smooth"",""down"",""down"",""good_move"",14114.7,3256.6,2507.1,10858.1,749.5,""smooth"",""left"",""left"",""good_move"",17195.1,3079.7,2614.1,14115.4,465.6,""smooth"",""down"",""down"",""good_move""]","",""
"6472","","<div style=""width:500px;"">
  <p>What determined the result of this run?</p>
  </div>","100","html-slider-response","15","531618","0.0-5.0-1.1","8","1","2025-07-09 08:39:16","01610cd0009c79a99da7d0a3353eb402","216.120.189.119","Mozilla/5.0 (Windows NT 10.0; Win64; x64) AppleWebKit/537.36 (KHTML, like Gecko) Chrome/137.0.0.0 Safari/537.36","WebKit","Chrome","137.0.0.0","Windows","10.0","https://app.prolific.com/","en-US,en;q=0.9","669c1e1fdb95a995eb1d3077","683db7602f5db6a34d12d064","686e2a77392783fd0cf08e58","1","669c1e1fdb95a995eb1d3077","1","2025-07-09T08:48:11.552Z","","","","","","","","","","","AttribQ","","50","","","","","","","","","","","","","","","","","","","","","","","","","","","","",""
"3330","","<div style=""width:500px;"">
  <p>How much control did you have over the ball?</p>
  </div>","100","html-slider-response","16","534950","0.0-5.0-2.1","8","1","2025-07-09 08:39:16","01610cd0009c79a99da7d0a3353eb402","216.120.189.119","Mozilla/5.0 (Windows NT 10.0; Win64; x64) AppleWebKit/537.36 (KHTML, like Gecko) Chrome/137.0.0.0 Safari/537.36","WebKit","Chrome","137.0.0.0","Windows","10.0","https://app.prolific.com/","en-US,en;q=0.9","669c1e1fdb95a995eb1d3077","683db7602f5db6a34d12d064","686e2a77392783fd0cf08e58","1","669c1e1fdb95a995eb1d3077","1","2025-07-09T08:48:14.884Z","","","","","","","","","","","ControlQ","","50","","","","","","","","","","","","","","","","","","","","","","","","","","","","",""
"4299","","<div style=""width:500px;"">
  <p>How would you describe your current emotional state?</p>
  </div>","0","html-slider-response","17","539249","0.0-5.0-3.1","8","1","2025-07-09 08:39:16","01610cd0009c79a99da7d0a3353eb402","216.120.189.119","Mozilla/5.0 (Windows NT 10.0; Win64; x64) AppleWebKit/537.36 (KHTML, like Gecko) Chrome/137.0.0.0 Safari/537.36","WebKit","Chrome","137.0.0.0","Windows","10.0","https://app.prolific.com/","en-US,en;q=0.9","669c1e1fdb95a995eb1d3077","683db7602f5db6a34d12d064","686e2a77392783fd0cf08e58","1","669c1e1fdb95a995eb1d3077","1","2025-07-09T08:48:19.184Z","","","","","","","","","","","StressQ","","50","","","","","","","","","","","","","","","","","","","","","","","","","","","","",""
"3503","","<div style=""width:500px;"">
  <p>What best describes how you currently feel?</p>
  </div>","100","html-slider-response","18","542754","0.0-5.0-4.1","8","1","2025-07-09 08:39:16","01610cd0009c79a99da7d0a3353eb402","216.120.189.119","Mozilla/5.0 (Windows NT 10.0; Win64; x64) AppleWebKit/537.36 (KHTML, like Gecko) Chrome/137.0.0.0 Safari/537.36","WebKit","Chrome","137.0.0.0","Windows","10.0","https://app.prolific.com/","en-US,en;q=0.9","669c1e1fdb95a995eb1d3077","683db7602f5db6a34d12d064","686e2a77392783fd0cf08e58","1","669c1e1fdb95a995eb1d3077","1","2025-07-09T08:48:22.688Z","","","","","","","","","","","MotivationQ","","50","","","","","","","","","","","","","","","","","","","","","","","","","","","","",""
"","","","","ctl-task-cpt","19","577110","0.0-5.0-0.2","8","1","2025-07-09 08:39:16","01610cd0009c79a99da7d0a3353eb402","216.120.189.119","Mozilla/5.0 (Windows NT 10.0; Win64; x64) AppleWebKit/537.36 (KHTML, like Gecko) Chrome/137.0.0.0 Safari/537.36","WebKit","Chrome","137.0.0.0","Windows","10.0","https://app.prolific.com/","en-US,en;q=0.9","669c1e1fdb95a995eb1d3077","683db7602f5db6a34d12d064","686e2a77392783fd0cf08e58","1","669c1e1fdb95a995eb1d3077","1","2025-07-09T08:48:57.045Z","","","","","","","","","","","","","","win-only","2","g1:SE,g2:NW","0.8","3","0","548592.4","3505.1","8508.7","31339.8","1","4","8","6","2","8","8","20","12","0.15151515151515152","1349.3","3000","1350","[""left"",""up""]","{""num_key_presses"":6,""num_perfect"":5,""num_errors"":0,""num_randdir"":1,""num_randdir_good_moves"":1,""num_whilered"":0,""num_whileblue"":0,""num_blue"":2,""num_good_moves"":6}","[295.22232142857143,293.12857142857143,0.7,295.22232142857143,293.12857142857143,107.3,295.22232142857143,290.12857142857143,207.6,296.22232142857143,287.12857142857143,316.8,241.22232142857143,272.12857142857143,432.8,219.22232142857143,275.12857142857143,536.9,188.22232142857143,272.12857142857143,637.2,168.22232142857143,235.12857142857143,748.8,104.22232142857143,142.12857142857143,851.3,106.22232142857143,135.12857142857143,966.5,91.22232142857143,86.12857142857143,1070.6,76.22232142857143,74.12857142857143,1184.2,68.22232142857143,63.128571428571426,1285.6,68.22232142857143,63.128571428571426,1387.6,68.22232142857143,63.128571428571426,1491,68.22232142857143,63.128571428571426,1598.9,68.22232142857143,73.12857142857143,1700.1,77.22232142857143,91.12857142857143,1808.2,110.22232142857143,137.12857142857143,1908.2,131.22232142857143,161.12857142857143,2008.4,131.22232142857143,161.12857142857143,2116.4,131.22232142857143,161.12857142857143,2217.9,131.22232142857143,161.12857142857143,2325.1,131.22232142857143,161.12857142857143,2426.1,131.22232142857143,161.12857142857143,2526.2,131.22232142857143,161.12857142857143,2626.5,131.22232142857143,161.12857142857143,2736.5,131.22232142857143,161.12857142857143,2838.9,131.22232142857143,161.12857142857143,2943.8,131.22232142857143,161.12857142857143,3045.6,131.22232142857143,161.12857142857143,3154.6,131.22232142857143,161.12857142857143,3255.3,131.22232142857143,161.12857142857143,3358.2,131.22232142857143,161.12857142857143,3478.7,131.22232142857143,161.12857142857143,3587.1,114.22232142857143,157.12857142857143,3697.1,110.22232142857143,161.12857142857143,3801.3,122.22232142857143,198.12857142857143,3905.5,218.22232142857143,240.12857142857143,4009.4,224.22232142857143,246.12857142857143,4117.3,226.22232142857143,246.12857142857143,4217.5,226.22232142857143,246.12857142857143,4317.6,226.22232142857143,246.12857142857143,4423.7,226.22232142857143,246.12857142857143,4524,226.22232142857143,246.12857142857143,4624,226.22232142857143,246.12857142857143,4735.2,226.22232142857143,246.12857142857143,4850.7,226.22232142857143,246.12857142857143,4957]","[4497.6,4497.6,2104.3,2019.8,373.5,""smooth"",""up"",""up"",""good_move"",6626.5,2127,1670.8,4499.5,456.2,""smooth"",""up"",""up"",""good_move"",13295.4,6667.2,2466.6,10413.6,415.2,""smooth"",""left"",""left"",""good_move"",16226.7,2930.2,2504.5,13296.5,425.7,""oops"",""left"",""left"",""good_move"",19573.4,3345.9,2816.6,16227.5,529.3,""smooth"",""left"",""left"",""good_move"",22704.9,3129.7,2705,19575.2,424.7,""smooth"",""up"",""up"",""good_move""]","",""
"3344","","<div style=""width:500px;"">
  <p>What determined the result of this run?</p>
  </div>","100","html-slider-response","20","580458","0.0-5.0-1.2","8","1","2025-07-09 08:39:16","01610cd0009c79a99da7d0a3353eb402","216.120.189.119","Mozilla/5.0 (Windows NT 10.0; Win64; x64) AppleWebKit/537.36 (KHTML, like Gecko) Chrome/137.0.0.0 Safari/537.36","WebKit","Chrome","137.0.0.0","Windows","10.0","https://app.prolific.com/","en-US,en;q=0.9","669c1e1fdb95a995eb1d3077","683db7602f5db6a34d12d064","686e2a77392783fd0cf08e58","1","669c1e1fdb95a995eb1d3077","1","2025-07-09T08:49:00.393Z","","","","","","","","","","","AttribQ","","50","","","","","","","","","","","","","","","","","","","","","","","","","","","","",""
"4712","","<div style=""width:500px;"">
  <p>How much control did you have over the ball?</p>
  </div>","100","html-slider-response","21","585172","0.0-5.0-2.2","8","1","2025-07-09 08:39:16","01610cd0009c79a99da7d0a3353eb402","216.120.189.119","Mozilla/5.0 (Windows NT 10.0; Win64; x64) AppleWebKit/537.36 (KHTML, like Gecko) Chrome/137.0.0.0 Safari/537.36","WebKit","Chrome","137.0.0.0","Windows","10.0","https://app.prolific.com/","en-US,en;q=0.9","669c1e1fdb95a995eb1d3077","683db7602f5db6a34d12d064","686e2a77392783fd0cf08e58","1","669c1e1fdb95a995eb1d3077","1","2025-07-09T08:49:05.106Z","","","","","","","","","","","ControlQ","","50","","","","","","","","","","","","","","","","","","","","","","","","","","","","",""
"5057","","<div style=""width:500px;"">
  <p>How would you describe your current emotional state?</p>
  </div>","2","html-slider-response","22","590231","0.0-5.0-3.2","8","1","2025-07-09 08:39:16","01610cd0009c79a99da7d0a3353eb402","216.120.189.119","Mozilla/5.0 (Windows NT 10.0; Win64; x64) AppleWebKit/537.36 (KHTML, like Gecko) Chrome/137.0.0.0 Safari/537.36","WebKit","Chrome","137.0.0.0","Windows","10.0","https://app.prolific.com/","en-US,en;q=0.9","669c1e1fdb95a995eb1d3077","683db7602f5db6a34d12d064","686e2a77392783fd0cf08e58","1","669c1e1fdb95a995eb1d3077","1","2025-07-09T08:49:10.165Z","","","","","","","","","","","StressQ","","50","","","","","","","","","","","","","","","","","","","","","","","","","","","","",""
"4044","","<div style=""width:500px;"">
  <p>What best describes how you currently feel?</p>
  </div>","100","html-slider-response","23","594276","0.0-5.0-4.2","8","1","2025-07-09 08:39:16","01610cd0009c79a99da7d0a3353eb402","216.120.189.119","Mozilla/5.0 (Windows NT 10.0; Win64; x64) AppleWebKit/537.36 (KHTML, like Gecko) Chrome/137.0.0.0 Safari/537.36","WebKit","Chrome","137.0.0.0","Windows","10.0","https://app.prolific.com/","en-US,en;q=0.9","669c1e1fdb95a995eb1d3077","683db7602f5db6a34d12d064","686e2a77392783fd0cf08e58","1","669c1e1fdb95a995eb1d3077","1","2025-07-09T08:49:14.211Z","","","","","","","","","","","MotivationQ","","50","","","","","","","","","","","","","","","","","","","","","","","","","","","","",""
"","","","","ctl-task-cpt","24","630064","0.0-5.0-0.3","8","1","2025-07-09 08:39:16","01610cd0009c79a99da7d0a3353eb402","216.120.189.119","Mozilla/5.0 (Windows NT 10.0; Win64; x64) AppleWebKit/537.36 (KHTML, like Gecko) Chrome/137.0.0.0 Safari/537.36","WebKit","Chrome","137.0.0.0","Windows","10.0","https://app.prolific.com/","en-US,en;q=0.9","669c1e1fdb95a995eb1d3077","683db7602f5db6a34d12d064","686e2a77392783fd0cf08e58","1","669c1e1fdb95a995eb1d3077","1","2025-07-09T08:49:49.999Z","","","","","","","","","","","","","","win-only","2","g1:SE,g2:NW","0.7","4","0","600114.8","4543.4","9548.1","32776.7","1","4","4","6","2","4","4","24","20","0.18181818181818182","1067.9","3000","835","[""left"",""up""]","{""num_key_presses"":8,""num_perfect"":6,""num_errors"":0,""num_randdir"":2,""num_randdir_good_moves"":1,""num_whilered"":0,""num_whileblue"":0,""num_blue"":0,""num_good_moves"":7}","[301.22232142857143,300.12857142857143,1.3,301.22232142857143,300.12857142857143,100.9,301.22232142857143,300.12857142857143,209.1,301.22232142857143,300.12857142857143,309.2,297.22232142857143,300.12857142857143,419,193.22232142857143,196.12857142857143,529.7,100.22232142857143,87.12857142857143,634.3,95.22232142857143,70.12857142857143,738.1,95.22232142857143,69.12857142857143,838.7,75.22232142857143,69.12857142857143,945.4,68.22232142857143,68.12857142857143,1051.4,68.22232142857143,68.12857142857143,1159.9,68.22232142857143,68.12857142857143,1268.9,68.22232142857143,68.12857142857143,1371.2,68.22232142857143,68.12857142857143,1472.1,194.22232142857143,132.12857142857143,1577.9,295.22232142857143,182.12857142857143,1678.8,292.22232142857143,200.12857142857143,1778.9,288.22232142857143,202.12857142857143,1879.4,283.22232142857143,195.12857142857143,1988.8,283.22232142857143,195.12857142857143,2089.3,283.22232142857143,195.12857142857143,2194.9,283.22232142857143,195.12857142857143,2299.2,281.22232142857143,193.12857142857143,2403.2,281.22232142857143,193.12857142857143,2505.3,281.22232142857143,193.12857142857143,2610.5,281.22232142857143,193.12857142857143,2716,281.22232142857143,193.12857142857143,2821.6,281.22232142857143,193.12857142857143,2923.8,281.22232142857143,193.12857142857143,3028.2,281.22232142857143,193.12857142857143,3128.2,281.22232142857143,193.12857142857143,3228.7,281.22232142857143,193.12857142857143,3329.2,281.22232142857143,193.12857142857143,3431.3,281.22232142857143,193.12857142857143,3535.9,281.22232142857143,193.12857142857143,3637.9,281.22232142857143,193.12857142857143,3738,281.22232142857143,193.12857142857143,3849.6,281.22232142857143,193.12857142857143,3950.5,281.22232142857143,193.12857142857143,4053,281.22232142857143,193.12857142857143,4160.7,281.22232142857143,193.12857142857143,4263.6,281.22232142857143,193.12857142857143,4364.1,281.22232142857143,193.12857142857143,4471.8,281.22232142857143,193.12857142857143,4578.8,281.22232142857143,193.12857142857143,4679.2,281.22232142857143,193.12857142857143,4791.3,281.22232142857143,193.12857142857143,4897.3,281.22232142857143,193.12857142857143,4999.1]","[1554.1,1554.1,1000,0,554.1,""smooth"",""up"",""up"",""good_move"",5080.9,3524.3,3046.3,1556.6,478.1,""smooth"",""up"",""up"",""good_move"",7631.8,2548.9,2114.6,5083,434.2,""oops"",""up"",""up"",""good_move"",10209.7,2577.1,2169.6,7632.6,407.5,""smooth"",""left"",""left"",""good_move"",12645.7,2434.4,2010.9,10211.5,423.4,""smooth"",""left"",""left"",""good_move"",15916,3269.7,2801.8,12646.3,467.9,""oops"",""left"",""down"",""bad_move"",19605.3,3686.4,3297.5,15918.9,388.9,""smooth"",""left"",""left"",""good_move"",23089,3482.5,3060.9,19606.6,421.6,""smooth"",""up"",""up"",""good_move""]","",""
"3440","","<div style=""width:500px;"">
  <p>What determined the result of this run?</p>
  </div>","100","html-slider-response","25","633508","0.0-5.0-1.3","8","1","2025-07-09 08:39:16","01610cd0009c79a99da7d0a3353eb402","216.120.189.119","Mozilla/5.0 (Windows NT 10.0; Win64; x64) AppleWebKit/537.36 (KHTML, like Gecko) Chrome/137.0.0.0 Safari/537.36","WebKit","Chrome","137.0.0.0","Windows","10.0","https://app.prolific.com/","en-US,en;q=0.9","669c1e1fdb95a995eb1d3077","683db7602f5db6a34d12d064","686e2a77392783fd0cf08e58","1","669c1e1fdb95a995eb1d3077","1","2025-07-09T08:49:53.442Z","","","","","","","","","","","AttribQ","","50","","","","","","","","","","","","","","","","","","","","","","","","","","","","",""
"2734","","<div style=""width:500px;"">
  <p>How much control did you have over the ball?</p>
  </div>","100","html-slider-response","26","636244","0.0-5.0-2.3","8","1","2025-07-09 08:39:16","01610cd0009c79a99da7d0a3353eb402","216.120.189.119","Mozilla/5.0 (Windows NT 10.0; Win64; x64) AppleWebKit/537.36 (KHTML, like Gecko) Chrome/137.0.0.0 Safari/537.36","WebKit","Chrome","137.0.0.0","Windows","10.0","https://app.prolific.com/","en-US,en;q=0.9","669c1e1fdb95a995eb1d3077","683db7602f5db6a34d12d064","686e2a77392783fd0cf08e58","1","669c1e1fdb95a995eb1d3077","1","2025-07-09T08:49:56.178Z","","","","","","","","","","","ControlQ","","50","","","","","","","","","","","","","","","","","","","","","","","","","","","","",""
"3179","","<div style=""width:500px;"">
  <p>How would you describe your current emotional state?</p>
  </div>","0","html-slider-response","27","639425","0.0-5.0-3.3","8","1","2025-07-09 08:39:16","01610cd0009c79a99da7d0a3353eb402","216.120.189.119","Mozilla/5.0 (Windows NT 10.0; Win64; x64) AppleWebKit/537.36 (KHTML, like Gecko) Chrome/137.0.0.0 Safari/537.36","WebKit","Chrome","137.0.0.0","Windows","10.0","https://app.prolific.com/","en-US,en;q=0.9","669c1e1fdb95a995eb1d3077","683db7602f5db6a34d12d064","686e2a77392783fd0cf08e58","1","669c1e1fdb95a995eb1d3077","1","2025-07-09T08:49:59.359Z","","","","","","","","","","","StressQ","","50","","","","","","","","","","","","","","","","","","","","","","","","","","","","",""
"2637","","<div style=""width:500px;"">
  <p>What best describes how you currently feel?</p>
  </div>","100","html-slider-response","28","642064","0.0-5.0-4.3","8","1","2025-07-09 08:39:16","01610cd0009c79a99da7d0a3353eb402","216.120.189.119","Mozilla/5.0 (Windows NT 10.0; Win64; x64) AppleWebKit/537.36 (KHTML, like Gecko) Chrome/137.0.0.0 Safari/537.36","WebKit","Chrome","137.0.0.0","Windows","10.0","https://app.prolific.com/","en-US,en;q=0.9","669c1e1fdb95a995eb1d3077","683db7602f5db6a34d12d064","686e2a77392783fd0cf08e58","1","669c1e1fdb95a995eb1d3077","1","2025-07-09T08:50:01.998Z","","","","","","","","","","","MotivationQ","","50","","","","","","","","","","","","","","","","","","","","","","","","","","","","",""
"","","","","ctl-task-cpt","29","701049","0.0-5.0-0.4","8","1","2025-07-09 08:39:16","01610cd0009c79a99da7d0a3353eb402","216.120.189.119","Mozilla/5.0 (Windows NT 10.0; Win64; x64) AppleWebKit/537.36 (KHTML, like Gecko) Chrome/137.0.0.0 Safari/537.36","WebKit","Chrome","137.0.0.0","Windows","10.0","https://app.prolific.com/","en-US,en;q=0.9","669c1e1fdb95a995eb1d3077","683db7602f5db6a34d12d064","686e2a77392783fd0cf08e58","1","669c1e1fdb95a995eb1d3077","1","2025-07-09T08:51:00.983Z","","","","","","","","","","","","","","win-only","3","g1:SW,g2:NE","0.6","5","0","647903.9","1035.5","6042.8","55971.8","1","4","8","6","2","-8","-9","15","24","0.11363636363636363","1240.2","3000","-1910","[""up"",""right""]","{""num_key_presses"":12,""num_perfect"":7,""num_errors"":1,""num_randdir"":4,""num_randdir_good_moves"":0,""num_whilered"":0,""num_whileblue"":1,""num_blue"":5,""num_good_moves"":6}","[300.22232142857143,295.12857142857143,1.8,300.22232142857143,295.12857142857143,105,300.22232142857143,295.12857142857143,209.2,300.22232142857143,295.12857142857143,324.7,293.22232142857143,312.12857142857143,436.4,252.22232142857143,356.12857142857143,539.8,212.22232142857143,383.12857142857143,641.1,259.22232142857143,335.12857142857143,744.8,490.22232142857143,130.12857142857143,847.2,519.2223214285714,54.128571428571426,951.8,519.2223214285714,53.128571428571426,1054,527.2223214285714,55.128571428571426,1155.4,534.2223214285714,55.128571428571426,1258.9,536.2223214285714,56.128571428571426,1361.6,536.2223214285714,56.128571428571426,1464.9,530.2223214285714,65.12857142857143,1569.6,517.2223214285714,83.12857142857143,1673.5,448.22232142857143,213.12857142857143,1782.2,418.22232142857143,270.12857142857143,1885.9,418.22232142857143,274.12857142857143,1987.9,418.22232142857143,274.12857142857143,2088.6,418.22232142857143,274.12857142857143,2188.8,416.22232142857143,274.12857142857143,2288.8,416.22232142857143,274.12857142857143,2390.7,416.22232142857143,274.12857142857143,2491.6,415.22232142857143,274.12857142857143,2593.5,415.22232142857143,274.12857142857143,2697.7,415.22232142857143,274.12857142857143,2801.8,414.22232142857143,274.12857142857143,2902,413.22232142857143,274.12857142857143,3016.8,413.22232142857143,274.12857142857143,3121,413.22232142857143,274.12857142857143,3224,413.22232142857143,274.12857142857143,3324.2,413.22232142857143,274.12857142857143,3425.5,413.22232142857143,274.12857142857143,3526.8,413.22232142857143,274.12857142857143,3629.7,413.22232142857143,274.12857142857143,3749.7,413.22232142857143,274.12857142857143,3851.8,413.22232142857143,274.12857142857143,3953.5,413.22232142857143,274.12857142857143,4062,413.22232142857143,274.12857142857143,4167.4,413.22232142857143,274.12857142857143,4268.6,413.22232142857143,274.12857142857143,4374.9,413.22232142857143,274.12857142857143,4475.4,413.22232142857143,274.12857142857143,4578.1,413.22232142857143,274.12857142857143,4678.4,413.22232142857143,274.12857142857143,4789.8,413.22232142857143,274.12857142857143,4905.3]","[1380.5,1380.5,1000,0,380.5,""smooth"",""up"",""up"",""good_move"",4581.3,3199.3,2820.8,1382.1,378.5,""smooth"",""right"",""right"",""good_move"",7205.9,2623.4,2267.1,4582.5,356.3,""smooth"",""up"",""up"",""good_move"",9767.5,2559.4,2073.7,7208.2,485.7,""while_blue"",""right"",""down"",""bad_move"",12873.5,3103.2,2684.8,9770.3,418.4,""smooth"",""right"",""right"",""good_move"",15324.7,2450.2,1955.9,12874.5,494.3,""oops"",""up"",""left"",""bad_move"",18144.3,2818.4,2391.7,15325.9,426.7,""smooth"",""up"",""up"",""good_move"",21300.6,3155,2647.4,18145.6,507.6,""smooth"",""up"",""up"",""good_move"",31532.1,10229.4,2493.2,28570,468.9,""oops"",""right"",""left"",""bad_move"",37788.5,6256,1986.7,35326,475.8,""oops"",""right"",""left"",""bad_move"",40794.6,3005.4,2392.1,37789.2,613.3,""oops"",""right"",""left"",""bad_move"",47545.6,6750.4,2445.3,44569.1,531.2,""smooth"",""down"",""down"",""bad_move""]","",""
"6806","","<div style=""width:500px;"">
  <p>What determined the result of this run?</p>
  </div>","68","html-slider-response","30","707857","0.0-5.0-1.4","8","1","2025-07-09 08:39:16","01610cd0009c79a99da7d0a3353eb402","216.120.189.119","Mozilla/5.0 (Windows NT 10.0; Win64; x64) AppleWebKit/537.36 (KHTML, like Gecko) Chrome/137.0.0.0 Safari/537.36","WebKit","Chrome","137.0.0.0","Windows","10.0","https://app.prolific.com/","en-US,en;q=0.9","669c1e1fdb95a995eb1d3077","683db7602f5db6a34d12d064","686e2a77392783fd0cf08e58","1","669c1e1fdb95a995eb1d3077","1","2025-07-09T08:51:07.791Z","","","","","","","","","","","AttribQ","","50","","","","","","","","","","","","","","","","","","","","","","","","","","","","",""
"2140","","<div style=""width:500px;"">
  <p>How much control did you have over the ball?</p>
  </div>","98","html-slider-response","31","709999","0.0-5.0-2.4","8","1","2025-07-09 08:39:16","01610cd0009c79a99da7d0a3353eb402","216.120.189.119","Mozilla/5.0 (Windows NT 10.0; Win64; x64) AppleWebKit/537.36 (KHTML, like Gecko) Chrome/137.0.0.0 Safari/537.36","WebKit","Chrome","137.0.0.0","Windows","10.0","https://app.prolific.com/","en-US,en;q=0.9","669c1e1fdb95a995eb1d3077","683db7602f5db6a34d12d064","686e2a77392783fd0cf08e58","1","669c1e1fdb95a995eb1d3077","1","2025-07-09T08:51:09.933Z","","","","","","","","","","","ControlQ","","50","","","","","","","","","","","","","","","","","","","","","","","","","","","","",""
"3308","","<div style=""width:500px;"">
  <p>How would you describe your current emotional state?</p>
  </div>","21","html-slider-response","32","713309","0.0-5.0-3.4","8","1","2025-07-09 08:39:16","01610cd0009c79a99da7d0a3353eb402","216.120.189.119","Mozilla/5.0 (Windows NT 10.0; Win64; x64) AppleWebKit/537.36 (KHTML, like Gecko) Chrome/137.0.0.0 Safari/537.36","WebKit","Chrome","137.0.0.0","Windows","10.0","https://app.prolific.com/","en-US,en;q=0.9","669c1e1fdb95a995eb1d3077","683db7602f5db6a34d12d064","686e2a77392783fd0cf08e58","1","669c1e1fdb95a995eb1d3077","1","2025-07-09T08:51:13.243Z","","","","","","","","","","","StressQ","","50","","","","","","","","","","","","","","","","","","","","","","","","","","","","",""
"2251","","<div style=""width:500px;"">
  <p>What best describes how you currently feel?</p>
  </div>","100","html-slider-response","33","715564","0.0-5.0-4.4","8","1","2025-07-09 08:39:16","01610cd0009c79a99da7d0a3353eb402","216.120.189.119","Mozilla/5.0 (Windows NT 10.0; Win64; x64) AppleWebKit/537.36 (KHTML, like Gecko) Chrome/137.0.0.0 Safari/537.36","WebKit","Chrome","137.0.0.0","Windows","10.0","https://app.prolific.com/","en-US,en;q=0.9","669c1e1fdb95a995eb1d3077","683db7602f5db6a34d12d064","686e2a77392783fd0cf08e58","1","669c1e1fdb95a995eb1d3077","1","2025-07-09T08:51:15.498Z","","","","","","","","","","","MotivationQ","","50","","","","","","","","","","","","","","","","","","","","","","","","","","","","",""
"","","","","ctl-task-cpt","34","769440","0.0-5.0-0.5","8","1","2025-07-09 08:39:16","01610cd0009c79a99da7d0a3353eb402","216.120.189.119","Mozilla/5.0 (Windows NT 10.0; Win64; x64) AppleWebKit/537.36 (KHTML, like Gecko) Chrome/137.0.0.0 Safari/537.36","WebKit","Chrome","137.0.0.0","Windows","10.0","https://app.prolific.com/","en-US,en;q=0.9","669c1e1fdb95a995eb1d3077","683db7602f5db6a34d12d064","686e2a77392783fd0cf08e58","1","669c1e1fdb95a995eb1d3077","1","2025-07-09T08:52:09.375Z","","","","","","","","","","","","","","win-only","0","g1:NW,g2:SE","0.5","6","0","721402.4","1821.8","6831.1","50838.5","1","4","4","6","2","-4","-4","11","15","0.08333333333333333","1439.8","3000","-1880","[""down"",""right""]","{""num_key_presses"":11,""num_perfect"":6,""num_errors"":0,""num_randdir"":5,""num_randdir_good_moves"":2,""num_whilered"":0,""num_whileblue"":0,""num_blue"":3,""num_good_moves"":8}","[288.22232142857143,293.12857142857143,0.9,288.22232142857143,293.12857142857143,109.6,298.22232142857143,293.12857142857143,221.9,319.22232142857143,293.12857142857143,325,327.22232142857143,301.12857142857143,426.3,331.22232142857143,309.12857142857143,533.3,340.22232142857143,321.12857142857143,633.4,428.22232142857143,407.12857142857143,736.9,536.2223214285714,502.12857142857143,842.2,615.2223214285714,557.1285714285714,944.4,622.2223214285714,560.1285714285714,1048.8,619.2223214285714,560.1285714285714,1150,562.2223214285714,544.1285714285714,1250,554.2223214285714,543.1285714285714,1361.2,554.2223214285714,543.1285714285714,1474.1,553.2223214285714,540.1285714285714,1576.1,553.2223214285714,535.1285714285714,1677.8,558.2223214285714,527.1285714285714,1778.3,596.2223214285714,502.12857142857143,1880.4,604.2223214285714,484.12857142857143,1987.3,605.2223214285714,482.12857142857143,2087.4,605.2223214285714,482.12857142857143,2199.4,605.2223214285714,482.12857142857143,2299.6,605.2223214285714,482.12857142857143,2400.7,605.2223214285714,482.12857142857143,2502.9,605.2223214285714,482.12857142857143,2603.4,605.2223214285714,482.12857142857143,2705.8,605.2223214285714,482.12857142857143,2813.3,605.2223214285714,482.12857142857143,2914.9,605.2223214285714,482.12857142857143,3015.3,605.2223214285714,482.12857142857143,3123.2,605.2223214285714,482.12857142857143,3228.4,605.2223214285714,482.12857142857143,3333.4,605.2223214285714,482.12857142857143,3439.3,605.2223214285714,482.12857142857143,3542,605.2223214285714,482.12857142857143,3651,605.2223214285714,482.12857142857143,3751.3,605.2223214285714,482.12857142857143,3852.6,605.2223214285714,482.12857142857143,3954.1,605.2223214285714,482.12857142857143,4055.9,605.2223214285714,482.12857142857143,4158.8,605.2223214285714,482.12857142857143,4272.2,605.2223214285714,482.12857142857143,4372.5,605.2223214285714,482.12857142857143,4474.1,605.2223214285714,482.12857142857143,4576.3,605.2223214285714,482.12857142857143,4684.4,605.2223214285714,482.12857142857143,4789.1,605.2223214285714,482.12857142857143,4900.7]","[1457.4,1457.4,1000,0,457.4,""smooth"",""down"",""down"",""good_move"",4401.1,2943.1,2535.7,1458,407.4,""oops"",""right"",""down"",""good_move"",7565.2,3163.7,2744.1,4401.5,419.6,""oops"",""right"",""left"",""bad_move"",10339,2772.4,2362.8,7566.6,409.6,""smooth"",""right"",""right"",""good_move"",16385.9,6046.1,2645.5,13255.5,485,""smooth"",""right"",""right"",""good_move"",19835.3,3448.3,2960.9,16387,487.4,""oops"",""down"",""up"",""bad_move"",22685.1,2848.4,2380,19836.7,468.4,""smooth"",""right"",""right"",""good_move"",25031.9,2346.4,1925,22685.5,421.4,""smooth"",""down"",""down"",""good_move"",27811.7,2778.6,2320,25033.1,458.6,""oops"",""down"",""down"",""good_move"",30507.6,2695.3,2212.2,27812.3,483.1,""oops"",""right"",""up"",""bad_move"",41223.2,10714.6,2997.8,37779,446.4,""smooth"",""right"",""right"",""good_move""]","",""
"3252","","<div style=""width:500px;"">
  <p>What determined the result of this run?</p>
  </div>","100","html-slider-response","35","772695","0.0-5.0-1.5","8","1","2025-07-09 08:39:16","01610cd0009c79a99da7d0a3353eb402","216.120.189.119","Mozilla/5.0 (Windows NT 10.0; Win64; x64) AppleWebKit/537.36 (KHTML, like Gecko) Chrome/137.0.0.0 Safari/537.36","WebKit","Chrome","137.0.0.0","Windows","10.0","https://app.prolific.com/","en-US,en;q=0.9","669c1e1fdb95a995eb1d3077","683db7602f5db6a34d12d064","686e2a77392783fd0cf08e58","1","669c1e1fdb95a995eb1d3077","1","2025-07-09T08:52:12.629Z","","","","","","","","","","","AttribQ","","50","","","","","","","","","","","","","","","","","","","","","","","","","","","","",""
"4666","","<div style=""width:500px;"">
  <p>How much control did you have over the ball?</p>
  </div>","19","html-slider-response","36","777364","0.0-5.0-2.5","8","1","2025-07-09 08:39:16","01610cd0009c79a99da7d0a3353eb402","216.120.189.119","Mozilla/5.0 (Windows NT 10.0; Win64; x64) AppleWebKit/537.36 (KHTML, like Gecko) Chrome/137.0.0.0 Safari/537.36","WebKit","Chrome","137.0.0.0","Windows","10.0","https://app.prolific.com/","en-US,en;q=0.9","669c1e1fdb95a995eb1d3077","683db7602f5db6a34d12d064","686e2a77392783fd0cf08e58","1","669c1e1fdb95a995eb1d3077","1","2025-07-09T08:52:17.298Z","","","","","","","","","","","ControlQ","","50","","","","","","","","","","","","","","","","","","","","","","","","","","","","",""
"6193","","<div style=""width:500px;"">
  <p>How would you describe your current emotional state?</p>
  </div>","19","html-slider-response","37","783559","0.0-5.0-3.5","8","1","2025-07-09 08:39:16","01610cd0009c79a99da7d0a3353eb402","216.120.189.119","Mozilla/5.0 (Windows NT 10.0; Win64; x64) AppleWebKit/537.36 (KHTML, like Gecko) Chrome/137.0.0.0 Safari/537.36","WebKit","Chrome","137.0.0.0","Windows","10.0","https://app.prolific.com/","en-US,en;q=0.9","669c1e1fdb95a995eb1d3077","683db7602f5db6a34d12d064","686e2a77392783fd0cf08e58","1","669c1e1fdb95a995eb1d3077","1","2025-07-09T08:52:23.493Z","","","","","","","","","","","StressQ","","50","","","","","","","","","","","","","","","","","","","","","","","","","","","","",""
"2486","","<div style=""width:500px;"">
  <p>What best describes how you currently feel?</p>
  </div>","97","html-slider-response","38","786047","0.0-5.0-4.5","8","1","2025-07-09 08:39:16","01610cd0009c79a99da7d0a3353eb402","216.120.189.119","Mozilla/5.0 (Windows NT 10.0; Win64; x64) AppleWebKit/537.36 (KHTML, like Gecko) Chrome/137.0.0.0 Safari/537.36","WebKit","Chrome","137.0.0.0","Windows","10.0","https://app.prolific.com/","en-US,en;q=0.9","669c1e1fdb95a995eb1d3077","683db7602f5db6a34d12d064","686e2a77392783fd0cf08e58","1","669c1e1fdb95a995eb1d3077","1","2025-07-09T08:52:25.981Z","","","","","","","","","","","MotivationQ","","50","","","","","","","","","","","","","","","","","","","","","","","","","","","","",""
"","","","","ctl-task-cpt","39","820540","0.0-5.0-0.6","8","1","2025-07-09 08:39:16","01610cd0009c79a99da7d0a3353eb402","216.120.189.119","Mozilla/5.0 (Windows NT 10.0; Win64; x64) AppleWebKit/537.36 (KHTML, like Gecko) Chrome/137.0.0.0 Safari/537.36","WebKit","Chrome","137.0.0.0","Windows","10.0","https://app.prolific.com/","en-US,en;q=0.9","669c1e1fdb95a995eb1d3077","683db7602f5db6a34d12d064","686e2a77392783fd0cf08e58","1","669c1e1fdb95a995eb1d3077","1","2025-07-09T08:53:00.474Z","","","","","","","","","","","","","","win-only","1","g1:NE,g2:SW","0.4","7","0","791885.4","1593.1","6595.6","31469.6","1","4","4","6","2","4","4","15","11","0.11363636363636363","1481.1","3000","965","[""down"",""left""]","{""num_key_presses"":8,""num_perfect"":4,""num_errors"":0,""num_randdir"":4,""num_randdir_good_moves"":3,""num_whilered"":0,""num_whileblue"":0,""num_blue"":1,""num_good_moves"":7}","[301.22232142857143,288.12857142857143,0.3,301.22232142857143,288.12857142857143,102.5,301.22232142857143,287.12857142857143,222.3,302.22232142857143,278.12857142857143,322.4,337.22232142857143,246.12857142857143,429.5,438.22232142857143,142.12857142857143,535.8,499.22232142857143,96.12857142857143,648.4,402.22232142857143,183.12857142857143,753.2,138.22232142857143,464.12857142857143,854.3,59.222321428571426,554.1285714285714,958.3,38.222321428571426,565.1285714285714,1060.9,22.222321428571426,586.1285714285714,1162.1,28.222321428571426,578.1285714285714,1269.7,54.222321428571426,549.1285714285714,1374.2,57.222321428571426,545.1285714285714,1486.5,57.222321428571426,545.1285714285714,1588.8,58.222321428571426,541.1285714285714,1689.6,59.222321428571426,539.1285714285714,1793.7,79.22232142857143,515.1285714285714,1894.8,81.22232142857143,514.1285714285714,2011.4,81.22232142857143,514.1285714285714,2112.8,81.22232142857143,514.1285714285714,2216.3,81.22232142857143,514.1285714285714,2318.6,81.22232142857143,514.1285714285714,2424,81.22232142857143,514.1285714285714,2533.7,81.22232142857143,514.1285714285714,2635.3,81.22232142857143,514.1285714285714,2753,81.22232142857143,514.1285714285714,2867,81.22232142857143,514.1285714285714,2982.4,81.22232142857143,514.1285714285714,3088.3,81.22232142857143,514.1285714285714,3199.3,81.22232142857143,514.1285714285714,3302.5,81.22232142857143,514.1285714285714,3409.8,81.22232142857143,514.1285714285714,3522.8,81.22232142857143,514.1285714285714,3624.5,81.22232142857143,514.1285714285714,3737.1,81.22232142857143,514.1285714285714,3850.7,81.22232142857143,514.1285714285714,3954.1,81.22232142857143,514.1285714285714,4056.3,81.22232142857143,514.1285714285714,4159.7,81.22232142857143,514.1285714285714,4262.6,81.22232142857143,514.1285714285714,4363.3,81.22232142857143,514.1285714285714,4464,81.22232142857143,514.1285714285714,4567.3,81.22232142857143,514.1285714285714,4685.7,81.22232142857143,514.1285714285714,4794.1,81.22232142857143,514.1285714285714,4900.9]","[1610.2,1610.2,1000,0,610.2,""smooth"",""down"",""down"",""good_move"",4302.2,2691.4,2280,1610.8,411.5,""oops"",""down"",""left"",""good_move"",7287.9,2984.8,2524.7,4303.1,460.1,""oops"",""down"",""down"",""good_move"",9976,2687.3,2221.9,7288.7,465.4,""smooth"",""down"",""down"",""good_move"",12939.2,2962.4,2531.5,9976.8,430.9,""smooth"",""left"",""left"",""good_move"",15122.8,2183,1677.8,12939.8,505.2,""oops"",""left"",""right"",""bad_move"",21790,6666.2,2592.3,18783.7,414.1,""oops"",""left"",""left"",""good_move"",24708.5,2918,2500.1,21790.6,417.8,""smooth"",""left"",""left"",""good_move""]","",""
"2285","","<div style=""width:500px;"">
  <p>What determined the result of this run?</p>
  </div>","100","html-slider-response","40","822827","0.0-5.0-1.6","8","1","2025-07-09 08:39:16","01610cd0009c79a99da7d0a3353eb402","216.120.189.119","Mozilla/5.0 (Windows NT 10.0; Win64; x64) AppleWebKit/537.36 (KHTML, like Gecko) Chrome/137.0.0.0 Safari/537.36","WebKit","Chrome","137.0.0.0","Windows","10.0","https://app.prolific.com/","en-US,en;q=0.9","669c1e1fdb95a995eb1d3077","683db7602f5db6a34d12d064","686e2a77392783fd0cf08e58","1","669c1e1fdb95a995eb1d3077","1","2025-07-09T08:53:02.761Z","","","","","","","","","","","AttribQ","","50","","","","","","","","","","","","","","","","","","","","","","","","","","","","",""
"2885","","<div style=""width:500px;"">
  <p>How much control did you have over the ball?</p>
  </div>","100","html-slider-response","41","825714","0.0-5.0-2.6","8","1","2025-07-09 08:39:16","01610cd0009c79a99da7d0a3353eb402","216.120.189.119","Mozilla/5.0 (Windows NT 10.0; Win64; x64) AppleWebKit/537.36 (KHTML, like Gecko) Chrome/137.0.0.0 Safari/537.36","WebKit","Chrome","137.0.0.0","Windows","10.0","https://app.prolific.com/","en-US,en;q=0.9","669c1e1fdb95a995eb1d3077","683db7602f5db6a34d12d064","686e2a77392783fd0cf08e58","1","669c1e1fdb95a995eb1d3077","1","2025-07-09T08:53:05.648Z","","","","","","","","","","","ControlQ","","50","","","","","","","","","","","","","","","","","","","","","","","","","","","","",""
"3691","","<div style=""width:500px;"">
  <p>How would you describe your current emotional state?</p>
  </div>","1","html-slider-response","42","829407","0.0-5.0-3.6","8","1","2025-07-09 08:39:16","01610cd0009c79a99da7d0a3353eb402","216.120.189.119","Mozilla/5.0 (Windows NT 10.0; Win64; x64) AppleWebKit/537.36 (KHTML, like Gecko) Chrome/137.0.0.0 Safari/537.36","WebKit","Chrome","137.0.0.0","Windows","10.0","https://app.prolific.com/","en-US,en;q=0.9","669c1e1fdb95a995eb1d3077","683db7602f5db6a34d12d064","686e2a77392783fd0cf08e58","1","669c1e1fdb95a995eb1d3077","1","2025-07-09T08:53:09.341Z","","","","","","","","","","","StressQ","","50","","","","","","","","","","","","","","","","","","","","","","","","","","","","",""
"2403","","<div style=""width:500px;"">
  <p>What best describes how you currently feel?</p>
  </div>","100","html-slider-response","43","831812","0.0-5.0-4.6","8","1","2025-07-09 08:39:16","01610cd0009c79a99da7d0a3353eb402","216.120.189.119","Mozilla/5.0 (Windows NT 10.0; Win64; x64) AppleWebKit/537.36 (KHTML, like Gecko) Chrome/137.0.0.0 Safari/537.36","WebKit","Chrome","137.0.0.0","Windows","10.0","https://app.prolific.com/","en-US,en;q=0.9","669c1e1fdb95a995eb1d3077","683db7602f5db6a34d12d064","686e2a77392783fd0cf08e58","1","669c1e1fdb95a995eb1d3077","1","2025-07-09T08:53:11.746Z","","","","","","","","","","","MotivationQ","","50","","","","","","","","","","","","","","","","","","","","","","","","","","","","",""
"","","","","ctl-task-cpt","44","878299","0.0-5.0-0.7","8","1","2025-07-09 08:39:16","01610cd0009c79a99da7d0a3353eb402","216.120.189.119","Mozilla/5.0 (Windows NT 10.0; Win64; x64) AppleWebKit/537.36 (KHTML, like Gecko) Chrome/137.0.0.0 Safari/537.36","WebKit","Chrome","137.0.0.0","Windows","10.0","https://app.prolific.com/","en-US,en;q=0.9","669c1e1fdb95a995eb1d3077","683db7602f5db6a34d12d064","686e2a77392783fd0cf08e58","1","669c1e1fdb95a995eb1d3077","1","2025-07-09T08:53:58.233Z","","","","","","","","","","","","","","win-only","1","g1:NE,g2:SW","0.3","8","0","837651.5","2350.1","7351.9","43468","1","4","8","6","2","8","7","22","15","0.16666666666666666","1059.7","3000","290","[""down"",""left""]","{""num_key_presses"":12,""num_perfect"":3,""num_errors"":1,""num_randdir"":8,""num_randdir_good_moves"":6,""num_whilered"":0,""num_whileblue"":1,""num_blue"":2,""num_good_moves"":9}","[298.22232142857143,296.12857142857143,0.8,298.22232142857143,296.12857142857143,100.3,298.22232142857143,296.12857142857143,208.4,298.22232142857143,299.12857142857143,323.8,300.22232142857143,331.12857142857143,425.3,253.22232142857143,424.12857142857143,535.2,149.22232142857143,519.1285714285714,640.9,75.22232142857143,558.1285714285714,762.3,58.222321428571426,562.1285714285714,872.8,42.222321428571426,551.1285714285714,990.2,42.222321428571426,549.1285714285714,1108.3,48.222321428571426,541.1285714285714,1208.7,114.22232142857143,506.12857142857143,1310.5,254.22232142857143,434.12857142857143,1415.6,353.22232142857143,387.12857142857143,1517.4,353.22232142857143,387.12857142857143,1627.1,353.22232142857143,387.12857142857143,1734.1,353.22232142857143,387.12857142857143,1838.2,353.22232142857143,387.12857142857143,1947.4,353.22232142857143,387.12857142857143,2052.5,353.22232142857143,387.12857142857143,2165.8,353.22232142857143,387.12857142857143,2266.4,353.22232142857143,387.12857142857143,2373.3,353.22232142857143,387.12857142857143,2486.4,353.22232142857143,387.12857142857143,2594.1,353.22232142857143,387.12857142857143,2694.7,353.22232142857143,387.12857142857143,2803.9,353.22232142857143,387.12857142857143,2907.1,353.22232142857143,387.12857142857143,3007.3,353.22232142857143,387.12857142857143,3111,353.22232142857143,387.12857142857143,3213.1,353.22232142857143,387.12857142857143,3315.4,353.22232142857143,387.12857142857143,3426.1,353.22232142857143,387.12857142857143,3529.4,353.22232142857143,387.12857142857143,3636.6,353.22232142857143,387.12857142857143,3752.9,353.22232142857143,387.12857142857143,3853.2,353.22232142857143,387.12857142857143,3953.3,353.22232142857143,387.12857142857143,4061,353.22232142857143,387.12857142857143,4161.2,353.22232142857143,387.12857142857143,4262.3,353.22232142857143,387.12857142857143,4362.7,353.22232142857143,387.12857142857143,4473.4,353.22232142857143,387.12857142857143,4573.5,353.22232142857143,387.12857142857143,4676.9,353.22232142857143,387.12857142857143,4786.5,353.22232142857143,387.12857142857143,4889.6,353.22232142857143,387.12857142857143,4993]","[1366.7,1366.7,1000,0,366.8,""smooth"",""left"",""left"",""good_move"",7577,6209.6,2910.2,4212.7,454.1,""oops"",""left"",""right"",""bad_move"",10563.7,2986,2576.7,7577.7,409.3,""oops"",""down"",""down"",""good_move"",13929.2,3364.5,2988.7,10564.7,375.8,""oops"",""left"",""left"",""good_move"",16288.4,2357.6,1750.1,13930.8,607.5,""oops"",""left"",""up"",""bad_move"",19178.2,2888.9,2446.7,16289.3,442.3,""oops"",""down"",""left"",""good_move"",22179.4,3000.2,2566.6,19179.2,433.6,""smooth"",""down"",""down"",""good_move"",25024.5,2843.9,2403,22180.6,440.9,""oops"",""down"",""left"",""good_move"",28222.5,3197.2,2773,25025.4,424.2,""oops"",""down"",""down"",""good_move"",30916.2,2691.3,2153.4,28224.9,537.9,""while_blue"",""down"",""up"",""bad_move"",32970.7,2053.8,1542.8,30916.9,511,""smooth"",""down"",""down"",""good_move"",35963.4,2992,2565,32971.4,427,""oops"",""down"",""down"",""good_move""]","",""
"3554","","<div style=""width:500px;"">
  <p>What determined the result of this run?</p>
  </div>","100","html-slider-response","45","881855","0.0-5.0-1.7","8","1","2025-07-09 08:39:16","01610cd0009c79a99da7d0a3353eb402","216.120.189.119","Mozilla/5.0 (Windows NT 10.0; Win64; x64) AppleWebKit/537.36 (KHTML, like Gecko) Chrome/137.0.0.0 Safari/537.36","WebKit","Chrome","137.0.0.0","Windows","10.0","https://app.prolific.com/","en-US,en;q=0.9","669c1e1fdb95a995eb1d3077","683db7602f5db6a34d12d064","686e2a77392783fd0cf08e58","1","669c1e1fdb95a995eb1d3077","1","2025-07-09T08:54:01.789Z","","","","","","","","","","","AttribQ","","50","","","","","","","","","","","","","","","","","","","","","","","","","","","","",""
"2974","","<div style=""width:500px;"">
  <p>How much control did you have over the ball?</p>
  </div>","100","html-slider-response","46","884831","0.0-5.0-2.7","8","1","2025-07-09 08:39:16","01610cd0009c79a99da7d0a3353eb402","216.120.189.119","Mozilla/5.0 (Windows NT 10.0; Win64; x64) AppleWebKit/537.36 (KHTML, like Gecko) Chrome/137.0.0.0 Safari/537.36","WebKit","Chrome","137.0.0.0","Windows","10.0","https://app.prolific.com/","en-US,en;q=0.9","669c1e1fdb95a995eb1d3077","683db7602f5db6a34d12d064","686e2a77392783fd0cf08e58","1","669c1e1fdb95a995eb1d3077","1","2025-07-09T08:54:04.765Z","","","","","","","","","","","ControlQ","","50","","","","","","","","","","","","","","","","","","","","","","","","","","","","",""
"2292","","<div style=""width:500px;"">
  <p>How would you describe your current emotional state?</p>
  </div>","100","html-slider-response","47","887125","0.0-5.0-3.7","8","1","2025-07-09 08:39:16","01610cd0009c79a99da7d0a3353eb402","216.120.189.119","Mozilla/5.0 (Windows NT 10.0; Win64; x64) AppleWebKit/537.36 (KHTML, like Gecko) Chrome/137.0.0.0 Safari/537.36","WebKit","Chrome","137.0.0.0","Windows","10.0","https://app.prolific.com/","en-US,en;q=0.9","669c1e1fdb95a995eb1d3077","683db7602f5db6a34d12d064","686e2a77392783fd0cf08e58","1","669c1e1fdb95a995eb1d3077","1","2025-07-09T08:54:07.059Z","","","","","","","","","","","StressQ","","50","","","","","","","","","","","","","","","","","","","","","","","","","","","","",""
"5696","","<div style=""width:500px;"">
  <p>What best describes how you currently feel?</p>
  </div>","100","html-slider-response","48","892823","0.0-5.0-4.7","8","1","2025-07-09 08:39:16","01610cd0009c79a99da7d0a3353eb402","216.120.189.119","Mozilla/5.0 (Windows NT 10.0; Win64; x64) AppleWebKit/537.36 (KHTML, like Gecko) Chrome/137.0.0.0 Safari/537.36","WebKit","Chrome","137.0.0.0","Windows","10.0","https://app.prolific.com/","en-US,en;q=0.9","669c1e1fdb95a995eb1d3077","683db7602f5db6a34d12d064","686e2a77392783fd0cf08e58","1","669c1e1fdb95a995eb1d3077","1","2025-07-09T08:54:12.757Z","","","","","","","","","","","MotivationQ","","50","","","","","","","","","","","","","","","","","","","","","","","","","","","","",""
"","","","","ctl-task-cpt","49","957368","0.0-5.0-0.8","8","1","2025-07-09 08:39:16","01610cd0009c79a99da7d0a3353eb402","216.120.189.119","Mozilla/5.0 (Windows NT 10.0; Win64; x64) AppleWebKit/537.36 (KHTML, like Gecko) Chrome/137.0.0.0 Safari/537.36","WebKit","Chrome","137.0.0.0","Windows","10.0","https://app.prolific.com/","en-US,en;q=0.9","669c1e1fdb95a995eb1d3077","683db7602f5db6a34d12d064","686e2a77392783fd0cf08e58","1","669c1e1fdb95a995eb1d3077","1","2025-07-09T08:55:17.302Z","","","","","","","","","","","","","","win-only","3","g1:SW,g2:NE","0.2","9","0","898661.5","7869.4","12879.5","61522.3","1","4","4","6","2","-4","-4","18","22","0.13636363636363635","1391.7","3000","-1555","[""up"",""right""]","{""num_key_presses"":12,""num_perfect"":2,""num_errors"":0,""num_randdir"":10,""num_randdir_good_moves"":4,""num_whilered"":0,""num_whileblue"":0,""num_blue"":3,""num_good_moves"":6}","[291.22232142857143,296.12857142857143,0.9,291.22232142857143,295.12857142857143,104,293.22232142857143,297.12857142857143,215.9,279.22232142857143,323.12857142857143,319.4,185.22232142857143,387.12857142857143,422.1,107.22232142857143,466.12857142857143,522.2,32.222321428571426,530.1285714285714,630.5,270.22232142857143,359.12857142857143,783.4,557.2223214285714,59.128571428571426,914.6,585.2223214285714,21.128571428571426,1016.7,589.2223214285714,17.128571428571426,1119.6,573.2223214285714,27.128571428571426,1228.3,569.2223214285714,35.128571428571426,1330.1,567.2223214285714,36.128571428571426,1443.6,568.2223214285714,37.128571428571426,1545.5,558.2223214285714,61.128571428571426,1673,495.22232142857143,135.12857142857143,1777,480.22232142857143,266.12857142857143,1910.7,536.2223214285714,282.12857142857143,2016.3,536.2223214285714,282.12857142857143,2124.8,536.2223214285714,282.12857142857143,2250.9,536.2223214285714,282.12857142857143,2351.9,536.2223214285714,282.12857142857143,2454.5,536.2223214285714,282.12857142857143,2559.4,536.2223214285714,282.12857142857143,2662.2,536.2223214285714,282.12857142857143,2769.5,536.2223214285714,282.12857142857143,2872.3,536.2223214285714,282.12857142857143,2978.7,536.2223214285714,282.12857142857143,3101.4,536.2223214285714,282.12857142857143,3202.3,536.2223214285714,282.12857142857143,3303.5,536.2223214285714,282.12857142857143,3440.3,536.2223214285714,282.12857142857143,3553.2,536.2223214285714,282.12857142857143,3653.2,536.2223214285714,282.12857142857143,3763.7,536.2223214285714,282.12857142857143,3869,536.2223214285714,282.12857142857143,3972.8,536.2223214285714,282.12857142857143,4076.9,536.2223214285714,282.12857142857143,4181.5,536.2223214285714,282.12857142857143,4298.4,536.2223214285714,282.12857142857143,4400,536.2223214285714,282.12857142857143,4504.6,536.2223214285714,282.12857142857143,4611,536.2223214285714,282.12857142857143,4712.4,536.2223214285714,282.12857142857143,4816.6,536.2223214285714,282.12857142857143,4922.2]","[5417.5,5417.6,2962.5,2026.2,428.9,""oops"",""up"",""up"",""good_move"",8784,3365.2,2906.6,5418.8,458.6,""smooth"",""up"",""up"",""good_move"",11790,3005.1,2590.8,8784.9,414.3,""oops"",""right"",""right"",""good_move"",14943.2,3152,2721,11791.2,431,""oops"",""right"",""down"",""bad_move"",17610.2,2665.4,2232.1,14944.9,433.2,""oops"",""up"",""up"",""good_move"",20497.3,2886,2420.8,17611.3,465.2,""oops"",""up"",""down"",""bad_move"",22956.1,2458,1912.3,20498.1,545.7,""smooth"",""right"",""right"",""good_move"",25131.9,2175,1721.1,22956.9,453.9,""oops"",""up"",""down"",""bad_move"",32433.9,7300.8,2748.2,29027.5,658.2,""oops"",""up"",""right"",""good_move"",35665.8,3231.4,2733.9,32434.5,497.4,""oops"",""up"",""down"",""bad_move"",38884.5,3217.3,2719.5,35667.2,497.8,""oops"",""up"",""left"",""bad_move"",45762.5,6877.3,2973.6,42264.4,524.5,""oops"",""up"",""down"",""bad_move""]","",""
"2931","","<div style=""width:500px;"">
  <p>What determined the result of this run?</p>
  </div>","100","html-slider-response","50","960301","0.0-5.0-1.8","8","1","2025-07-09 08:39:16","01610cd0009c79a99da7d0a3353eb402","216.120.189.119","Mozilla/5.0 (Windows NT 10.0; Win64; x64) AppleWebKit/537.36 (KHTML, like Gecko) Chrome/137.0.0.0 Safari/537.36","WebKit","Chrome","137.0.0.0","Windows","10.0","https://app.prolific.com/","en-US,en;q=0.9","669c1e1fdb95a995eb1d3077","683db7602f5db6a34d12d064","686e2a77392783fd0cf08e58","1","669c1e1fdb95a995eb1d3077","1","2025-07-09T08:55:20.235Z","","","","","","","","","","","AttribQ","","50","","","","","","","","","","","","","","","","","","","","","","","","","","","","",""
"3602","","<div style=""width:500px;"">
  <p>How much control did you have over the ball?</p>
  </div>","100","html-slider-response","51","963904","0.0-5.0-2.8","8","1","2025-07-09 08:39:16","01610cd0009c79a99da7d0a3353eb402","216.120.189.119","Mozilla/5.0 (Windows NT 10.0; Win64; x64) AppleWebKit/537.36 (KHTML, like Gecko) Chrome/137.0.0.0 Safari/537.36","WebKit","Chrome","137.0.0.0","Windows","10.0","https://app.prolific.com/","en-US,en;q=0.9","669c1e1fdb95a995eb1d3077","683db7602f5db6a34d12d064","686e2a77392783fd0cf08e58","1","669c1e1fdb95a995eb1d3077","1","2025-07-09T08:55:23.838Z","","","","","","","","","","","ControlQ","","50","","","","","","","","","","","","","","","","","","","","","","","","","","","","",""
"3417","","<div style=""width:500px;"">
  <p>How would you describe your current emotional state?</p>
  </div>","4","html-slider-response","52","967323","0.0-5.0-3.8","8","1","2025-07-09 08:39:16","01610cd0009c79a99da7d0a3353eb402","216.120.189.119","Mozilla/5.0 (Windows NT 10.0; Win64; x64) AppleWebKit/537.36 (KHTML, like Gecko) Chrome/137.0.0.0 Safari/537.36","WebKit","Chrome","137.0.0.0","Windows","10.0","https://app.prolific.com/","en-US,en;q=0.9","669c1e1fdb95a995eb1d3077","683db7602f5db6a34d12d064","686e2a77392783fd0cf08e58","1","669c1e1fdb95a995eb1d3077","1","2025-07-09T08:55:27.257Z","","","","","","","","","","","StressQ","","50","","","","","","","","","","","","","","","","","","","","","","","","","","","","",""
"2660","","<div style=""width:500px;"">
  <p>What best describes how you currently feel?</p>
  </div>","98","html-slider-response","53","969985","0.0-5.0-4.8","8","1","2025-07-09 08:39:16","01610cd0009c79a99da7d0a3353eb402","216.120.189.119","Mozilla/5.0 (Windows NT 10.0; Win64; x64) AppleWebKit/537.36 (KHTML, like Gecko) Chrome/137.0.0.0 Safari/537.36","WebKit","Chrome","137.0.0.0","Windows","10.0","https://app.prolific.com/","en-US,en;q=0.9","669c1e1fdb95a995eb1d3077","683db7602f5db6a34d12d064","686e2a77392783fd0cf08e58","1","669c1e1fdb95a995eb1d3077","1","2025-07-09T08:55:29.919Z","","","","","","","","","","","MotivationQ","","50","","","","","","","","","","","","","","","","","","","","","","","","","","","","",""
"","","","","ctl-task-cpt","54","1029985","0.0-5.0-0.9","8","1","2025-07-09 08:39:16","01610cd0009c79a99da7d0a3353eb402","216.120.189.119","Mozilla/5.0 (Windows NT 10.0; Win64; x64) AppleWebKit/537.36 (KHTML, like Gecko) Chrome/137.0.0.0 Safari/537.36","WebKit","Chrome","137.0.0.0","Windows","10.0","https://app.prolific.com/","en-US,en;q=0.9","669c1e1fdb95a995eb1d3077","683db7602f5db6a34d12d064","686e2a77392783fd0cf08e58","1","669c1e1fdb95a995eb1d3077","1","2025-07-09T08:56:29.919Z","","","","","","","","","","","","","","win-only","1","g1:NE,g2:SW","0.4","10","0","975825.8","11877.3","16887.1","56964.8","1","4","8","6","2","8","8","26","18","0.19696969696969696","1454.7","3000","1685","[""down"",""left""]","{""num_key_presses"":10,""num_perfect"":4,""num_errors"":0,""num_randdir"":6,""num_randdir_good_moves"":4,""num_whilered"":0,""num_whileblue"":0,""num_blue"":1,""num_good_moves"":8}","[290.22232142857143,296.12857142857143,0.9,290.22232142857143,296.12857142857143,100.8,290.22232142857143,296.12857142857143,217.5,290.22232142857143,296.12857142857143,321.3,325.22232142857143,287.12857142857143,424.7,330.22232142857143,284.12857142857143,532.4,119.22232142857143,423.12857142857143,635.5,-11.777678571428574,522.1285714285714,753.2,6.222321428571426,516.1285714285714,853.8,70.22232142857143,566.1285714285714,988.8,75.22232142857143,577.1285714285714,1095.9,75.22232142857143,577.1285714285714,1199.9,67.22232142857143,561.1285714285714,1306.3,67.22232142857143,559.1285714285714,1409,66.22232142857143,557.1285714285714,1512,66.22232142857143,556.1285714285714,1612.1,69.22232142857143,553.1285714285714,1712.8,139.22232142857143,515.1285714285714,1820.5,435.22232142857143,423.12857142857143,1924.4,524.2223214285714,390.12857142857143,2051,524.2223214285714,390.12857142857143,2152.9,524.2223214285714,390.12857142857143,2258,524.2223214285714,390.12857142857143,2361.7,524.2223214285714,390.12857142857143,2470.3,524.2223214285714,390.12857142857143,2575.7,524.2223214285714,390.12857142857143,2680.4,524.2223214285714,390.12857142857143,2794.5,524.2223214285714,390.12857142857143,2902,524.2223214285714,390.12857142857143,3025.1,524.2223214285714,390.12857142857143,3132.6,524.2223214285714,390.12857142857143,3239.2,524.2223214285714,390.12857142857143,3340.5,524.2223214285714,390.12857142857143,3466,524.2223214285714,390.12857142857143,3566.1,524.2223214285714,390.12857142857143,3671.3,524.2223214285714,390.12857142857143,3777.6,524.2223214285714,390.12857142857143,3881.3,524.2223214285714,390.12857142857143,3988.2,524.2223214285714,390.12857142857143,4107.6,524.2223214285714,390.12857142857143,4214.1,524.2223214285714,390.12857142857143,4315,525.2223214285714,390.12857142857143,4423.8,525.2223214285714,390.12857142857143,4529.1,525.2223214285714,390.12857142857143,4637.2,525.2223214285714,390.12857142857143,4743.8,525.2223214285714,390.12857142857143,4852.3,525.2223214285714,390.12857142857143,4957.1]","[5373.6,5373.6,2885.2,2006.3,482.1,""oops"",""down"",""right"",""bad_move"",8786.1,3411.1,2975.7,5375,435.5,""smooth"",""down"",""down"",""good_move"",11944.9,3156.7,2687.5,8788.3,469.1,""oops"",""down"",""up"",""bad_move"",15294.7,3349.1,2882.8,11945.6,466.3,""smooth"",""left"",""left"",""good_move"",18988.3,3692.9,3265.6,15295.4,427.3,""oops"",""left"",""left"",""good_move"",23261.1,4272.4,1579.5,18988.7,2692.9,""smooth"",""left"",""left"",""good_move"",27901.1,4639.5,2474.1,23261.6,2165.4,""oops"",""down"",""down"",""good_move"",32005.9,4104.1,3178.4,27901.8,925.7,""smooth"",""left"",""left"",""good_move"",36545.5,4539.1,2576.7,32006.4,1962.4,""oops"",""down"",""down"",""good_move"",39903.4,3357.4,2915.6,36546,441.8,""oops"",""down"",""down"",""good_move""]","",""
"2309","","<div style=""width:500px;"">
  <p>What determined the result of this run?</p>
  </div>","100","html-slider-response","55","1032296","0.0-5.0-1.9","8","1","2025-07-09 08:39:16","01610cd0009c79a99da7d0a3353eb402","216.120.189.119","Mozilla/5.0 (Windows NT 10.0; Win64; x64) AppleWebKit/537.36 (KHTML, like Gecko) Chrome/137.0.0.0 Safari/537.36","WebKit","Chrome","137.0.0.0","Windows","10.0","https://app.prolific.com/","en-US,en;q=0.9","669c1e1fdb95a995eb1d3077","683db7602f5db6a34d12d064","686e2a77392783fd0cf08e58","1","669c1e1fdb95a995eb1d3077","1","2025-07-09T08:56:32.231Z","","","","","","","","","","","AttribQ","","50","","","","","","","","","","","","","","","","","","","","","","","","","","","","",""
"1869","","<div style=""width:500px;"">
  <p>How much control did you have over the ball?</p>
  </div>","100","html-slider-response","56","1034168","0.0-5.0-2.9","8","1","2025-07-09 08:39:16","01610cd0009c79a99da7d0a3353eb402","216.120.189.119","Mozilla/5.0 (Windows NT 10.0; Win64; x64) AppleWebKit/537.36 (KHTML, like Gecko) Chrome/137.0.0.0 Safari/537.36","WebKit","Chrome","137.0.0.0","Windows","10.0","https://app.prolific.com/","en-US,en;q=0.9","669c1e1fdb95a995eb1d3077","683db7602f5db6a34d12d064","686e2a77392783fd0cf08e58","1","669c1e1fdb95a995eb1d3077","1","2025-07-09T08:56:34.102Z","","","","","","","","","","","ControlQ","","50","","","","","","","","","","","","","","","","","","","","","","","","","","","","",""
"3006","","<div style=""width:500px;"">
  <p>How would you describe your current emotional state?</p>
  </div>","13","html-slider-response","57","1037176","0.0-5.0-3.9","8","1","2025-07-09 08:39:16","01610cd0009c79a99da7d0a3353eb402","216.120.189.119","Mozilla/5.0 (Windows NT 10.0; Win64; x64) AppleWebKit/537.36 (KHTML, like Gecko) Chrome/137.0.0.0 Safari/537.36","WebKit","Chrome","137.0.0.0","Windows","10.0","https://app.prolific.com/","en-US,en;q=0.9","669c1e1fdb95a995eb1d3077","683db7602f5db6a34d12d064","686e2a77392783fd0cf08e58","1","669c1e1fdb95a995eb1d3077","1","2025-07-09T08:56:37.110Z","","","","","","","","","","","StressQ","","50","","","","","","","","","","","","","","","","","","","","","","","","","","","","",""
"2103","","<div style=""width:500px;"">
  <p>What best describes how you currently feel?</p>
  </div>","100","html-slider-response","58","1039281","0.0-5.0-4.9","8","1","2025-07-09 08:39:16","01610cd0009c79a99da7d0a3353eb402","216.120.189.119","Mozilla/5.0 (Windows NT 10.0; Win64; x64) AppleWebKit/537.36 (KHTML, like Gecko) Chrome/137.0.0.0 Safari/537.36","WebKit","Chrome","137.0.0.0","Windows","10.0","https://app.prolific.com/","en-US,en;q=0.9","669c1e1fdb95a995eb1d3077","683db7602f5db6a34d12d064","686e2a77392783fd0cf08e58","1","669c1e1fdb95a995eb1d3077","1","2025-07-09T08:56:39.215Z","","","","","","","","","","","MotivationQ","","50","","","","","","","","","","","","","","","","","","","","","","","","","","","","",""
"","","","","ctl-task-cpt","59","1096794","0.0-5.0-0.10","8","1","2025-07-09 08:39:16","01610cd0009c79a99da7d0a3353eb402","216.120.189.119","Mozilla/5.0 (Windows NT 10.0; Win64; x64) AppleWebKit/537.36 (KHTML, like Gecko) Chrome/137.0.0.0 Safari/537.36","WebKit","Chrome","137.0.0.0","Windows","10.0","https://app.prolific.com/","en-US,en;q=0.9","669c1e1fdb95a995eb1d3077","683db7602f5db6a34d12d064","686e2a77392783fd0cf08e58","1","669c1e1fdb95a995eb1d3077","1","2025-07-09T08:57:36.729Z","","","","","","","","","","","","","","win-only","1","g1:NE,g2:SW","0.5","11","0","1045119.4","4388.4","9392.2","54487.8","1","4","8","6","2","8","8","34","26","0.25757575757575757","1587.2","3000","1445","[""down"",""left""]","{""num_key_presses"":10,""num_perfect"":5,""num_errors"":0,""num_randdir"":5,""num_randdir_good_moves"":3,""num_whilered"":0,""num_whileblue"":0,""num_blue"":4,""num_good_moves"":8}","[297.22232142857143,296.12857142857143,0.9,298.22232142857143,296.12857142857143,131.5,298.22232142857143,293.12857142857143,236.5,321.22232142857143,270.12857142857143,349.2,420.22232142857143,190.12857142857143,458,434.22232142857143,172.12857142857143,561.9,414.22232142857143,179.12857142857143,662.5,290.22232142857143,241.12857142857143,766.8,184.22232142857143,333.12857142857143,869.7,89.22232142857143,425.12857142857143,991.9,88.22232142857143,449.12857142857143,1114.7,93.22232142857143,498.12857142857143,1222.7,75.22232142857143,537.1285714285714,1325.8,58.222321428571426,549.1285714285714,1428.5,52.222321428571426,551.1285714285714,1532.6,52.222321428571426,551.1285714285714,1641,50.222321428571426,545.1285714285714,1745.8,51.222321428571426,541.1285714285714,1853,54.222321428571426,539.1285714285714,1953.3,58.222321428571426,535.1285714285714,2058.8,99.22232142857143,502.12857142857143,2171.2,187.22232142857143,464.12857142857143,2271.4,229.22232142857143,436.12857142857143,2376.9,284.22232142857143,421.12857142857143,2485.6,371.22232142857143,354.12857142857143,2587.1,505.22232142857143,318.12857142857143,2693.5,551.2223214285714,299.12857142857143,2806.2,559.2223214285714,297.12857142857143,2917,559.2223214285714,294.12857142857143,3025.4,559.2223214285714,292.12857142857143,3135.4,559.2223214285714,292.12857142857143,3236.3,559.2223214285714,292.12857142857143,3345.5,559.2223214285714,292.12857142857143,3456.3,559.2223214285714,292.12857142857143,3565.3,559.2223214285714,292.12857142857143,3672.9,559.2223214285714,292.12857142857143,3775.4,559.2223214285714,292.12857142857143,3886.7,559.2223214285714,292.12857142857143,3998.4,559.2223214285714,292.12857142857143,4110.4,559.2223214285714,292.12857142857143,4210.9,559.2223214285714,292.12857142857143,4316.5,559.2223214285714,292.12857142857143,4423.6,559.2223214285714,292.12857142857143,4523.6,559.2223214285714,292.12857142857143,4630,559.2223214285714,292.12857142857143,4740.2,559.2223214285714,292.12857142857143,4847.3,559.2223214285714,292.12857142857143,4955.3]","[1376.9,1376.9,1000,0,376.9,""oops"",""down"",""up"",""bad_move"",4224.9,2846.7,2434.9,1378.2,411.8,""smooth"",""down"",""down"",""good_move"",7333,3107,2878.6,4226,228.4,""oops"",""down"",""right"",""bad_move"",14189.1,6855.1,2648.2,11082,458.9,""oops"",""down"",""left"",""good_move"",16742.6,2552.6,2040.6,14190,512,""oops"",""left"",""left"",""good_move"",19778.5,3035,2510.4,16743.6,524.5,""oops"",""down"",""down"",""good_move"",26740.3,6960.9,2908.5,23373.1,458.7,""smooth"",""left"",""left"",""good_move"",37829.4,11088.4,2922.1,34436.8,470.5,""smooth"",""down"",""down"",""good_move"",41203.7,3373.6,2886,37830.1,487.6,""smooth"",""left"",""left"",""good_move"",44872.3,3667.4,3161.3,41205,506.1,""smooth"",""down"",""down"",""good_move""]","",""
"4518","","<div style=""width:500px;"">
  <p>What determined the result of this run?</p>
  </div>","96","html-slider-response","60","1101315","0.0-5.0-1.10","8","1","2025-07-09 08:39:16","01610cd0009c79a99da7d0a3353eb402","216.120.189.119","Mozilla/5.0 (Windows NT 10.0; Win64; x64) AppleWebKit/537.36 (KHTML, like Gecko) Chrome/137.0.0.0 Safari/537.36","WebKit","Chrome","137.0.0.0","Windows","10.0","https://app.prolific.com/","en-US,en;q=0.9","669c1e1fdb95a995eb1d3077","683db7602f5db6a34d12d064","686e2a77392783fd0cf08e58","1","669c1e1fdb95a995eb1d3077","1","2025-07-09T08:57:41.249Z","","","","","","","","","","","AttribQ","","50","","","","","","","","","","","","","","","","","","","","","","","","","","","","",""
"2667","","<div style=""width:500px;"">
  <p>How much control did you have over the ball?</p>
  </div>","100","html-slider-response","61","1103984","0.0-5.0-2.10","8","1","2025-07-09 08:39:16","01610cd0009c79a99da7d0a3353eb402","216.120.189.119","Mozilla/5.0 (Windows NT 10.0; Win64; x64) AppleWebKit/537.36 (KHTML, like Gecko) Chrome/137.0.0.0 Safari/537.36","WebKit","Chrome","137.0.0.0","Windows","10.0","https://app.prolific.com/","en-US,en;q=0.9","669c1e1fdb95a995eb1d3077","683db7602f5db6a34d12d064","686e2a77392783fd0cf08e58","1","669c1e1fdb95a995eb1d3077","1","2025-07-09T08:57:43.918Z","","","","","","","","","","","ControlQ","","50","","","","","","","","","","","","","","","","","","","","","","","","","","","","",""
"3460","","<div style=""width:500px;"">
  <p>How would you describe your current emotional state?</p>
  </div>","4","html-slider-response","62","1107446","0.0-5.0-3.10","8","1","2025-07-09 08:39:16","01610cd0009c79a99da7d0a3353eb402","216.120.189.119","Mozilla/5.0 (Windows NT 10.0; Win64; x64) AppleWebKit/537.36 (KHTML, like Gecko) Chrome/137.0.0.0 Safari/537.36","WebKit","Chrome","137.0.0.0","Windows","10.0","https://app.prolific.com/","en-US,en;q=0.9","669c1e1fdb95a995eb1d3077","683db7602f5db6a34d12d064","686e2a77392783fd0cf08e58","1","669c1e1fdb95a995eb1d3077","1","2025-07-09T08:57:47.381Z","","","","","","","","","","","StressQ","","50","","","","","","","","","","","","","","","","","","","","","","","","","","","","",""
"12742","","<div style=""width:500px;"">
  <p>What best describes how you currently feel?</p>
  </div>","100","html-slider-response","63","1120193","0.0-5.0-4.10","8","1","2025-07-09 08:39:16","01610cd0009c79a99da7d0a3353eb402","216.120.189.119","Mozilla/5.0 (Windows NT 10.0; Win64; x64) AppleWebKit/537.36 (KHTML, like Gecko) Chrome/137.0.0.0 Safari/537.36","WebKit","Chrome","137.0.0.0","Windows","10.0","https://app.prolific.com/","en-US,en;q=0.9","669c1e1fdb95a995eb1d3077","683db7602f5db6a34d12d064","686e2a77392783fd0cf08e58","1","669c1e1fdb95a995eb1d3077","1","2025-07-09T08:58:00.127Z","","","","","","","","","","","MotivationQ","","50","","","","","","","","","","","","","","","","","","","","","","","","","","","","",""
"","","","","ctl-task-cpt","64","1168725","0.0-5.0-0.11","8","1","2025-07-09 08:39:16","01610cd0009c79a99da7d0a3353eb402","216.120.189.119","Mozilla/5.0 (Windows NT 10.0; Win64; x64) AppleWebKit/537.36 (KHTML, like Gecko) Chrome/137.0.0.0 Safari/537.36","WebKit","Chrome","137.0.0.0","Windows","10.0","https://app.prolific.com/","en-US,en;q=0.9","669c1e1fdb95a995eb1d3077","683db7602f5db6a34d12d064","686e2a77392783fd0cf08e58","1","669c1e1fdb95a995eb1d3077","1","2025-07-09T08:58:48.660Z","","","","","","","","","","","","","","win-only","0","g1:NW,g2:SE","0.6","12","0","1126031.8","1495.8","6500.2","45496.6","1","4","4","6","2","4","4","38","34","0.2878787878787879","3368.5","3000","1540","[""down"",""right""]","{""num_key_presses"":10,""num_perfect"":6,""num_errors"":0,""num_randdir"":4,""num_randdir_good_moves"":2,""num_whilered"":0,""num_whileblue"":0,""num_blue"":3,""num_good_moves"":8}","[294.22232142857143,298.12857142857143,0.5,294.22232142857143,298.12857142857143,102.1,294.22232142857143,298.12857142857143,222.2,294.22232142857143,298.12857142857143,332.1,290.22232142857143,298.12857142857143,434.9,290.22232142857143,298.12857142857143,535.1,290.22232142857143,298.12857142857143,645.5,290.22232142857143,298.12857142857143,748.7,290.22232142857143,298.12857142857143,861.5,290.22232142857143,298.12857142857143,979.1,290.22232142857143,298.12857142857143,1098.1,290.22232142857143,298.12857142857143,1213,290.22232142857143,298.12857142857143,1325.9,290.22232142857143,298.12857142857143,1441,290.22232142857143,298.12857142857143,1559.8,290.22232142857143,298.12857142857143,1659.9,290.22232142857143,298.12857142857143,1774.9,490.22232142857143,683.1285714285714,1892,573.2223214285714,677.1285714285714,2002.5,586.2223214285714,674.1285714285714,2108.9,594.2223214285714,683.1285714285714,2212.7,619.2223214285714,683.1285714285714,2320.7,846.2223214285714,683.1285714285714,2428,784.2223214285714,617.1285714285714,2552.3,672.2223214285714,589.1285714285714,2676.7,660.2223214285714,574.1285714285714,2794.2,638.2223214285714,564.1285714285714,2919.1,591.2223214285714,570.1285714285714,3041.5,565.2223214285714,568.1285714285714,3168.1,527.2223214285714,545.1285714285714,3288.8,525.2223214285714,543.1285714285714,3407.3,525.2223214285714,543.1285714285714,3523.2,525.2223214285714,543.1285714285714,3636.7,525.2223214285714,545.1285714285714,3748.1,525.2223214285714,545.1285714285714,3862.4,524.2223214285714,545.1285714285714,3977,523.2223214285714,541.1285714285714,4099.4,523.2223214285714,541.1285714285714,4217.7,519.2223214285714,540.1285714285714,4334.3,518.2223214285714,540.1285714285714,4445.5,518.2223214285714,540.1285714285714,4560.8,518.2223214285714,540.1285714285714,4674.3,518.2223214285714,540.1285714285714,4788,518.2223214285714,540.1285714285714,4889.7]","[5194.4,5194.4,2648,2030.1,516.3,""smooth"",""down"",""down"",""good_move"",11095.8,5900.3,2206.3,8427,462.5,""oops"",""down"",""up"",""bad_move"",17521.2,6424.7,2529.2,14524.9,467.1,""smooth"",""down"",""down"",""good_move"",20426.6,2904.7,2382.3,17521.9,522.4,""smooth"",""right"",""right"",""good_move"",23261,2832.2,2354.6,20428.8,477.6,""oops"",""down"",""left"",""bad_move"",27474.2,4212,3776.5,23262.2,435.5,""oops"",""right"",""down"",""good_move"",29829.6,2353.6,1810.1,27476,543.5,""oops"",""right"",""right"",""good_move"",32316.7,2486.6,2014.9,29830.1,471.7,""smooth"",""right"",""right"",""good_move"",35807.6,3489.4,3042.1,32318.2,447.3,""smooth"",""down"",""down"",""good_move"",38802.2,2993.9,2555.5,35808.3,438.4,""smooth"",""right"",""right"",""good_move""]","",""
"3417","","<div style=""width:500px;"">
  <p>What determined the result of this run?</p>
  </div>","100","html-slider-response","65","1172145","0.0-5.0-1.11","8","1","2025-07-09 08:39:16","01610cd0009c79a99da7d0a3353eb402","216.120.189.119","Mozilla/5.0 (Windows NT 10.0; Win64; x64) AppleWebKit/537.36 (KHTML, like Gecko) Chrome/137.0.0.0 Safari/537.36","WebKit","Chrome","137.0.0.0","Windows","10.0","https://app.prolific.com/","en-US,en;q=0.9","669c1e1fdb95a995eb1d3077","683db7602f5db6a34d12d064","686e2a77392783fd0cf08e58","1","669c1e1fdb95a995eb1d3077","1","2025-07-09T08:58:52.079Z","","","","","","","","","","","AttribQ","","50","","","","","","","","","","","","","","","","","","","","","","","","","","","","",""
"2103","","<div style=""width:500px;"">
  <p>How much control did you have over the ball?</p>
  </div>","100","html-slider-response","66","1174250","0.0-5.0-2.11","8","1","2025-07-09 08:39:16","01610cd0009c79a99da7d0a3353eb402","216.120.189.119","Mozilla/5.0 (Windows NT 10.0; Win64; x64) AppleWebKit/537.36 (KHTML, like Gecko) Chrome/137.0.0.0 Safari/537.36","WebKit","Chrome","137.0.0.0","Windows","10.0","https://app.prolific.com/","en-US,en;q=0.9","669c1e1fdb95a995eb1d3077","683db7602f5db6a34d12d064","686e2a77392783fd0cf08e58","1","669c1e1fdb95a995eb1d3077","1","2025-07-09T08:58:54.184Z","","","","","","","","","","","ControlQ","","50","","","","","","","","","","","","","","","","","","","","","","","","","","","","",""
"3170","","<div style=""width:500px;"">
  <p>How would you describe your current emotional state?</p>
  </div>","7","html-slider-response","67","1177423","0.0-5.0-3.11","8","1","2025-07-09 08:39:16","01610cd0009c79a99da7d0a3353eb402","216.120.189.119","Mozilla/5.0 (Windows NT 10.0; Win64; x64) AppleWebKit/537.36 (KHTML, like Gecko) Chrome/137.0.0.0 Safari/537.36","WebKit","Chrome","137.0.0.0","Windows","10.0","https://app.prolific.com/","en-US,en;q=0.9","669c1e1fdb95a995eb1d3077","683db7602f5db6a34d12d064","686e2a77392783fd0cf08e58","1","669c1e1fdb95a995eb1d3077","1","2025-07-09T08:58:57.357Z","","","","","","","","","","","StressQ","","50","","","","","","","","","","","","","","","","","","","","","","","","","","","","",""
"3607","","<div style=""width:500px;"">
  <p>What best describes how you currently feel?</p>
  </div>","100","html-slider-response","68","1181033","0.0-5.0-4.11","8","1","2025-07-09 08:39:16","01610cd0009c79a99da7d0a3353eb402","216.120.189.119","Mozilla/5.0 (Windows NT 10.0; Win64; x64) AppleWebKit/537.36 (KHTML, like Gecko) Chrome/137.0.0.0 Safari/537.36","WebKit","Chrome","137.0.0.0","Windows","10.0","https://app.prolific.com/","en-US,en;q=0.9","669c1e1fdb95a995eb1d3077","683db7602f5db6a34d12d064","686e2a77392783fd0cf08e58","1","669c1e1fdb95a995eb1d3077","1","2025-07-09T08:59:00.967Z","","","","","","","","","","","MotivationQ","","50","","","","","","","","","","","","","","","","","","","","","","","","","","","","",""
"","","","","ctl-task-cpt","69","1231180","0.0-5.0-0.12","8","1","2025-07-09 08:39:16","01610cd0009c79a99da7d0a3353eb402","216.120.189.119","Mozilla/5.0 (Windows NT 10.0; Win64; x64) AppleWebKit/537.36 (KHTML, like Gecko) Chrome/137.0.0.0 Safari/537.36","WebKit","Chrome","137.0.0.0","Windows","10.0","https://app.prolific.com/","en-US,en;q=0.9","669c1e1fdb95a995eb1d3077","683db7602f5db6a34d12d064","686e2a77392783fd0cf08e58","1","669c1e1fdb95a995eb1d3077","1","2025-07-09T08:59:51.114Z","","","","","","","","","","","","","","win-only","0","g1:NW,g2:SE","0.7","13","0","1186872.5","1867.4","6870.1","47104.3","1","4","4","6","2","4","4","42","38","0.3181818181818182","1295.1","3000","1950","[""down"",""right""]","{""num_key_presses"":10,""num_perfect"":7,""num_errors"":0,""num_randdir"":3,""num_randdir_good_moves"":1,""num_whilered"":0,""num_whileblue"":0,""num_blue"":3,""num_good_moves"":8}","[290.22232142857143,296.12857142857143,0.4,290.22232142857143,296.12857142857143,114.1,290.22232142857143,296.12857142857143,215.6,290.22232142857143,296.12857142857143,325.9,302.22232142857143,302.12857142857143,436.9,407.22232142857143,356.12857142857143,551.9,487.22232142857143,405.12857142857143,670.8,506.22232142857143,450.12857142857143,790,511.22232142857143,473.12857142857143,914.8,531.2223214285714,537.1285714285714,1026,529.2223214285714,540.1285714285714,1130,532.2223214285714,538.1285714285714,1237.2,535.2223214285714,538.1285714285714,1385.8,535.2223214285714,538.1285714285714,1515.2,535.2223214285714,538.1285714285714,1622.2,535.2223214285714,538.1285714285714,1724,535.2223214285714,540.1285714285714,1824.1,535.2223214285714,540.1285714285714,1927.3,535.2223214285714,540.1285714285714,2033.1,535.2223214285714,540.1285714285714,2134.9,535.2223214285714,540.1285714285714,2240,535.2223214285714,540.1285714285714,2344.7,535.2223214285714,540.1285714285714,2449.9,535.2223214285714,540.1285714285714,2550.3,535.2223214285714,540.1285714285714,2653.9,533.2223214285714,540.1285714285714,2760.9,533.2223214285714,540.1285714285714,2866.8,533.2223214285714,540.1285714285714,3000,523.2223214285714,539.1285714285714,3112.3,291.22232142857143,537.1285714285714,3221.5,270.22232142857143,519.1285714285714,3329.2,266.22232142857143,513.1285714285714,3433.1,266.22232142857143,513.1285714285714,3556.4,265.22232142857143,512.1285714285714,3664.1,265.22232142857143,512.1285714285714,3772.1,265.22232142857143,512.1285714285714,3872.3,265.22232142857143,512.1285714285714,3979,265.22232142857143,512.1285714285714,4086,265.22232142857143,512.1285714285714,4232.5,265.22232142857143,512.1285714285714,4335.5,265.22232142857143,512.1285714285714,4441.3,265.22232142857143,512.1285714285714,4547.2,265.22232142857143,512.1285714285714,4652.6,265.22232142857143,512.1285714285714,4761.5,265.22232142857143,512.1285714285714,4863.5,265.22232142857143,512.1285714285714,4975.3]","[1396.7,1396.7,1000,0,396.7,""smooth"",""down"",""down"",""good_move"",4620.4,3221.3,2796.4,1399.1,424.9,""oops"",""right"",""up"",""bad_move"",8282.2,3660.2,3017.7,4622,642.5,""oops"",""right"",""down"",""good_move"",10464.3,2181.3,1549.8,8283,631.6,""oops"",""right"",""up"",""bad_move"",17956.9,7491,2463.5,15047,446.6,""smooth"",""down"",""down"",""good_move"",20483.7,2525.8,2025.7,17957.9,500.1,""smooth"",""right"",""right"",""good_move"",23194.8,2710,1819.7,20484.8,890.3,""smooth"",""right"",""right"",""good_move"",26759,3563.3,3162.2,23195.7,401.1,""smooth"",""down"",""down"",""good_move"",29814.2,3054.3,2614.4,26760.1,439.8,""smooth"",""down"",""down"",""good_move"",39574,9759.2,2225.7,36826.1,522.2,""smooth"",""right"",""right"",""good_move""]","",""
"3200","","<div style=""width:500px;"">
  <p>What determined the result of this run?</p>
  </div>","100","html-slider-response","70","1234383","0.0-5.0-1.12","8","1","2025-07-09 08:39:16","01610cd0009c79a99da7d0a3353eb402","216.120.189.119","Mozilla/5.0 (Windows NT 10.0; Win64; x64) AppleWebKit/537.36 (KHTML, like Gecko) Chrome/137.0.0.0 Safari/537.36","WebKit","Chrome","137.0.0.0","Windows","10.0","https://app.prolific.com/","en-US,en;q=0.9","669c1e1fdb95a995eb1d3077","683db7602f5db6a34d12d064","686e2a77392783fd0cf08e58","1","669c1e1fdb95a995eb1d3077","1","2025-07-09T08:59:54.317Z","","","","","","","","","","","AttribQ","","50","","","","","","","","","","","","","","","","","","","","","","","","","","","","",""
"2299","","<div style=""width:500px;"">
  <p>How much control did you have over the ball?</p>
  </div>","99","html-slider-response","71","1236685","0.0-5.0-2.12","8","1","2025-07-09 08:39:16","01610cd0009c79a99da7d0a3353eb402","216.120.189.119","Mozilla/5.0 (Windows NT 10.0; Win64; x64) AppleWebKit/537.36 (KHTML, like Gecko) Chrome/137.0.0.0 Safari/537.36","WebKit","Chrome","137.0.0.0","Windows","10.0","https://app.prolific.com/","en-US,en;q=0.9","669c1e1fdb95a995eb1d3077","683db7602f5db6a34d12d064","686e2a77392783fd0cf08e58","1","669c1e1fdb95a995eb1d3077","1","2025-07-09T08:59:56.619Z","","","","","","","","","","","ControlQ","","50","","","","","","","","","","","","","","","","","","","","","","","","","","","","",""
"3159","","<div style=""width:500px;"">
  <p>How would you describe your current emotional state?</p>
  </div>","6","html-slider-response","72","1239849","0.0-5.0-3.12","8","1","2025-07-09 08:39:16","01610cd0009c79a99da7d0a3353eb402","216.120.189.119","Mozilla/5.0 (Windows NT 10.0; Win64; x64) AppleWebKit/537.36 (KHTML, like Gecko) Chrome/137.0.0.0 Safari/537.36","WebKit","Chrome","137.0.0.0","Windows","10.0","https://app.prolific.com/","en-US,en;q=0.9","669c1e1fdb95a995eb1d3077","683db7602f5db6a34d12d064","686e2a77392783fd0cf08e58","1","669c1e1fdb95a995eb1d3077","1","2025-07-09T08:59:59.783Z","","","","","","","","","","","StressQ","","50","","","","","","","","","","","","","","","","","","","","","","","","","","","","",""
"3019","","<div style=""width:500px;"">
  <p>What best describes how you currently feel?</p>
  </div>","99","html-slider-response","73","1242871","0.0-5.0-4.12","8","1","2025-07-09 08:39:16","01610cd0009c79a99da7d0a3353eb402","216.120.189.119","Mozilla/5.0 (Windows NT 10.0; Win64; x64) AppleWebKit/537.36 (KHTML, like Gecko) Chrome/137.0.0.0 Safari/537.36","WebKit","Chrome","137.0.0.0","Windows","10.0","https://app.prolific.com/","en-US,en;q=0.9","669c1e1fdb95a995eb1d3077","683db7602f5db6a34d12d064","686e2a77392783fd0cf08e58","1","669c1e1fdb95a995eb1d3077","1","2025-07-09T09:00:02.806Z","","","","","","","","","","","MotivationQ","","50","","","","","","","","","","","","","","","","","","","","","","","","","","","","",""
"","","","","ctl-task-cpt","74","1276344","0.0-5.0-0.13","8","1","2025-07-09 08:39:16","01610cd0009c79a99da7d0a3353eb402","216.120.189.119","Mozilla/5.0 (Windows NT 10.0; Win64; x64) AppleWebKit/537.36 (KHTML, like Gecko) Chrome/137.0.0.0 Safari/537.36","WebKit","Chrome","137.0.0.0","Windows","10.0","https://app.prolific.com/","en-US,en;q=0.9","669c1e1fdb95a995eb1d3077","683db7602f5db6a34d12d064","686e2a77392783fd0cf08e58","1","669c1e1fdb95a995eb1d3077","1","2025-07-09T09:00:36.278Z","","","","","","","","","","","","","","win-only","2","g1:SE,g2:NW","0.8","14","0","1248710.4","3191.3","8199.9","30441.2","1","4","8","6","2","8","8","50","42","0.3787878787878788","1428.8","3000","2030","[""left"",""up""]","{""num_key_presses"":6,""num_perfect"":6,""num_errors"":0,""num_randdir"":0,""num_randdir_good_moves"":0,""num_whilered"":0,""num_whileblue"":0,""num_blue"":1,""num_good_moves"":6}","[297.22232142857143,295.12857142857143,0.5,297.22232142857143,295.12857142857143,109.1,297.22232142857143,295.12857142857143,216.5,330.22232142857143,311.12857142857143,330.1,486.22232142857143,378.12857142857143,441.6,534.2223214285714,450.12857142857143,548.1,548.2223214285714,482.12857142857143,651.4,460.22232142857143,425.12857142857143,752.2,185.22232142857143,126.12857142857143,855.7,134.22232142857143,57.128571428571426,963.6,120.22232142857143,47.128571428571426,1066.4,68.22232142857143,54.128571428571426,1172.6,56.222321428571426,55.128571428571426,1282.6,56.222321428571426,55.128571428571426,1385.1,56.222321428571426,57.128571428571426,1495.8,62.222321428571426,60.128571428571426,1596.6,160.22232142857143,90.12857142857143,1700,192.22232142857143,108.12857142857143,1809,205.22232142857143,124.12857142857143,1923.7,177.22232142857143,154.12857142857143,2027.7,166.22232142857143,163.12857142857143,2135.4,166.22232142857143,163.12857142857143,2248.9,166.22232142857143,163.12857142857143,2366.3,166.22232142857143,163.12857142857143,2467.9,166.22232142857143,163.12857142857143,2574.3,166.22232142857143,163.12857142857143,2688.7,166.22232142857143,163.12857142857143,2802.2,166.22232142857143,163.12857142857143,2926.5,166.22232142857143,163.12857142857143,3042.9,166.22232142857143,163.12857142857143,3146.9,166.22232142857143,163.12857142857143,3251.2,166.22232142857143,163.12857142857143,3363.7,166.22232142857143,163.12857142857143,3477.9,166.22232142857143,163.12857142857143,3587.4,166.22232142857143,163.12857142857143,3698.1,166.22232142857143,163.12857142857143,3813.3,166.22232142857143,163.12857142857143,3930.4,166.22232142857143,163.12857142857143,4035.2,166.22232142857143,163.12857142857143,4170.8,166.22232142857143,163.12857142857143,4291.5,166.22232142857143,163.12857142857143,4397,166.22232142857143,163.12857142857143,4509.3,166.22232142857143,163.12857142857143,4617.3,166.22232142857143,163.12857142857143,4722.1,166.22232142857143,163.12857142857143,4831.9,166.22232142857143,163.12857142857143,4955.5]","[1483.6,1483.6,1000,0,483.6,""smooth"",""left"",""left"",""good_move"",7872.3,6387.4,2510,4884.8,477.5,""smooth"",""left"",""left"",""good_move"",11217.4,3344.8,2782.3,7872.7,562.5,""smooth"",""up"",""up"",""good_move"",15083.7,3865.1,3397.5,11218.6,467.6,""smooth"",""up"",""up"",""good_move"",18872.7,3788.4,2880.8,15084.3,907.6,""smooth"",""left"",""left"",""good_move"",21965.7,3092.2,2472.3,18873.5,619.9,""smooth"",""up"",""up"",""good_move""]","",""
"4070","","<div style=""width:500px;"">
  <p>What determined the result of this run?</p>
  </div>","100","html-slider-response","75","1280416","0.0-5.0-1.13","8","1","2025-07-09 08:39:16","01610cd0009c79a99da7d0a3353eb402","216.120.189.119","Mozilla/5.0 (Windows NT 10.0; Win64; x64) AppleWebKit/537.36 (KHTML, like Gecko) Chrome/137.0.0.0 Safari/537.36","WebKit","Chrome","137.0.0.0","Windows","10.0","https://app.prolific.com/","en-US,en;q=0.9","669c1e1fdb95a995eb1d3077","683db7602f5db6a34d12d064","686e2a77392783fd0cf08e58","1","669c1e1fdb95a995eb1d3077","1","2025-07-09T09:00:40.350Z","","","","","","","","","","","AttribQ","","50","","","","","","","","","","","","","","","","","","","","","","","","","","","","",""
"2193","","<div style=""width:500px;"">
