"rt","response_timestamp","stimulus","response","trial_type","trial_index","time_elapsed","internal_node_id","run_id","condition","recorded_at","source_code_version","ip","user_agent","device","browser","browser_version","platform","platform_version","referer","accept_language","PROLIFIC_PID","STUDY_ID","SESSION_ID","WEEK","BATCH","prolific_id","week","batch","realtime","success","responses","item_order","radio_event_ids","radio_event_times","key_event_times","mouse_event_times","straightlining","zigzagging","honeypot","eventType","view_history","slider_start","which_type","canvas_config","goals_layout","control_level","trial_number","tutorial_trial_number","trial_start_time","phase1_start_time","phase2_start_time","phase3_start_time","goal_1_value","goal_1_distance","goal_2_value","goal_2_distance","goal_selected","outcome","outcome_total","participant_final_score","participant_initial_score","participant_final_score_prop","goal_choice_rt","allocated_time","allocated_time_remaining","goal_direction","counts","mouse_movements","key_presses","question_order","question_id"
"29455","1753254276089","<p style='font-size:40px;line-height:1.25'><strong>Welcome to the experiment!</strong></p><p style='font-size:1.1em;line-height:1.25'>Thank you for participanting in our experiment again! You will be asked to play the Dysfunctional Ball Game again. We will briefly recap the rules before we start.</p><p style='font-size:1.1em;line-height:1.25'>Press <strong>Next</strong> to continue.</p>","0","custom-html-button-response","0","29460","0.0-0.0","167","1","2025-07-23 07:04:04","1f75c3e559b7213887762d5229550c2b","168.210.171.183","Mozilla/5.0 (Windows NT 10.0; Win64; x64) AppleWebKit/537.36 (KHTML, like Gecko) Chrome/138.0.0.0 Safari/537.36","WebKit","Chrome","138.0.0.0","Windows","10.0","https://app.prolific.com/","en-US,en;q=0.9","667abff30a4bfe675c592b14","683db9eb0562dbf637994deb","6880894167eca811eff6bb54","2","1","667abff30a4bfe675c592b14","2","1","2025-07-23T07:04:36.093Z","","","","","","","","","","","","","","","","","","","","","","","","","","","","","","","","","","","","","","","","","",""
"3341","","","","fullscreen","1","33828","0.0-1.0","167","1","2025-07-23 07:04:04","1f75c3e559b7213887762d5229550c2b","168.210.171.183","Mozilla/5.0 (Windows NT 10.0; Win64; x64) AppleWebKit/537.36 (KHTML, like Gecko) Chrome/138.0.0.0 Safari/537.36","WebKit","Chrome","138.0.0.0","Windows","10.0","https://app.prolific.com/","en-US,en;q=0.9","667abff30a4bfe675c592b14","683db9eb0562dbf637994deb","6880894167eca811eff6bb54","2","1","667abff30a4bfe675c592b14","2","1","","true","","","","","","","","","","","","","","","","","","","","","","","","","","","","","","","","","","","","","","","","",""
"2500","1753254282962","<p style='font-size:1.1em;line-height:1.25'>In the following, we will ask you a few questions relating to your feelings in the last 24 hours.<br></p><p style='font-size:1.1em;line-height:1.25'>Press the <strong>Next</strong> button to continue.</p>","0","custom-html-button-response","2","36331","0.0-2.0-0.0","167","1","2025-07-23 07:04:04","1f75c3e559b7213887762d5229550c2b","168.210.171.183","Mozilla/5.0 (Windows NT 10.0; Win64; x64) AppleWebKit/537.36 (KHTML, like Gecko) Chrome/138.0.0.0 Safari/537.36","WebKit","Chrome","138.0.0.0","Windows","10.0","https://app.prolific.com/","en-US,en;q=0.9","667abff30a4bfe675c592b14","683db9eb0562dbf637994deb","6880894167eca811eff6bb54","2","1","667abff30a4bfe675c592b14","2","1","2025-07-23T07:04:42.963Z","","","","","","","","","","","","","","","","","","","","","","","","","","","","","","","","","","","","","","","","","",""
"360425.40000000596","","","","survey-template","3","396779","0.0-2.0-1.0","167","1","2025-07-23 07:04:04","1f75c3e559b7213887762d5229550c2b","168.210.171.183","Mozilla/5.0 (Windows NT 10.0; Win64; x64) AppleWebKit/537.36 (KHTML, like Gecko) Chrome/138.0.0.0 Safari/537.36","WebKit","Chrome","138.0.0.0","Windows","10.0","https://app.prolific.com/","en-US,en;q=0.9","667abff30a4bfe675c592b14","683db9eb0562dbf637994deb","6880894167eca811eff6bb54","2","1","667abff30a4bfe675c592b14","2","1","2025-07-23T07:10:43.412Z","","{""Q01"":""3"",""Q02"":""2"",""Q03"":""2"",""Q04"":""2"",""Q05"":""1"",""Q06"":""1"",""Q07"":""1"",""Q08"":""1"",""Q09"":""2"",""Q10"":""2"",""Q11"":""3"",""Q12"":""0"",""Q13"":""5"",""Q14"":""1"",""Q15"":""0"",""Q16"":""4"",""Q17"":""4"",""Q18"":""3"",""Q19"":""1"",""Q20"":""3"",""Q21"":""4"",""Q22"":""2""}","[0,1,2,3,4,5,6,7,8,9,10,11,12,13,14,15,16,17,18,19,20,21]","[""Q01"",""Q02"",""Q03"",""Q04"",""Q05"",""Q06"",""Q07"",""Q08"",""Q08"",""Q08"",""Q09"",""Q10"",""Q10"",""Q10"",""Q09"",""Q11"",""Q11"",""Q11"",""Q11"",""Q12"",""Q13"",""Q14"",""Q15"",""Q16"",""Q17"",""Q18"",""Q19"",""Q19"",""Q19"",""Q20"",""Q20"",""Q20"",""Q20"",""Q21"",""Q22""]","[11885.199999988079,16195.5,20362.09999999404,24091.19999998808,29516.29999998212,34915.40000000596,69882.79999998212,138846.59999999404,141152.69999998808,143670.90000000596,145047.69999998808,148048.90000000596,155598.29999998212,157638.29999998212,163524.90000000596,186770.40000000596,207012.19999998808,211965.19999998808,231165.40000000596,240593.19999998808,243555.19999998808,249658.40000000596,256168.40000000596,264912.6999999881,269215.2999999821,285477.59999999404,288809.5,293569.6999999881,296851.5,318801.5,342609.2999999821,344288,346967.59999999404,351288.7999999821,356508.1999999881]","[]","[2.5,9006.5,11885.199999988079,16195.5,20362.09999999404,22285.19999998808,24091.19999998808,25991.59999999404,29516.29999998212,30903.09999999404,34915.40000000596,49107.19999998808,51402.19999998808,67548.59999999404,69882.79999998212,138846.59999999404,141152.69999998808,143670.90000000596,145047.69999998808,148048.90000000596,155598.29999998212,157638.29999998212,163524.90000000596,184550.29999998212,186770.40000000596,204897.79999998212,207012.19999998808,211965.19999998808,231165.40000000596,240593.19999998808,243555.19999998808,249658.40000000596,256168.40000000596,264912.6999999881,269215.2999999821,285477.59999999404,287046.90000000596,288809.5,291768.7999999821,293569.6999999881,295130,296851.5,315801.09999999404,318801.5,342609.2999999821,344288,346967.59999999404,351288.7999999821,356508.1999999881,360402.7999999821]","0.2727272727272727","0.38095238095238093","0","drsp","","","","","","","","","","","","","","","","","","","","","","","","","","","","","","",""
"20282.30000001192","","","","survey-template","4","417095","0.0-2.0-2.0","167","1","2025-07-23 07:04:04","1f75c3e559b7213887762d5229550c2b","168.210.171.183","Mozilla/5.0 (Windows NT 10.0; Win64; x64) AppleWebKit/537.36 (KHTML, like Gecko) Chrome/138.0.0.0 Safari/537.36","WebKit","Chrome","138.0.0.0","Windows","10.0","https://app.prolific.com/","en-US,en;q=0.9","667abff30a4bfe675c592b14","683db9eb0562dbf637994deb","6880894167eca811eff6bb54","2","1","667abff30a4bfe675c592b14","2","1","2025-07-23T07:11:03.728Z","","{""Q01"":""2"",""Q02"":""4"",""Q03"":""2""}","[0,1,2]","[""Q01"",""Q02"",""Q03"",""Q03""]","[7666.300000011921,10359,15177.300000011921,18467.30000001192]","[]","[7666.300000011921,10359,15177.300000011921,17308.59999999404,18467.30000001192,20280.30000001192]","0.6666666666666666","1","0","stress","","","","","","","","","","","","","","","","","","","","","","","","","","","","","","",""
"4241","","","","instructions","5","421340","0.0-3.0-0.0","167","1","2025-07-23 07:04:04","1f75c3e559b7213887762d5229550c2b","168.210.171.183","Mozilla/5.0 (Windows NT 10.0; Win64; x64) AppleWebKit/537.36 (KHTML, like Gecko) Chrome/138.0.0.0 Safari/537.36","WebKit","Chrome","138.0.0.0","Windows","10.0","https://app.prolific.com/","en-US,en;q=0.9","667abff30a4bfe675c592b14","683db9eb0562dbf637994deb","6880894167eca811eff6bb54","2","1","667abff30a4bfe675c592b14","2","1","","","","","","","","","","","","","[{""page_index"":0,""viewing_time"":4241}]","","","","","","","","","","","","","","","","","","","","","","","","","","","","","",""
"6417","","<p>Before you start with this game please answer the following three questions yourself. </p>
  <p>Through this game, we measure several aspects of your cognitive performance, such as reaction times, multi-tasking capabilities </p>
  <p>and the ability to assess the situation you are in.</p>
  <p></p>
  <p><b>How good do you usually are in such tasks?</b></p>","92","html-slider-response","6","427766","0.0-4.0-0.0","167","1","2025-07-23 07:04:04","1f75c3e559b7213887762d5229550c2b","168.210.171.183","Mozilla/5.0 (Windows NT 10.0; Win64; x64) AppleWebKit/537.36 (KHTML, like Gecko) Chrome/138.0.0.0 Safari/537.36","WebKit","Chrome","138.0.0.0","Windows","10.0","https://app.prolific.com/","en-US,en;q=0.9","667abff30a4bfe675c592b14","683db9eb0562dbf637994deb","6880894167eca811eff6bb54","2","1","667abff30a4bfe675c592b14","2","1","2025-07-23T07:11:14.399Z","","","","","","","","","","","PreSkillQ","","50","","","","","","","","","","","","","","","","","","","","","","","","","","","","",""
"4699","","<div style=""width:500px;"">
  <p>How well do you think you will perform in this task compared to other participants?</p>
  </div>","98","html-slider-response","7","432468","0.0-4.0-1.0","167","1","2025-07-23 07:04:04","1f75c3e559b7213887762d5229550c2b","168.210.171.183","Mozilla/5.0 (Windows NT 10.0; Win64; x64) AppleWebKit/537.36 (KHTML, like Gecko) Chrome/138.0.0.0 Safari/537.36","WebKit","Chrome","138.0.0.0","Windows","10.0","https://app.prolific.com/","en-US,en;q=0.9","667abff30a4bfe675c592b14","683db9eb0562dbf637994deb","6880894167eca811eff6bb54","2","1","667abff30a4bfe675c592b14","2","1","2025-07-23T07:11:19.101Z","","","","","","","","","","","PrePerfQ","","50","","","","","","","","","","","","","","","","","","","","","","","","","","","","",""
"4806","","<div style=""width:500px;"">
  <p>What best describes how you currently feel?</p>
  </div>","92","html-slider-response","8","437277","0.0-4.0-2.0","167","1","2025-07-23 07:04:04","1f75c3e559b7213887762d5229550c2b","168.210.171.183","Mozilla/5.0 (Windows NT 10.0; Win64; x64) AppleWebKit/537.36 (KHTML, like Gecko) Chrome/138.0.0.0 Safari/537.36","WebKit","Chrome","138.0.0.0","Windows","10.0","https://app.prolific.com/","en-US,en;q=0.9","667abff30a4bfe675c592b14","683db9eb0562dbf637994deb","6880894167eca811eff6bb54","2","1","667abff30a4bfe675c592b14","2","1","2025-07-23T07:11:23.910Z","","","","","","","","","","","PreMotivationQ","","50","","","","","","","","","","","","","","","","","","","","","","","","","","","","",""
"","","","","ctl-task-cpt","9","482440","0.0-5.0-0.0","167","1","2025-07-23 07:04:04","1f75c3e559b7213887762d5229550c2b","168.210.171.183","Mozilla/5.0 (Windows NT 10.0; Win64; x64) AppleWebKit/537.36 (KHTML, like Gecko) Chrome/138.0.0.0 Safari/537.36","WebKit","Chrome","138.0.0.0","Windows","10.0","https://app.prolific.com/","en-US,en;q=0.9","667abff30a4bfe675c592b14","683db9eb0562dbf637994deb","6880894167eca811eff6bb54","2","1","667abff30a4bfe675c592b14","2","1","2025-07-23T07:12:09.073Z","","","","","","","","","","","","","","win-only","0","g1:NW,g2:SE","1","1","0","444693.5","16434.5","21438.1","42138.5","1","4","8","6","2","8","8","8","0","0.06060606060606061","1840.4","3000","790","[""down"",""right""]","{""num_key_presses"":6,""num_perfect"":6,""num_errors"":0,""num_randdir"":0,""num_randdir_good_moves"":0,""num_whilered"":0,""num_whileblue"":0,""num_blue"":1,""num_good_moves"":6}","[302.22232142857143,300.12857142857143,4.3,302.22232142857143,300.12857142857143,103.5,302.22232142857143,300.12857142857143,206.9,302.22232142857143,300.12857142857143,308.7,302.22232142857143,300.12857142857143,416.5,302.22232142857143,300.12857142857143,518.4,302.22232142857143,300.12857142857143,622.2,302.22232142857143,300.12857142857143,738.4,589.2223214285714,559.1285714285714,845.8,601.2223214285714,581.1285714285714,946.8,597.2223214285714,583.1285714285714,1049.9,574.2223214285714,564.1285714285714,1151.4,534.2223214285714,530.1285714285714,1257.3,533.2223214285714,530.1285714285714,1365.2,533.2223214285714,530.1285714285714,1467.3,533.2223214285714,530.1285714285714,1570.2,533.2223214285714,530.1285714285714,1674.2,533.2223214285714,530.1285714285714,1779.7,533.2223214285714,530.1285714285714,1886.3,533.2223214285714,530.1285714285714,1993.5,533.2223214285714,530.1285714285714,2096.9,533.2223214285714,530.1285714285714,2209.8,533.2223214285714,530.1285714285714,2313.8,533.2223214285714,530.1285714285714,2417.3,533.2223214285714,530.1285714285714,2517.5,533.2223214285714,530.1285714285714,2618.3,533.2223214285714,530.1285714285714,2718.8,533.2223214285714,530.1285714285714,2829.4,533.2223214285714,530.1285714285714,2931.1,533.2223214285714,530.1285714285714,3046,533.2223214285714,530.1285714285714,3150.3,533.2223214285714,530.1285714285714,3254.6,533.2223214285714,530.1285714285714,3362.6,533.2223214285714,530.1285714285714,3463.3,533.2223214285714,530.1285714285714,3563.8,533.2223214285714,530.1285714285714,3667.1,533.2223214285714,530.1285714285714,3767.5,533.2223214285714,530.1285714285714,3875.6,533.2223214285714,530.1285714285714,3979.6,533.2223214285714,530.1285714285714,4080.8,533.2223214285714,530.1285714285714,4181.8,533.2223214285714,530.1285714285714,4286.4,533.2223214285714,530.1285714285714,4395.6,533.2223214285714,530.1285714285714,4495.6,533.2223214285714,530.1285714285714,4596.6,533.2223214285714,530.1285714285714,4700.2,533.2223214285714,530.1285714285714,4802.8,533.2223214285714,530.1285714285714,4913.6]","[1733.9,1733.9,1000,0,733.9,""smooth"",""right"",""right"",""good_move"",4679.7,2944.3,2368.1,1735.4,576.2,""smooth"",""right"",""right"",""good_move"",11744.7,7063.8,3017.4,8285.9,441.5,""smooth"",""down"",""down"",""good_move"",15246.1,3500.5,2974.7,11745.6,525.8,""smooth"",""down"",""down"",""good_move"",17952.4,2705.2,2253.6,15247.2,451.6,""smooth"",""right"",""right"",""good_move"",20575.1,2621.6,2164.8,17953.5,456.8,""smooth"",""down"",""down"",""good_move""]","",""
"5818","","<div style=""width:500px;"">
  <p>What determined the result of this run?</p>
  </div>","88","html-slider-response","10","488261","0.0-5.0-1.0","167","1","2025-07-23 07:04:04","1f75c3e559b7213887762d5229550c2b","168.210.171.183","Mozilla/5.0 (Windows NT 10.0; Win64; x64) AppleWebKit/537.36 (KHTML, like Gecko) Chrome/138.0.0.0 Safari/537.36","WebKit","Chrome","138.0.0.0","Windows","10.0","https://app.prolific.com/","en-US,en;q=0.9","667abff30a4bfe675c592b14","683db9eb0562dbf637994deb","6880894167eca811eff6bb54","2","1","667abff30a4bfe675c592b14","2","1","2025-07-23T07:12:14.893Z","","","","","","","","","","","AttribQ","","50","","","","","","","","","","","","","","","","","","","","","","","","","","","","",""
"7763","","<div style=""width:500px;"">
  <p>How much control did you have over the ball?</p>
  </div>","91","html-slider-response","11","496027","0.0-5.0-2.0","167","1","2025-07-23 07:04:04","1f75c3e559b7213887762d5229550c2b","168.210.171.183","Mozilla/5.0 (Windows NT 10.0; Win64; x64) AppleWebKit/537.36 (KHTML, like Gecko) Chrome/138.0.0.0 Safari/537.36","WebKit","Chrome","138.0.0.0","Windows","10.0","https://app.prolific.com/","en-US,en;q=0.9","667abff30a4bfe675c592b14","683db9eb0562dbf637994deb","6880894167eca811eff6bb54","2","1","667abff30a4bfe675c592b14","2","1","2025-07-23T07:12:22.660Z","","","","","","","","","","","ControlQ","","50","","","","","","","","","","","","","","","","","","","","","","","","","","","","",""
"4922","","<div style=""width:500px;"">
  <p>How would you describe your current emotional state?</p>
  </div>","37","html-slider-response","12","500954","0.0-5.0-3.0","167","1","2025-07-23 07:04:04","1f75c3e559b7213887762d5229550c2b","168.210.171.183","Mozilla/5.0 (Windows NT 10.0; Win64; x64) AppleWebKit/537.36 (KHTML, like Gecko) Chrome/138.0.0.0 Safari/537.36","WebKit","Chrome","138.0.0.0","Windows","10.0","https://app.prolific.com/","en-US,en;q=0.9","667abff30a4bfe675c592b14","683db9eb0562dbf637994deb","6880894167eca811eff6bb54","2","1","667abff30a4bfe675c592b14","2","1","2025-07-23T07:12:27.586Z","","","","","","","","","","","StressQ","","50","","","","","","","","","","","","","","","","","","","","","","","","","","","","",""
"10281","","<div style=""width:500px;"">
  <p>What best describes how you currently feel?</p>
  </div>","82","html-slider-response","13","511238","0.0-5.0-4.0","167","1","2025-07-23 07:04:04","1f75c3e559b7213887762d5229550c2b","168.210.171.183","Mozilla/5.0 (Windows NT 10.0; Win64; x64) AppleWebKit/537.36 (KHTML, like Gecko) Chrome/138.0.0.0 Safari/537.36","WebKit","Chrome","138.0.0.0","Windows","10.0","https://app.prolific.com/","en-US,en;q=0.9","667abff30a4bfe675c592b14","683db9eb0562dbf637994deb","6880894167eca811eff6bb54","2","1","667abff30a4bfe675c592b14","2","1","2025-07-23T07:12:37.870Z","","","","","","","","","","","MotivationQ","","50","","","","","","","","","","","","","","","","","","","","","","","","","","","","",""
"","","","","ctl-task-cpt","14","552021","0.0-5.0-0.1","167","1","2025-07-23 07:04:04","1f75c3e559b7213887762d5229550c2b","168.210.171.183","Mozilla/5.0 (Windows NT 10.0; Win64; x64) AppleWebKit/537.36 (KHTML, like Gecko) Chrome/138.0.0.0 Safari/537.36","WebKit","Chrome","138.0.0.0","Windows","10.0","https://app.prolific.com/","en-US,en;q=0.9","667abff30a4bfe675c592b14","683db9eb0562dbf637994deb","6880894167eca811eff6bb54","2","1","667abff30a4bfe675c592b14","2","1","2025-07-23T07:13:18.653Z","","","","","","","","","","","","","","win-only","0","g1:NW,g2:SE","0.9","2","0","518656","4232.9","9251.2","37748.1","1","4","4","6","2","4","4","12","8","0.09090909090909091","1417.8","3000","220","[""down"",""right""]","{""num_key_presses"":6,""num_perfect"":6,""num_errors"":0,""num_randdir"":0,""num_randdir_good_moves"":0,""num_whilered"":0,""num_whileblue"":0,""num_blue"":3,""num_good_moves"":6}","[296.22232142857143,300.12857142857143,1.3,296.22232142857143,300.12857142857143,103.3,296.22232142857143,300.12857142857143,205.7,296.22232142857143,300.12857142857143,321.1,296.22232142857143,300.12857142857143,423.8,296.22232142857143,300.12857142857143,534,366.22232142857143,351.12857142857143,638.9,561.2223214285714,494.12857142857143,744.6,575.2223214285714,510.12857142857143,848.6,576.2223214285714,513.1285714285714,960.6,573.2223214285714,521.1285714285714,1084,565.2223214285714,529.1285714285714,1185.3,563.2223214285714,530.1285714285714,1288.6,563.2223214285714,530.1285714285714,1393,563.2223214285714,530.1285714285714,1493.8,563.2223214285714,530.1285714285714,1595.8,563.2223214285714,530.1285714285714,1699.5,563.2223214285714,530.1285714285714,1804.6,563.2223214285714,530.1285714285714,1905.4,563.2223214285714,530.1285714285714,2023.4,563.2223214285714,530.1285714285714,2125.1,563.2223214285714,530.1285714285714,2225.7,563.2223214285714,530.1285714285714,2333.4,563.2223214285714,530.1285714285714,2437.2,563.2223214285714,530.1285714285714,2542.1,563.2223214285714,530.1285714285714,2642.7,563.2223214285714,530.1285714285714,2742.8,563.2223214285714,530.1285714285714,2868.1,563.2223214285714,530.1285714285714,2969.2,563.2223214285714,530.1285714285714,3069.3,563.2223214285714,530.1285714285714,3194.4,563.2223214285714,530.1285714285714,3297.6,563.2223214285714,530.1285714285714,3402.8,563.2223214285714,530.1285714285714,3529.3,547.2223214285714,540.1285714285714,3637.8,546.2223214285714,541.1285714285714,3739.9,544.2223214285714,540.1285714285714,3851.6,544.2223214285714,540.1285714285714,3954.2,544.2223214285714,540.1285714285714,4066.7,544.2223214285714,540.1285714285714,4172.3,544.2223214285714,540.1285714285714,4272.9,544.2223214285714,540.1285714285714,4389,544.2223214285714,540.1285714285714,4493.2,544.2223214285714,540.1285714285714,4598.9,544.2223214285714,540.1285714285714,4705.3,544.2223214285714,540.1285714285714,4829,544.2223214285714,540.1285714285714,4941.6]","[2464.6,2464.5,1000,0.2,1464.4,""smooth"",""down"",""down"",""good_move"",5955.9,3490.3,2826,2465.6,664.3,""smooth"",""down"",""down"",""good_move"",12304.3,6347.2,2221.1,9653,430.2,""smooth"",""down"",""down"",""good_move"",14586,2280.4,1773.8,12305.6,506.6,""smooth"",""right"",""right"",""good_move"",17805.5,3218.4,2774.3,14587.1,444.1,""smooth"",""right"",""right"",""good_move"",28379.7,10571.7,2741.4,25146.7,491.6,""smooth"",""right"",""right"",""good_move""]","",""
"4817","","<div style=""width:500px;"">
  <p>What determined the result of this run?</p>
  </div>","80","html-slider-response","15","556841","0.0-5.0-1.1","167","1","2025-07-23 07:04:04","1f75c3e559b7213887762d5229550c2b","168.210.171.183","Mozilla/5.0 (Windows NT 10.0; Win64; x64) AppleWebKit/537.36 (KHTML, like Gecko) Chrome/138.0.0.0 Safari/537.36","WebKit","Chrome","138.0.0.0","Windows","10.0","https://app.prolific.com/","en-US,en;q=0.9","667abff30a4bfe675c592b14","683db9eb0562dbf637994deb","6880894167eca811eff6bb54","2","1","667abff30a4bfe675c592b14","2","1","2025-07-23T07:13:23.474Z","","","","","","","","","","","AttribQ","","50","","","","","","","","","","","","","","","","","","","","","","","","","","","","",""
"4014","","<div style=""width:500px;"">
  <p>How much control did you have over the ball?</p>
  </div>","89","html-slider-response","16","560859","0.0-5.0-2.1","167","1","2025-07-23 07:04:04","1f75c3e559b7213887762d5229550c2b","168.210.171.183","Mozilla/5.0 (Windows NT 10.0; Win64; x64) AppleWebKit/537.36 (KHTML, like Gecko) Chrome/138.0.0.0 Safari/537.36","WebKit","Chrome","138.0.0.0","Windows","10.0","https://app.prolific.com/","en-US,en;q=0.9","667abff30a4bfe675c592b14","683db9eb0562dbf637994deb","6880894167eca811eff6bb54","2","1","667abff30a4bfe675c592b14","2","1","2025-07-23T07:13:27.491Z","","","","","","","","","","","ControlQ","","50","","","","","","","","","","","","","","","","","","","","","","","","","","","","",""
"3806","","<div style=""width:500px;"">
  <p>How would you describe your current emotional state?</p>
  </div>","82","html-slider-response","17","564668","0.0-5.0-3.1","167","1","2025-07-23 07:04:04","1f75c3e559b7213887762d5229550c2b","168.210.171.183","Mozilla/5.0 (Windows NT 10.0; Win64; x64) AppleWebKit/537.36 (KHTML, like Gecko) Chrome/138.0.0.0 Safari/537.36","WebKit","Chrome","138.0.0.0","Windows","10.0","https://app.prolific.com/","en-US,en;q=0.9","667abff30a4bfe675c592b14","683db9eb0562dbf637994deb","6880894167eca811eff6bb54","2","1","667abff30a4bfe675c592b14","2","1","2025-07-23T07:13:31.300Z","","","","","","","","","","","StressQ","","50","","","","","","","","","","","","","","","","","","","","","","","","","","","","",""
"7415","","<div style=""width:500px;"">
  <p>What best describes how you currently feel?</p>
  </div>","77","html-slider-response","18","572086","0.0-5.0-4.1","167","1","2025-07-23 07:04:04","1f75c3e559b7213887762d5229550c2b","168.210.171.183","Mozilla/5.0 (Windows NT 10.0; Win64; x64) AppleWebKit/537.36 (KHTML, like Gecko) Chrome/138.0.0.0 Safari/537.36","WebKit","Chrome","138.0.0.0","Windows","10.0","https://app.prolific.com/","en-US,en;q=0.9","667abff30a4bfe675c592b14","683db9eb0562dbf637994deb","6880894167eca811eff6bb54","2","1","667abff30a4bfe675c592b14","2","1","2025-07-23T07:13:38.718Z","","","","","","","","","","","MotivationQ","","50","","","","","","","","","","","","","","","","","","","","","","","","","","","","",""
"","","","","ctl-task-cpt","19","604521","0.0-5.0-0.2","167","1","2025-07-23 07:04:04","1f75c3e559b7213887762d5229550c2b","168.210.171.183","Mozilla/5.0 (Windows NT 10.0; Win64; x64) AppleWebKit/537.36 (KHTML, like Gecko) Chrome/138.0.0.0 Safari/537.36","WebKit","Chrome","138.0.0.0","Windows","10.0","https://app.prolific.com/","en-US,en;q=0.9","667abff30a4bfe675c592b14","683db9eb0562dbf637994deb","6880894167eca811eff6bb54","2","1","667abff30a4bfe675c592b14","2","1","2025-07-23T07:14:11.153Z","","","","","","","","","","","","","","win-only","2","g1:SE,g2:NW","0.8","3","0","579490.4","4308","9313.7","29409.4","1","4","8","6","2","8","8","20","12","0.15151515151515152","1591.6","3000","845","[""left"",""up""]","{""num_key_presses"":6,""num_perfect"":5,""num_errors"":0,""num_randdir"":1,""num_randdir_good_moves"":1,""num_whilered"":0,""num_whileblue"":0,""num_blue"":1,""num_good_moves"":6}","[295.22232142857143,294.12857142857143,0.9,295.22232142857143,294.12857142857143,105.7,295.22232142857143,294.12857142857143,209.8,295.22232142857143,294.12857142857143,313.1,295.22232142857143,294.12857142857143,414,295.22232142857143,294.12857142857143,515,295.22232142857143,294.12857142857143,619.7,213.22232142857143,221.12857142857143,721.9,173.22232142857143,116.12857142857143,824,173.22232142857143,116.12857142857143,928.5,173.22232142857143,116.12857142857143,1033.6,84.22232142857143,65.12857142857143,1139.5,79.22232142857143,62.128571428571426,1248.6,79.22232142857143,62.128571428571426,1350.3,79.22232142857143,62.128571428571426,1457.4,79.22232142857143,62.128571428571426,1559.5,79.22232142857143,62.128571428571426,1671.3,79.22232142857143,62.128571428571426,1776.5,79.22232142857143,62.128571428571426,1881.4,79.22232142857143,62.128571428571426,1982.3,79.22232142857143,62.128571428571426,2089.1,79.22232142857143,62.128571428571426,2190.1,79.22232142857143,62.128571428571426,2292.3,79.22232142857143,62.128571428571426,2392.8,112.22232142857143,103.12857142857143,2493.9,189.22232142857143,175.12857142857143,2595,189.22232142857143,175.12857142857143,2699,189.22232142857143,175.12857142857143,2803.8,189.22232142857143,175.12857142857143,2904.8,189.22232142857143,175.12857142857143,3005.4,189.22232142857143,175.12857142857143,3115,189.22232142857143,175.12857142857143,3223.7,189.22232142857143,175.12857142857143,3328,189.22232142857143,175.12857142857143,3436.3,189.22232142857143,175.12857142857143,3542.8,189.22232142857143,175.12857142857143,3646.7,189.22232142857143,175.12857142857143,3753.9,189.22232142857143,175.12857142857143,3855.3,189.22232142857143,175.12857142857143,3961.9,189.22232142857143,175.12857142857143,4062.2,189.22232142857143,175.12857142857143,4164,189.22232142857143,175.12857142857143,4273.7,189.22232142857143,175.12857142857143,4375.9,189.22232142857143,175.12857142857143,4482.9,189.22232142857143,175.12857142857143,4587.1,189.22232142857143,175.12857142857143,4696.5,189.22232142857143,175.12857142857143,4806.7,189.22232142857143,175.12857142857143,4908.8]","[4987.7,4987.7,2466.6,2009.1,512,""smooth"",""left"",""left"",""good_move"",8239.7,3250.9,2722.2,4988.8,528.8,""smooth"",""left"",""left"",""good_move"",11158.9,2918.1,2397.6,8240.9,520.4,""oops"",""left"",""up"",""good_move"",14054.7,2894.5,2392.2,11160.2,502.3,""smooth"",""left"",""left"",""good_move"",17393.8,3338.2,2900.3,14055.7,437.9,""smooth"",""up"",""up"",""good_move"",19965.9,2568.6,2149.9,17397.4,418.6,""smooth"",""up"",""up"",""good_move""]","",""
"4886","","<div style=""width:500px;"">
  <p>What determined the result of this run?</p>
  </div>","81","html-slider-response","20","609411","0.0-5.0-1.2","167","1","2025-07-23 07:04:04","1f75c3e559b7213887762d5229550c2b","168.210.171.183","Mozilla/5.0 (Windows NT 10.0; Win64; x64) AppleWebKit/537.36 (KHTML, like Gecko) Chrome/138.0.0.0 Safari/537.36","WebKit","Chrome","138.0.0.0","Windows","10.0","https://app.prolific.com/","en-US,en;q=0.9","667abff30a4bfe675c592b14","683db9eb0562dbf637994deb","6880894167eca811eff6bb54","2","1","667abff30a4bfe675c592b14","2","1","2025-07-23T07:14:16.043Z","","","","","","","","","","","AttribQ","","50","","","","","","","","","","","","","","","","","","","","","","","","","","","","",""
"6045","","<div style=""width:500px;"">
  <p>How much control did you have over the ball?</p>
  </div>","75","html-slider-response","21","615463","0.0-5.0-2.2","167","1","2025-07-23 07:04:04","1f75c3e559b7213887762d5229550c2b","168.210.171.183","Mozilla/5.0 (Windows NT 10.0; Win64; x64) AppleWebKit/537.36 (KHTML, like Gecko) Chrome/138.0.0.0 Safari/537.36","WebKit","Chrome","138.0.0.0","Windows","10.0","https://app.prolific.com/","en-US,en;q=0.9","667abff30a4bfe675c592b14","683db9eb0562dbf637994deb","6880894167eca811eff6bb54","2","1","667abff30a4bfe675c592b14","2","1","2025-07-23T07:14:22.095Z","","","","","","","","","","","ControlQ","","50","","","","","","","","","","","","","","","","","","","","","","","","","","","","",""
"4016","","<div style=""width:500px;"">
  <p>How would you describe your current emotional state?</p>
  </div>","38","html-slider-response","22","619483","0.0-5.0-3.2","167","1","2025-07-23 07:04:04","1f75c3e559b7213887762d5229550c2b","168.210.171.183","Mozilla/5.0 (Windows NT 10.0; Win64; x64) AppleWebKit/537.36 (KHTML, like Gecko) Chrome/138.0.0.0 Safari/537.36","WebKit","Chrome","138.0.0.0","Windows","10.0","https://app.prolific.com/","en-US,en;q=0.9","667abff30a4bfe675c592b14","683db9eb0562dbf637994deb","6880894167eca811eff6bb54","2","1","667abff30a4bfe675c592b14","2","1","2025-07-23T07:14:26.115Z","","","","","","","","","","","StressQ","","50","","","","","","","","","","","","","","","","","","","","","","","","","","","","",""
"3157","","<div style=""width:500px;"">
  <p>What best describes how you currently feel?</p>
  </div>","78","html-slider-response","23","622643","0.0-5.0-4.2","167","1","2025-07-23 07:04:04","1f75c3e559b7213887762d5229550c2b","168.210.171.183","Mozilla/5.0 (Windows NT 10.0; Win64; x64) AppleWebKit/537.36 (KHTML, like Gecko) Chrome/138.0.0.0 Safari/537.36","WebKit","Chrome","138.0.0.0","Windows","10.0","https://app.prolific.com/","en-US,en;q=0.9","667abff30a4bfe675c592b14","683db9eb0562dbf637994deb","6880894167eca811eff6bb54","2","1","667abff30a4bfe675c592b14","2","1","2025-07-23T07:14:29.275Z","","","","","","","","","","","MotivationQ","","50","","","","","","","","","","","","","","","","","","","","","","","","","","","","",""
"","","","","ctl-task-cpt","24","658267","0.0-5.0-0.3","167","1","2025-07-23 07:04:04","1f75c3e559b7213887762d5229550c2b","168.210.171.183","Mozilla/5.0 (Windows NT 10.0; Win64; x64) AppleWebKit/537.36 (KHTML, like Gecko) Chrome/138.0.0.0 Safari/537.36","WebKit","Chrome","138.0.0.0","Windows","10.0","https://app.prolific.com/","en-US,en;q=0.9","667abff30a4bfe675c592b14","683db9eb0562dbf637994deb","6880894167eca811eff6bb54","2","1","667abff30a4bfe675c592b14","2","1","2025-07-23T07:15:04.899Z","","","","","","","","","","","","","","win-only","3","g1:SW,g2:NE","0.7","4","0","630047.3","1642.3","6644.7","32600.7","1","4","4","6","2","-4","-4","16","20","0.12121212121212122","1786.3","3000","-2155","[""up"",""right""]","{""num_key_presses"":7,""num_perfect"":5,""num_errors"":0,""num_randdir"":2,""num_randdir_good_moves"":1,""num_whilered"":0,""num_whileblue"":0,""num_blue"":1,""num_good_moves"":6}","[299.22232142857143,295.12857142857143,13.3,299.22232142857143,295.12857142857143,110.5,299.22232142857143,295.12857142857143,213,299.22232142857143,295.12857142857143,319.1,299.22232142857143,295.12857142857143,426.1,299.22232142857143,295.12857142857143,527.1,299.22232142857143,295.12857142857143,627.8,299.22232142857143,295.12857142857143,728.5,554.2223214285714,-1.8714285714285737,837.2,597.2223214285714,-46.871428571428574,944.1,597.2223214285714,-46.871428571428574,1046.9,578.2223214285714,-19.871428571428574,1156.6,559.2223214285714,5.128571428571426,1265.6,544.2223214285714,26.128571428571426,1366.7,537.2223214285714,41.128571428571426,1469.9,535.2223214285714,48.128571428571426,1577,535.2223214285714,48.128571428571426,1684.5,535.2223214285714,48.128571428571426,1802.5,535.2223214285714,48.128571428571426,1904,535.2223214285714,48.128571428571426,2016.4,535.2223214285714,48.128571428571426,2117.4,535.2223214285714,48.128571428571426,2218.4,535.2223214285714,48.128571428571426,2320.6,535.2223214285714,48.128571428571426,2422,535.2223214285714,48.128571428571426,2526.5,535.2223214285714,48.128571428571426,2629.9,535.2223214285714,48.128571428571426,2738,535.2223214285714,48.128571428571426,2843.4,535.2223214285714,48.128571428571426,2950.5,535.2223214285714,48.128571428571426,3050.5,535.2223214285714,48.128571428571426,3153.5,535.2223214285714,48.128571428571426,3254.1,535.2223214285714,48.128571428571426,3359.1,535.2223214285714,48.128571428571426,3466.5,535.2223214285714,48.128571428571426,3571.6,535.2223214285714,48.128571428571426,3684.9,535.2223214285714,48.128571428571426,3796,535.2223214285714,48.128571428571426,3903.3,535.2223214285714,48.128571428571426,4003.6,535.2223214285714,48.128571428571426,4105.3,535.2223214285714,48.128571428571426,4215.3,535.2223214285714,48.128571428571426,4317.9,535.2223214285714,48.128571428571426,4418.2,535.2223214285714,48.128571428571426,4519.5,535.2223214285714,48.128571428571426,4619.9,535.2223214285714,48.128571428571426,4720.8,535.2223214285714,48.128571428571426,4823.9,535.2223214285714,48.128571428571426,4926.8]","[2230.1,2230.1,1000,0,1230.1,""smooth"",""up"",""up"",""good_move"",5261.7,3023.7,2580,2238,443.8,""smooth"",""right"",""right"",""good_move"",7978.1,2715,2162.8,5263.1,552.2,""oops"",""right"",""up"",""good_move"",10727.5,2745.3,2303.1,7982.2,442.2,""oops"",""right"",""down"",""bad_move"",13964.9,3235.4,2767.1,10729.5,468.3,""smooth"",""up"",""up"",""good_move"",20199.9,6233.8,2928.7,16845.2,426,""smooth"",""up"",""up"",""good_move"",22931.1,2730.6,2236,20200.5,494.6,""smooth"",""right"",""right"",""good_move""]","",""
"4381","","<div style=""width:500px;"">
  <p>What determined the result of this run?</p>
  </div>","78","html-slider-response","25","662650","0.0-5.0-1.3","167","1","2025-07-23 07:04:04","1f75c3e559b7213887762d5229550c2b","168.210.171.183","Mozilla/5.0 (Windows NT 10.0; Win64; x64) AppleWebKit/537.36 (KHTML, like Gecko) Chrome/138.0.0.0 Safari/537.36","WebKit","Chrome","138.0.0.0","Windows","10.0","https://app.prolific.com/","en-US,en;q=0.9","667abff30a4bfe675c592b14","683db9eb0562dbf637994deb","6880894167eca811eff6bb54","2","1","667abff30a4bfe675c592b14","2","1","2025-07-23T07:15:09.282Z","","","","","","","","","","","AttribQ","","50","","","","","","","","","","","","","","","","","","","","","","","","","","","","",""
"4128","","<div style=""width:500px;"">
  <p>How much control did you have over the ball?</p>
  </div>","47","html-slider-response","26","666781","0.0-5.0-2.3","167","1","2025-07-23 07:04:04","1f75c3e559b7213887762d5229550c2b","168.210.171.183","Mozilla/5.0 (Windows NT 10.0; Win64; x64) AppleWebKit/537.36 (KHTML, like Gecko) Chrome/138.0.0.0 Safari/537.36","WebKit","Chrome","138.0.0.0","Windows","10.0","https://app.prolific.com/","en-US,en;q=0.9","667abff30a4bfe675c592b14","683db9eb0562dbf637994deb","6880894167eca811eff6bb54","2","1","667abff30a4bfe675c592b14","2","1","2025-07-23T07:15:13.414Z","","","","","","","","","","","ControlQ","","50","","","","","","","","","","","","","","","","","","","","","","","","","","","","",""
"4316","","<div style=""width:500px;"">
  <p>How would you describe your current emotional state?</p>
  </div>","40","html-slider-response","27","671101","0.0-5.0-3.3","167","1","2025-07-23 07:04:04","1f75c3e559b7213887762d5229550c2b","168.210.171.183","Mozilla/5.0 (Windows NT 10.0; Win64; x64) AppleWebKit/537.36 (KHTML, like Gecko) Chrome/138.0.0.0 Safari/537.36","WebKit","Chrome","138.0.0.0","Windows","10.0","https://app.prolific.com/","en-US,en;q=0.9","667abff30a4bfe675c592b14","683db9eb0562dbf637994deb","6880894167eca811eff6bb54","2","1","667abff30a4bfe675c592b14","2","1","2025-07-23T07:15:17.734Z","","","","","","","","","","","StressQ","","50","","","","","","","","","","","","","","","","","","","","","","","","","","","","",""
"3329","","<div style=""width:500px;"">
  <p>What best describes how you currently feel?</p>
  </div>","78","html-slider-response","28","674432","0.0-5.0-4.3","167","1","2025-07-23 07:04:04","1f75c3e559b7213887762d5229550c2b","168.210.171.183","Mozilla/5.0 (Windows NT 10.0; Win64; x64) AppleWebKit/537.36 (KHTML, like Gecko) Chrome/138.0.0.0 Safari/537.36","WebKit","Chrome","138.0.0.0","Windows","10.0","https://app.prolific.com/","en-US,en;q=0.9","667abff30a4bfe675c592b14","683db9eb0562dbf637994deb","6880894167eca811eff6bb54","2","1","667abff30a4bfe675c592b14","2","1","2025-07-23T07:15:21.065Z","","","","","","","","","","","MotivationQ","","50","","","","","","","","","","","","","","","","","","","","","","","","","","","","",""
"","","","","ctl-task-cpt","29","715852","0.0-5.0-0.4","167","1","2025-07-23 07:04:04","1f75c3e559b7213887762d5229550c2b","168.210.171.183","Mozilla/5.0 (Windows NT 10.0; Win64; x64) AppleWebKit/537.36 (KHTML, like Gecko) Chrome/138.0.0.0 Safari/537.36","WebKit","Chrome","138.0.0.0","Windows","10.0","https://app.prolific.com/","en-US,en;q=0.9","667abff30a4bfe675c592b14","683db9eb0562dbf637994deb","6880894167eca811eff6bb54","2","1","667abff30a4bfe675c592b14","2","1","2025-07-23T07:16:02.484Z","","","","","","","","","","","","","","win-only","0","g1:NW,g2:SE","0.6","5","0","681838.5","1902","6908.4","38407.6","1","4","8","6","2","8","8","24","16","0.18181818181818182","1741.3","3000","10","[""down"",""right""]","{""num_key_presses"":10,""num_perfect"":6,""num_errors"":0,""num_randdir"":4,""num_randdir_good_moves"":2,""num_whilered"":0,""num_whileblue"":0,""num_blue"":1,""num_good_moves"":8}","[296.22232142857143,305.12857142857143,1.5,296.22232142857143,305.12857142857143,108.1,296.22232142857143,305.12857142857143,214,296.22232142857143,305.12857142857143,316.4,296.22232142857143,305.12857142857143,417.6,296.22232142857143,305.12857142857143,525.7,296.22232142857143,305.12857142857143,631.6,424.22232142857143,446.12857142857143,743.1,459.22232142857143,495.12857142857143,846.9,462.22232142857143,515.1285714285714,956.7,465.22232142857143,518.1285714285714,1059.4,499.22232142857143,519.1285714285714,1166.3,513.2223214285714,517.1285714285714,1269.6,561.2223214285714,521.1285714285714,1369.9,562.2223214285714,522.1285714285714,1472,562.2223214285714,522.1285714285714,1583.1,562.2223214285714,522.1285714285714,1685.3,562.2223214285714,522.1285714285714,1789.5,562.2223214285714,522.1285714285714,1892.7,562.2223214285714,522.1285714285714,1996.3,562.2223214285714,522.1285714285714,2101.1,562.2223214285714,522.1285714285714,2201.9,562.2223214285714,522.1285714285714,2317.5,562.2223214285714,522.1285714285714,2418.7,562.2223214285714,522.1285714285714,2520.8,562.2223214285714,522.1285714285714,2625.7,562.2223214285714,522.1285714285714,2729.8,562.2223214285714,522.1285714285714,2833.4,562.2223214285714,522.1285714285714,2939.7,562.2223214285714,522.1285714285714,3057.5,562.2223214285714,522.1285714285714,3164.4,562.2223214285714,522.1285714285714,3265,562.2223214285714,522.1285714285714,3366,562.2223214285714,522.1285714285714,3476.4,562.2223214285714,522.1285714285714,3579.4,562.2223214285714,522.1285714285714,3681.5,562.2223214285714,522.1285714285714,3786.3,562.2223214285714,522.1285714285714,3892.5,562.2223214285714,522.1285714285714,3995.8,562.2223214285714,522.1285714285714,4100.4,562.2223214285714,522.1285714285714,4209.8,562.2223214285714,522.1285714285714,4312.2,562.2223214285714,522.1285714285714,4415.9,562.2223214285714,522.1285714285714,4518.4,562.2223214285714,522.1285714285714,4623.3,562.2223214285714,522.1285714285714,4724,562.2223214285714,522.1285714285714,4826,562.2223214285714,522.1285714285714,4934.1]","[1516.1,1516.1,1000,0,516.1,""smooth"",""down"",""down"",""good_move"",4706.4,3189.1,2776.9,1517.3,412.2,""oops"",""down"",""left"",""bad_move"",7568.2,2860.4,2430.9,4707.8,429.5,""oops"",""down"",""up"",""bad_move"",11486.4,3916.5,3483.8,7569.9,432.7,""smooth"",""right"",""right"",""good_move"",13591.6,2103.7,1609.3,11487.9,494.4,""smooth"",""right"",""right"",""good_move"",19709.6,6116.4,1948,17359.9,401.7,""smooth"",""right"",""right"",""good_move"",22108.2,2397.8,1942,19710.5,455.7,""smooth"",""down"",""down"",""good_move"",25239.1,3129.8,2630.9,22109.3,498.9,""oops"",""down"",""down"",""good_move"",27888,2647,2176.8,25241.1,470.2,""oops"",""down"",""right"",""good_move"",31370,3480.8,3088.5,27889.2,392.3,""smooth"",""down"",""down"",""good_move""]","",""
"5602","","<div style=""width:500px;"">
  <p>What determined the result of this run?</p>
  </div>","70","html-slider-response","30","721457","0.0-5.0-1.4","167","1","2025-07-23 07:04:04","1f75c3e559b7213887762d5229550c2b","168.210.171.183","Mozilla/5.0 (Windows NT 10.0; Win64; x64) AppleWebKit/537.36 (KHTML, like Gecko) Chrome/138.0.0.0 Safari/537.36","WebKit","Chrome","138.0.0.0","Windows","10.0","https://app.prolific.com/","en-US,en;q=0.9","667abff30a4bfe675c592b14","683db9eb0562dbf637994deb","6880894167eca811eff6bb54","2","1","667abff30a4bfe675c592b14","2","1","2025-07-23T07:16:08.089Z","","","","","","","","","","","AttribQ","","50","","","","","","","","","","","","","","","","","","","","","","","","","","","","",""
"9751","","<div style=""width:500px;"">
  <p>How much control did you have over the ball?</p>
  </div>","74","html-slider-response","31","731216","0.0-5.0-2.4","167","1","2025-07-23 07:04:04","1f75c3e559b7213887762d5229550c2b","168.210.171.183","Mozilla/5.0 (Windows NT 10.0; Win64; x64) AppleWebKit/537.36 (KHTML, like Gecko) Chrome/138.0.0.0 Safari/537.36","WebKit","Chrome","138.0.0.0","Windows","10.0","https://app.prolific.com/","en-US,en;q=0.9","667abff30a4bfe675c592b14","683db9eb0562dbf637994deb","6880894167eca811eff6bb54","2","1","667abff30a4bfe675c592b14","2","1","2025-07-23T07:16:17.849Z","","","","","","","","","","","ControlQ","","50","","","","","","","","","","","","","","","","","","","","","","","","","","","","",""
"15232","","<div style=""width:500px;"">
  <p>How would you describe your current emotional state?</p>
  </div>","40","html-slider-response","32","746453","0.0-5.0-3.4","167","1","2025-07-23 07:04:04","1f75c3e559b7213887762d5229550c2b","168.210.171.183","Mozilla/5.0 (Windows NT 10.0; Win64; x64) AppleWebKit/537.36 (KHTML, like Gecko) Chrome/138.0.0.0 Safari/537.36","WebKit","Chrome","138.0.0.0","Windows","10.0","https://app.prolific.com/","en-US,en;q=0.9","667abff30a4bfe675c592b14","683db9eb0562dbf637994deb","6880894167eca811eff6bb54","2","1","667abff30a4bfe675c592b14","2","1","2025-07-23T07:16:33.085Z","","","","","","","","","","","StressQ","","50","","","","","","","","","","","","","","","","","","","","","","","","","","","","",""
"5588","","<div style=""width:500px;"">
  <p>What best describes how you currently feel?</p>
  </div>","67","html-slider-response","33","752043","0.0-5.0-4.4","167","1","2025-07-23 07:04:04","1f75c3e559b7213887762d5229550c2b","168.210.171.183","Mozilla/5.0 (Windows NT 10.0; Win64; x64) AppleWebKit/537.36 (KHTML, like Gecko) Chrome/138.0.0.0 Safari/537.36","WebKit","Chrome","138.0.0.0","Windows","10.0","https://app.prolific.com/","en-US,en;q=0.9","667abff30a4bfe675c592b14","683db9eb0562dbf637994deb","6880894167eca811eff6bb54","2","1","667abff30a4bfe675c592b14","2","1","2025-07-23T07:16:38.675Z","","","","","","","","","","","MotivationQ","","50","","","","","","","","","","","","","","","","","","","","","","","","","","","","",""
"","","","","ctl-task-cpt","34","818020","0.0-5.0-0.5","167","1","2025-07-23 07:04:04","1f75c3e559b7213887762d5229550c2b","168.210.171.183","Mozilla/5.0 (Windows NT 10.0; Win64; x64) AppleWebKit/537.36 (KHTML, like Gecko) Chrome/138.0.0.0 Safari/537.36","WebKit","Chrome","138.0.0.0","Windows","10.0","https://app.prolific.com/","en-US,en;q=0.9","667abff30a4bfe675c592b14","683db9eb0562dbf637994deb","6880894167eca811eff6bb54","2","1","667abff30a4bfe675c592b14","2","1","2025-07-23T07:17:44.652Z","","","","","","","","","","","","","","win-only","1","g1:NE,g2:SW","0.5","6","0","759448.2","1897.3","6909.3","62955.8","1","4","4","6","2","-4","-5","19","24","0.14393939393939395","2311.3","3000","-2035","[""down"",""left""]","{""num_key_presses"":14,""num_perfect"":6,""num_errors"":1,""num_randdir"":7,""num_randdir_good_moves"":2,""num_whilered"":0,""num_whileblue"":1,""num_blue"":5,""num_good_moves"":8}","[295.22232142857143,296.12857142857143,0.9,295.22232142857143,296.12857142857143,117.4,295.22232142857143,296.12857142857143,219.8,295.22232142857143,296.12857142857143,328.8,295.22232142857143,296.12857142857143,432.9,295.22232142857143,296.12857142857143,539,220.22232142857143,362.12857142857143,644.2,133.22232142857143,462.12857142857143,761.2,108.22232142857143,487.12857142857143,875.2,100.22232142857143,495.12857142857143,978,82.22232142857143,516.1285714285714,1082.4,55.222321428571426,540.1285714285714,1188.3,46.222321428571426,547.1285714285714,1291.3,46.222321428571426,547.1285714285714,1398.2,46.222321428571426,547.1285714285714,1501.1,46.222321428571426,547.1285714285714,1603.2,46.222321428571426,547.1285714285714,1706.2,46.222321428571426,547.1285714285714,1811.9,46.222321428571426,547.1285714285714,1920,46.222321428571426,547.1285714285714,2021.2,46.222321428571426,547.1285714285714,2124.1,46.222321428571426,547.1285714285714,2233.6,46.222321428571426,547.1285714285714,2338.6,46.222321428571426,547.1285714285714,2449.6,46.222321428571426,547.1285714285714,2549.7,46.222321428571426,547.1285714285714,2660.1,46.222321428571426,547.1285714285714,2765.4,46.222321428571426,547.1285714285714,2871,46.222321428571426,547.1285714285714,2971.8,46.222321428571426,547.1285714285714,3081.1,46.222321428571426,547.1285714285714,3184.5,46.222321428571426,547.1285714285714,3292.6,46.222321428571426,547.1285714285714,3401.2,46.222321428571426,547.1285714285714,3506.6,46.222321428571426,547.1285714285714,3610.4,46.222321428571426,547.1285714285714,3717.6,46.222321428571426,547.1285714285714,3820.5,46.222321428571426,547.1285714285714,3920.8,46.222321428571426,547.1285714285714,4027.2,46.222321428571426,547.1285714285714,4137.8,46.222321428571426,547.1285714285714,4242.4,46.222321428571426,547.1285714285714,4348.1,46.222321428571426,547.1285714285714,4450.4,46.222321428571426,547.1285714285714,4556.6,46.222321428571426,547.1285714285714,4660,46.222321428571426,547.1285714285714,4767.7,46.222321428571426,547.1285714285714,4874.2,46.222321428571426,547.1285714285714,4985.1]","[1490.3,1490.3,1000,0,490.3,""oops"",""down"",""right"",""bad_move"",4522.3,3031.1,2557.8,1491.3,473.3,""smooth"",""down"",""down"",""good_move"",7469.8,2945.4,2483.3,4524.4,462.1,""oops"",""down"",""down"",""good_move"",14439.9,6968.9,2789.5,11225.5,424.9,""smooth"",""down"",""down"",""good_move"",20628.5,6187.9,2773.8,17431,423.7,""oops"",""left"",""right"",""bad_move"",23324.7,2695.1,2176.7,20629.6,518.4,""smooth"",""left"",""left"",""good_move"",26569.4,3240.8,2803.6,23328.6,437.3,""smooth"",""left"",""left"",""good_move"",33386.3,6815.5,2097,30881.2,408.1,""oops"",""left"",""up"",""bad_move"",36024.3,2637,2153.5,33387.4,483.4,""smooth"",""left"",""left"",""good_move"",41836,5805.3,1884.9,39484.9,466.2,""oops"",""left"",""right"",""bad_move"",44739.7,2881.3,2369.1,41858.4,512.2,""smooth"",""left"",""left"",""good_move"",47564.8,2804.1,2367.4,44760.8,436.7,""oops"",""left"",""up"",""bad_move"",50487.1,2919.2,2441.2,47568,477.9,""oops"",""left"",""left"",""good_move"",53212.8,2703.7,2318.3,50509.1,385.4,""while_blue"",""left"",""up"",""bad_move""]","",""
"4881","","<div style=""width:500px;"">
  <p>What determined the result of this run?</p>
  </div>","79","html-slider-response","35","822906","0.0-5.0-1.5","167","1","2025-07-23 07:04:04","1f75c3e559b7213887762d5229550c2b","168.210.171.183","Mozilla/5.0 (Windows NT 10.0; Win64; x64) AppleWebKit/537.36 (KHTML, like Gecko) Chrome/138.0.0.0 Safari/537.36","WebKit","Chrome","138.0.0.0","Windows","10.0","https://app.prolific.com/","en-US,en;q=0.9","667abff30a4bfe675c592b14","683db9eb0562dbf637994deb","6880894167eca811eff6bb54","2","1","667abff30a4bfe675c592b14","2","1","2025-07-23T07:17:49.539Z","","","","","","","","","","","AttribQ","","50","","","","","","","","","","","","","","","","","","","","","","","","","","","","",""
"3875","","<div style=""width:500px;"">
  <p>How much control did you have over the ball?</p>
  </div>","31","html-slider-response","36","826785","0.0-5.0-2.5","167","1","2025-07-23 07:04:04","1f75c3e559b7213887762d5229550c2b","168.210.171.183","Mozilla/5.0 (Windows NT 10.0; Win64; x64) AppleWebKit/537.36 (KHTML, like Gecko) Chrome/138.0.0.0 Safari/537.36","WebKit","Chrome","138.0.0.0","Windows","10.0","https://app.prolific.com/","en-US,en;q=0.9","667abff30a4bfe675c592b14","683db9eb0562dbf637994deb","6880894167eca811eff6bb54","2","1","667abff30a4bfe675c592b14","2","1","2025-07-23T07:17:53.417Z","","","","","","","","","","","ControlQ","","50","","","","","","","","","","","","","","","","","","","","","","","","","","","","",""
"8325","","<div style=""width:500px;"">
  <p>How would you describe your current emotional state?</p>
  </div>","47","html-slider-response","37","835117","0.0-5.0-3.5","167","1","2025-07-23 07:04:04","1f75c3e559b7213887762d5229550c2b","168.210.171.183","Mozilla/5.0 (Windows NT 10.0; Win64; x64) AppleWebKit/537.36 (KHTML, like Gecko) Chrome/138.0.0.0 Safari/537.36","WebKit","Chrome","138.0.0.0","Windows","10.0","https://app.prolific.com/","en-US,en;q=0.9","667abff30a4bfe675c592b14","683db9eb0562dbf637994deb","6880894167eca811eff6bb54","2","1","667abff30a4bfe675c592b14","2","1","2025-07-23T07:18:01.749Z","","","","","","","","","","","StressQ","","50","","","","","","","","","","","","","","","","","","","","","","","","","","","","",""
"19713","","<div style=""width:500px;"">
  <p>What best describes how you currently feel?</p>
  </div>","56","html-slider-response","38","854837","0.0-5.0-4.5","167","1","2025-07-23 07:04:04","1f75c3e559b7213887762d5229550c2b","168.210.171.183","Mozilla/5.0 (Windows NT 10.0; Win64; x64) AppleWebKit/537.36 (KHTML, like Gecko) Chrome/138.0.0.0 Safari/537.36","WebKit","Chrome","138.0.0.0","Windows","10.0","https://app.prolific.com/","en-US,en;q=0.9","667abff30a4bfe675c592b14","683db9eb0562dbf637994deb","6880894167eca811eff6bb54","2","1","667abff30a4bfe675c592b14","2","1","2025-07-23T07:18:21.469Z","","","","","","","","","","","MotivationQ","","50","","","","","","","","","","","","","","","","","","","","","","","","","","","","",""
"","","","","ctl-task-cpt","39","909754","0.0-5.0-0.6","167","1","2025-07-23 07:04:04","1f75c3e559b7213887762d5229550c2b","168.210.171.183","Mozilla/5.0 (Windows NT 10.0; Win64; x64) AppleWebKit/537.36 (KHTML, like Gecko) Chrome/138.0.0.0 Safari/537.36","WebKit","Chrome","138.0.0.0","Windows","10.0","https://app.prolific.com/","en-US,en;q=0.9","667abff30a4bfe675c592b14","683db9eb0562dbf637994deb","6880894167eca811eff6bb54","2","1","667abff30a4bfe675c592b14","2","1","2025-07-23T07:19:16.386Z","","","","","","","","","","","","","","win-only","3","g1:SW,g2:NE","0.4","7","0","862243.4","1982","6988.9","51893.5","1","4","8","6","2","-8","-8","11","19","0.08333333333333333","1863.6","3000","-1800","[""up"",""right""]","{""num_key_presses"":10,""num_perfect"":4,""num_errors"":0,""num_randdir"":6,""num_randdir_good_moves"":3,""num_whilered"":0,""num_whileblue"":0,""num_blue"":4,""num_good_moves"":7}","[294.22232142857143,301.12857142857143,0.7,294.22232142857143,301.12857142857143,110,294.22232142857143,301.12857142857143,210.1,294.22232142857143,301.12857142857143,316,294.22232142857143,301.12857142857143,419.2,294.22232142857143,301.12857142857143,520.1,294.22232142857143,301.12857142857143,622.9,294.22232142857143,301.12857142857143,723.5,376.22232142857143,178.12857142857143,823.6,445.22232142857143,113.12857142857143,933.2,495.22232142857143,72.12857142857143,1043.1,544.2223214285714,43.128571428571426,1144.4,562.2223214285714,38.128571428571426,1255.4,563.2223214285714,38.128571428571426,1356.1,563.2223214285714,38.128571428571426,1460.8,563.2223214285714,38.128571428571426,1573,563.2223214285714,38.128571428571426,1673.7,563.2223214285714,38.128571428571426,1774.7,563.2223214285714,38.128571428571426,1883.4,563.2223214285714,38.128571428571426,1989.2,563.2223214285714,38.128571428571426,2107.1,563.2223214285714,38.128571428571426,2207.8,563.2223214285714,38.128571428571426,2310.3,563.2223214285714,38.128571428571426,2413.7,563.2223214285714,38.128571428571426,2516.8,492.22232142857143,133.12857142857143,2631.5,361.22232142857143,270.12857142857143,2750.4,301.22232142857143,338.12857142857143,2861.2,296.22232142857143,346.12857142857143,2962.5,296.22232142857143,347.12857142857143,3072.1,292.22232142857143,343.12857142857143,3175.7,285.22232142857143,311.12857142857143,3276.8,284.22232142857143,280.12857142857143,3384.5,283.22232142857143,272.12857142857143,3489.7,283.22232142857143,270.12857142857143,3592,280.22232142857143,268.12857142857143,3694.5,276.22232142857143,264.12857142857143,3799.2,272.22232142857143,262.12857142857143,3899.3,271.22232142857143,262.12857142857143,4004.5,270.22232142857143,262.12857142857143,4120.3,270.22232142857143,262.12857142857143,4223.7,268.22232142857143,261.12857142857143,4325.9,263.22232142857143,260.12857142857143,4426.5,262.22232142857143,260.12857142857143,4531.7,262.22232142857143,260.12857142857143,4633.1,262.22232142857143,260.12857142857143,4733.5,262.22232142857143,260.12857142857143,4834,262.22232142857143,260.12857142857143,4934]","[1616.7,1616.7,1000,0,616.7,""oops"",""right"",""down"",""bad_move"",4163.2,2545.5,2030.8,1617.7,514.7,""oops"",""right"",""left"",""bad_move"",7069.3,2903.4,2378.1,4165.9,525.3,""smooth"",""right"",""right"",""good_move"",9843.3,2770.5,2175.8,7072.8,594.7,""smooth"",""right"",""right"",""good_move"",12220.2,2375.5,1903.6,9844.7,471.9,""smooth"",""up"",""up"",""good_move"",22531.8,10309.5,2298.9,19782.3,450.7,""smooth"",""up"",""up"",""good_move"",25711.8,3179.2,2536.8,22532.7,642.4,""oops"",""up"",""up"",""good_move"",32715.4,7002.5,3150.7,29042.7,522.1,""oops"",""right"",""right"",""good_move"",35496.5,2780.1,2262.1,32716.4,518,""oops"",""right"",""right"",""good_move"",38138.4,2636.8,2200.6,35501.6,436.2,""oops"",""up"",""down"",""bad_move""]","",""
"9675","","<div style=""width:500px;"">
  <p>What determined the result of this run?</p>
  </div>","33","html-slider-response","40","919431","0.0-5.0-1.6","167","1","2025-07-23 07:04:04","1f75c3e559b7213887762d5229550c2b","168.210.171.183","Mozilla/5.0 (Windows NT 10.0; Win64; x64) AppleWebKit/537.36 (KHTML, like Gecko) Chrome/138.0.0.0 Safari/537.36","WebKit","Chrome","138.0.0.0","Windows","10.0","https://app.prolific.com/","en-US,en;q=0.9","667abff30a4bfe675c592b14","683db9eb0562dbf637994deb","6880894167eca811eff6bb54","2","1","667abff30a4bfe675c592b14","2","1","2025-07-23T07:19:26.063Z","","","","","","","","","","","AttribQ","","50","","","","","","","","","","","","","","","","","","","","","","","","","","","","",""
"6070","","<div style=""width:500px;"">
  <p>How much control did you have over the ball?</p>
  </div>","41","html-slider-response","41","925506","0.0-5.0-2.6","167","1","2025-07-23 07:04:04","1f75c3e559b7213887762d5229550c2b","168.210.171.183","Mozilla/5.0 (Windows NT 10.0; Win64; x64) AppleWebKit/537.36 (KHTML, like Gecko) Chrome/138.0.0.0 Safari/537.36","WebKit","Chrome","138.0.0.0","Windows","10.0","https://app.prolific.com/","en-US,en;q=0.9","667abff30a4bfe675c592b14","683db9eb0562dbf637994deb","6880894167eca811eff6bb54","2","1","667abff30a4bfe675c592b14","2","1","2025-07-23T07:19:32.138Z","","","","","","","","","","","ControlQ","","50","","","","","","","","","","","","","","","","","","","","","","","","","","","","",""
"11829","","<div style=""width:500px;"">
  <p>How would you describe your current emotional state?</p>
  </div>","50","html-slider-response","42","937343","0.0-5.0-3.6","167","1","2025-07-23 07:04:04","1f75c3e559b7213887762d5229550c2b","168.210.171.183","Mozilla/5.0 (Windows NT 10.0; Win64; x64) AppleWebKit/537.36 (KHTML, like Gecko) Chrome/138.0.0.0 Safari/537.36","WebKit","Chrome","138.0.0.0","Windows","10.0","https://app.prolific.com/","en-US,en;q=0.9","667abff30a4bfe675c592b14","683db9eb0562dbf637994deb","6880894167eca811eff6bb54","2","1","667abff30a4bfe675c592b14","2","1","2025-07-23T07:19:43.975Z","","","","","","","","","","","StressQ","","50","","","","","","","","","","","","","","","","","","","","","","","","","","","","",""
"15099","","<div style=""width:500px;"">
  <p>What best describes how you currently feel?</p>
  </div>","72","html-slider-response","43","952447","0.0-5.0-4.6","167","1","2025-07-23 07:04:04","1f75c3e559b7213887762d5229550c2b","168.210.171.183","Mozilla/5.0 (Windows NT 10.0; Win64; x64) AppleWebKit/537.36 (KHTML, like Gecko) Chrome/138.0.0.0 Safari/537.36","WebKit","Chrome","138.0.0.0","Windows","10.0","https://app.prolific.com/","en-US,en;q=0.9","667abff30a4bfe675c592b14","683db9eb0562dbf637994deb","6880894167eca811eff6bb54","2","1","667abff30a4bfe675c592b14","2","1","2025-07-23T07:19:59.079Z","","","","","","","","","","","MotivationQ","","50","","","","","","","","","","","","","","","","","","","","","","","","","","","","",""
"","","","","ctl-task-cpt","44","986785","0.0-5.0-0.7","167","1","2025-07-23 07:04:04","1f75c3e559b7213887762d5229550c2b","168.210.171.183","Mozilla/5.0 (Windows NT 10.0; Win64; x64) AppleWebKit/537.36 (KHTML, like Gecko) Chrome/138.0.0.0 Safari/537.36","WebKit","Chrome","138.0.0.0","Windows","10.0","https://app.prolific.com/","en-US,en;q=0.9","667abff30a4bfe675c592b14","683db9eb0562dbf637994deb","6880894167eca811eff6bb54","2","1","667abff30a4bfe675c592b14","2","1","2025-07-23T07:20:33.417Z","","","","","","","","","","","","","","win-only","0","g1:NW,g2:SE","0.3","8","0","959854.1","2356.3","7359.9","31320","1","4","4","6","2","4","4","15","11","0.11363636363636363","1412.1","3000","1550","[""down"",""right""]","{""num_key_presses"":6,""num_perfect"":3,""num_errors"":0,""num_randdir"":3,""num_randdir_good_moves"":3,""num_whilered"":0,""num_whileblue"":0,""num_blue"":2,""num_good_moves"":6}","[295.22232142857143,297.12857142857143,2.3,295.22232142857143,297.12857142857143,109,295.22232142857143,297.12857142857143,231.1,295.22232142857143,297.12857142857143,344.9,295.22232142857143,297.12857142857143,462.4,295.22232142857143,297.12857142857143,573.6,531.2223214285714,481.12857142857143,677,573.2223214285714,519.1285714285714,787.9,573.2223214285714,520.1285714285714,938.1,569.2223214285714,527.1285714285714,1038.1,559.2223214285714,531.1285714285714,1146.6,556.2223214285714,532.1285714285714,1260,556.2223214285714,532.1285714285714,1366.6,556.2223214285714,532.1285714285714,1477.1,556.2223214285714,532.1285714285714,1578.5,556.2223214285714,532.1285714285714,1688.5,556.2223214285714,532.1285714285714,1797.8,556.2223214285714,532.1285714285714,1913.4,556.2223214285714,532.1285714285714,2029.1,556.2223214285714,532.1285714285714,2136.7,556.2223214285714,532.1285714285714,2247.5,548.2223214285714,527.1285714285714,2358.6,476.22232142857143,486.12857142857143,2459.9,398.22232142857143,433.12857142857143,2595.2,332.22232142857143,377.12857142857143,2702.3,326.22232142857143,372.12857142857143,2805.1,326.22232142857143,372.12857142857143,2917.6,326.22232142857143,372.12857142857143,3034.2,326.22232142857143,372.12857142857143,3135.6,326.22232142857143,372.12857142857143,3237.2,326.22232142857143,372.12857142857143,3346.5,326.22232142857143,372.12857142857143,3452,326.22232142857143,372.12857142857143,3552,326.22232142857143,372.12857142857143,3654.5,326.22232142857143,372.12857142857143,3762.6,332.22232142857143,374.12857142857143,3874.3,503.22232142857143,491.12857142857143,3984,564.2223214285714,547.1285714285714,4087.6,566.2223214285714,550.1285714285714,4197.4,565.2223214285714,553.1285714285714,4302.3,491.22232142857143,526.1285714285714,4409.3,351.22232142857143,434.12857142857143,4515.6,314.22232142857143,361.12857142857143,4619.1,314.22232142857143,361.12857142857143,4721.4,314.22232142857143,361.12857142857143,4828,314.22232142857143,361.12857142857143,4929.1]","[1555.2,1555.2,1000,0,555.2,""smooth"",""down"",""down"",""good_move"",4276.1,2719.8,2266.6,1556.3,453.2,""oops"",""down"",""down"",""good_move"",7464.7,3186,2652.2,4278.8,533.7,""smooth"",""right"",""right"",""good_move"",10481.3,3013.6,2502.9,7467.7,510.7,""smooth"",""down"",""down"",""good_move"",13369.9,2887.4,2397.1,10482.7,490.2,""oops"",""right"",""right"",""good_move"",23809.8,10438.7,2406.6,20920.9,482.3,""oops"",""right"",""right"",""good_move""]","",""
"7031","","<div style=""width:500px;"">
  <p>What determined the result of this run?</p>
  </div>","42","html-slider-response","45","993819","0.0-5.0-1.7","167","1","2025-07-23 07:04:04","1f75c3e559b7213887762d5229550c2b","168.210.171.183","Mozilla/5.0 (Windows NT 10.0; Win64; x64) AppleWebKit/537.36 (KHTML, like Gecko) Chrome/138.0.0.0 Safari/537.36","WebKit","Chrome","138.0.0.0","Windows","10.0","https://app.prolific.com/","en-US,en;q=0.9","667abff30a4bfe675c592b14","683db9eb0562dbf637994deb","6880894167eca811eff6bb54","2","1","667abff30a4bfe675c592b14","2","1","2025-07-23T07:20:40.451Z","","","","","","","","","","","AttribQ","","50","","","","","","","","","","","","","","","","","","","","","","","","","","","","",""
"4059","","<div style=""width:500px;"">
  <p>How much control did you have over the ball?</p>
  </div>","54","html-slider-response","46","997883","0.0-5.0-2.7","167","1","2025-07-23 07:04:04","1f75c3e559b7213887762d5229550c2b","168.210.171.183","Mozilla/5.0 (Windows NT 10.0; Win64; x64) AppleWebKit/537.36 (KHTML, like Gecko) Chrome/138.0.0.0 Safari/537.36","WebKit","Chrome","138.0.0.0","Windows","10.0","https://app.prolific.com/","en-US,en;q=0.9","667abff30a4bfe675c592b14","683db9eb0562dbf637994deb","6880894167eca811eff6bb54","2","1","667abff30a4bfe675c592b14","2","1","2025-07-23T07:20:44.515Z","","","","","","","","","","","ControlQ","","50","","","","","","","","","","","","","","","","","","","","","","","","","","","","",""
"3632","","<div style=""width:500px;"">
  <p>How would you describe your current emotional state?</p>
  </div>","44","html-slider-response","47","1001520","0.0-5.0-3.7","167","1","2025-07-23 07:04:04","1f75c3e559b7213887762d5229550c2b","168.210.171.183","Mozilla/5.0 (Windows NT 10.0; Win64; x64) AppleWebKit/537.36 (KHTML, like Gecko) Chrome/138.0.0.0 Safari/537.36","WebKit","Chrome","138.0.0.0","Windows","10.0","https://app.prolific.com/","en-US,en;q=0.9","667abff30a4bfe675c592b14","683db9eb0562dbf637994deb","6880894167eca811eff6bb54","2","1","667abff30a4bfe675c592b14","2","1","2025-07-23T07:20:48.152Z","","","","","","","","","","","StressQ","","50","","","","","","","","","","","","","","","","","","","","","","","","","","","","",""
"10112","","<div style=""width:500px;"">
  <p>What best describes how you currently feel?</p>
  </div>","79","html-slider-response","48","1011636","0.0-5.0-4.7","167","1","2025-07-23 07:04:04","1f75c3e559b7213887762d5229550c2b","168.210.171.183","Mozilla/5.0 (Windows NT 10.0; Win64; x64) AppleWebKit/537.36 (KHTML, like Gecko) Chrome/138.0.0.0 Safari/537.36","WebKit","Chrome","138.0.0.0","Windows","10.0","https://app.prolific.com/","en-US,en;q=0.9","667abff30a4bfe675c592b14","683db9eb0562dbf637994deb","6880894167eca811eff6bb54","2","1","667abff30a4bfe675c592b14","2","1","2025-07-23T07:20:58.268Z","","","","","","","","","","","MotivationQ","","50","","","","","","","","","","","","","","","","","","","","","","","","","","","","",""
"","","","","ctl-task-cpt","49","1086424","0.0-5.0-0.8","167","1","2025-07-23 07:04:04","1f75c3e559b7213887762d5229550c2b","168.210.171.183","Mozilla/5.0 (Windows NT 10.0; Win64; x64) AppleWebKit/537.36 (KHTML, like Gecko) Chrome/138.0.0.0 Safari/537.36","WebKit","Chrome","138.0.0.0","Windows","10.0","https://app.prolific.com/","en-US,en;q=0.9","667abff30a4bfe675c592b14","683db9eb0562dbf637994deb","6880894167eca811eff6bb54","2","1","667abff30a4bfe675c592b14","2","1","2025-07-23T07:22:13.056Z","","","","","","","","","","","","","","win-only","2","g1:SE,g2:NW","0.2","9","0","1019042.6","1730.1","6736.6","71771.1","1","4","4","6","2","-4","-4","11","15","0.08333333333333333","2012.8","3000","-1185","[""left"",""up""]","{""num_key_presses"":17,""num_perfect"":4,""num_errors"":0,""num_randdir"":13,""num_randdir_good_moves"":6,""num_whilered"":0,""num_whileblue"":0,""num_blue"":3,""num_good_moves"":10}","[295.22232142857143,294.12857142857143,0.9,295.22232142857143,294.12857142857143,103.2,295.22232142857143,294.12857142857143,219.1,295.22232142857143,294.12857142857143,327.3,295.22232142857143,294.12857142857143,430.6,295.22232142857143,294.12857142857143,530.9,295.22232142857143,294.12857142857143,631.4,376.22232142857143,418.12857142857143,738.4,432.22232142857143,489.12857142857143,856,479.22232142857143,529.1285714285714,960.6,436.22232142857143,494.12857142857143,1073.2,134.22232142857143,150.12857142857143,1184.3,109.22232142857143,101.12857142857143,1286.6,108.22232142857143,100.12857142857143,1394.9,104.22232142857143,95.12857142857143,1506.2,85.22232142857143,76.12857142857143,1606.9,70.22232142857143,51.128571428571426,1710.5,69.22232142857143,49.128571428571426,1812.1,69.22232142857143,49.128571428571426,1919.8,69.22232142857143,49.128571428571426,2027.7,69.22232142857143,49.128571428571426,2139.5,69.22232142857143,49.128571428571426,2244.4,69.22232142857143,49.128571428571426,2346.6,69.22232142857143,49.128571428571426,2456.6,69.22232142857143,49.128571428571426,2562,69.22232142857143,49.128571428571426,2663.8,234.22232142857143,169.12857142857143,2771.6,348.22232142857143,297.12857142857143,2877.9,376.22232142857143,334.12857142857143,2988,380.22232142857143,342.12857142857143,3092.3,379.22232142857143,348.12857142857143,3195.2,373.22232142857143,355.12857142857143,3302.4,343.22232142857143,353.12857142857143,3406.1,334.22232142857143,353.12857142857143,3512.9,333.22232142857143,353.12857142857143,3629.1,333.22232142857143,353.12857142857143,3733.2,333.22232142857143,353.12857142857143,3841.3,333.22232142857143,353.12857142857143,3948.3,331.22232142857143,344.12857142857143,4066.3,331.22232142857143,334.12857142857143,4170.3,331.22232142857143,330.12857142857143,4280.4,331.22232142857143,327.12857142857143,4421,331.22232142857143,326.12857142857143,4543.7,331.22232142857143,326.12857142857143,4645,331.22232142857143,326.12857142857143,4745.8,331.22232142857143,326.12857142857143,4851.2,331.22232142857143,326.12857142857143,4951.9]","[1564.1,1564.1,1000,0,564.1,""oops"",""up"",""left"",""good_move"",3919.7,2354.3,1834.3,1565.4,520,""smooth"",""left"",""left"",""good_move"",6594.9,2673.7,2225.3,3921.3,448.4,""smooth"",""up"",""up"",""good_move"",9516.7,2920.2,2493.3,6596.5,426.9,""oops"",""up"",""left"",""good_move"",12103.9,2584.6,1772.7,9519.4,811.9,""oops"",""up"",""down"",""bad_move"",15562.7,3457.1,3005.6,12105.6,451.5,""oops"",""up"",""down"",""bad_move"",22062.8,6498.1,2461.8,19143.5,457.5,""oops"",""up"",""down"",""bad_move"",28101.1,6037.1,1917.5,25729.7,453.9,""oops"",""down"",""up"",""good_move"",32279.9,4178.1,2134.1,28101.9,2044,""oops"",""down"",""down"",""bad_move"",35304,3022.9,2416.3,32281.1,606.6,""oops"",""down"",""up"",""good_move"",41104.6,5784.9,2827.9,35319.8,2956.9,""oops"",""right"",""right"",""bad_move"",43656.5,2550.8,1929.8,41105.8,620.9,""oops"",""up"",""right"",""bad_move"",46191.9,2534.1,2158.9,43657.9,375.1,""oops"",""up"",""down"",""bad_move"",49743.5,3550.2,3183,46193.7,366.8,""oops"",""up"",""up"",""good_move"",53095.2,3350.7,2932.7,49744.6,418,""smooth"",""up"",""up"",""good_move"",56476.7,3379.6,2436.6,53097.2,943,""smooth"",""up"",""up"",""good_move"",59867.5,3388.9,2970.9,56478.6,418,""oops"",""up"",""up"",""good_move""]","",""
"6909","","<div style=""width:500px;"">
  <p>What determined the result of this run?</p>
  </div>","18","html-slider-response","50","1093335","0.0-5.0-1.8","167","1","2025-07-23 07:04:04","1f75c3e559b7213887762d5229550c2b","168.210.171.183","Mozilla/5.0 (Windows NT 10.0; Win64; x64) AppleWebKit/537.36 (KHTML, like Gecko) Chrome/138.0.0.0 Safari/537.36","WebKit","Chrome","138.0.0.0","Windows","10.0","https://app.prolific.com/","en-US,en;q=0.9","667abff30a4bfe675c592b14","683db9eb0562dbf637994deb","6880894167eca811eff6bb54","2","1","667abff30a4bfe675c592b14","2","1","2025-07-23T07:22:19.967Z","","","","","","","","","","","AttribQ","","50","","","","","","","","","","","","","","","","","","","","","","","","","","","","",""
"6592","","<div style=""width:500px;"">
  <p>How much control did you have over the ball?</p>
  </div>","23","html-slider-response","51","1099929","0.0-5.0-2.8","167","1","2025-07-23 07:04:04","1f75c3e559b7213887762d5229550c2b","168.210.171.183","Mozilla/5.0 (Windows NT 10.0; Win64; x64) AppleWebKit/537.36 (KHTML, like Gecko) Chrome/138.0.0.0 Safari/537.36","WebKit","Chrome","138.0.0.0","Windows","10.0","https://app.prolific.com/","en-US,en;q=0.9","667abff30a4bfe675c592b14","683db9eb0562dbf637994deb","6880894167eca811eff6bb54","2","1","667abff30a4bfe675c592b14","2","1","2025-07-23T07:22:26.561Z","","","","","","","","","","","ControlQ","","50","","","","","","","","","","","","","","","","","","","","","","","","","","","","",""
"10493","","<div style=""width:500px;"">
  <p>How would you describe your current emotional state?</p>
  </div>","53","html-slider-response","52","1110427","0.0-5.0-3.8","167","1","2025-07-23 07:04:04","1f75c3e559b7213887762d5229550c2b","168.210.171.183","Mozilla/5.0 (Windows NT 10.0; Win64; x64) AppleWebKit/537.36 (KHTML, like Gecko) Chrome/138.0.0.0 Safari/537.36","WebKit","Chrome","138.0.0.0","Windows","10.0","https://app.prolific.com/","en-US,en;q=0.9","667abff30a4bfe675c592b14","683db9eb0562dbf637994deb","6880894167eca811eff6bb54","2","1","667abff30a4bfe675c592b14","2","1","2025-07-23T07:22:37.059Z","","","","","","","","","","","StressQ","","50","","","","","","","","","","","","","","","","","","","","","","","","","","","","",""
"19128","","<div style=""width:500px;"">
  <p>What best describes how you currently feel?</p>
  </div>","57","html-slider-response","53","1129557","0.0-5.0-4.8","167","1","2025-07-23 07:04:04","1f75c3e559b7213887762d5229550c2b","168.210.171.183","Mozilla/5.0 (Windows NT 10.0; Win64; x64) AppleWebKit/537.36 (KHTML, like Gecko) Chrome/138.0.0.0 Safari/537.36","WebKit","Chrome","138.0.0.0","Windows","10.0","https://app.prolific.com/","en-US,en;q=0.9","667abff30a4bfe675c592b14","683db9eb0562dbf637994deb","6880894167eca811eff6bb54","2","1","667abff30a4bfe675c592b14","2","1","2025-07-23T07:22:56.190Z","","","","","","","","","","","MotivationQ","","50","","","","","","","","","","","","","","","","","","","","","","","","","","","","",""
"","","","","ctl-task-cpt","54","1202169","0.0-5.0-0.9","167","1","2025-07-23 07:04:04","1f75c3e559b7213887762d5229550c2b","168.210.171.183","Mozilla/5.0 (Windows NT 10.0; Win64; x64) AppleWebKit/537.36 (KHTML, like Gecko) Chrome/138.0.0.0 Safari/537.36","WebKit","Chrome","138.0.0.0","Windows","10.0","https://app.prolific.com/","en-US,en;q=0.9","667abff30a4bfe675c592b14","683db9eb0562dbf637994deb","6880894167eca811eff6bb54","2","1","667abff30a4bfe675c592b14","2","1","2025-07-23T07:24:08.801Z","","","","","","","","","","","","","","win-only","2","g1:SE,g2:NW","0.4","10","0","1136963.3","1473.4","6477.1","69591.3","1","4","8","6","2","-8","-8","3","11","0.022727272727272728","2057.7","3000","-1360","[""left"",""up""]","{""num_key_presses"":16,""num_perfect"":5,""num_errors"":0,""num_randdir"":11,""num_randdir_good_moves"":5,""num_whilered"":0,""num_whileblue"":0,""num_blue"":4,""num_good_moves"":9}","[294.22232142857143,293.12857142857143,0.5,294.22232142857143,293.12857142857143,113.6,294.22232142857143,293.12857142857143,228.6,294.22232142857143,293.12857142857143,330.1,294.22232142857143,293.12857142857143,445.1,294.22232142857143,293.12857142857143,554,294.22232142857143,293.12857142857143,666.3,294.22232142857143,293.12857142857143,768.5,294.22232142857143,293.12857142857143,877.9,294.22232142857143,293.12857142857143,982.8,216.22232142857143,228.12857142857143,1084.3,151.22232142857143,164.12857142857143,1194,119.22232142857143,123.12857142857143,1296.5,119.22232142857143,123.12857142857143,1399.4,119.22232142857143,123.12857142857143,1503.2,83.22232142857143,84.12857142857143,1609.9,53.222321428571426,50.128571428571426,1716.5,53.222321428571426,50.128571428571426,1826.3,53.222321428571426,50.128571428571426,1932.1,53.222321428571426,50.128571428571426,2040.7,53.222321428571426,50.128571428571426,2141.8,53.222321428571426,50.128571428571426,2251.9,53.222321428571426,50.128571428571426,2353.3,53.222321428571426,50.128571428571426,2467.1,53.222321428571426,50.128571428571426,2574.4,53.222321428571426,50.128571428571426,2682.6,68.22232142857143,56.128571428571426,2783.4,220.22232142857143,208.12857142857143,2899,244.22232142857143,238.12857142857143,3009.3,244.22232142857143,238.12857142857143,3116.4,244.22232142857143,238.12857142857143,3216.9,244.22232142857143,238.12857142857143,3318,244.22232142857143,238.12857142857143,3425.2,244.22232142857143,238.12857142857143,3525.9,244.22232142857143,238.12857142857143,3637.5,244.22232142857143,238.12857142857143,3750.7,244.22232142857143,238.12857142857143,3856.2,244.22232142857143,238.12857142857143,3957.3,244.22232142857143,238.12857142857143,4069.9,244.22232142857143,238.12857142857143,4179.1,244.22232142857143,238.12857142857143,4291,244.22232142857143,238.12857142857143,4391,244.22232142857143,238.12857142857143,4501.2,244.22232142857143,238.12857142857143,4603.7,244.22232142857143,238.12857142857143,4709.3,244.22232142857143,238.12857142857143,4811.2,244.22232142857143,238.12857142857143,4918.1]","[5446.7,5446.7,2871.6,2027.7,547.4,""oops"",""up"",""left"",""good_move"",10578.4,5130.6,1568.9,8511.7,497.8,""smooth"",""up"",""up"",""good_move"",13443.7,2863.7,2311,10580.1,552.7,""smooth"",""up"",""up"",""good_move"",16818.7,3369.1,2966,13449.6,403.1,""oops"",""up"",""left"",""good_move"",19991.1,3170.9,2756.1,16820.2,414.8,""oops"",""up"",""right"",""bad_move"",22642.3,2649.6,2119,19992.7,530.6,""smooth"",""up"",""up"",""good_move"",25645.5,3002,2591,22643.5,411,""oops"",""left"",""down"",""bad_move"",28786,3139.1,2693.3,25646.9,445.8,""oops"",""left"",""up"",""good_move"",31738.5,2951.5,2576.5,28787,375,""oops"",""left"",""right"",""bad_move"",35586.1,3846.3,3494.1,31739.8,352.3,""smooth"",""right"",""right"",""bad_move"",42385.6,6798.4,2722.4,39247.5,415.8,""oops"",""right"",""right"",""bad_move"",45046.2,2659.6,2262.7,42386.6,396.9,""oops"",""left"",""down"",""bad_move"",48338.6,3290.3,2922.4,45048.3,367.9,""oops"",""left"",""down"",""bad_move"",51004.2,2664.5,2006,48339.8,658.4,""smooth"",""left"",""left"",""good_move"",54233.8,3223,2697.7,51010.8,525.3,""oops"",""left"",""up"",""good_move"",56979.2,2733.4,2367.1,54245.8,366.3,""oops"",""left"",""left"",""good_move""]","",""
"4395","","<div style=""width:500px;"">
  <p>What determined the result of this run?</p>
  </div>","3","html-slider-response","55","1206568","0.0-5.0-1.9","167","1","2025-07-23 07:04:04","1f75c3e559b7213887762d5229550c2b","168.210.171.183","Mozilla/5.0 (Windows NT 10.0; Win64; x64) AppleWebKit/537.36 (KHTML, like Gecko) Chrome/138.0.0.0 Safari/537.36","WebKit","Chrome","138.0.0.0","Windows","10.0","https://app.prolific.com/","en-US,en;q=0.9","667abff30a4bfe675c592b14","683db9eb0562dbf637994deb","6880894167eca811eff6bb54","2","1","667abff30a4bfe675c592b14","2","1","2025-07-23T07:24:13.200Z","","","","","","","","","","","AttribQ","","50","","","","","","","","","","","","","","","","","","","","","","","","","","","","",""
"3300","","<div style=""width:500px;"">
  <p>How much control did you have over the ball?</p>
  </div>","24","html-slider-response","56","1209873","0.0-5.0-2.9","167","1","2025-07-23 07:04:04","1f75c3e559b7213887762d5229550c2b","168.210.171.183","Mozilla/5.0 (Windows NT 10.0; Win64; x64) AppleWebKit/537.36 (KHTML, like Gecko) Chrome/138.0.0.0 Safari/537.36","WebKit","Chrome","138.0.0.0","Windows","10.0","https://app.prolific.com/","en-US,en;q=0.9","667abff30a4bfe675c592b14","683db9eb0562dbf637994deb","6880894167eca811eff6bb54","2","1","667abff30a4bfe675c592b14","2","1","2025-07-23T07:24:16.505Z","","","","","","","","","","","ControlQ","","50","","","","","","","","","","","","","","","","","","","","","","","","","","","","",""
"4174","","<div style=""width:500px;"">
  <p>How would you describe your current emotional state?</p>
  </div>","44","html-slider-response","57","1214053","0.0-5.0-3.9","167","1","2025-07-23 07:04:04","1f75c3e559b7213887762d5229550c2b","168.210.171.183","Mozilla/5.0 (Windows NT 10.0; Win64; x64) AppleWebKit/537.36 (KHTML, like Gecko) Chrome/138.0.0.0 Safari/537.36","WebKit","Chrome","138.0.0.0","Windows","10.0","https://app.prolific.com/","en-US,en;q=0.9","667abff30a4bfe675c592b14","683db9eb0562dbf637994deb","6880894167eca811eff6bb54","2","1","667abff30a4bfe675c592b14","2","1","2025-07-23T07:24:20.685Z","","","","","","","","","","","StressQ","","50","","","","","","","","","","","","","","","","","","","","","","","","","","","","",""
"26885","","<div style=""width:500px;"">
  <p>What best describes how you currently feel?</p>
  </div>","43","html-slider-response","58","1240945","0.0-5.0-4.9","167","1","2025-07-23 07:04:04","1f75c3e559b7213887762d5229550c2b","168.210.171.183","Mozilla/5.0 (Windows NT 10.0; Win64; x64) AppleWebKit/537.36 (KHTML, like Gecko) Chrome/138.0.0.0 Safari/537.36","WebKit","Chrome","138.0.0.0","Windows","10.0","https://app.prolific.com/","en-US,en;q=0.9","667abff30a4bfe675c592b14","683db9eb0562dbf637994deb","6880894167eca811eff6bb54","2","1","667abff30a4bfe675c592b14","2","1","2025-07-23T07:24:47.577Z","","","","","","","","","","","MotivationQ","","50","","","","","","","","","","","","","","","","","","","","","","","","","","","","",""
"","","","","ctl-task-cpt","59","1297315","0.0-5.0-0.10","167","1","2025-07-23 07:04:04","1f75c3e559b7213887762d5229550c2b","168.210.171.183","Mozilla/5.0 (Windows NT 10.0; Win64; x64) AppleWebKit/537.36 (KHTML, like Gecko) Chrome/138.0.0.0 Safari/537.36","WebKit","Chrome","138.0.0.0","Windows","10.0","https://app.prolific.com/","en-US,en;q=0.9","667abff30a4bfe675c592b14","683db9eb0562dbf637994deb","6880894167eca811eff6bb54","2","1","667abff30a4bfe675c592b14","2","1","2025-07-23T07:25:43.948Z","","","","","","","","","","","","","","win-only","3","g1:SW,g2:NE","0.5","11","0","1248355.2","2150.7","7160","53350.3","1","4","4","6","2","4","4","7","3","0.05303030303030303","1472.2","3000","1095","[""up"",""right""]","{""num_key_presses"":12,""num_perfect"":6,""num_errors"":0,""num_randdir"":6,""num_randdir_good_moves"":3,""num_whilered"":0,""num_whileblue"":0,""num_blue"":2,""num_good_moves"":9}","[294.22232142857143,297.12857142857143,0.6,294.22232142857143,297.12857142857143,109.6,294.22232142857143,297.12857142857143,223,294.22232142857143,297.12857142857143,334.6,294.22232142857143,297.12857142857143,452.6,294.22232142857143,297.12857142857143,554,294.22232142857143,297.12857142857143,659.5,522.2223214285714,89.12857142857143,776.7,541.2223214285714,74.12857142857143,878.6,541.2223214285714,74.12857142857143,992.1,541.2223214285714,74.12857142857143,1092.5,541.2223214285714,74.12857142857143,1207.9,541.2223214285714,74.12857142857143,1320.1,541.2223214285714,74.12857142857143,1423,541.2223214285714,74.12857142857143,1525.4,541.2223214285714,74.12857142857143,1629.1,541.2223214285714,74.12857142857143,1734.3,541.2223214285714,74.12857142857143,1843.8,541.2223214285714,74.12857142857143,1957,541.2223214285714,74.12857142857143,2063,541.2223214285714,74.12857142857143,2165.1,541.2223214285714,74.12857142857143,2271.4,541.2223214285714,74.12857142857143,2379.9,541.2223214285714,74.12857142857143,2492.5,541.2223214285714,74.12857142857143,2594.8,541.2223214285714,74.12857142857143,2695.8,541.2223214285714,74.12857142857143,2800.7,541.2223214285714,74.12857142857143,2903.7,541.2223214285714,74.12857142857143,3024.1,541.2223214285714,74.12857142857143,3130,541.2223214285714,74.12857142857143,3243.6,541.2223214285714,74.12857142857143,3348.6,541.2223214285714,74.12857142857143,3460.4,541.2223214285714,74.12857142857143,3574.2,541.2223214285714,74.12857142857143,3675.1,541.2223214285714,74.12857142857143,3792.2,541.2223214285714,74.12857142857143,3906.6,541.2223214285714,74.12857142857143,4019.4,541.2223214285714,74.12857142857143,4132.9,541.2223214285714,74.12857142857143,4237.3,541.2223214285714,74.12857142857143,4347.9,541.2223214285714,74.12857142857143,4452.6,541.2223214285714,74.12857142857143,4559,541.2223214285714,74.12857142857143,4667.4,541.2223214285714,74.12857142857143,4778.7,541.2223214285714,74.12857142857143,4878.9,541.2223214285714,74.12857142857143,4992.6]","[1589.8,1589.8,1000,0,589.8,""smooth"",""up"",""up"",""good_move"",4519.3,2928.1,2167.8,1591.2,760.3,""oops"",""up"",""left"",""bad_move"",8009.3,3486.3,2499.4,4523,986.9,""oops"",""up"",""left"",""bad_move"",15972.2,7961.6,2617.5,12824,530.8,""smooth"",""up"",""up"",""good_move"",19918.5,3944.1,2408.8,15974.4,1535.3,""smooth"",""up"",""up"",""good_move"",23522.8,3601.6,3043.5,19921.3,558.1,""smooth"",""right"",""right"",""good_move"",30631.1,7106.5,2526.1,27505.1,599.9,""oops"",""right"",""right"",""good_move"",33758.3,3126.5,2601.5,30631.9,524.9,""smooth"",""right"",""right"",""good_move"",36361.2,2600.7,1971.2,33761.7,628.3,""oops"",""right"",""right"",""good_move"",39824.2,3459.7,3072.4,36364.5,387.3,""oops"",""right"",""down"",""bad_move"",42538.4,2712.5,2311.8,39825.9,400.7,""oops"",""right"",""right"",""good_move"",45846.3,3306.5,2948,42539.8,358.5,""smooth"",""up"",""up"",""good_move""]","",""
"5669","","<div style=""width:500px;"">
  <p>What determined the result of this run?</p>
  </div>","32","html-slider-response","60","1302992","0.0-5.0-1.10","167","1","2025-07-23 07:04:04","1f75c3e559b7213887762d5229550c2b","168.210.171.183","Mozilla/5.0 (Windows NT 10.0; Win64; x64) AppleWebKit/537.36 (KHTML, like Gecko) Chrome/138.0.0.0 Safari/537.36","WebKit","Chrome","138.0.0.0","Windows","10.0","https://app.prolific.com/","en-US,en;q=0.9","667abff30a4bfe675c592b14","683db9eb0562dbf637994deb","6880894167eca811eff6bb54","2","1","667abff30a4bfe675c592b14","2","1","2025-07-23T07:25:49.624Z","","","","","","","","","","","AttribQ","","50","","","","","","","","","","","","","","","","","","","","","","","","","","","","",""
"3898","","<div style=""width:500px;"">
  <p>How much control did you have over the ball?</p>
  </div>","40","html-slider-response","61","1306893","0.0-5.0-2.10","167","1","2025-07-23 07:04:04","1f75c3e559b7213887762d5229550c2b","168.210.171.183","Mozilla/5.0 (Windows NT 10.0; Win64; x64) AppleWebKit/537.36 (KHTML, like Gecko) Chrome/138.0.0.0 Safari/537.36","WebKit","Chrome","138.0.0.0","Windows","10.0","https://app.prolific.com/","en-US,en;q=0.9","667abff30a4bfe675c592b14","683db9eb0562dbf637994deb","6880894167eca811eff6bb54","2","1","667abff30a4bfe675c592b14","2","1","2025-07-23T07:25:53.525Z","","","","","","","","","","","ControlQ","","50","","","","","","","","","","","","","","","","","","","","","","","","","","","","",""
"4316","","<div style=""width:500px;"">
  <p>How would you describe your current emotional state?</p>
  </div>","77","html-slider-response","62","1311212","0.0-5.0-3.10","167","1","2025-07-23 07:04:04","1f75c3e559b7213887762d5229550c2b","168.210.171.183","Mozilla/5.0 (Windows NT 10.0; Win64; x64) AppleWebKit/537.36 (KHTML, like Gecko) Chrome/138.0.0.0 Safari/537.36","WebKit","Chrome","138.0.0.0","Windows","10.0","https://app.prolific.com/","en-US,en;q=0.9","667abff30a4bfe675c592b14","683db9eb0562dbf637994deb","6880894167eca811eff6bb54","2","1","667abff30a4bfe675c592b14","2","1","2025-07-23T07:25:57.844Z","","","","","","","","","","","StressQ","","50","","","","","","","","","","","","","","","","","","","","","","","","","","","","",""
"5715","","<div style=""width:500px;"">
  <p>What best describes how you currently feel?</p>
  </div>","45","html-slider-response","63","1316930","0.0-5.0-4.10","167","1","2025-07-23 07:04:04","1f75c3e559b7213887762d5229550c2b","168.210.171.183","Mozilla/5.0 (Windows NT 10.0; Win64; x64) AppleWebKit/537.36 (KHTML, like Gecko) Chrome/138.0.0.0 Safari/537.36","WebKit","Chrome","138.0.0.0","Windows","10.0","https://app.prolific.com/","en-US,en;q=0.9","667abff30a4bfe675c592b14","683db9eb0562dbf637994deb","6880894167eca811eff6bb54","2","1","667abff30a4bfe675c592b14","2","1","2025-07-23T07:26:03.562Z","","","","","","","","","","","MotivationQ","","50","","","","","","","","","","","","","","","","","","","","","","","","","","","","",""
"","","","","ctl-task-cpt","64","1389201","0.0-5.0-0.11","167","1","2025-07-23 07:04:04","1f75c3e559b7213887762d5229550c2b","168.210.171.183","Mozilla/5.0 (Windows NT 10.0; Win64; x64) AppleWebKit/537.36 (KHTML, like Gecko) Chrome/138.0.0.0 Safari/537.36","WebKit","Chrome","138.0.0.0","Windows","10.0","https://app.prolific.com/","en-US,en;q=0.9","667abff30a4bfe675c592b14","683db9eb0562dbf637994deb","6880894167eca811eff6bb54","2","1","667abff30a4bfe675c592b14","2","1","2025-07-23T07:27:15.834Z","","","","","","","","","","","","","","win-only","0","g1:NW,g2:SE","0.6","12","0","1324338.1","3133.1","8145.9","69247.1","1","4","8","6","2","8","8","15","7","0.11363636363636363","1381.5","3000","1015","[""down"",""right""]","{""num_key_presses"":16,""num_perfect"":11,""num_errors"":0,""num_randdir"":5,""num_randdir_good_moves"":0,""num_whilered"":0,""num_whileblue"":0,""num_blue"":3,""num_good_moves"":11}","[290.22232142857143,291.12857142857143,1.4,290.22232142857143,291.12857142857143,115.6,290.22232142857143,291.12857142857143,222.4,290.22232142857143,291.12857142857143,326.5,290.22232142857143,291.12857142857143,440.3,290.22232142857143,291.12857142857143,542.6,409.22232142857143,383.12857142857143,661,524.2223214285714,504.12857142857143,761.4,525.2223214285714,508.12857142857143,872.4,537.2223214285714,532.1285714285714,983,538.2223214285714,535.1285714285714,1083.2,538.2223214285714,535.1285714285714,1189.9,538.2223214285714,535.1285714285714,1318.8,538.2223214285714,535.1285714285714,1460,538.2223214285714,535.1285714285714,1560.7,538.2223214285714,535.1285714285714,1674.6,538.2223214285714,535.1285714285714,1782.5,538.2223214285714,535.1285714285714,1883.2,538.2223214285714,535.1285714285714,1984.2,538.2223214285714,535.1285714285714,2089.5,538.2223214285714,535.1285714285714,2203.5,538.2223214285714,535.1285714285714,2308.6,538.2223214285714,535.1285714285714,2414.8,538.2223214285714,535.1285714285714,2526.1,538.2223214285714,535.1285714285714,2640.7,538.2223214285714,535.1285714285714,2759.5,538.2223214285714,535.1285714285714,2867.2,538.2223214285714,535.1285714285714,2968.6,538.2223214285714,535.1285714285714,3070.7,538.2223214285714,535.1285714285714,3186.7,538.2223214285714,535.1285714285714,3302.1,538.2223214285714,535.1285714285714,3405.2,538.2223214285714,535.1285714285714,3505.9,538.2223214285714,535.1285714285714,3622.6,538.2223214285714,535.1285714285714,3732.9,538.2223214285714,535.1285714285714,3849.1,538.2223214285714,535.1285714285714,3950.2,538.2223214285714,535.1285714285714,4062.6,538.2223214285714,535.1285714285714,4175.8,538.2223214285714,535.1285714285714,4291.8,538.2223214285714,535.1285714285714,4392.1,538.2223214285714,535.1285714285714,4504.7,538.2223214285714,535.1285714285714,4609.9,538.2223214285714,535.1285714285714,4710,538.2223214285714,535.1285714285714,4815.2,538.2223214285714,535.1285714285714,4917.4]","[1507.4,1507.4,1000,0,507.4,""oops"",""down"",""up"",""bad_move"",4636.5,3115.9,2460,1520.6,655.9,""smooth"",""right"",""right"",""good_move"",7840.1,3201.5,2763.4,4638.7,438,""smooth"",""down"",""down"",""good_move"",10613.9,2772.2,2316.3,7841.7,455.9,""smooth"",""down"",""down"",""good_move"",13283.3,2666.3,2104.3,10617,562,""oops"",""down"",""left"",""bad_move"",16406.3,3121.4,2626.6,13284.9,494.8,""oops"",""right"",""up"",""bad_move"",19359.4,2946.9,2565.3,16412.5,381.6,""smooth"",""right"",""right"",""good_move"",21880.6,2520.2,2005.5,19360.5,514.7,""smooth"",""right"",""right"",""good_move"",24691.6,2805.4,2397,21893.7,400.9,""oops"",""down"",""left"",""bad_move"",28536.3,3823.3,1480.6,24713,2342.7,""smooth"",""right"",""right"",""good_move"",37759.9,9216.1,2377,34941.5,441.4,""smooth"",""right"",""right"",""good_move"",44312.9,6552.2,3148.4,40708.7,455.9,""oops"",""down"",""up"",""bad_move"",51447.1,7114.9,2730.6,44332.2,4384.3,""smooth"",""down"",""down"",""good_move"",54521.7,3073.1,2475.2,51448.6,597.9,""smooth"",""down"",""down"",""good_move"",57533,3008.8,2462.2,54524.2,546.6,""smooth"",""down"",""down"",""good_move"",60801.4,3267.3,2823.3,57534.1,444,""smooth"",""down"",""down"",""good_move""]","",""
"4697","","<div style=""width:500px;"">
  <p>What determined the result of this run?</p>
  </div>","29","html-slider-response","65","1393901","0.0-5.0-1.11","167","1","2025-07-23 07:04:04","1f75c3e559b7213887762d5229550c2b","168.210.171.183","Mozilla/5.0 (Windows NT 10.0; Win64; x64) AppleWebKit/537.36 (KHTML, like Gecko) Chrome/138.0.0.0 Safari/537.36","WebKit","Chrome","138.0.0.0","Windows","10.0","https://app.prolific.com/","en-US,en;q=0.9","667abff30a4bfe675c592b14","683db9eb0562dbf637994deb","6880894167eca811eff6bb54","2","1","667abff30a4bfe675c592b14","2","1","2025-07-23T07:27:20.534Z","","","","","","","","","","","AttribQ","","50","","","","","","","","","","","","","","","","","","","","","","","","","","","","",""
"6820","","<div style=""width:500px;"">
  <p>How much control did you have over the ball?</p>
  </div>","44","html-slider-response","66","1400724","0.0-5.0-2.11","167","1","2025-07-23 07:04:04","1f75c3e559b7213887762d5229550c2b","168.210.171.183","Mozilla/5.0 (Windows NT 10.0; Win64; x64) AppleWebKit/537.36 (KHTML, like Gecko) Chrome/138.0.0.0 Safari/537.36","WebKit","Chrome","138.0.0.0","Windows","10.0","https://app.prolific.com/","en-US,en;q=0.9","667abff30a4bfe675c592b14","683db9eb0562dbf637994deb","6880894167eca811eff6bb54","2","1","667abff30a4bfe675c592b14","2","1","2025-07-23T07:27:27.356Z","","","","","","","","","","","ControlQ","","50","","","","","","","","","","","","","","","","","","","","","","","","","","","","",""
"6942","","<div style=""width:500px;"">
  <p>How would you describe your current emotional state?</p>
  </div>","47","html-slider-response","67","1407669","0.0-5.0-3.11","167","1","2025-07-23 07:04:04","1f75c3e559b7213887762d5229550c2b","168.210.171.183","Mozilla/5.0 (Windows NT 10.0; Win64; x64) AppleWebKit/537.36 (KHTML, like Gecko) Chrome/138.0.0.0 Safari/537.36","WebKit","Chrome","138.0.0.0","Windows","10.0","https://app.prolific.com/","en-US,en;q=0.9","667abff30a4bfe675c592b14","683db9eb0562dbf637994deb","6880894167eca811eff6bb54","2","1","667abff30a4bfe675c592b14","2","1","2025-07-23T07:27:34.301Z","","","","","","","","","","","StressQ","","50","","","","","","","","","","","","","","","","","","","","","","","","","","","","",""
"3826","","<div style=""width:500px;"">
  <p>What best describes how you currently feel?</p>
  </div>","41","html-slider-response","68","1411498","0.0-5.0-4.11","167","1","2025-07-23 07:04:04","1f75c3e559b7213887762d5229550c2b","168.210.171.183","Mozilla/5.0 (Windows NT 10.0; Win64; x64) AppleWebKit/537.36 (KHTML, like Gecko) Chrome/138.0.0.0 Safari/537.36","WebKit","Chrome","138.0.0.0","Windows","10.0","https://app.prolific.com/","en-US,en;q=0.9","667abff30a4bfe675c592b14","683db9eb0562dbf637994deb","6880894167eca811eff6bb54","2","1","667abff30a4bfe675c592b14","2","1","2025-07-23T07:27:38.130Z","","","","","","","","","","","MotivationQ","","50","","","","","","","","","","","","","","","","","","","","","","","","","","","","",""
"","","","","ctl-task-cpt","69","1442023","0.0-5.0-0.12","167","1","2025-07-23 07:04:04","1f75c3e559b7213887762d5229550c2b","168.210.171.183","Mozilla/5.0 (Windows NT 10.0; Win64; x64) AppleWebKit/537.36 (KHTML, like Gecko) Chrome/138.0.0.0 Safari/537.36","WebKit","Chrome","138.0.0.0","Windows","10.0","https://app.prolific.com/","en-US,en;q=0.9","667abff30a4bfe675c592b14","683db9eb0562dbf637994deb","6880894167eca811eff6bb54","2","1","667abff30a4bfe675c592b14","2","1","2025-07-23T07:28:08.655Z","","","","","","","","","","","","","","win-only","2","g1:SE,g2:NW","0.7","13","0","1418905.1","1717.4","6720.5","27500.3","1","4","8","6","2","8","8","23","15","0.17424242424242425","1633.9","3000","2085","[""left"",""up""]","{""num_key_presses"":6,""num_perfect"":4,""num_errors"":0,""num_randdir"":2,""num_randdir_good_moves"":2,""num_whilered"":0,""num_whileblue"":0,""num_blue"":1,""num_good_moves"":6}","[294.22232142857143,288.12857142857143,0.6,294.22232142857143,288.12857142857143,122.6,294.22232142857143,288.12857142857143,233.6,294.22232142857143,288.12857142857143,371.8,294.22232142857143,288.12857142857143,497.1,294.22232142857143,288.12857142857143,625.5,294.22232142857143,288.12857142857143,729.9,294.22232142857143,288.12857142857143,833.4,234.22232142857143,244.12857142857143,951.8,72.22232142857143,88.12857142857143,1085.8,70.22232142857143,81.12857142857143,1209.7,71.22232142857143,82.12857142857143,1318.5,68.22232142857143,77.12857142857143,1448,68.22232142857143,77.12857142857143,1558.6,68.22232142857143,77.12857142857143,1693.2,68.22232142857143,77.12857142857143,1810.4,68.22232142857143,77.12857142857143,1935.5,68.22232142857143,77.12857142857143,2057.8,68.22232142857143,77.12857142857143,2195.1,68.22232142857143,77.12857142857143,2310.5,68.22232142857143,77.12857142857143,2442.6,161.22232142857143,135.12857142857143,2605.2,363.22232142857143,323.12857142857143,2744.6,363.22232142857143,323.12857142857143,2876.9,363.22232142857143,323.12857142857143,2999,363.22232142857143,323.12857142857143,3114.4,363.22232142857143,323.12857142857143,3215.7,363.22232142857143,323.12857142857143,3324.6,363.22232142857143,323.12857142857143,3432.1,363.22232142857143,323.12857142857143,3536.8,363.22232142857143,323.12857142857143,3646.8,363.22232142857143,323.12857142857143,3752.3,363.22232142857143,323.12857142857143,3868.8,363.22232142857143,323.12857142857143,3984.6,363.22232142857143,323.12857142857143,4095.3,363.22232142857143,323.12857142857143,4201.3,363.22232142857143,323.12857142857143,4306.9,385.22232142857143,336.12857142857143,4430.7,600.2223214285714,516.1285714285714,4530.9,611.2223214285714,544.1285714285714,4654.4,580.2223214285714,528.1285714285714,4788.8,562.2223214285714,520.1285714285714,4926.8]","[5063.3,5063.3,2544.9,2083.6,434.8,""smooth"",""left"",""left"",""good_move"",8674.2,3606.6,3212.2,5067.6,394.4,""oops"",""left"",""left"",""good_move"",11690.2,3014.8,2632.5,8675.5,382.2,""oops"",""up"",""left"",""good_move"",14494.4,2803.1,2402.4,11691.3,400.7,""smooth"",""up"",""up"",""good_move"",17320.6,2823.5,2369.4,14497.1,454.1,""smooth"",""up"",""up"",""good_move"",20490.3,3153.1,2762.9,17337.2,390.2,""smooth"",""up"",""up"",""good_move""]","",""
"7176","","<div style=""width:500px;"">
  <p>What determined the result of this run?</p>
  </div>","61","html-slider-response","70","1449202","0.0-5.0-1.12","167","1","2025-07-23 07:04:04","1f75c3e559b7213887762d5229550c2b","168.210.171.183","Mozilla/5.0 (Windows NT 10.0; Win64; x64) AppleWebKit/537.36 (KHTML, like Gecko) Chrome/138.0.0.0 Safari/537.36","WebKit","Chrome","138.0.0.0","Windows","10.0","https://app.prolific.com/","en-US,en;q=0.9","667abff30a4bfe675c592b14","683db9eb0562dbf637994deb","6880894167eca811eff6bb54","2","1","667abff30a4bfe675c592b14","2","1","2025-07-23T07:28:15.834Z","","","","","","","","","","","AttribQ","","50","","","","","","","","","","","","","","","","","","","","","","","","","","","","",""
"5101","","<div style=""width:500px;"">
  <p>How much control did you have over the ball?</p>
  </div>","90","html-slider-response","71","1454305","0.0-5.0-2.12","167","1","2025-07-23 07:04:04","1f75c3e559b7213887762d5229550c2b","168.210.171.183","Mozilla/5.0 (Windows NT 10.0; Win64; x64) AppleWebKit/537.36 (KHTML, like Gecko) Chrome/138.0.0.0 Safari/537.36","WebKit","Chrome","138.0.0.0","Windows","10.0","https://app.prolific.com/","en-US,en;q=0.9","667abff30a4bfe675c592b14","683db9eb0562dbf637994deb","6880894167eca811eff6bb54","2","1","667abff30a4bfe675c592b14","2","1","2025-07-23T07:28:20.937Z","","","","","","","","","","","ControlQ","","50","","","","","","","","","","","","","","","","","","","","","","","","","","","","",""
"4506","","<div style=""width:500px;"">
  <p>How would you describe your current emotional state?</p>
  </div>","31","html-slider-response","72","1458815","0.0-5.0-3.12","167","1","2025-07-23 07:04:04","1f75c3e559b7213887762d5229550c2b","168.210.171.183","Mozilla/5.0 (Windows NT 10.0; Win64; x64) AppleWebKit/537.36 (KHTML, like Gecko) Chrome/138.0.0.0 Safari/537.36","WebKit","Chrome","138.0.0.0","Windows","10.0","https://app.prolific.com/","en-US,en;q=0.9","667abff30a4bfe675c592b14","683db9eb0562dbf637994deb","6880894167eca811eff6bb54","2","1","667abff30a4bfe675c592b14","2","1","2025-07-23T07:28:25.448Z","","","","","","","","","","","StressQ","","50","","","","","","","","","","","","","","","","","","","","","","","","","","","","",""
"4567","","<div style=""width:500px;"">
  <p>What best describes how you currently feel?</p>
  </div>","81","html-slider-response","73","1463385","0.0-5.0-4.12","167","1","2025-07-23 07:04:04","1f75c3e559b7213887762d5229550c2b","168.210.171.183","Mozilla/5.0 (Windows NT 10.0; Win64; x64) AppleWebKit/537.36 (KHTML, like Gecko) Chrome/138.0.0.0 Safari/537.36","WebKit","Chrome","138.0.0.0","Windows","10.0","https://app.prolific.com/","en-US,en;q=0.9","667abff30a4bfe675c592b14","683db9eb0562dbf637994deb","6880894167eca811eff6bb54","2","1","667abff30a4bfe675c592b14","2","1","2025-07-23T07:28:30.018Z","","","","","","","","","","","MotivationQ","","50","","","","","","","","","","","","","","","","","","","","","","","","","","","","",""
