"rt","response_timestamp","stimulus","response","trial_type","trial_index","time_elapsed","internal_node_id","run_id","condition","recorded_at","source_code_version","ip","user_agent","device","browser","browser_version","platform","platform_version","referer","accept_language","PROLIFIC_PID","STUDY_ID","SESSION_ID","WEEK","prolific_id","week","realtime","success","responses","item_order","radio_event_ids","radio_event_times","key_event_times","mouse_event_times","straightlining","zigzagging","honeypot","eventType","view_history","slider_start","which_type","canvas_config","goals_layout","control_level","trial_number","tutorial_trial_number","trial_start_time","phase1_start_time","phase2_start_time","phase3_start_time","goal_1_value","goal_1_distance","goal_2_value","goal_2_distance","goal_selected","outcome","outcome_total","participant_final_score","participant_initial_score","participant_final_score_prop","goal_choice_rt","allocated_time","allocated_time_remaining","goal_direction","counts","mouse_movements","key_presses","question_order","question_id"
"3000","1752063747034","<p style='font-size:40px;line-height:1.25'><strong>Welcome to the experiment!</strong></p><p style='font-size:1.1em;line-height:1.25'>Thank you for participanting in our experiment again! You will be asked to play the Dysfunctional Ball Game again. We will briefly recap the rules before we start.</p><p style='font-size:1.1em;line-height:1.25'>Press <strong>Next</strong> to continue.</p>","0","custom-html-button-response","0","3001","0.0-0.0","30","1","2025-07-09 12:22:22","01610cd0009c79a99da7d0a3353eb402","82.132.246.16","Mozilla/5.0 (Windows NT 10.0; Win64; x64) AppleWebKit/537.36 (KHTML, like Gecko) Chrome/138.0.0.0 Safari/537.36","WebKit","Chrome","138.0.0.0","Windows","10.0","https://app.prolific.com/","en-GB,en-US;q=0.9,en;q=0.8","676054ef296caad582258e02","683db7602f5db6a34d12d064","686e5ec5a20e120a843c2a9e","1","676054ef296caad582258e02","1","2025-07-09T12:22:27.034Z","","","","","","","","","","","","","","","","","","","","","","","","","","","","","","","","","","","","","","","","","",""
"11766","","","","fullscreen","1","15784","0.0-1.0","30","1","2025-07-09 12:22:22","01610cd0009c79a99da7d0a3353eb402","82.132.246.16","Mozilla/5.0 (Windows NT 10.0; Win64; x64) AppleWebKit/537.36 (KHTML, like Gecko) Chrome/138.0.0.0 Safari/537.36","WebKit","Chrome","138.0.0.0","Windows","10.0","https://app.prolific.com/","en-GB,en-US;q=0.9,en;q=0.8","676054ef296caad582258e02","683db7602f5db6a34d12d064","686e5ec5a20e120a843c2a9e","1","676054ef296caad582258e02","1","","true","","","","","","","","","","","","","","","","","","","","","","","","","","","","","","","","","","","","","","","","",""
"3528","1752063763345","<p style='font-size:1.1em;line-height:1.25'>In the following, we will ask you a few questions relating to your feelings in the last 24 hours.<br></p><p style='font-size:1.1em;line-height:1.25'>Press the <strong>Next</strong> button to continue.</p>","0","custom-html-button-response","2","19313","0.0-2.0-0.0","30","1","2025-07-09 12:22:22","01610cd0009c79a99da7d0a3353eb402","82.132.246.16","Mozilla/5.0 (Windows NT 10.0; Win64; x64) AppleWebKit/537.36 (KHTML, like Gecko) Chrome/138.0.0.0 Safari/537.36","WebKit","Chrome","138.0.0.0","Windows","10.0","https://app.prolific.com/","en-GB,en-US;q=0.9,en;q=0.8","676054ef296caad582258e02","683db7602f5db6a34d12d064","686e5ec5a20e120a843c2a9e","1","676054ef296caad582258e02","1","2025-07-09T12:22:43.346Z","","","","","","","","","","","","","","","","","","","","","","","","","","","","","","","","","","","","","","","","","",""
"67432.19999999925","","","","survey-template","3","86748","0.0-2.0-1.0","30","1","2025-07-09 12:22:22","01610cd0009c79a99da7d0a3353eb402","82.132.246.16","Mozilla/5.0 (Windows NT 10.0; Win64; x64) AppleWebKit/537.36 (KHTML, like Gecko) Chrome/138.0.0.0 Safari/537.36","WebKit","Chrome","138.0.0.0","Windows","10.0","https://app.prolific.com/","en-GB,en-US;q=0.9,en;q=0.8","676054ef296caad582258e02","683db7602f5db6a34d12d064","686e5ec5a20e120a843c2a9e","1","676054ef296caad582258e02","1","2025-07-09T12:23:50.781Z","","{""Q01"":""2"",""Q02"":""1"",""Q03"":""0"",""Q04"":""2"",""Q05"":""0"",""Q06"":""0"",""Q07"":""0"",""Q08"":""0"",""Q09"":""0"",""Q10"":""0"",""Q11"":""0"",""Q12"":""0"",""Q13"":""5"",""Q14"":""0"",""Q15"":""0"",""Q16"":""2"",""Q17"":""0"",""Q18"":""0"",""Q19"":""1"",""Q20"":""0"",""Q21"":""0"",""Q22"":""0""}","[0,1,2,3,4,5,6,7,8,9,10,11,12,13,14,15,16,17,18,19,20,21]","[""Q01"",""Q01"",""Q02"",""Q03"",""Q04"",""Q04"",""Q05"",""Q06"",""Q07"",""Q08"",""Q09"",""Q10"",""Q11"",""Q12"",""Q13"",""Q14"",""Q15"",""Q16"",""Q16"",""Q16"",""Q17"",""Q17"",""Q18"",""Q17"",""Q19"",""Q20"",""Q21"",""Q22""]","[1629.7999999988824,2653.5,5445.799999998882,6949.799999998882,9709.799999998882,11517.799999998882,12717.89999999851,14581.699999999255,16502,17821.799999998882,20989.799999998882,21749.699999999255,23389.699999999255,24917.699999999255,26637.699999999255,28445.799999998882,31197.699999999255,37301.59999999963,41045.699999999255,43349.699999999255,43981.59999999963,44645.59999999963,47333.59999999963,48741.59999999963,53261.59999999963,59661.699999999255,61749.699999999255,66317.5]","[]","[0.09999999962747097,1629.7999999988824,2653.5,5445.799999998882,6949.799999998882,9709.799999998882,11517.799999998882,12717.89999999851,14581.699999999255,16502,17821.799999998882,20293.799999998882,20989.799999998882,21749.699999999255,23389.699999999255,24917.699999999255,26637.699999999255,28445.799999998882,31197.699999999255,37301.59999999963,41045.699999999255,43349.699999999255,43981.59999999963,44645.59999999963,47333.59999999963,48325.79999999888,48741.59999999963,53261.59999999963,59061.699999999255,59661.699999999255,61749.699999999255,66317.5,67429.79999999888]","0.7272727272727273","0.2857142857142857","0","drsp","","","","","","","","","","","","","","","","","","","","","","","","","","","","","","",""
"15187.599999999627","","","","survey-template","4","101937","0.0-2.0-2.0","30","1","2025-07-09 12:22:22","01610cd0009c79a99da7d0a3353eb402","82.132.246.16","Mozilla/5.0 (Windows NT 10.0; Win64; x64) AppleWebKit/537.36 (KHTML, like Gecko) Chrome/138.0.0.0 Safari/537.36","WebKit","Chrome","138.0.0.0","Windows","10.0","https://app.prolific.com/","en-GB,en-US;q=0.9,en;q=0.8","676054ef296caad582258e02","683db7602f5db6a34d12d064","686e5ec5a20e120a843c2a9e","1","676054ef296caad582258e02","1","2025-07-09T12:24:05.970Z","","{""Q01"":""2"",""Q02"":""3"",""Q03"":""0""}","[0,1,2]","[""Q01"",""Q02"",""Q02"",""Q03""]","[3467.199999999255,5979.0999999996275,7523.0999999996275,11019.299999998882]","[]","[3467.199999999255,5979.0999999996275,7011.39999999851,7523.0999999996275,11019.299999998882,15187.099999999627]","0.6666666666666666","0","0","stress","","","","","","","","","","","","","","","","","","","","","","","","","","","","","","",""
"24039","","","","instructions","5","125976","0.0-3.0-0.0","30","1","2025-07-09 12:22:22","01610cd0009c79a99da7d0a3353eb402","82.132.246.16","Mozilla/5.0 (Windows NT 10.0; Win64; x64) AppleWebKit/537.36 (KHTML, like Gecko) Chrome/138.0.0.0 Safari/537.36","WebKit","Chrome","138.0.0.0","Windows","10.0","https://app.prolific.com/","en-GB,en-US;q=0.9,en;q=0.8","676054ef296caad582258e02","683db7602f5db6a34d12d064","686e5ec5a20e120a843c2a9e","1","676054ef296caad582258e02","1","","","","","","","","","","","","","[{""page_index"":0,""viewing_time"":24039}]","","","","","","","","","","","","","","","","","","","","","","","","","","","","","",""
"9767","","<p>Before you start with this game please answer the following three questions yourself. </p>
  <p>Through this game, we measure several aspects of your cognitive performance, such as reaction times, multi-tasking capabilities </p>
  <p>and the ability to assess the situation you are in.</p>
  <p></p>
  <p><b>How good do you usually are in such tasks?</b></p>","55","html-slider-response","6","135744","0.0-4.0-0.0","30","1","2025-07-09 12:22:22","01610cd0009c79a99da7d0a3353eb402","82.132.246.16","Mozilla/5.0 (Windows NT 10.0; Win64; x64) AppleWebKit/537.36 (KHTML, like Gecko) Chrome/138.0.0.0 Safari/537.36","WebKit","Chrome","138.0.0.0","Windows","10.0","https://app.prolific.com/","en-GB,en-US;q=0.9,en;q=0.8","676054ef296caad582258e02","683db7602f5db6a34d12d064","686e5ec5a20e120a843c2a9e","1","676054ef296caad582258e02","1","2025-07-09T12:24:39.777Z","","","","","","","","","","","PreSkillQ","","50","","","","","","","","","","","","","","","","","","","","","","","","","","","","",""
"3704","","<div style=""width:500px;"">
  <p>How well do you think you will perform in this task compared to other participants?</p>
  </div>","50","html-slider-response","7","139448","0.0-4.0-1.0","30","1","2025-07-09 12:22:22","01610cd0009c79a99da7d0a3353eb402","82.132.246.16","Mozilla/5.0 (Windows NT 10.0; Win64; x64) AppleWebKit/537.36 (KHTML, like Gecko) Chrome/138.0.0.0 Safari/537.36","WebKit","Chrome","138.0.0.0","Windows","10.0","https://app.prolific.com/","en-GB,en-US;q=0.9,en;q=0.8","676054ef296caad582258e02","683db7602f5db6a34d12d064","686e5ec5a20e120a843c2a9e","1","676054ef296caad582258e02","1","2025-07-09T12:24:43.482Z","","","","","","","","","","","PrePerfQ","","50","","","","","","","","","","","","","","","","","","","","","","","","","","","","",""
"2423","","<div style=""width:500px;"">
  <p>What best describes how you currently feel?</p>
  </div>","61","html-slider-response","8","141872","0.0-4.0-2.0","30","1","2025-07-09 12:22:22","01610cd0009c79a99da7d0a3353eb402","82.132.246.16","Mozilla/5.0 (Windows NT 10.0; Win64; x64) AppleWebKit/537.36 (KHTML, like Gecko) Chrome/138.0.0.0 Safari/537.36","WebKit","Chrome","138.0.0.0","Windows","10.0","https://app.prolific.com/","en-GB,en-US;q=0.9,en;q=0.8","676054ef296caad582258e02","683db7602f5db6a34d12d064","686e5ec5a20e120a843c2a9e","1","676054ef296caad582258e02","1","2025-07-09T12:24:45.905Z","","","","","","","","","","","PreMotivationQ","","50","","","","","","","","","","","","","","","","","","","","","","","","","","","","",""
"","","","","ctl-task-cpt","9","177470","0.0-5.0-0.0","30","1","2025-07-09 12:22:22","01610cd0009c79a99da7d0a3353eb402","82.132.246.16","Mozilla/5.0 (Windows NT 10.0; Win64; x64) AppleWebKit/537.36 (KHTML, like Gecko) Chrome/138.0.0.0 Safari/537.36","WebKit","Chrome","138.0.0.0","Windows","10.0","https://app.prolific.com/","en-GB,en-US;q=0.9,en;q=0.8","676054ef296caad582258e02","683db7602f5db6a34d12d064","686e5ec5a20e120a843c2a9e","1","676054ef296caad582258e02","1","2025-07-09T12:25:21.503Z","","","","","","","","","","","","","","win-only","2","g1:SE,g2:NW","1","1","0","144100.1","2606.4","7614.2","32592.4","1","4","8","6","2","8","7","7","0","0.05303030303030303","3488.4","3000","530","[""left"",""up""]","{""num_key_presses"":8,""num_perfect"":7,""num_errors"":1,""num_randdir"":0,""num_randdir_good_moves"":0,""num_whilered"":0,""num_whileblue"":1,""num_blue"":2,""num_good_moves"":7}","[295.22232142857143,299.12857142857143,0.2,295.22232142857143,299.12857142857143,100.3,295.22232142857143,299.12857142857143,200.5,975.2223214285714,517.1285714285714,304.5,975.2223214285714,516.1285714285714,408.8,975.2223214285714,526.1285714285714,508.8,975.2223214285714,526.1285714285714,614.1,975.2223214285714,526.1285714285714,715.1,975.2223214285714,526.1285714285714,819.2,975.2223214285714,526.1285714285714,924.9,975.2223214285714,526.1285714285714,1024.9,975.2223214285714,526.1285714285714,1124.9,975.2223214285714,526.1285714285714,1229.5,975.2223214285714,526.1285714285714,1334.9,975.2223214285714,526.1285714285714,1434.9,975.2223214285714,526.1285714285714,1539.8,975.2223214285714,526.1285714285714,1644.1,975.2223214285714,526.1285714285714,1744.9,975.2223214285714,526.1285714285714,1850.1,975.2223214285714,526.1285714285714,1954.9,975.2223214285714,526.1285714285714,2060.4,975.2223214285714,526.1285714285714,2164.9,975.2223214285714,526.1285714285714,2270.6,975.2223214285714,526.1285714285714,2374.4,975.2223214285714,526.1285714285714,2479,975.2223214285714,526.1285714285714,2579.9,975.2223214285714,526.1285714285714,2684.1,975.2223214285714,526.1285714285714,2785.1,460.22232142857143,5.128571428571426,2885.1,454.22232142857143,-44.871428571428574,2989.4,313.22232142857143,-2.8714285714285737,3089.6,132.22232142857143,40.128571428571426,3195.1,123.22232142857143,34.128571428571426,3299.8,88.22232142857143,30.128571428571426,3399.9,59.222321428571426,36.128571428571426,3499.9,59.222321428571426,36.128571428571426,3604,59.222321428571426,36.128571428571426,3705.3,45.222321428571426,35.128571428571426,3810,338.22232142857143,83.12857142857143,3910.7,381.22232142857143,213.12857142857143,4014.6,372.22232142857143,238.12857142857143,4115.2,346.22232142857143,267.12857142857143,4218,346.22232142857143,267.12857142857143,4320,319.22232142857143,327.12857142857143,4423.9,308.22232142857143,361.12857142857143,4524,304.22232142857143,341.12857142857143,4624.3,304.22232142857143,341.12857142857143,4724.3,304.22232142857143,341.12857142857143,4829.5,304.22232142857143,341.12857142857143,4929.6]","[1471.3,1471.3,1000,0,471.3,""smooth"",""up"",""up"",""good_move"",4367.2,2895.6,2539.8,1471.6,355.8,""smooth"",""left"",""left"",""good_move"",6959.7,2592.3,2186.3,4367.4,406,""smooth"",""left"",""left"",""good_move"",9207.9,2248,1906.6,6959.9,341.4,""while_blue"",""up"",""down"",""bad_move"",11810.6,2602.3,2196.8,9208.3,405.5,""smooth"",""up"",""up"",""good_move"",18393.6,6582.6,2425.7,15547.4,420.5,""smooth"",""up"",""up"",""good_move"",21679.5,3285.8,2970.9,18393.7,314.9,""smooth"",""left"",""left"",""good_move"",24874.6,3194.8,2793,21679.8,401.8,""smooth"",""up"",""up"",""good_move""]","",""
"3065","","<div style=""width:500px;"">
  <p>What determined the result of this run?</p>
  </div>","100","html-slider-response","10","180536","0.0-5.0-1.0","30","1","2025-07-09 12:22:22","01610cd0009c79a99da7d0a3353eb402","82.132.246.16","Mozilla/5.0 (Windows NT 10.0; Win64; x64) AppleWebKit/537.36 (KHTML, like Gecko) Chrome/138.0.0.0 Safari/537.36","WebKit","Chrome","138.0.0.0","Windows","10.0","https://app.prolific.com/","en-GB,en-US;q=0.9,en;q=0.8","676054ef296caad582258e02","683db7602f5db6a34d12d064","686e5ec5a20e120a843c2a9e","1","676054ef296caad582258e02","1","2025-07-09T12:25:24.569Z","","","","","","","","","","","AttribQ","","50","","","","","","","","","","","","","","","","","","","","","","","","","","","","",""
"4359","","<div style=""width:500px;"">
  <p>How much control did you have over the ball?</p>
  </div>","100","html-slider-response","11","184896","0.0-5.0-2.0","30","1","2025-07-09 12:22:22","01610cd0009c79a99da7d0a3353eb402","82.132.246.16","Mozilla/5.0 (Windows NT 10.0; Win64; x64) AppleWebKit/537.36 (KHTML, like Gecko) Chrome/138.0.0.0 Safari/537.36","WebKit","Chrome","138.0.0.0","Windows","10.0","https://app.prolific.com/","en-GB,en-US;q=0.9,en;q=0.8","676054ef296caad582258e02","683db7602f5db6a34d12d064","686e5ec5a20e120a843c2a9e","1","676054ef296caad582258e02","1","2025-07-09T12:25:28.929Z","","","","","","","","","","","ControlQ","","50","","","","","","","","","","","","","","","","","","","","","","","","","","","","",""
"2447","","<div style=""width:500px;"">
  <p>How would you describe your current emotional state?</p>
  </div>","50","html-slider-response","12","187344","0.0-5.0-3.0","30","1","2025-07-09 12:22:22","01610cd0009c79a99da7d0a3353eb402","82.132.246.16","Mozilla/5.0 (Windows NT 10.0; Win64; x64) AppleWebKit/537.36 (KHTML, like Gecko) Chrome/138.0.0.0 Safari/537.36","WebKit","Chrome","138.0.0.0","Windows","10.0","https://app.prolific.com/","en-GB,en-US;q=0.9,en;q=0.8","676054ef296caad582258e02","683db7602f5db6a34d12d064","686e5ec5a20e120a843c2a9e","1","676054ef296caad582258e02","1","2025-07-09T12:25:31.377Z","","","","","","","","","","","StressQ","","50","","","","","","","","","","","","","","","","","","","","","","","","","","","","",""
"3704","","<div style=""width:500px;"">
  <p>What best describes how you currently feel?</p>
  </div>","67","html-slider-response","13","191048","0.0-5.0-4.0","30","1","2025-07-09 12:22:22","01610cd0009c79a99da7d0a3353eb402","82.132.246.16","Mozilla/5.0 (Windows NT 10.0; Win64; x64) AppleWebKit/537.36 (KHTML, like Gecko) Chrome/138.0.0.0 Safari/537.36","WebKit","Chrome","138.0.0.0","Windows","10.0","https://app.prolific.com/","en-GB,en-US;q=0.9,en;q=0.8","676054ef296caad582258e02","683db7602f5db6a34d12d064","686e5ec5a20e120a843c2a9e","1","676054ef296caad582258e02","1","2025-07-09T12:25:35.082Z","","","","","","","","","","","MotivationQ","","50","","","","","","","","","","","","","","","","","","","","","","","","","","","","",""
"","","","","ctl-task-cpt","14","218885","0.0-5.0-0.1","30","1","2025-07-09 12:22:22","01610cd0009c79a99da7d0a3353eb402","82.132.246.16","Mozilla/5.0 (Windows NT 10.0; Win64; x64) AppleWebKit/537.36 (KHTML, like Gecko) Chrome/138.0.0.0 Safari/537.36","WebKit","Chrome","138.0.0.0","Windows","10.0","https://app.prolific.com/","en-GB,en-US;q=0.9,en;q=0.8","676054ef296caad582258e02","683db7602f5db6a34d12d064","686e5ec5a20e120a843c2a9e","1","676054ef296caad582258e02","1","2025-07-09T12:26:02.918Z","","","","","","","","","","","","","","win-only","1","g1:NE,g2:SW","0.9","2","0","193275.3","1383.2","6385.5","24831.9","1","4","4","6","2","4","4","11","7","0.08333333333333333","785.7","3000","775","[""down"",""left""]","{""num_key_presses"":6,""num_perfect"":5,""num_errors"":0,""num_randdir"":1,""num_randdir_good_moves"":1,""num_whilered"":0,""num_whileblue"":0,""num_blue"":1,""num_good_moves"":6}","[293.22232142857143,301.12857142857143,0.1,293.22232142857143,301.12857142857143,102.4,293.22232142857143,301.12857142857143,203.1,293.22232142857143,301.12857142857143,307.4,303.22232142857143,300.12857142857143,412.8,205.22232142857143,445.12857142857143,513.6,81.22232142857143,551.1285714285714,619,59.222321428571426,557.1285714285714,722.3,52.222321428571426,557.1285714285714,827.9,86.22232142857143,546.1285714285714,932.9,98.22232142857143,544.1285714285714,1037.9,81.22232142857143,528.1285714285714,1143,81.22232142857143,528.1285714285714,1248.9,81.22232142857143,528.1285714285714,1349,81.22232142857143,528.1285714285714,1453.1,81.22232142857143,528.1285714285714,1557.1,81.22232142857143,528.1285714285714,1658.4,81.22232142857143,528.1285714285714,1762.3,81.22232142857143,528.1285714285714,1862.4,81.22232142857143,528.1285714285714,1967.7,81.22232142857143,528.1285714285714,2073.4,81.22232142857143,528.1285714285714,2173.7,81.22232142857143,528.1285714285714,2277,81.22232142857143,528.1285714285714,2378.8,81.22232142857143,528.1285714285714,2478.8,81.22232142857143,528.1285714285714,2578.9,81.22232142857143,528.1285714285714,2679,81.22232142857143,528.1285714285714,2782.1,81.22232142857143,528.1285714285714,2883.1,81.22232142857143,528.1285714285714,2987.5,81.22232142857143,528.1285714285714,3093.1,81.22232142857143,528.1285714285714,3198.3,81.22232142857143,528.1285714285714,3298.5,81.22232142857143,528.1285714285714,3403.1,81.22232142857143,528.1285714285714,3507.8,81.22232142857143,528.1285714285714,3614,81.22232142857143,528.1285714285714,3717.5,81.22232142857143,528.1285714285714,3822.9,81.22232142857143,528.1285714285714,3922.9,81.22232142857143,528.1285714285714,4027,81.22232142857143,528.1285714285714,4127.1,81.22232142857143,528.1285714285714,4233.3,81.22232142857143,528.1285714285714,4337.1,81.22232142857143,528.1285714285714,4437.1,81.22232142857143,528.1285714285714,4542.5,81.22232142857143,528.1285714285714,4647.8,81.22232142857143,528.1285714285714,4752,81.22232142857143,528.1285714285714,4852.3,81.22232142857143,528.1285714285714,4952.5]","[1364.8,1364.8,1000,0,364.8,""smooth"",""left"",""left"",""good_move"",8028.8,6663.8,2657.5,5025,346.3,""smooth"",""left"",""left"",""good_move"",10493,2464.2,2054,8028.9,410.2,""smooth"",""left"",""left"",""good_move"",12276.6,1783.3,1381.8,10493.3,401.5,""oops"",""down"",""down"",""good_move"",14868.6,2591.6,2208.9,12277,382.7,""smooth"",""down"",""down"",""good_move"",18357.7,3488.9,3143.4,14868.8,345.5,""smooth"",""down"",""down"",""good_move""]","",""
"2394","","<div style=""width:500px;"">
  <p>What determined the result of this run?</p>
  </div>","60","html-slider-response","15","221280","0.0-5.0-1.1","30","1","2025-07-09 12:22:22","01610cd0009c79a99da7d0a3353eb402","82.132.246.16","Mozilla/5.0 (Windows NT 10.0; Win64; x64) AppleWebKit/537.36 (KHTML, like Gecko) Chrome/138.0.0.0 Safari/537.36","WebKit","Chrome","138.0.0.0","Windows","10.0","https://app.prolific.com/","en-GB,en-US;q=0.9,en;q=0.8","676054ef296caad582258e02","683db7602f5db6a34d12d064","686e5ec5a20e120a843c2a9e","1","676054ef296caad582258e02","1","2025-07-09T12:26:05.313Z","","","","","","","","","","","AttribQ","","50","","","","","","","","","","","","","","","","","","","","","","","","","","","","",""
"3007","","<div style=""width:500px;"">
  <p>How much control did you have over the ball?</p>
  </div>","69","html-slider-response","16","224288","0.0-5.0-2.1","30","1","2025-07-09 12:22:22","01610cd0009c79a99da7d0a3353eb402","82.132.246.16","Mozilla/5.0 (Windows NT 10.0; Win64; x64) AppleWebKit/537.36 (KHTML, like Gecko) Chrome/138.0.0.0 Safari/537.36","WebKit","Chrome","138.0.0.0","Windows","10.0","https://app.prolific.com/","en-GB,en-US;q=0.9,en;q=0.8","676054ef296caad582258e02","683db7602f5db6a34d12d064","686e5ec5a20e120a843c2a9e","1","676054ef296caad582258e02","1","2025-07-09T12:26:08.321Z","","","","","","","","","","","ControlQ","","50","","","","","","","","","","","","","","","","","","","","","","","","","","","","",""
"5239","","<div style=""width:500px;"">
  <p>How would you describe your current emotional state?</p>
  </div>","48","html-slider-response","17","229528","0.0-5.0-3.1","30","1","2025-07-09 12:22:22","01610cd0009c79a99da7d0a3353eb402","82.132.246.16","Mozilla/5.0 (Windows NT 10.0; Win64; x64) AppleWebKit/537.36 (KHTML, like Gecko) Chrome/138.0.0.0 Safari/537.36","WebKit","Chrome","138.0.0.0","Windows","10.0","https://app.prolific.com/","en-GB,en-US;q=0.9,en;q=0.8","676054ef296caad582258e02","683db7602f5db6a34d12d064","686e5ec5a20e120a843c2a9e","1","676054ef296caad582258e02","1","2025-07-09T12:26:13.561Z","","","","","","","","","","","StressQ","","50","","","","","","","","","","","","","","","","","","","","","","","","","","","","",""
"2591","","<div style=""width:500px;"">
  <p>What best describes how you currently feel?</p>
  </div>","72","html-slider-response","18","232120","0.0-5.0-4.1","30","1","2025-07-09 12:22:22","01610cd0009c79a99da7d0a3353eb402","82.132.246.16","Mozilla/5.0 (Windows NT 10.0; Win64; x64) AppleWebKit/537.36 (KHTML, like Gecko) Chrome/138.0.0.0 Safari/537.36","WebKit","Chrome","138.0.0.0","Windows","10.0","https://app.prolific.com/","en-GB,en-US;q=0.9,en;q=0.8","676054ef296caad582258e02","683db7602f5db6a34d12d064","686e5ec5a20e120a843c2a9e","1","676054ef296caad582258e02","1","2025-07-09T12:26:16.153Z","","","","","","","","","","","MotivationQ","","50","","","","","","","","","","","","","","","","","","","","","","","","","","","","",""
"","","","","ctl-task-cpt","19","266842","0.0-5.0-0.2","30","1","2025-07-09 12:22:22","01610cd0009c79a99da7d0a3353eb402","82.132.246.16","Mozilla/5.0 (Windows NT 10.0; Win64; x64) AppleWebKit/537.36 (KHTML, like Gecko) Chrome/138.0.0.0 Safari/537.36","WebKit","Chrome","138.0.0.0","Windows","10.0","https://app.prolific.com/","en-GB,en-US;q=0.9,en;q=0.8","676054ef296caad582258e02","683db7602f5db6a34d12d064","686e5ec5a20e120a843c2a9e","1","676054ef296caad582258e02","1","2025-07-09T12:26:50.875Z","","","","","","","","","","","","","","win-only","2","g1:SE,g2:NW","0.8","3","0","234347.5","854.8","5855.6","31705.6","1","4","4","6","2","4","4","15","11","0.11363636363636363","719.9","3000","535","[""left"",""up""]","{""num_key_presses"":6,""num_perfect"":5,""num_errors"":0,""num_randdir"":1,""num_randdir_good_moves"":1,""num_whilered"":0,""num_whileblue"":0,""num_blue"":3,""num_good_moves"":6}","[300.22232142857143,297.12857142857143,0.1,300.22232142857143,297.12857142857143,100.9,295.22232142857143,309.12857142857143,201.2,247.22232142857143,350.12857142857143,301.2,187.22232142857143,376.12857142857143,406.2,43.222321428571426,145.12857142857143,510.8,20.222321428571426,92.12857142857143,611.5,25.222321428571426,81.12857142857143,716.1,30.222321428571426,81.12857142857143,816.1,41.222321428571426,130.12857142857143,920.6,41.222321428571426,130.12857142857143,1020.8,41.222321428571426,130.12857142857143,1121.4,41.222321428571426,130.12857142857143,1225.5,41.222321428571426,130.12857142857143,1326.9,41.222321428571426,130.12857142857143,1430.8,41.222321428571426,130.12857142857143,1531.2,41.222321428571426,130.12857142857143,1636.6,41.222321428571426,130.12857142857143,1741,41.222321428571426,130.12857142857143,1841,41.222321428571426,130.12857142857143,1941.1,41.222321428571426,130.12857142857143,2041.1,41.222321428571426,130.12857142857143,2147,41.222321428571426,130.12857142857143,2247.1,41.222321428571426,130.12857142857143,2351.2,41.222321428571426,130.12857142857143,2455.6,41.222321428571426,130.12857142857143,2556.5,41.222321428571426,130.12857142857143,2660.6,41.222321428571426,130.12857142857143,2760.8,41.222321428571426,130.12857142857143,2861,41.222321428571426,130.12857142857143,2966.2,41.222321428571426,130.12857142857143,3071.3,41.222321428571426,130.12857142857143,3175.4,41.222321428571426,130.12857142857143,3275.5,41.222321428571426,130.12857142857143,3376.1,41.222321428571426,130.12857142857143,3480.4,41.222321428571426,130.12857142857143,3580.6,41.222321428571426,130.12857142857143,3686.6,41.222321428571426,130.12857142857143,3786.6,41.222321428571426,130.12857142857143,3891.9,41.222321428571426,130.12857142857143,3996.5,41.222321428571426,130.12857142857143,4101.2,41.222321428571426,130.12857142857143,4205.9,41.222321428571426,130.12857142857143,4310.8,41.222321428571426,130.12857142857143,4415.5,41.222321428571426,130.12857142857143,4515.5,41.222321428571426,130.12857142857143,4615.5,41.222321428571426,130.12857142857143,4716.3,41.222321428571426,130.12857142857143,4820.7,41.222321428571426,130.12857142857143,4920.9]","[1334.6,1334.6,1000,0,334.6,""oops"",""left"",""up"",""good_move"",7262.4,5927.5,2149.9,4764.9,347.6,""smooth"",""left"",""left"",""good_move"",16838.5,9575.9,2742.6,13730.4,365.5,""smooth"",""left"",""left"",""good_move"",19406.3,2567.7,2042.6,16838.6,525.1,""smooth"",""left"",""left"",""good_move"",22238.2,2831.8,2330.7,19406.5,501,""smooth"",""up"",""up"",""good_move"",25758.5,3520,3096,22238.5,424,""smooth"",""up"",""up"",""good_move""]","",""
"2916","","<div style=""width:500px;"">
  <p>What determined the result of this run?</p>
  </div>","66","html-slider-response","20","269760","0.0-5.0-1.2","30","1","2025-07-09 12:22:22","01610cd0009c79a99da7d0a3353eb402","82.132.246.16","Mozilla/5.0 (Windows NT 10.0; Win64; x64) AppleWebKit/537.36 (KHTML, like Gecko) Chrome/138.0.0.0 Safari/537.36","WebKit","Chrome","138.0.0.0","Windows","10.0","https://app.prolific.com/","en-GB,en-US;q=0.9,en;q=0.8","676054ef296caad582258e02","683db7602f5db6a34d12d064","686e5ec5a20e120a843c2a9e","1","676054ef296caad582258e02","1","2025-07-09T12:26:53.793Z","","","","","","","","","","","AttribQ","","50","","","","","","","","","","","","","","","","","","","","","","","","","","","","",""
"2391","","<div style=""width:500px;"">
  <p>How much control did you have over the ball?</p>
  </div>","70","html-slider-response","21","272152","0.0-5.0-2.2","30","1","2025-07-09 12:22:22","01610cd0009c79a99da7d0a3353eb402","82.132.246.16","Mozilla/5.0 (Windows NT 10.0; Win64; x64) AppleWebKit/537.36 (KHTML, like Gecko) Chrome/138.0.0.0 Safari/537.36","WebKit","Chrome","138.0.0.0","Windows","10.0","https://app.prolific.com/","en-GB,en-US;q=0.9,en;q=0.8","676054ef296caad582258e02","683db7602f5db6a34d12d064","686e5ec5a20e120a843c2a9e","1","676054ef296caad582258e02","1","2025-07-09T12:26:56.185Z","","","","","","","","","","","ControlQ","","50","","","","","","","","","","","","","","","","","","","","","","","","","","","","",""
"1551","","<div style=""width:500px;"">
  <p>How would you describe your current emotional state?</p>
  </div>","50","html-slider-response","22","273704","0.0-5.0-3.2","30","1","2025-07-09 12:22:22","01610cd0009c79a99da7d0a3353eb402","82.132.246.16","Mozilla/5.0 (Windows NT 10.0; Win64; x64) AppleWebKit/537.36 (KHTML, like Gecko) Chrome/138.0.0.0 Safari/537.36","WebKit","Chrome","138.0.0.0","Windows","10.0","https://app.prolific.com/","en-GB,en-US;q=0.9,en;q=0.8","676054ef296caad582258e02","683db7602f5db6a34d12d064","686e5ec5a20e120a843c2a9e","1","676054ef296caad582258e02","1","2025-07-09T12:26:57.737Z","","","","","","","","","","","StressQ","","50","","","","","","","","","","","","","","","","","","","","","","","","","","","","",""
"1895","","<div style=""width:500px;"">
  <p>What best describes how you currently feel?</p>
  </div>","67","html-slider-response","23","275600","0.0-5.0-4.2","30","1","2025-07-09 12:22:22","01610cd0009c79a99da7d0a3353eb402","82.132.246.16","Mozilla/5.0 (Windows NT 10.0; Win64; x64) AppleWebKit/537.36 (KHTML, like Gecko) Chrome/138.0.0.0 Safari/537.36","WebKit","Chrome","138.0.0.0","Windows","10.0","https://app.prolific.com/","en-GB,en-US;q=0.9,en;q=0.8","676054ef296caad582258e02","683db7602f5db6a34d12d064","686e5ec5a20e120a843c2a9e","1","676054ef296caad582258e02","1","2025-07-09T12:26:59.633Z","","","","","","","","","","","MotivationQ","","50","","","","","","","","","","","","","","","","","","","","","","","","","","","","",""
"","","","","ctl-task-cpt","24","327953","0.0-5.0-0.3","30","1","2025-07-09 12:22:22","01610cd0009c79a99da7d0a3353eb402","82.132.246.16","Mozilla/5.0 (Windows NT 10.0; Win64; x64) AppleWebKit/537.36 (KHTML, like Gecko) Chrome/138.0.0.0 Safari/537.36","WebKit","Chrome","138.0.0.0","Windows","10.0","https://app.prolific.com/","en-GB,en-US;q=0.9,en;q=0.8","676054ef296caad582258e02","683db7602f5db6a34d12d064","686e5ec5a20e120a843c2a9e","1","676054ef296caad582258e02","1","2025-07-09T12:27:51.986Z","","","","","","","","","","","","","","win-only","3","g1:SW,g2:NE","0.7","4","0","277827.3","889.7","5891.3","49335.8","1","4","8","6","2","-8","-10","5","15","0.03787878787878788","967.7","3000","-3015","[""up"",""right""]","{""num_key_presses"":11,""num_perfect"":6,""num_errors"":2,""num_randdir"":2,""num_randdir_good_moves"":1,""num_whilered"":1,""num_whileblue"":1,""num_blue"":4,""num_good_moves"":7}","[288.22232142857143,294.12857142857143,0.2,288.22232142857143,294.12857142857143,101.2,282.22232142857143,287.12857142857143,212.1,169.22232142857143,172.12857142857143,318.6,195.22232142857143,334.12857142857143,420.5,130.22232142857143,420.12857142857143,521,85.22232142857143,483.12857142857143,626.6,530.2223214285714,152.12857142857143,734.8,523.2223214285714,89.12857142857143,846.1,525.2223214285714,81.12857142857143,951.1,523.2223214285714,81.12857142857143,1051.5,528.2223214285714,344.12857142857143,1156,515.2223214285714,403.12857142857143,1256,589.2223214285714,506.12857142857143,1360.8,614.2223214285714,503.12857142857143,1468.1,626.2223214285714,448.12857142857143,1571.3,627.2223214285714,447.12857142857143,1677.3,627.2223214285714,447.12857142857143,1784.2,627.2223214285714,447.12857142857143,1886.4,627.2223214285714,447.12857142857143,1990.8,627.2223214285714,447.12857142857143,2100.3,627.2223214285714,447.12857142857143,2210.4,627.2223214285714,447.12857142857143,2310.9,627.2223214285714,447.12857142857143,2417.1,627.2223214285714,447.12857142857143,2521.6,627.2223214285714,447.12857142857143,2625.6,627.2223214285714,447.12857142857143,2725.8,627.2223214285714,447.12857142857143,2833.5,627.2223214285714,447.12857142857143,2933.8,627.2223214285714,447.12857142857143,3035.8,627.2223214285714,447.12857142857143,3135.8,627.2223214285714,447.12857142857143,3236.4,627.2223214285714,447.12857142857143,3336.7,627.2223214285714,447.12857142857143,3440.9,627.2223214285714,447.12857142857143,3540.9,627.2223214285714,447.12857142857143,3641.5,627.2223214285714,447.12857142857143,3749.5,627.2223214285714,447.12857142857143,3851.6,627.2223214285714,447.12857142857143,3960.4,627.2223214285714,447.12857142857143,4066,627.2223214285714,447.12857142857143,4166.3,627.2223214285714,447.12857142857143,4270.8,627.2223214285714,447.12857142857143,4376.5,627.2223214285714,447.12857142857143,4483.1,627.2223214285714,447.12857142857143,4585.5,627.2223214285714,447.12857142857143,4687.2,627.2223214285714,447.12857142857143,4790.6,627.2223214285714,447.12857142857143,4891.3,627.2223214285714,447.12857142857143,4999]","[1450.9,1450.9,1000,0,450.9,""smooth"",""right"",""right"",""good_move"",4914.6,3463.5,3148.4,1451.2,315.1,""while_blue"",""right"",""left"",""bad_move"",8060.8,3145.8,2741.1,4915,404.7,""smooth"",""right"",""right"",""good_move"",18723.1,10662.2,2398.3,15910.2,414.6,""smooth"",""right"",""right"",""good_move"",21258.7,2535.5,2130.8,18723.2,404.7,""oops"",""right"",""up"",""good_move"",24021.3,2762.4,2354.9,21258.9,407.5,""smooth"",""right"",""right"",""good_move"",27522.8,3501.5,3037.1,24021.5,464.3,""oops"",""up"",""down"",""bad_move"",31042.9,3519.7,3157.5,27523.2,362.2,""smooth"",""up"",""up"",""good_move"",38211.3,7168.3,2968.1,34894.7,348.5,""smooth"",""up"",""up"",""good_move"",40482.8,2271.3,2647.5,38211.5,-376.2,""error"",""-"",""-"",""no_move"",40650.7,167.6,2647.5,38211.5,-208.3,""while_red"",""-"",""-"",""no_move""]","",""
"6446","","<div style=""width:500px;"">
  <p>What determined the result of this run?</p>
  </div>","49","html-slider-response","25","334400","0.0-5.0-1.3","30","1","2025-07-09 12:22:22","01610cd0009c79a99da7d0a3353eb402","82.132.246.16","Mozilla/5.0 (Windows NT 10.0; Win64; x64) AppleWebKit/537.36 (KHTML, like Gecko) Chrome/138.0.0.0 Safari/537.36","WebKit","Chrome","138.0.0.0","Windows","10.0","https://app.prolific.com/","en-GB,en-US;q=0.9,en;q=0.8","676054ef296caad582258e02","683db7602f5db6a34d12d064","686e5ec5a20e120a843c2a9e","1","676054ef296caad582258e02","1","2025-07-09T12:27:58.433Z","","","","","","","","","","","AttribQ","","50","","","","","","","","","","","","","","","","","","","","","","","","","","","","",""
"5495","","<div style=""width:500px;"">
  <p>How much control did you have over the ball?</p>
  </div>","18","html-slider-response","26","339896","0.0-5.0-2.3","30","1","2025-07-09 12:22:22","01610cd0009c79a99da7d0a3353eb402","82.132.246.16","Mozilla/5.0 (Windows NT 10.0; Win64; x64) AppleWebKit/537.36 (KHTML, like Gecko) Chrome/138.0.0.0 Safari/537.36","WebKit","Chrome","138.0.0.0","Windows","10.0","https://app.prolific.com/","en-GB,en-US;q=0.9,en;q=0.8","676054ef296caad582258e02","683db7602f5db6a34d12d064","686e5ec5a20e120a843c2a9e","1","676054ef296caad582258e02","1","2025-07-09T12:28:03.929Z","","","","","","","","","","","ControlQ","","50","","","","","","","","","","","","","","","","","","","","","","","","","","","","",""
"1639","","<div style=""width:500px;"">
  <p>How would you describe your current emotional state?</p>
  </div>","50","html-slider-response","27","341536","0.0-5.0-3.3","30","1","2025-07-09 12:22:22","01610cd0009c79a99da7d0a3353eb402","82.132.246.16","Mozilla/5.0 (Windows NT 10.0; Win64; x64) AppleWebKit/537.36 (KHTML, like Gecko) Chrome/138.0.0.0 Safari/537.36","WebKit","Chrome","138.0.0.0","Windows","10.0","https://app.prolific.com/","en-GB,en-US;q=0.9,en;q=0.8","676054ef296caad582258e02","683db7602f5db6a34d12d064","686e5ec5a20e120a843c2a9e","1","676054ef296caad582258e02","1","2025-07-09T12:28:05.569Z","","","","","","","","","","","StressQ","","50","","","","","","","","","","","","","","","","","","","","","","","","","","","","",""
"2055","","<div style=""width:500px;"">
  <p>What best describes how you currently feel?</p>
  </div>","69","html-slider-response","28","343592","0.0-5.0-4.3","30","1","2025-07-09 12:22:22","01610cd0009c79a99da7d0a3353eb402","82.132.246.16","Mozilla/5.0 (Windows NT 10.0; Win64; x64) AppleWebKit/537.36 (KHTML, like Gecko) Chrome/138.0.0.0 Safari/537.36","WebKit","Chrome","138.0.0.0","Windows","10.0","https://app.prolific.com/","en-GB,en-US;q=0.9,en;q=0.8","676054ef296caad582258e02","683db7602f5db6a34d12d064","686e5ec5a20e120a843c2a9e","1","676054ef296caad582258e02","1","2025-07-09T12:28:07.625Z","","","","","","","","","","","MotivationQ","","50","","","","","","","","","","","","","","","","","","","","","","","","","","","","",""
"","","","","ctl-task-cpt","29","376970","0.0-5.0-0.4","30","1","2025-07-09 12:22:22","01610cd0009c79a99da7d0a3353eb402","82.132.246.16","Mozilla/5.0 (Windows NT 10.0; Win64; x64) AppleWebKit/537.36 (KHTML, like Gecko) Chrome/138.0.0.0 Safari/537.36","WebKit","Chrome","138.0.0.0","Windows","10.0","https://app.prolific.com/","en-GB,en-US;q=0.9,en;q=0.8","676054ef296caad582258e02","683db7602f5db6a34d12d064","686e5ec5a20e120a843c2a9e","1","676054ef296caad582258e02","1","2025-07-09T12:28:41.003Z","","","","","","","","","","","","","","win-only","2","g1:SE,g2:NW","0.6","5","0","345819.4","950.7","5956","30360.1","1","4","8","6","1","1","1","6","5","0.045454545454545456","2640.1","3000","845","[""down"",""right""]","{""num_key_presses"":6,""num_perfect"":4,""num_errors"":0,""num_randdir"":2,""num_randdir_good_moves"":1,""num_whilered"":0,""num_whileblue"":0,""num_blue"":2,""num_good_moves"":5}","[291.22232142857143,295.12857142857143,0.1,291.22232142857143,295.12857142857143,100.5,321.22232142857143,318.12857142857143,201,373.22232142857143,340.12857142857143,306.1,362.22232142857143,342.12857142857143,409.7,330.22232142857143,300.12857142857143,515.4,197.22232142857143,174.12857142857143,621,180.22232142857143,141.12857142857143,725,140.22232142857143,108.12857142857143,829.7,255.22232142857143,252.12857142857143,930.3,435.22232142857143,416.12857142857143,1030.6,493.22232142857143,487.12857142857143,1134.8,518.2223214285714,538.1285714285714,1241.2,528.2223214285714,556.1285714285714,1345.4,542.2223214285714,565.1285714285714,1450.1,542.2223214285714,565.1285714285714,1550.2,542.2223214285714,565.1285714285714,1654.8,542.2223214285714,565.1285714285714,1759.8,542.2223214285714,565.1285714285714,1860.3,542.2223214285714,565.1285714285714,1965.3,542.2223214285714,565.1285714285714,2065.5,542.2223214285714,565.1285714285714,2170.8,542.2223214285714,565.1285714285714,2270.8,542.2223214285714,565.1285714285714,2375,542.2223214285714,565.1285714285714,2480.7,542.2223214285714,565.1285714285714,2584.5,542.2223214285714,565.1285714285714,2685.2,542.2223214285714,565.1285714285714,2790.2,542.2223214285714,565.1285714285714,2891.1,542.2223214285714,565.1285714285714,2994.8,555.2223214285714,523.1285714285714,3095.5,489.22232142857143,450.12857142857143,3200.7,228.22232142857143,562.1285714285714,3305,-9.777678571428574,588.1285714285714,3409.9,-10.777678571428574,588.1285714285714,3510.1,-10.777678571428574,588.1285714285714,3614.7,-10.777678571428574,588.1285714285714,3714.8,-10.777678571428574,588.1285714285714,3814.8,-10.777678571428574,588.1285714285714,3914.8,-10.777678571428574,588.1285714285714,4014.9,-10.777678571428574,588.1285714285714,4115.1,-10.777678571428574,588.1285714285714,4219.8,-10.777678571428574,588.1285714285714,4324.9,-10.777678571428574,588.1285714285714,4425,-10.777678571428574,588.1285714285714,4530.8,-10.777678571428574,588.1285714285714,4634.8,-10.777678571428574,588.1285714285714,4739.6,-10.777678571428574,588.1285714285714,4840.3,-10.777678571428574,588.1285714285714,4940.7]","[1338,1338,1000,0,338,""smooth"",""down"",""down"",""good_move"",8321.9,6983.8,2529.9,5439.3,352.8,""smooth"",""down"",""down"",""good_move"",11722,3399.9,2991.6,8322.1,408.3,""oops"",""right"",""left"",""bad_move"",17849.8,6127.5,2761.2,14744.4,344.3,""oops"",""right"",""right"",""good_move"",21250.1,3400,3055.5,17850.1,344.5,""smooth"",""right"",""right"",""good_move"",24313.8,3063.6,2657.3,21250.2,406.3,""smooth"",""right"",""right"",""good_move""]","",""
"2453","","<div style=""width:500px;"">
  <p>What determined the result of this run?</p>
  </div>","50","html-slider-response","30","379424","0.0-5.0-1.4","30","1","2025-07-09 12:22:22","01610cd0009c79a99da7d0a3353eb402","82.132.246.16","Mozilla/5.0 (Windows NT 10.0; Win64; x64) AppleWebKit/537.36 (KHTML, like Gecko) Chrome/138.0.0.0 Safari/537.36","WebKit","Chrome","138.0.0.0","Windows","10.0","https://app.prolific.com/","en-GB,en-US;q=0.9,en;q=0.8","676054ef296caad582258e02","683db7602f5db6a34d12d064","686e5ec5a20e120a843c2a9e","1","676054ef296caad582258e02","1","2025-07-09T12:28:43.457Z","","","","","","","","","","","AttribQ","","50","","","","","","","","","","","","","","","","","","","","","","","","","","","","",""
"1871","","<div style=""width:500px;"">
  <p>How much control did you have over the ball?</p>
  </div>","45","html-slider-response","31","381296","0.0-5.0-2.4","30","1","2025-07-09 12:22:22","01610cd0009c79a99da7d0a3353eb402","82.132.246.16","Mozilla/5.0 (Windows NT 10.0; Win64; x64) AppleWebKit/537.36 (KHTML, like Gecko) Chrome/138.0.0.0 Safari/537.36","WebKit","Chrome","138.0.0.0","Windows","10.0","https://app.prolific.com/","en-GB,en-US;q=0.9,en;q=0.8","676054ef296caad582258e02","683db7602f5db6a34d12d064","686e5ec5a20e120a843c2a9e","1","676054ef296caad582258e02","1","2025-07-09T12:28:45.329Z","","","","","","","","","","","ControlQ","","50","","","","","","","","","","","","","","","","","","","","","","","","","","","","",""
"1407","","<div style=""width:500px;"">
  <p>How would you describe your current emotional state?</p>
  </div>","50","html-slider-response","32","382703","0.0-5.0-3.4","30","1","2025-07-09 12:22:22","01610cd0009c79a99da7d0a3353eb402","82.132.246.16","Mozilla/5.0 (Windows NT 10.0; Win64; x64) AppleWebKit/537.36 (KHTML, like Gecko) Chrome/138.0.0.0 Safari/537.36","WebKit","Chrome","138.0.0.0","Windows","10.0","https://app.prolific.com/","en-GB,en-US;q=0.9,en;q=0.8","676054ef296caad582258e02","683db7602f5db6a34d12d064","686e5ec5a20e120a843c2a9e","1","676054ef296caad582258e02","1","2025-07-09T12:28:46.737Z","","","","","","","","","","","StressQ","","50","","","","","","","","","","","","","","","","","","","","","","","","","","","","",""
"2071","","<div style=""width:500px;"">
  <p>What best describes how you currently feel?</p>
  </div>","68","html-slider-response","33","384775","0.0-5.0-4.4","30","1","2025-07-09 12:22:22","01610cd0009c79a99da7d0a3353eb402","82.132.246.16","Mozilla/5.0 (Windows NT 10.0; Win64; x64) AppleWebKit/537.36 (KHTML, like Gecko) Chrome/138.0.0.0 Safari/537.36","WebKit","Chrome","138.0.0.0","Windows","10.0","https://app.prolific.com/","en-GB,en-US;q=0.9,en;q=0.8","676054ef296caad582258e02","683db7602f5db6a34d12d064","686e5ec5a20e120a843c2a9e","1","676054ef296caad582258e02","1","2025-07-09T12:28:48.809Z","","","","","","","","","","","MotivationQ","","50","","","","","","","","","","","","","","","","","","","","","","","","","","","","",""
"","","","","ctl-task-cpt","34","435665","0.0-5.0-0.5","30","1","2025-07-09 12:22:22","01610cd0009c79a99da7d0a3353eb402","82.132.246.16","Mozilla/5.0 (Windows NT 10.0; Win64; x64) AppleWebKit/537.36 (KHTML, like Gecko) Chrome/138.0.0.0 Safari/537.36","WebKit","Chrome","138.0.0.0","Windows","10.0","https://app.prolific.com/","en-GB,en-US;q=0.9,en;q=0.8","676054ef296caad582258e02","683db7602f5db6a34d12d064","686e5ec5a20e120a843c2a9e","1","676054ef296caad582258e02","1","2025-07-09T12:29:39.698Z","","","","","","","","","","","","","","win-only","1","g1:NE,g2:SW","0.5","6","0","387003.1","889.8","5890.7","47871.1","1","4","4","6","2","-4","-4","2","6","0.015151515151515152","1125.3","3000","-3010","[""down"",""left""]","{""num_key_presses"":8,""num_perfect"":4,""num_errors"":0,""num_randdir"":4,""num_randdir_good_moves"":2,""num_whilered"":0,""num_whileblue"":0,""num_blue"":5,""num_good_moves"":6}","[299.22232142857143,300.12857142857143,0.2,299.22232142857143,300.12857142857143,110.6,299.22232142857143,300.12857142857143,210.8,196.22232142857143,235.12857142857143,318.4,189.22232142857143,217.12857142857143,420.5,255.22232142857143,220.12857142857143,520.5,95.22232142857143,437.12857142857143,625.7,86.22232142857143,484.12857142857143,725.8,86.22232142857143,486.12857142857143,831.3,53.222321428571426,517.1285714285714,935,28.222321428571426,556.1285714285714,1036.1,19.222321428571426,565.1285714285714,1137.1,23.222321428571426,562.1285714285714,1241.2,143.22232142857143,495.12857142857143,1350.9,162.22232142857143,576.1285714285714,1451.1,-0.7776785714285737,580.1285714285714,1560.6,-141.77767857142857,299.12857142857143,1661.5,-180.77767857142857,217.12857142857143,1761.5,-180.77767857142857,217.12857142857143,1869.7,-180.77767857142857,217.12857142857143,1970.7,-180.77767857142857,217.12857142857143,2075.9,-180.77767857142857,217.12857142857143,2183.9,-180.77767857142857,217.12857142857143,2285.9,-180.77767857142857,217.12857142857143,2390.4,-180.77767857142857,217.12857142857143,2490.5,-180.77767857142857,217.12857142857143,2590.5,-180.77767857142857,217.12857142857143,2690.8,-180.77767857142857,217.12857142857143,2791.1,-180.77767857142857,217.12857142857143,2891.3,-180.77767857142857,217.12857142857143,3000,-180.77767857142857,217.12857142857143,3100.3,-180.77767857142857,217.12857142857143,3205.5,-180.77767857142857,217.12857142857143,3305.9,-180.77767857142857,217.12857142857143,3410.4,-180.77767857142857,217.12857142857143,3512.1,-180.77767857142857,217.12857142857143,3616.1,-180.77767857142857,217.12857142857143,3717.1,-180.77767857142857,217.12857142857143,3820.4,-180.77767857142857,217.12857142857143,3925.6,-180.77767857142857,217.12857142857143,4026,-180.77767857142857,217.12857142857143,4134.5,-180.77767857142857,217.12857142857143,4236.1,-180.77767857142857,217.12857142857143,4336.1,-180.77767857142857,217.12857142857143,4441.4,-180.77767857142857,217.12857142857143,4549,-180.77767857142857,217.12857142857143,4650.4,-180.77767857142857,217.12857142857143,4755.7,-180.77767857142857,217.12857142857143,4857.1,-180.77767857142857,217.12857142857143,4966]","[1430.4,1430.4,1000,0,430.4,""smooth"",""down"",""down"",""good_move"",4403.5,2972.8,2556.1,1430.7,416.7,""oops"",""left"",""down"",""good_move"",7739.4,3335.8,2897.9,4403.6,437.9,""smooth"",""down"",""down"",""good_move"",10443.5,2704,2296.1,7739.6,407.8,""oops"",""left"",""left"",""good_move"",23843.6,13399.8,2557.8,20873.5,412.3,""oops"",""left"",""right"",""bad_move"",30339.5,6495.7,2678.4,27310.7,350.4,""smooth"",""left"",""left"",""good_move"",36819.6,6479.8,2663.9,33830,325.7,""smooth"",""left"",""left"",""good_move"",39563.2,2743.5,2311.6,36819.8,431.9,""oops"",""left"",""right"",""bad_move""]","",""
"2093","","<div style=""width:500px;"">
  <p>What determined the result of this run?</p>
  </div>","0","html-slider-response","35","437759","0.0-5.0-1.5","30","1","2025-07-09 12:22:22","01610cd0009c79a99da7d0a3353eb402","82.132.246.16","Mozilla/5.0 (Windows NT 10.0; Win64; x64) AppleWebKit/537.36 (KHTML, like Gecko) Chrome/138.0.0.0 Safari/537.36","WebKit","Chrome","138.0.0.0","Windows","10.0","https://app.prolific.com/","en-GB,en-US;q=0.9,en;q=0.8","676054ef296caad582258e02","683db7602f5db6a34d12d064","686e5ec5a20e120a843c2a9e","1","676054ef296caad582258e02","1","2025-07-09T12:29:41.792Z","","","","","","","","","","","AttribQ","","50","","","","","","","","","","","","","","","","","","","","","","","","","","","","",""
"2359","","<div style=""width:500px;"">
  <p>How much control did you have over the ball?</p>
  </div>","0","html-slider-response","36","440119","0.0-5.0-2.5","30","1","2025-07-09 12:22:22","01610cd0009c79a99da7d0a3353eb402","82.132.246.16","Mozilla/5.0 (Windows NT 10.0; Win64; x64) AppleWebKit/537.36 (KHTML, like Gecko) Chrome/138.0.0.0 Safari/537.36","WebKit","Chrome","138.0.0.0","Windows","10.0","https://app.prolific.com/","en-GB,en-US;q=0.9,en;q=0.8","676054ef296caad582258e02","683db7602f5db6a34d12d064","686e5ec5a20e120a843c2a9e","1","676054ef296caad582258e02","1","2025-07-09T12:29:44.152Z","","","","","","","","","","","ControlQ","","50","","","","","","","","","","","","","","","","","","","","","","","","","","","","",""
"2832","","<div style=""width:500px;"">
  <p>How would you describe your current emotional state?</p>
  </div>","51","html-slider-response","37","442952","0.0-5.0-3.5","30","1","2025-07-09 12:22:22","01610cd0009c79a99da7d0a3353eb402","82.132.246.16","Mozilla/5.0 (Windows NT 10.0; Win64; x64) AppleWebKit/537.36 (KHTML, like Gecko) Chrome/138.0.0.0 Safari/537.36","WebKit","Chrome","138.0.0.0","Windows","10.0","https://app.prolific.com/","en-GB,en-US;q=0.9,en;q=0.8","676054ef296caad582258e02","683db7602f5db6a34d12d064","686e5ec5a20e120a843c2a9e","1","676054ef296caad582258e02","1","2025-07-09T12:29:46.985Z","","","","","","","","","","","StressQ","","50","","","","","","","","","","","","","","","","","","","","","","","","","","","","",""
"2727","","<div style=""width:500px;"">
  <p>What best describes how you currently feel?</p>
  </div>","66","html-slider-response","38","445680","0.0-5.0-4.5","30","1","2025-07-09 12:22:22","01610cd0009c79a99da7d0a3353eb402","82.132.246.16","Mozilla/5.0 (Windows NT 10.0; Win64; x64) AppleWebKit/537.36 (KHTML, like Gecko) Chrome/138.0.0.0 Safari/537.36","WebKit","Chrome","138.0.0.0","Windows","10.0","https://app.prolific.com/","en-GB,en-US;q=0.9,en;q=0.8","676054ef296caad582258e02","683db7602f5db6a34d12d064","686e5ec5a20e120a843c2a9e","1","676054ef296caad582258e02","1","2025-07-09T12:29:49.713Z","","","","","","","","","","","MotivationQ","","50","","","","","","","","","","","","","","","","","","","","","","","","","","","","",""
"","","","","ctl-task-cpt","39","485329","0.0-5.0-0.6","30","1","2025-07-09 12:22:22","01610cd0009c79a99da7d0a3353eb402","82.132.246.16","Mozilla/5.0 (Windows NT 10.0; Win64; x64) AppleWebKit/537.36 (KHTML, like Gecko) Chrome/138.0.0.0 Safari/537.36","WebKit","Chrome","138.0.0.0","Windows","10.0","https://app.prolific.com/","en-GB,en-US;q=0.9,en;q=0.8","676054ef296caad582258e02","683db7602f5db6a34d12d064","686e5ec5a20e120a843c2a9e","1","676054ef296caad582258e02","1","2025-07-09T12:30:29.362Z","","","","","","","","","","","","","","win-only","1","g1:NE,g2:SW","0.4","7","0","447907.4","734.6","5735.9","36631.1","1","4","4","6","2","-4","-4","0","2","0","1248.1","3000","-3015","[""down"",""left""]","{""num_key_presses"":7,""num_perfect"":3,""num_errors"":0,""num_randdir"":4,""num_randdir_good_moves"":1,""num_whilered"":0,""num_whileblue"":0,""num_blue"":3,""num_good_moves"":4}","[294.22232142857143,289.12857142857143,0.1,294.22232142857143,289.12857142857143,100.7,278.22232142857143,276.12857142857143,200.9,154.22232142857143,177.12857142857143,301.2,142.22232142857143,172.12857142857143,401.7,122.22232142857143,348.12857142857143,501.7,82.22232142857143,499.12857142857143,607.1,58.222321428571426,516.1285714285714,710.8,49.222321428571426,523.1285714285714,811.4,39.222321428571426,554.1285714285714,916.2,39.222321428571426,555.1285714285714,1020.8,43.222321428571426,553.1285714285714,1121.8,43.222321428571426,553.1285714285714,1221.9,43.222321428571426,553.1285714285714,1326.6,141.22232142857143,545.1285714285714,1431.6,383.22232142857143,394.12857142857143,1536.7,394.22232142857143,372.12857142857143,1640.7,452.22232142857143,338.12857142857143,1741.1,453.22232142857143,337.12857142857143,1846.6,453.22232142857143,337.12857142857143,1946.7,453.22232142857143,337.12857142857143,2050.9,453.22232142857143,337.12857142857143,2151,453.22232142857143,337.12857142857143,2251.8,453.22232142857143,337.12857142857143,2356.2,453.22232142857143,337.12857142857143,2457.2,453.22232142857143,337.12857142857143,2560.8,453.22232142857143,337.12857142857143,2661.7,453.22232142857143,337.12857142857143,2766.1,453.22232142857143,337.12857142857143,2866.3,453.22232142857143,337.12857142857143,2966.3,453.22232142857143,337.12857142857143,3071.6,453.22232142857143,337.12857142857143,3171.6,453.22232142857143,337.12857142857143,3271.6,453.22232142857143,337.12857142857143,3377.2,453.22232142857143,337.12857142857143,3477.7,453.22232142857143,337.12857142857143,3582,453.22232142857143,337.12857142857143,3686,453.22232142857143,337.12857142857143,3786,453.22232142857143,337.12857142857143,3886.1,453.22232142857143,337.12857142857143,3991.2,453.22232142857143,337.12857142857143,4092.2,453.22232142857143,337.12857142857143,4196.5,453.22232142857143,337.12857142857143,4301.7,453.22232142857143,337.12857142857143,4405.8,453.22232142857143,337.12857142857143,4506.2,453.22232142857143,337.12857142857143,4612.3,453.22232142857143,337.12857142857143,4715.7,453.22232142857143,337.12857142857143,4822.1,453.22232142857143,337.12857142857143,4926.7]","[1350.2,1350.2,1000,0,350.2,""smooth"",""down"",""down"",""good_move"",11678.2,10327.7,2986.6,8244.3,447.3,""oops"",""left"",""up"",""bad_move"",14349.9,2671.5,2243.3,11678.4,428.2,""oops"",""left"",""left"",""good_move"",16733.8,2383.7,1979.1,14350.2,404.6,""smooth"",""left"",""left"",""good_move"",23070.1,6336.1,2895.3,19825.2,349.6,""oops"",""left"",""right"",""bad_move"",24861.8,1791.5,1257.4,23070.3,534.1,""oops"",""left"",""up"",""bad_move"",28301.8,3439.8,3098.1,24862,341.7,""smooth"",""left"",""left"",""good_move""]","",""
"2933","","<div style=""width:500px;"">
  <p>What determined the result of this run?</p>
  </div>","0","html-slider-response","40","488263","0.0-5.0-1.6","30","1","2025-07-09 12:22:22","01610cd0009c79a99da7d0a3353eb402","82.132.246.16","Mozilla/5.0 (Windows NT 10.0; Win64; x64) AppleWebKit/537.36 (KHTML, like Gecko) Chrome/138.0.0.0 Safari/537.36","WebKit","Chrome","138.0.0.0","Windows","10.0","https://app.prolific.com/","en-GB,en-US;q=0.9,en;q=0.8","676054ef296caad582258e02","683db7602f5db6a34d12d064","686e5ec5a20e120a843c2a9e","1","676054ef296caad582258e02","1","2025-07-09T12:30:32.296Z","","","","","","","","","","","AttribQ","","50","","","","","","","","","","","","","","","","","","","","","","","","","","","","",""
"2495","","<div style=""width:500px;"">
  <p>How much control did you have over the ball?</p>
  </div>","0","html-slider-response","41","490759","0.0-5.0-2.6","30","1","2025-07-09 12:22:22","01610cd0009c79a99da7d0a3353eb402","82.132.246.16","Mozilla/5.0 (Windows NT 10.0; Win64; x64) AppleWebKit/537.36 (KHTML, like Gecko) Chrome/138.0.0.0 Safari/537.36","WebKit","Chrome","138.0.0.0","Windows","10.0","https://app.prolific.com/","en-GB,en-US;q=0.9,en;q=0.8","676054ef296caad582258e02","683db7602f5db6a34d12d064","686e5ec5a20e120a843c2a9e","1","676054ef296caad582258e02","1","2025-07-09T12:30:34.792Z","","","","","","","","","","","ControlQ","","50","","","","","","","","","","","","","","","","","","","","","","","","","","","","",""
"2640","","<div style=""width:500px;"">
  <p>How would you describe your current emotional state?</p>
  </div>","50","html-slider-response","42","493400","0.0-5.0-3.6","30","1","2025-07-09 12:22:22","01610cd0009c79a99da7d0a3353eb402","82.132.246.16","Mozilla/5.0 (Windows NT 10.0; Win64; x64) AppleWebKit/537.36 (KHTML, like Gecko) Chrome/138.0.0.0 Safari/537.36","WebKit","Chrome","138.0.0.0","Windows","10.0","https://app.prolific.com/","en-GB,en-US;q=0.9,en;q=0.8","676054ef296caad582258e02","683db7602f5db6a34d12d064","686e5ec5a20e120a843c2a9e","1","676054ef296caad582258e02","1","2025-07-09T12:30:37.433Z","","","","","","","","","","","StressQ","","50","","","","","","","","","","","","","","","","","","","","","","","","","","","","",""
"1863","","<div style=""width:500px;"">
  <p>What best describes how you currently feel?</p>
  </div>","67","html-slider-response","43","495263","0.0-5.0-4.6","30","1","2025-07-09 12:22:22","01610cd0009c79a99da7d0a3353eb402","82.132.246.16","Mozilla/5.0 (Windows NT 10.0; Win64; x64) AppleWebKit/537.36 (KHTML, like Gecko) Chrome/138.0.0.0 Safari/537.36","WebKit","Chrome","138.0.0.0","Windows","10.0","https://app.prolific.com/","en-GB,en-US;q=0.9,en;q=0.8","676054ef296caad582258e02","683db7602f5db6a34d12d064","686e5ec5a20e120a843c2a9e","1","676054ef296caad582258e02","1","2025-07-09T12:30:39.296Z","","","","","","","","","","","MotivationQ","","50","","","","","","","","","","","","","","","","","","","","","","","","","","","","",""
"","","","","ctl-task-cpt","44","527273","0.0-5.0-0.7","30","1","2025-07-09 12:22:22","01610cd0009c79a99da7d0a3353eb402","82.132.246.16","Mozilla/5.0 (Windows NT 10.0; Win64; x64) AppleWebKit/537.36 (KHTML, like Gecko) Chrome/138.0.0.0 Safari/537.36","WebKit","Chrome","138.0.0.0","Windows","10.0","https://app.prolific.com/","en-GB,en-US;q=0.9,en;q=0.8","676054ef296caad582258e02","683db7602f5db6a34d12d064","686e5ec5a20e120a843c2a9e","1","676054ef296caad582258e02","1","2025-07-09T12:31:11.306Z","","","","","","","","","","","","","","win-only","3","g1:SW,g2:NE","0.3","8","0","497490.9","622.9","5626.9","28991.3","1","4","8","6","2","-8","-8","0","0","0","800.1","3000","-3005","[""up"",""right""]","{""num_key_presses"":8,""num_perfect"":3,""num_errors"":0,""num_randdir"":5,""num_randdir_good_moves"":3,""num_whilered"":0,""num_whileblue"":0,""num_blue"":0,""num_good_moves"":6}","[304.22232142857143,299.12857142857143,0.2,304.22232142857143,299.12857142857143,102.4,317.22232142857143,273.12857142857143,203.3,279.22232142857143,176.12857142857143,303.3,352.22232142857143,140.12857142857143,403.9,535.2223214285714,93.12857142857143,507.5,543.2223214285714,82.12857142857143,607.6,543.2223214285714,81.12857142857143,707.6,544.2223214285714,79.12857142857143,808.7,544.2223214285714,79.12857142857143,913.2,522.2223214285714,255.12857142857143,1014.1,434.22232142857143,408.12857142857143,1117.7,373.22232142857143,419.12857142857143,1218.6,281.22232142857143,490.12857142857143,1318.8,-219.77767857142857,658.1285714285714,1423,-348.77767857142857,543.1285714285714,1523.2,-348.77767857142857,543.1285714285714,1627.5,-348.77767857142857,543.1285714285714,1732.8,-348.77767857142857,543.1285714285714,1837.6,-348.77767857142857,543.1285714285714,1943.2,-348.77767857142857,543.1285714285714,2048.3,-348.77767857142857,543.1285714285714,2148.4,-348.77767857142857,543.1285714285714,2252.7,-348.77767857142857,543.1285714285714,2354.2,-348.77767857142857,543.1285714285714,2458.5,-348.77767857142857,543.1285714285714,2558.8,-348.77767857142857,543.1285714285714,2662.5,-348.77767857142857,543.1285714285714,2762.7,-348.77767857142857,543.1285714285714,2868.7,-348.77767857142857,543.1285714285714,2972.4,-348.77767857142857,543.1285714285714,3073.1,-348.77767857142857,543.1285714285714,3173.1,-348.77767857142857,543.1285714285714,3278.7,-348.77767857142857,543.1285714285714,3382.5,-348.77767857142857,543.1285714285714,3482.6,-348.77767857142857,543.1285714285714,3584.5,-348.77767857142857,543.1285714285714,3688.6,-348.77767857142857,543.1285714285714,3792.4,-348.77767857142857,543.1285714285714,3893.1,-348.77767857142857,543.1285714285714,3994.2,-348.77767857142857,543.1285714285714,4097.6,-348.77767857142857,543.1285714285714,4198.5,-348.77767857142857,543.1285714285714,4302.5,-348.77767857142857,543.1285714285714,4403.3,-348.77767857142857,543.1285714285714,4503.3,-348.77767857142857,543.1285714285714,4608.6,-348.77767857142857,543.1285714285714,4708.7,-348.77767857142857,543.1285714285714,4812.9,-348.77767857142857,543.1285714285714,4913]","[1396.4,1396.4,1000,0,396.4,""smooth"",""right"",""right"",""good_move"",4035.2,2638.5,2223.4,1396.7,415.1,""oops"",""right"",""down"",""bad_move"",6611.3,2575.8,2222.1,4035.5,353.7,""smooth"",""right"",""right"",""good_move"",9131.4,2519.8,2154.1,6611.6,365.7,""oops"",""right"",""up"",""good_move"",11747.5,2615.8,2262.4,9131.7,353.4,""oops"",""right"",""down"",""bad_move"",14243.5,2495.7,2072,11747.8,423.7,""oops"",""right"",""up"",""good_move"",17131.3,2887.5,2611.8,14243.8,275.7,""oops"",""right"",""up"",""good_move"",20355.2,3223.7,2928.5,17131.5,295.2,""smooth"",""right"",""right"",""good_move""]","",""
"2773","","<div style=""width:500px;"">
  <p>What determined the result of this run?</p>
  </div>","0","html-slider-response","45","530047","0.0-5.0-1.7","30","1","2025-07-09 12:22:22","01610cd0009c79a99da7d0a3353eb402","82.132.246.16","Mozilla/5.0 (Windows NT 10.0; Win64; x64) AppleWebKit/537.36 (KHTML, like Gecko) Chrome/138.0.0.0 Safari/537.36","WebKit","Chrome","138.0.0.0","Windows","10.0","https://app.prolific.com/","en-GB,en-US;q=0.9,en;q=0.8","676054ef296caad582258e02","683db7602f5db6a34d12d064","686e5ec5a20e120a843c2a9e","1","676054ef296caad582258e02","1","2025-07-09T12:31:14.080Z","","","","","","","","","","","AttribQ","","50","","","","","","","","","","","","","","","","","","","","","","","","","","","","",""
"1328","","<div style=""width:500px;"">
  <p>How much control did you have over the ball?</p>
  </div>","0","html-slider-response","46","531376","0.0-5.0-2.7","30","1","2025-07-09 12:22:22","01610cd0009c79a99da7d0a3353eb402","82.132.246.16","Mozilla/5.0 (Windows NT 10.0; Win64; x64) AppleWebKit/537.36 (KHTML, like Gecko) Chrome/138.0.0.0 Safari/537.36","WebKit","Chrome","138.0.0.0","Windows","10.0","https://app.prolific.com/","en-GB,en-US;q=0.9,en;q=0.8","676054ef296caad582258e02","683db7602f5db6a34d12d064","686e5ec5a20e120a843c2a9e","1","676054ef296caad582258e02","1","2025-07-09T12:31:15.409Z","","","","","","","","","","","ControlQ","","50","","","","","","","","","","","","","","","","","","","","","","","","","","","","",""
"1399","","<div style=""width:500px;"">
  <p>How would you describe your current emotional state?</p>
  </div>","50","html-slider-response","47","532775","0.0-5.0-3.7","30","1","2025-07-09 12:22:22","01610cd0009c79a99da7d0a3353eb402","82.132.246.16","Mozilla/5.0 (Windows NT 10.0; Win64; x64) AppleWebKit/537.36 (KHTML, like Gecko) Chrome/138.0.0.0 Safari/537.36","WebKit","Chrome","138.0.0.0","Windows","10.0","https://app.prolific.com/","en-GB,en-US;q=0.9,en;q=0.8","676054ef296caad582258e02","683db7602f5db6a34d12d064","686e5ec5a20e120a843c2a9e","1","676054ef296caad582258e02","1","2025-07-09T12:31:16.808Z","","","","","","","","","","","StressQ","","50","","","","","","","","","","","","","","","","","","","","","","","","","","","","",""
"2920","","<div style=""width:500px;"">
  <p>What best describes how you currently feel?</p>
  </div>","66","html-slider-response","48","535696","0.0-5.0-4.7","30","1","2025-07-09 12:22:22","01610cd0009c79a99da7d0a3353eb402","82.132.246.16","Mozilla/5.0 (Windows NT 10.0; Win64; x64) AppleWebKit/537.36 (KHTML, like Gecko) Chrome/138.0.0.0 Safari/537.36","WebKit","Chrome","138.0.0.0","Windows","10.0","https://app.prolific.com/","en-GB,en-US;q=0.9,en;q=0.8","676054ef296caad582258e02","683db7602f5db6a34d12d064","686e5ec5a20e120a843c2a9e","1","676054ef296caad582258e02","1","2025-07-09T12:31:19.729Z","","","","","","","","","","","MotivationQ","","50","","","","","","","","","","","","","","","","","","","","","","","","","","","","",""
"","","","","ctl-task-cpt","49","576263","0.0-5.0-0.8","30","1","2025-07-09 12:22:22","01610cd0009c79a99da7d0a3353eb402","82.132.246.16","Mozilla/5.0 (Windows NT 10.0; Win64; x64) AppleWebKit/537.36 (KHTML, like Gecko) Chrome/138.0.0.0 Safari/537.36","WebKit","Chrome","138.0.0.0","Windows","10.0","https://app.prolific.com/","en-GB,en-US;q=0.9,en;q=0.8","676054ef296caad582258e02","683db7602f5db6a34d12d064","686e5ec5a20e120a843c2a9e","1","676054ef296caad582258e02","1","2025-07-09T12:32:00.296Z","","","","","","","","","","","","","","win-only","1","g1:NE,g2:SW","0.2","9","0","537923.3","982.8","5986","37550.8","1","4","4","6","2","-4","-7","0","0","0","839.9","3000","-2540","[""down"",""left""]","{""num_key_presses"":11,""num_perfect"":1,""num_errors"":3,""num_randdir"":7,""num_randdir_good_moves"":6,""num_whilered"":0,""num_whileblue"":2,""num_blue"":2,""num_good_moves"":7}","[292.22232142857143,298.12857142857143,0.1,293.22232142857143,298.12857142857143,102.9,296.22232142857143,287.12857142857143,202.9,245.22232142857143,236.12857142857143,316.1,216.22232142857143,228.12857142857143,416.8,77.22232142857143,509.12857142857143,518.2,71.22232142857143,511.12857142857143,621.6,48.222321428571426,523.1285714285714,722.6,48.222321428571426,541.1285714285714,823.8,53.222321428571426,538.1285714285714,932.9,242.22232142857143,448.12857142857143,1033.8,373.22232142857143,503.12857142857143,1137.9,787.2223214285714,564.1285714285714,1238.2,975.2223214285714,675.1285714285714,1342.4,975.2223214285714,675.1285714285714,1447.7,975.2223214285714,675.1285714285714,1548.2,975.2223214285714,675.1285714285714,1654,975.2223214285714,675.1285714285714,1758.1,975.2223214285714,675.1285714285714,1858.2,975.2223214285714,675.1285714285714,1966.9,975.2223214285714,675.1285714285714,2068.4,975.2223214285714,675.1285714285714,2172.7,975.2223214285714,675.1285714285714,2272.9,975.2223214285714,675.1285714285714,2381.2,975.2223214285714,675.1285714285714,2481.3,975.2223214285714,675.1285714285714,2582.9,975.2223214285714,675.1285714285714,2683.2,975.2223214285714,675.1285714285714,2788.3,975.2223214285714,675.1285714285714,2897.8,975.2223214285714,675.1285714285714,3004.6,975.2223214285714,675.1285714285714,3107.3,975.2223214285714,675.1285714285714,3207.6,975.2223214285714,675.1285714285714,3312.3,975.2223214285714,675.1285714285714,3413.4,975.2223214285714,675.1285714285714,3518.3,975.2223214285714,675.1285714285714,3630.9,975.2223214285714,675.1285714285714,3731,975.2223214285714,675.1285714285714,3831.1,975.2223214285714,675.1285714285714,3931.2,975.2223214285714,675.1285714285714,4031.6,975.2223214285714,675.1285714285714,4132.9,975.2223214285714,675.1285714285714,4233.1,975.2223214285714,675.1285714285714,4333.3,975.2223214285714,675.1285714285714,4438.8,975.2223214285714,675.1285714285714,4546.7,975.2223214285714,675.1285714285714,4648.1,975.2223214285714,675.1285714285714,4752.3,975.2223214285714,675.1285714285714,4853.8,975.2223214285714,675.1285714285714,4957.6]","[1607.4,1607.4,1000,0,607.4,""oops"",""down"",""left"",""good_move"",4973.1,3365.3,2987.7,1607.8,377.6,""oops"",""down"",""down"",""good_move"",8235.7,3262.3,2894.1,4973.4,368.2,""oops"",""down"",""left"",""good_move"",11621.5,3385.6,3028,8235.9,357.6,""oops"",""down"",""up"",""bad_move"",14502.9,2881,2489.1,11621.9,391.9,""while_blue"",""down"",""right"",""bad_move"",17460,2956.8,2505,14503.2,451.8,""oops"",""left"",""down"",""good_move"",17492,31.8,2883.8,17460.2,-2852,""error"",""-"",""-"",""no_move"",21017,3524.9,2003.3,18503.8,509.9,""oops"",""down"",""left"",""good_move"",23595.9,2578.5,2172.5,21017.4,406,""smooth"",""down"",""down"",""good_move"",26231.9,2635.8,2265.8,23596.1,370,""oops"",""down"",""down"",""good_move"",29011.8,2779.6,2516.8,26232.2,262.8,""while_blue"",""left"",""right"",""bad_move""]","",""
"2191","","<div style=""width:500px;"">
  <p>What determined the result of this run?</p>
  </div>","63","html-slider-response","50","578455","0.0-5.0-1.8","30","1","2025-07-09 12:22:22","01610cd0009c79a99da7d0a3353eb402","82.132.246.16","Mozilla/5.0 (Windows NT 10.0; Win64; x64) AppleWebKit/537.36 (KHTML, like Gecko) Chrome/138.0.0.0 Safari/537.36","WebKit","Chrome","138.0.0.0","Windows","10.0","https://app.prolific.com/","en-GB,en-US;q=0.9,en;q=0.8","676054ef296caad582258e02","683db7602f5db6a34d12d064","686e5ec5a20e120a843c2a9e","1","676054ef296caad582258e02","1","2025-07-09T12:32:02.488Z","","","","","","","","","","","AttribQ","","50","","","","","","","","","","","","","","","","","","","","","","","","","","","","",""
"2359","","<div style=""width:500px;"">
  <p>How much control did you have over the ball?</p>
  </div>","0","html-slider-response","51","580815","0.0-5.0-2.8","30","1","2025-07-09 12:22:22","01610cd0009c79a99da7d0a3353eb402","82.132.246.16","Mozilla/5.0 (Windows NT 10.0; Win64; x64) AppleWebKit/537.36 (KHTML, like Gecko) Chrome/138.0.0.0 Safari/537.36","WebKit","Chrome","138.0.0.0","Windows","10.0","https://app.prolific.com/","en-GB,en-US;q=0.9,en;q=0.8","676054ef296caad582258e02","683db7602f5db6a34d12d064","686e5ec5a20e120a843c2a9e","1","676054ef296caad582258e02","1","2025-07-09T12:32:04.848Z","","","","","","","","","","","ControlQ","","50","","","","","","","","","","","","","","","","","","","","","","","","","","","","",""
"1839","","<div style=""width:500px;"">
  <p>How would you describe your current emotional state?</p>
  </div>","50","html-slider-response","52","582655","0.0-5.0-3.8","30","1","2025-07-09 12:22:22","01610cd0009c79a99da7d0a3353eb402","82.132.246.16","Mozilla/5.0 (Windows NT 10.0; Win64; x64) AppleWebKit/537.36 (KHTML, like Gecko) Chrome/138.0.0.0 Safari/537.36","WebKit","Chrome","138.0.0.0","Windows","10.0","https://app.prolific.com/","en-GB,en-US;q=0.9,en;q=0.8","676054ef296caad582258e02","683db7602f5db6a34d12d064","686e5ec5a20e120a843c2a9e","1","676054ef296caad582258e02","1","2025-07-09T12:32:06.688Z","","","","","","","","","","","StressQ","","50","","","","","","","","","","","","","","","","","","","","","","","","","","","","",""
"1671","","<div style=""width:500px;"">
  <p>What best describes how you currently feel?</p>
  </div>","64","html-slider-response","53","584327","0.0-5.0-4.8","30","1","2025-07-09 12:22:22","01610cd0009c79a99da7d0a3353eb402","82.132.246.16","Mozilla/5.0 (Windows NT 10.0; Win64; x64) AppleWebKit/537.36 (KHTML, like Gecko) Chrome/138.0.0.0 Safari/537.36","WebKit","Chrome","138.0.0.0","Windows","10.0","https://app.prolific.com/","en-GB,en-US;q=0.9,en;q=0.8","676054ef296caad582258e02","683db7602f5db6a34d12d064","686e5ec5a20e120a843c2a9e","1","676054ef296caad582258e02","1","2025-07-09T12:32:08.360Z","","","","","","","","","","","MotivationQ","","50","","","","","","","","","","","","","","","","","","","","","","","","","","","","",""
"","","","","ctl-task-cpt","54","621077","0.0-5.0-0.9","30","1","2025-07-09 12:22:22","01610cd0009c79a99da7d0a3353eb402","82.132.246.16","Mozilla/5.0 (Windows NT 10.0; Win64; x64) AppleWebKit/537.36 (KHTML, like Gecko) Chrome/138.0.0.0 Safari/537.36","WebKit","Chrome","138.0.0.0","Windows","10.0","https://app.prolific.com/","en-GB,en-US;q=0.9,en;q=0.8","676054ef296caad582258e02","683db7602f5db6a34d12d064","686e5ec5a20e120a843c2a9e","1","676054ef296caad582258e02","1","2025-07-09T12:32:45.110Z","","","","","","","","","","","","","","win-only","3","g1:SW,g2:NE","0.4","10","0","586554.9","1796.5","6801.5","33730.8","1","4","8","6","1","-1","-1","0","0","0","2378.4","3000","-3015","[""down"",""left""]","{""num_key_presses"":8,""num_perfect"":4,""num_errors"":0,""num_randdir"":4,""num_randdir_good_moves"":1,""num_whilered"":0,""num_whileblue"":0,""num_blue"":1,""num_good_moves"":5}","[294.22232142857143,297.12857142857143,0.1,294.22232142857143,297.12857142857143,104.5,324.22232142857143,313.12857142857143,219.2,324.22232142857143,313.12857142857143,319.8,339.22232142857143,196.12857142857143,424.9,410.22232142857143,7.128571428571426,529.8,460.22232142857143,4.128571428571426,635.3,434.22232142857143,55.128571428571426,739.1,245.22232142857143,389.12857142857143,852.6,200.22232142857143,496.12857142857143,954.6,215.22232142857143,476.12857142857143,1059.7,226.22232142857143,431.12857142857143,1168.9,192.22232142857143,420.12857142857143,1273.7,92.22232142857143,547.1285714285714,1374.3,91.22232142857143,567.1285714285714,1479.4,91.22232142857143,567.1285714285714,1583.9,91.22232142857143,567.1285714285714,1684.4,60.222321428571426,560.1285714285714,1785,59.222321428571426,559.1285714285714,1889.4,59.222321428571426,559.1285714285714,1993.8,59.222321428571426,559.1285714285714,2102.3,59.222321428571426,559.1285714285714,2202.3,59.222321428571426,559.1285714285714,2304.3,59.222321428571426,559.1285714285714,2408.9,59.222321428571426,559.1285714285714,2518.8,60.222321428571426,556.1285714285714,2619.9,148.22232142857143,474.12857142857143,2723.9,474.22232142857143,405.12857142857143,2835,654.2223214285714,436.12857142857143,2939.6,719.2223214285714,416.12857142857143,3040.3,719.2223214285714,416.12857142857143,3151.6,719.2223214285714,416.12857142857143,3254.3,719.2223214285714,416.12857142857143,3354.3,719.2223214285714,416.12857142857143,3455.3,719.2223214285714,416.12857142857143,3559.2,719.2223214285714,416.12857142857143,3667.5,719.2223214285714,416.12857142857143,3769.1,719.2223214285714,416.12857142857143,3869.5,719.2223214285714,416.12857142857143,3970.5,719.2223214285714,416.12857142857143,4075,719.2223214285714,416.12857142857143,4175.3,719.2223214285714,416.12857142857143,4283,719.2223214285714,416.12857142857143,4383.9,719.2223214285714,416.12857142857143,4484.6,719.2223214285714,416.12857142857143,4589.3,719.2223214285714,416.12857142857143,4689.6,719.2223214285714,416.12857142857143,4790.1,719.2223214285714,416.12857142857143,4899.2,719.2223214285714,416.12857142857143,4999.2]","[1391.7,1391.7,1000,0,391.7,""smooth"",""down"",""down"",""good_move"",6588.8,5196.7,2232.8,3977.4,378.6,""smooth"",""down"",""down"",""good_move"",9732.7,3143.8,2709.3,6588.9,434.5,""oops"",""left"",""right"",""bad_move"",12647,2914.1,2546.3,9732.9,367.8,""smooth"",""left"",""left"",""good_move"",15780.5,3133.3,2720.1,12647.3,413.2,""oops"",""left"",""right"",""bad_move"",18924.7,3143.9,2762.3,15780.8,381.6,""smooth"",""left"",""left"",""good_move"",21924.5,2999.5,2627.9,18925,371.6,""oops"",""left"",""left"",""good_move"",24852.6,2927.9,2599.3,21924.7,328.6,""oops"",""left"",""right"",""bad_move""]","",""
"2554","","<div style=""width:500px;"">
  <p>What determined the result of this run?</p>
  </div>","0","html-slider-response","55","623631","0.0-5.0-1.9","30","1","2025-07-09 12:22:22","01610cd0009c79a99da7d0a3353eb402","82.132.246.16","Mozilla/5.0 (Windows NT 10.0; Win64; x64) AppleWebKit/537.36 (KHTML, like Gecko) Chrome/138.0.0.0 Safari/537.36","WebKit","Chrome","138.0.0.0","Windows","10.0","https://app.prolific.com/","en-GB,en-US;q=0.9,en;q=0.8","676054ef296caad582258e02","683db7602f5db6a34d12d064","686e5ec5a20e120a843c2a9e","1","676054ef296caad582258e02","1","2025-07-09T12:32:47.664Z","","","","","","","","","","","AttribQ","","50","","","","","","","","","","","","","","","","","","","","","","","","","","","","",""
"1599","","<div style=""width:500px;"">
  <p>How much control did you have over the ball?</p>
  </div>","0","html-slider-response","56","625231","0.0-5.0-2.9","30","1","2025-07-09 12:22:22","01610cd0009c79a99da7d0a3353eb402","82.132.246.16","Mozilla/5.0 (Windows NT 10.0; Win64; x64) AppleWebKit/537.36 (KHTML, like Gecko) Chrome/138.0.0.0 Safari/537.36","WebKit","Chrome","138.0.0.0","Windows","10.0","https://app.prolific.com/","en-GB,en-US;q=0.9,en;q=0.8","676054ef296caad582258e02","683db7602f5db6a34d12d064","686e5ec5a20e120a843c2a9e","1","676054ef296caad582258e02","1","2025-07-09T12:32:49.264Z","","","","","","","","","","","ControlQ","","50","","","","","","","","","","","","","","","","","","","","","","","","","","","","",""
"1823","","<div style=""width:500px;"">
  <p>How would you describe your current emotional state?</p>
  </div>","50","html-slider-response","57","627055","0.0-5.0-3.9","30","1","2025-07-09 12:22:22","01610cd0009c79a99da7d0a3353eb402","82.132.246.16","Mozilla/5.0 (Windows NT 10.0; Win64; x64) AppleWebKit/537.36 (KHTML, like Gecko) Chrome/138.0.0.0 Safari/537.36","WebKit","Chrome","138.0.0.0","Windows","10.0","https://app.prolific.com/","en-GB,en-US;q=0.9,en;q=0.8","676054ef296caad582258e02","683db7602f5db6a34d12d064","686e5ec5a20e120a843c2a9e","1","676054ef296caad582258e02","1","2025-07-09T12:32:51.088Z","","","","","","","","","","","StressQ","","50","","","","","","","","","","","","","","","","","","","","","","","","","","","","",""
"1199","","<div style=""width:500px;"">
  <p>What best describes how you currently feel?</p>
  </div>","69","html-slider-response","58","628255","0.0-5.0-4.9","30","1","2025-07-09 12:22:22","01610cd0009c79a99da7d0a3353eb402","82.132.246.16","Mozilla/5.0 (Windows NT 10.0; Win64; x64) AppleWebKit/537.36 (KHTML, like Gecko) Chrome/138.0.0.0 Safari/537.36","WebKit","Chrome","138.0.0.0","Windows","10.0","https://app.prolific.com/","en-GB,en-US;q=0.9,en;q=0.8","676054ef296caad582258e02","683db7602f5db6a34d12d064","686e5ec5a20e120a843c2a9e","1","676054ef296caad582258e02","1","2025-07-09T12:32:52.288Z","","","","","","","","","","","MotivationQ","","50","","","","","","","","","","","","","","","","","","","","","","","","","","","","",""
"","","","","ctl-task-cpt","59","665884","0.0-5.0-0.10","30","1","2025-07-09 12:22:22","01610cd0009c79a99da7d0a3353eb402","82.132.246.16","Mozilla/5.0 (Windows NT 10.0; Win64; x64) AppleWebKit/537.36 (KHTML, like Gecko) Chrome/138.0.0.0 Safari/537.36","WebKit","Chrome","138.0.0.0","Windows","10.0","https://app.prolific.com/","en-GB,en-US;q=0.9,en;q=0.8","676054ef296caad582258e02","683db7602f5db6a34d12d064","686e5ec5a20e120a843c2a9e","1","676054ef296caad582258e02","1","2025-07-09T12:33:29.917Z","","","","","","","","","","","","","","win-only","2","g1:SE,g2:NW","0.5","11","0","630482.8","694.9","5695.4","34610.9","1","4","8","6","1","-1","-1","0","0","0","1264.5","3000","-3015","[""down"",""right""]","{""num_key_presses"":8,""num_perfect"":3,""num_errors"":0,""num_randdir"":5,""num_randdir_good_moves"":2,""num_whilered"":0,""num_whileblue"":0,""num_blue"":1,""num_good_moves"":5}","[296.22232142857143,291.12857142857143,0.2,296.22232142857143,291.12857142857143,102.9,317.22232142857143,267.12857142857143,206.6,383.22232142857143,187.12857142857143,307,402.22232142857143,246.12857142857143,407.5,395.22232142857143,258.12857142857143,507.8,371.22232142857143,309.12857142857143,610.2,425.22232142857143,383.12857142857143,711.1,446.22232142857143,385.12857142857143,812.1,428.22232142857143,412.12857142857143,916.2,507.22232142857143,538.1285714285714,1020.6,553.2223214285714,555.1285714285714,1121.1,579.2223214285714,557.1285714285714,1221.8,580.2223214285714,558.1285714285714,1322.6,578.2223214285714,559.1285714285714,1427.2,611.2223214285714,529.1285714285714,1530.7,975.2223214285714,141.12857142857143,1632,975.2223214285714,77.12857142857143,1735.5,975.2223214285714,77.12857142857143,1841.3,975.2223214285714,77.12857142857143,1946.2,975.2223214285714,77.12857142857143,2046.7,975.2223214285714,77.12857142857143,2150.9,975.2223214285714,77.12857142857143,2256.1,975.2223214285714,77.12857142857143,2356.2,975.2223214285714,77.12857142857143,2456.4,975.2223214285714,77.12857142857143,2556.6,975.2223214285714,77.12857142857143,2660.8,975.2223214285714,77.12857142857143,2760.8,975.2223214285714,77.12857142857143,2862.2,975.2223214285714,77.12857142857143,2967.2,975.2223214285714,77.12857142857143,3071.2,975.2223214285714,77.12857142857143,3171.9,975.2223214285714,77.12857142857143,3276,975.2223214285714,77.12857142857143,3376,975.2223214285714,77.12857142857143,3476.2,975.2223214285714,77.12857142857143,3576.2,975.2223214285714,77.12857142857143,3680.6,975.2223214285714,77.12857142857143,3780.8,975.2223214285714,77.12857142857143,3880.9,975.2223214285714,77.12857142857143,3985.5,975.2223214285714,77.12857142857143,4085.7,975.2223214285714,77.12857142857143,4186.3,975.2223214285714,77.12857142857143,4291.1,975.2223214285714,77.12857142857143,4395.9,975.2223214285714,77.12857142857143,4502.2,975.2223214285714,77.12857142857143,4603.2,975.2223214285714,77.12857142857143,4707.2,975.2223214285714,77.12857142857143,4812,975.2223214285714,77.12857142857143,4917.1]","[1374.8,1374.8,1000,0,374.8,""oops"",""right"",""down"",""good_move"",4063,2687.9,2288.1,1375.1,399.8,""smooth"",""right"",""right"",""good_move"",7255,3191.6,2829.7,4063.4,361.9,""oops"",""down"",""left"",""bad_move"",10078.9,2823.6,2449.3,7255.3,374.3,""smooth"",""down"",""down"",""good_move"",16374.8,6295.6,2342.8,13671.2,360.8,""oops"",""right"",""up"",""bad_move"",20014.8,3639.8,3272.8,16375,367,""oops"",""right"",""down"",""good_move"",22991,2975.9,2570.6,20015.1,405.3,""oops"",""right"",""left"",""bad_move"",26198.6,3207.3,2815.6,22991.3,391.7,""smooth"",""right"",""right"",""good_move""]","",""
"2210","","<div style=""width:500px;"">
  <p>What determined the result of this run?</p>
  </div>","0","html-slider-response","60","668095","0.0-5.0-1.10","30","1","2025-07-09 12:22:22","01610cd0009c79a99da7d0a3353eb402","82.132.246.16","Mozilla/5.0 (Windows NT 10.0; Win64; x64) AppleWebKit/537.36 (KHTML, like Gecko) Chrome/138.0.0.0 Safari/537.36","WebKit","Chrome","138.0.0.0","Windows","10.0","https://app.prolific.com/","en-GB,en-US;q=0.9,en;q=0.8","676054ef296caad582258e02","683db7602f5db6a34d12d064","686e5ec5a20e120a843c2a9e","1","676054ef296caad582258e02","1","2025-07-09T12:33:32.128Z","","","","","","","","","","","AttribQ","","50","","","","","","","","","","","","","","","","","","","","","","","","","","","","",""
"1567","","<div style=""width:500px;"">
  <p>How much control did you have over the ball?</p>
  </div>","0","html-slider-response","61","669663","0.0-5.0-2.10","30","1","2025-07-09 12:22:22","01610cd0009c79a99da7d0a3353eb402","82.132.246.16","Mozilla/5.0 (Windows NT 10.0; Win64; x64) AppleWebKit/537.36 (KHTML, like Gecko) Chrome/138.0.0.0 Safari/537.36","WebKit","Chrome","138.0.0.0","Windows","10.0","https://app.prolific.com/","en-GB,en-US;q=0.9,en;q=0.8","676054ef296caad582258e02","683db7602f5db6a34d12d064","686e5ec5a20e120a843c2a9e","1","676054ef296caad582258e02","1","2025-07-09T12:33:33.696Z","","","","","","","","","","","ControlQ","","50","","","","","","","","","","","","","","","","","","","","","","","","","","","","",""
"1327","","<div style=""width:500px;"">
  <p>How would you describe your current emotional state?</p>
  </div>","50","html-slider-response","62","670991","0.0-5.0-3.10","30","1","2025-07-09 12:22:22","01610cd0009c79a99da7d0a3353eb402","82.132.246.16","Mozilla/5.0 (Windows NT 10.0; Win64; x64) AppleWebKit/537.36 (KHTML, like Gecko) Chrome/138.0.0.0 Safari/537.36","WebKit","Chrome","138.0.0.0","Windows","10.0","https://app.prolific.com/","en-GB,en-US;q=0.9,en;q=0.8","676054ef296caad582258e02","683db7602f5db6a34d12d064","686e5ec5a20e120a843c2a9e","1","676054ef296caad582258e02","1","2025-07-09T12:33:35.024Z","","","","","","","","","","","StressQ","","50","","","","","","","","","","","","","","","","","","","","","","","","","","","","",""
"1655","","<div style=""width:500px;"">
  <p>What best describes how you currently feel?</p>
  </div>","69","html-slider-response","63","672647","0.0-5.0-4.10","30","1","2025-07-09 12:22:22","01610cd0009c79a99da7d0a3353eb402","82.132.246.16","Mozilla/5.0 (Windows NT 10.0; Win64; x64) AppleWebKit/537.36 (KHTML, like Gecko) Chrome/138.0.0.0 Safari/537.36","WebKit","Chrome","138.0.0.0","Windows","10.0","https://app.prolific.com/","en-GB,en-US;q=0.9,en;q=0.8","676054ef296caad582258e02","683db7602f5db6a34d12d064","686e5ec5a20e120a843c2a9e","1","676054ef296caad582258e02","1","2025-07-09T12:33:36.680Z","","","","","","","","","","","MotivationQ","","50","","","","","","","","","","","","","","","","","","","","","","","","","","","","",""
"","","","","ctl-task-cpt","64","702112","0.0-5.0-0.11","30","1","2025-07-09 12:22:22","01610cd0009c79a99da7d0a3353eb402","82.132.246.16","Mozilla/5.0 (Windows NT 10.0; Win64; x64) AppleWebKit/537.36 (KHTML, like Gecko) Chrome/138.0.0.0 Safari/537.36","WebKit","Chrome","138.0.0.0","Windows","10.0","https://app.prolific.com/","en-GB,en-US;q=0.9,en;q=0.8","676054ef296caad582258e02","683db7602f5db6a34d12d064","686e5ec5a20e120a843c2a9e","1","676054ef296caad582258e02","1","2025-07-09T12:34:06.145Z","","","","","","","","","","","","","","win-only","0","g1:NW,g2:SE","0.6","12","0","674874.7","894.9","5896","26445.7","1","4","4","6","2","4","4","4","0","0.030303030303030304","2240.2","3000","655","[""down"",""right""]","{""num_key_presses"":6,""num_perfect"":3,""num_errors"":0,""num_randdir"":3,""num_randdir_good_moves"":3,""num_whilered"":0,""num_whileblue"":0,""num_blue"":1,""num_good_moves"":6}","[291.22232142857143,297.12857142857143,0.2,291.22232142857143,297.12857142857143,101.8,310.22232142857143,278.12857142857143,205.4,365.22232142857143,232.12857142857143,306.1,380.22232142857143,226.12857142857143,416.2,401.22232142857143,358.12857142857143,521.4,400.22232142857143,417.12857142857143,622.2,399.22232142857143,439.12857142857143,725.4,392.22232142857143,461.12857142857143,825.8,392.22232142857143,461.12857142857143,925.9,392.22232142857143,461.12857142857143,1032.2,403.22232142857143,467.12857142857143,1136.1,548.2223214285714,519.1285714285714,1237.2,548.2223214285714,519.1285714285714,1341.6,449.22232142857143,493.12857142857143,1447.3,509.22232142857143,531.1285714285714,1550.8,576.2223214285714,562.1285714285714,1650.8,576.2223214285714,562.1285714285714,1751.9,548.2223214285714,551.1285714285714,1855.5,493.22232142857143,489.12857142857143,1956.3,516.2223214285714,522.1285714285714,2063,579.2223214285714,573.1285714285714,2166.3,579.2223214285714,573.1285714285714,2270.7,579.2223214285714,573.1285714285714,2375.5,579.2223214285714,573.1285714285714,2480.8,596.2223214285714,339.12857142857143,2581.2,712.2223214285714,133.12857142857143,2681.2,713.2223214285714,129.12857142857143,2786.2,713.2223214285714,129.12857142857143,2891.1,713.2223214285714,129.12857142857143,2991.7,713.2223214285714,129.12857142857143,3096.3,713.2223214285714,129.12857142857143,3201,713.2223214285714,129.12857142857143,3305.9,713.2223214285714,129.12857142857143,3411.7,713.2223214285714,129.12857142857143,3511.7,713.2223214285714,129.12857142857143,3611.7,713.2223214285714,129.12857142857143,3715.6,713.2223214285714,129.12857142857143,3816,713.2223214285714,129.12857142857143,3916.4,713.2223214285714,129.12857142857143,4017.1,713.2223214285714,129.12857142857143,4121.7,713.2223214285714,129.12857142857143,4227.3,713.2223214285714,129.12857142857143,4331.5,713.2223214285714,129.12857142857143,4435.8,713.2223214285714,129.12857142857143,4536.2,713.2223214285714,129.12857142857143,4636.2,713.2223214285714,129.12857142857143,4741.1,713.2223214285714,129.12857142857143,4846.4,713.2223214285714,129.12857142857143,4950.6]","[1358.4,1358.4,1000,0,358.4,""smooth"",""right"",""right"",""good_move"",7734.1,6375.3,2303.9,5071.1,359.1,""smooth"",""down"",""down"",""good_move"",10998.3,3263.9,2729.8,7734.4,534.1,""smooth"",""down"",""down"",""good_move"",14174.3,3175.8,2817.6,10998.5,358.2,""oops"",""down"",""down"",""good_move"",17134.1,2959.7,2590.2,14174.4,369.5,""oops"",""right"",""right"",""good_move"",20462.1,3327.7,2929,17134.4,398.7,""oops"",""right"",""right"",""good_move""]","",""
"2454","","<div style=""width:500px;"">
  <p>What determined the result of this run?</p>
  </div>","58","html-slider-response","65","704567","0.0-5.0-1.11","30","1","2025-07-09 12:22:22","01610cd0009c79a99da7d0a3353eb402","82.132.246.16","Mozilla/5.0 (Windows NT 10.0; Win64; x64) AppleWebKit/537.36 (KHTML, like Gecko) Chrome/138.0.0.0 Safari/537.36","WebKit","Chrome","138.0.0.0","Windows","10.0","https://app.prolific.com/","en-GB,en-US;q=0.9,en;q=0.8","676054ef296caad582258e02","683db7602f5db6a34d12d064","686e5ec5a20e120a843c2a9e","1","676054ef296caad582258e02","1","2025-07-09T12:34:08.600Z","","","","","","","","","","","AttribQ","","50","","","","","","","","","","","","","","","","","","","","","","","","","","","","",""
"2191","","<div style=""width:500px;"">
  <p>How much control did you have over the ball?</p>
  </div>","68","html-slider-response","66","706759","0.0-5.0-2.11","30","1","2025-07-09 12:22:22","01610cd0009c79a99da7d0a3353eb402","82.132.246.16","Mozilla/5.0 (Windows NT 10.0; Win64; x64) AppleWebKit/537.36 (KHTML, like Gecko) Chrome/138.0.0.0 Safari/537.36","WebKit","Chrome","138.0.0.0","Windows","10.0","https://app.prolific.com/","en-GB,en-US;q=0.9,en;q=0.8","676054ef296caad582258e02","683db7602f5db6a34d12d064","686e5ec5a20e120a843c2a9e","1","676054ef296caad582258e02","1","2025-07-09T12:34:10.792Z","","","","","","","","","","","ControlQ","","50","","","","","","","","","","","","","","","","","","","","","","","","","","","","",""
"1952","","<div style=""width:500px;"">
  <p>How would you describe your current emotional state?</p>
  </div>","50","html-slider-response","67","708711","0.0-5.0-3.11","30","1","2025-07-09 12:22:22","01610cd0009c79a99da7d0a3353eb402","82.132.246.16","Mozilla/5.0 (Windows NT 10.0; Win64; x64) AppleWebKit/537.36 (KHTML, like Gecko) Chrome/138.0.0.0 Safari/537.36","WebKit","Chrome","138.0.0.0","Windows","10.0","https://app.prolific.com/","en-GB,en-US;q=0.9,en;q=0.8","676054ef296caad582258e02","683db7602f5db6a34d12d064","686e5ec5a20e120a843c2a9e","1","676054ef296caad582258e02","1","2025-07-09T12:34:12.744Z","","","","","","","","","","","StressQ","","50","","","","","","","","","","","","","","","","","","","","","","","","","","","","",""
"1631","","<div style=""width:500px;"">
  <p>What best describes how you currently feel?</p>
  </div>","66","html-slider-response","68","710343","0.0-5.0-4.11","30","1","2025-07-09 12:22:22","01610cd0009c79a99da7d0a3353eb402","82.132.246.16","Mozilla/5.0 (Windows NT 10.0; Win64; x64) AppleWebKit/537.36 (KHTML, like Gecko) Chrome/138.0.0.0 Safari/537.36","WebKit","Chrome","138.0.0.0","Windows","10.0","https://app.prolific.com/","en-GB,en-US;q=0.9,en;q=0.8","676054ef296caad582258e02","683db7602f5db6a34d12d064","686e5ec5a20e120a843c2a9e","1","676054ef296caad582258e02","1","2025-07-09T12:34:14.376Z","","","","","","","","","","","MotivationQ","","50","","","","","","","","","","","","","","","","","","","","","","","","","","","","",""
"","","","","ctl-task-cpt","69","738396","0.0-5.0-0.12","30","1","2025-07-09 12:22:22","01610cd0009c79a99da7d0a3353eb402","82.132.246.16","Mozilla/5.0 (Windows NT 10.0; Win64; x64) AppleWebKit/537.36 (KHTML, like Gecko) Chrome/138.0.0.0 Safari/537.36","WebKit","Chrome","138.0.0.0","Windows","10.0","https://app.prolific.com/","en-GB,en-US;q=0.9,en;q=0.8","676054ef296caad582258e02","683db7602f5db6a34d12d064","686e5ec5a20e120a843c2a9e","1","676054ef296caad582258e02","1","2025-07-09T12:34:42.429Z","","","","","","","","","","","","","","win-only","1","g1:NE,g2:SW","0.7","13","0","712570.6","775.3","5781.5","25035.3","1","4","8","6","2","8","8","12","4","0.09090909090909091","776.2","3000","715","[""down"",""left""]","{""num_key_presses"":6,""num_perfect"":5,""num_errors"":0,""num_randdir"":1,""num_randdir_good_moves"":1,""num_whilered"":0,""num_whileblue"":0,""num_blue"":1,""num_good_moves"":6}","[300.22232142857143,290.12857142857143,0.2,300.22232142857143,290.12857142857143,100.3,292.22232142857143,261.12857142857143,200.7,259.22232142857143,192.12857142857143,305.6,201.22232142857143,200.12857142857143,406.1,117.22232142857143,413.12857142857143,506.5,84.22232142857143,486.12857142857143,610.9,71.22232142857143,500.12857142857143,715.1,50.222321428571426,528.1285714285714,815.4,179.22232142857143,377.12857142857143,920.4,388.22232142857143,306.12857142857143,1022,739.2223214285714,522.1285714285714,1125.2,920.2223214285714,448.12857142857143,1225.9,858.2223214285714,274.12857142857143,1330.1,845.2223214285714,277.12857142857143,1430.2,845.2223214285714,277.12857142857143,1531.1,845.2223214285714,277.12857142857143,1637.1,845.2223214285714,277.12857142857143,1741.5,845.2223214285714,277.12857142857143,1845.1,845.2223214285714,277.12857142857143,1945.5,845.2223214285714,277.12857142857143,2050.3,845.2223214285714,277.12857142857143,2151.7,845.2223214285714,277.12857142857143,2255,845.2223214285714,277.12857142857143,2355.4,845.2223214285714,277.12857142857143,2457.1,845.2223214285714,277.12857142857143,2561.9,845.2223214285714,277.12857142857143,2665.5,845.2223214285714,277.12857142857143,2766,845.2223214285714,277.12857142857143,2866.2,845.2223214285714,277.12857142857143,2971.5,845.2223214285714,277.12857142857143,3075.8,845.2223214285714,277.12857142857143,3181.4,845.2223214285714,277.12857142857143,3285.9,845.2223214285714,277.12857142857143,3390.1,845.2223214285714,277.12857142857143,3490.5,845.2223214285714,277.12857142857143,3595.1,845.2223214285714,277.12857142857143,3695.4,845.2223214285714,277.12857142857143,3801.5,845.2223214285714,277.12857142857143,3906.7,845.2223214285714,277.12857142857143,4010.3,845.2223214285714,277.12857142857143,4111.9,845.2223214285714,277.12857142857143,4214.9,845.2223214285714,277.12857142857143,4315.2,845.2223214285714,277.12857142857143,4415.3,845.2223214285714,277.12857142857143,4520.3,845.2223214285714,277.12857142857143,4625.9,845.2223214285714,277.12857142857143,4726.4,845.2223214285714,277.12857142857143,4829.9,845.2223214285714,277.12857142857143,4930.6]","[1369,1369,1000,0,369,""smooth"",""down"",""down"",""good_move"",7624.7,6255.4,2384.8,4805.4,434.5,""smooth"",""left"",""left"",""good_move"",10368.6,2743.7,2328.7,7624.9,415,""smooth"",""down"",""down"",""good_move"",13297,2928.1,2537.8,10368.9,390.3,""oops"",""left"",""down"",""good_move"",16048.9,2751.7,2397.3,13297.2,354.4,""smooth"",""left"",""left"",""good_move"",19160.7,3111.6,2746.7,16049.1,364.9,""smooth"",""left"",""left"",""good_move""]","",""
"2394","","<div style=""width:500px;"">
  <p>What determined the result of this run?</p>
  </div>","100","html-slider-response","70","740791","0.0-5.0-1.12","30","1","2025-07-09 12:22:22","01610cd0009c79a99da7d0a3353eb402","82.132.246.16","Mozilla/5.0 (Windows NT 10.0; Win64; x64) AppleWebKit/537.36 (KHTML, like Gecko) Chrome/138.0.0.0 Safari/537.36","WebKit","Chrome","138.0.0.0","Windows","10.0","https://app.prolific.com/","en-GB,en-US;q=0.9,en;q=0.8","676054ef296caad582258e02","683db7602f5db6a34d12d064","686e5ec5a20e120a843c2a9e","1","676054ef296caad582258e02","1","2025-07-09T12:34:44.824Z","","","","","","","","","","","AttribQ","","50","","","","","","","","","","","","","","","","","","","","","","","","","","","","",""
"5863","","<div style=""width:500px;"">
  <p>How much control did you have over the ball?</p>
  </div>","100","html-slider-response","71","746655","0.0-5.0-2.12","30","1","2025-07-09 12:22:22","01610cd0009c79a99da7d0a3353eb402","82.132.246.16","Mozilla/5.0 (Windows NT 10.0; Win64; x64) AppleWebKit/537.36 (KHTML, like Gecko) Chrome/138.0.0.0 Safari/537.36","WebKit","Chrome","138.0.0.0","Windows","10.0","https://app.prolific.com/","en-GB,en-US;q=0.9,en;q=0.8","676054ef296caad582258e02","683db7602f5db6a34d12d064","686e5ec5a20e120a843c2a9e","1","676054ef296caad582258e02","1","2025-07-09T12:34:50.688Z","","","","","","","","","","","ControlQ","","50","","","","","","","","","","","","","","","","","","","","","","","","","","","","",""
"1263","","<div style=""width:500px;"">
  <p>How would you describe your current emotional state?</p>
  </div>","50","html-slider-response","72","747919","0.0-5.0-3.12","30","1","2025-07-09 12:22:22","01610cd0009c79a99da7d0a3353eb402","82.132.246.16","Mozilla/5.0 (Windows NT 10.0; Win64; x64) AppleWebKit/537.36 (KHTML, like Gecko) Chrome/138.0.0.0 Safari/537.36","WebKit","Chrome","138.0.0.0","Windows","10.0","https://app.prolific.com/","en-GB,en-US;q=0.9,en;q=0.8","676054ef296caad582258e02","683db7602f5db6a34d12d064","686e5ec5a20e120a843c2a9e","1","676054ef296caad582258e02","1","2025-07-09T12:34:51.952Z","","","","","","","","","","","StressQ","","50","","","","","","","","","","","","","","","","","","","","","","","","","","","","",""
"1439","","<div style=""width:500px;"">
  <p>What best describes how you currently feel?</p>
  </div>","72","html-slider-response","73","749359","0.0-5.0-4.12","30","1","2025-07-09 12:22:22","01610cd0009c79a99da7d0a3353eb402","82.132.246.16","Mozilla/5.0 (Windows NT 10.0; Win64; x64) AppleWebKit/537.36 (KHTML, like Gecko) Chrome/138.0.0.0 Safari/537.36","WebKit","Chrome","138.0.0.0","Windows","10.0","https://app.prolific.com/","en-GB,en-US;q=0.9,en;q=0.8","676054ef296caad582258e02","683db7602f5db6a34d12d064","686e5ec5a20e120a843c2a9e","1","676054ef296caad582258e02","1","2025-07-09T12:34:53.392Z","","","","","","","","","","","MotivationQ","","50","","","","","","","","","","","","","","","","","","","","","","","","","","","","",""
"","","","","ctl-task-cpt","74","785414","0.0-5.0-0.13","30","1","2025-07-09 12:22:22","01610cd0009c79a99da7d0a3353eb402","82.132.246.16","Mozilla/5.0 (Windows NT 10.0; Win64; x64) AppleWebKit/537.36 (KHTML, like Gecko) Chrome/138.0.0.0 Safari/537.36","WebKit","Chrome","138.0.0.0","Windows","10.0","https://app.prolific.com/","en-GB,en-US;q=0.9,en;q=0.8","676054ef296caad582258e02","683db7602f5db6a34d12d064","686e5ec5a20e120a843c2a9e","1","676054ef296caad582258e02","1","2025-07-09T12:35:29.447Z","","","","","","","","","","","","","","win-only","3","g1:SW,g2:NE","0.8","14","0","751586.6","783.9","5786","33036.4","1","4","4","6","2","4","4","16","12","0.12121212121212122","1087.2","3000","85","[""up"",""right""]","{""num_key_presses"":8,""num_perfect"":6,""num_errors"":0,""num_randdir"":2,""num_randdir_good_moves"":1,""num_whilered"":0,""num_whileblue"":0,""num_blue"":1,""num_good_moves"":7}","[296.22232142857143,296.12857142857143,0.2,296.22232142857143,296.12857142857143,101.8,299.22232142857143,315.12857142857143,202.3,253.22232142857143,311.12857142857143,302.4,161.22232142857143,537.1285714285714,406.8,125.22232142857143,559.1285714285714,507.2,97.22232142857143,572.1285714285714,612.7,304.22232142857143,364.12857142857143,717.1,431.22232142857143,207.12857142857143,822,475.22232142857143,148.12857142857143,926.4,538.2223214285714,67.12857142857143,1026.6,550.2223214285714,54.128571428571426,1128.2,485.22232142857143,134.12857142857143,1233.3,298.22232142857143,440.12857142857143,1336.8,233.22232142857143,453.12857142857143,1437.7,154.22232142857143,429.12857142857143,1542.9,144.22232142857143,431.12857142857143,1646.9,144.22232142857143,431.12857142857143,1752,144.22232142857143,431.12857142857143,1852.6,144.22232142857143,431.12857142857143,1957.3,144.22232142857143,431.12857142857143,2057.3,144.22232142857143,431.12857142857143,2163.5,144.22232142857143,431.12857142857143,2267.4,144.22232142857143,431.12857142857143,2371.7,144.22232142857143,431.12857142857143,2476.3,144.22232142857143,431.12857142857143,2577,144.22232142857143,431.12857142857143,2681.6,144.22232142857143,431.12857142857143,2786.6,144.22232142857143,431.12857142857143,2887.4,144.22232142857143,431.12857142857143,2992,144.22232142857143,431.12857142857143,3097.8,144.22232142857143,431.12857142857143,3202.6,144.22232142857143,431.12857142857143,3307.3,144.22232142857143,431.12857142857143,3411.3,144.22232142857143,431.12857142857143,3511.3,144.22232142857143,431.12857142857143,3611.5,144.22232142857143,431.12857142857143,3711.5,144.22232142857143,431.12857142857143,3816.4,144.22232142857143,431.12857142857143,3918.1,144.22232142857143,431.12857142857143,4022.5,144.22232142857143,431.12857142857143,4127.6,144.22232142857143,431.12857142857143,4232.9,144.22232142857143,431.12857142857143,4337.3,144.22232142857143,431.12857142857143,4441.9,144.22232142857143,431.12857142857143,4542.2,144.22232142857143,431.12857142857143,4646.4,144.22232142857143,431.12857142857143,4746.5,144.22232142857143,431.12857142857143,4847.6,144.22232142857143,431.12857142857143,4947.9]","[1388.3,1388.3,1000,0,388.3,""smooth"",""up"",""up"",""good_move"",4100.3,2711.7,2374.7,1388.6,337,""smooth"",""up"",""up"",""good_move"",10933.8,6833.3,2809,7754.5,370.3,""oops"",""up"",""up"",""good_move"",14564.1,3630,3192.3,10934.1,437.7,""oops"",""right"",""down"",""bad_move"",18156.1,3591.7,3197.8,14564.5,393.8,""smooth"",""right"",""right"",""good_move"",21172.4,3016,2660.2,18156.4,355.8,""smooth"",""right"",""right"",""good_move"",24044.3,2871.8,2519,21172.5,352.8,""smooth"",""right"",""right"",""good_move"",27156.3,3111.9,2786,24044.4,325.9,""smooth"",""up"",""up"",""good_move""]","",""
"1201","","<div style=""width:500px;"">
  <p>What determined the result of this run?</p>
