"rt","response_timestamp","stimulus","response","trial_type","trial_index","time_elapsed","internal_node_id","run_id","condition","recorded_at","source_code_version","ip","user_agent","device","browser","browser_version","platform","platform_version","referer","accept_language","PROLIFIC_PID","STUDY_ID","SESSION_ID","WEEK","prolific_id","week","realtime","success","responses","item_order","radio_event_ids","radio_event_times","key_event_times","mouse_event_times","straightlining","zigzagging","honeypot","eventType","view_history","slider_start","which_type","canvas_config","goals_layout","control_level","trial_number","tutorial_trial_number","trial_start_time","phase1_start_time","phase2_start_time","phase3_start_time","goal_1_value","goal_1_distance","goal_2_value","goal_2_distance","goal_selected","outcome","outcome_total","participant_final_score","participant_initial_score","participant_final_score_prop","goal_choice_rt","allocated_time","allocated_time_remaining","goal_direction","counts","mouse_movements","key_presses","question_order","question_id"
"11164","1752076359347","<p style='font-size:40px;line-height:1.25'><strong>Welcome to the experiment!</strong></p><p style='font-size:1.1em;line-height:1.25'>Thank you for participanting in our experiment again! You will be asked to play the Dysfunctional Ball Game again. We will briefly recap the rules before we start.</p><p style='font-size:1.1em;line-height:1.25'>Press <strong>Next</strong> to continue.</p>","0","custom-html-button-response","0","11170","0.0-0.0","32","1","2025-07-09 15:52:20","01610cd0009c79a99da7d0a3353eb402","197.184.125.0","Mozilla/5.0 (Windows NT 10.0; Win64; x64) AppleWebKit/537.36 (KHTML, like Gecko) Chrome/138.0.0.0 Safari/537.36","WebKit","Chrome","138.0.0.0","Windows","10.0","https://app.prolific.com/","en-GB,en-US;q=0.9,en;q=0.8","67215aa0a8e88c6751efc410","683db7602f5db6a34d12d064","686e902a6a55e34cfc0b88c7","1","67215aa0a8e88c6751efc410","1","2025-07-09T15:52:39.349Z","","","","","","","","","","","","","","","","","","","","","","","","","","","","","","","","","","","","","","","","","",""
"8502","","","","fullscreen","1","20691","0.0-1.0","32","1","2025-07-09 15:52:20","01610cd0009c79a99da7d0a3353eb402","197.184.125.0","Mozilla/5.0 (Windows NT 10.0; Win64; x64) AppleWebKit/537.36 (KHTML, like Gecko) Chrome/138.0.0.0 Safari/537.36","WebKit","Chrome","138.0.0.0","Windows","10.0","https://app.prolific.com/","en-GB,en-US;q=0.9,en;q=0.8","67215aa0a8e88c6751efc410","683db7602f5db6a34d12d064","686e902a6a55e34cfc0b88c7","1","67215aa0a8e88c6751efc410","1","","true","","","","","","","","","","","","","","","","","","","","","","","","","","","","","","","","","","","","","","","","",""
"3624","1752076372502","<p style='font-size:1.1em;line-height:1.25'>In the following, we will ask you a few questions relating to your feelings in the last 24 hours.<br></p><p style='font-size:1.1em;line-height:1.25'>Press the <strong>Next</strong> button to continue.</p>","0","custom-html-button-response","2","24325","0.0-2.0-0.0","32","1","2025-07-09 15:52:20","01610cd0009c79a99da7d0a3353eb402","197.184.125.0","Mozilla/5.0 (Windows NT 10.0; Win64; x64) AppleWebKit/537.36 (KHTML, like Gecko) Chrome/138.0.0.0 Safari/537.36","WebKit","Chrome","138.0.0.0","Windows","10.0","https://app.prolific.com/","en-GB,en-US;q=0.9,en;q=0.8","67215aa0a8e88c6751efc410","683db7602f5db6a34d12d064","686e902a6a55e34cfc0b88c7","1","67215aa0a8e88c6751efc410","1","2025-07-09T15:52:52.504Z","","","","","","","","","","","","","","","","","","","","","","","","","","","","","","","","","","","","","","","","","",""
"114518.40000000596","","","","survey-template","3","138864","0.0-2.0-1.0","32","1","2025-07-09 15:52:20","01610cd0009c79a99da7d0a3353eb402","197.184.125.0","Mozilla/5.0 (Windows NT 10.0; Win64; x64) AppleWebKit/537.36 (KHTML, like Gecko) Chrome/138.0.0.0 Safari/537.36","WebKit","Chrome","138.0.0.0","Windows","10.0","https://app.prolific.com/","en-GB,en-US;q=0.9,en;q=0.8","67215aa0a8e88c6751efc410","683db7602f5db6a34d12d064","686e902a6a55e34cfc0b88c7","1","67215aa0a8e88c6751efc410","1","2025-07-09T15:54:47.043Z","","{""Q01"":""1"",""Q02"":""0"",""Q03"":""1"",""Q04"":""1"",""Q05"":""1"",""Q06"":""1"",""Q07"":""1"",""Q08"":""1"",""Q09"":""0"",""Q10"":""0"",""Q11"":""1"",""Q12"":""0"",""Q13"":""5"",""Q14"":""1"",""Q15"":""0"",""Q16"":""0"",""Q17"":""1"",""Q18"":""0"",""Q19"":""0"",""Q20"":""0"",""Q21"":""0"",""Q22"":""1""}","[0,1,2,3,4,5,6,7,8,9,10,11,12,13,14,15,16,17,18,19,20,21]","[""Q01"",""Q02"",""Q03"",""Q04"",""Q05"",""Q06"",""Q07"",""Q08"",""Q09"",""Q10"",""Q11"",""Q11"",""Q12"",""Q13"",""Q14"",""Q15"",""Q16"",""Q17"",""Q18"",""Q19"",""Q20"",""Q21"",""Q22"",""Q22""]","[5811.200000017881,7202,10724.09999999404,13378,14690.5,20321.40000000596,21760.59999999404,29940.5,37546.20000001788,38970.30000001192,43076.40000000596,48499,61747,62993.90000000596,65051,69601.90000000596,70606.5,71325.09999999404,76101.59999999404,77697.90000000596,83994.09999999404,103722.70000001788,106131.09999999404,111177.59999999404]","[]","[0.7000000178813934,5811.200000017881,7202,10724.09999999404,13378,14690.5,20321.40000000596,21760.59999999404,29940.5,37546.20000001788,38970.30000001192,43076.40000000596,48499,61747,62993.90000000596,65051,69601.90000000596,70606.5,71325.09999999404,76101.59999999404,77697.90000000596,83994.09999999404,103722.70000001788,106131.09999999404,111177.59999999404,114498.20000001788]","0.5","0.47619047619047616","0","drsp","","","","","","","","","","","","","","","","","","","","","","","","","","","","","","",""
"12808.40000000596","","","","survey-template","4","151680","0.0-2.0-2.0","32","1","2025-07-09 15:52:20","01610cd0009c79a99da7d0a3353eb402","197.184.125.0","Mozilla/5.0 (Windows NT 10.0; Win64; x64) AppleWebKit/537.36 (KHTML, like Gecko) Chrome/138.0.0.0 Safari/537.36","WebKit","Chrome","138.0.0.0","Windows","10.0","https://app.prolific.com/","en-GB,en-US;q=0.9,en;q=0.8","67215aa0a8e88c6751efc410","683db7602f5db6a34d12d064","686e902a6a55e34cfc0b88c7","1","67215aa0a8e88c6751efc410","1","2025-07-09T15:54:59.860Z","","{""Q01"":""1"",""Q02"":""5"",""Q03"":""0""}","[0,1,2]","[""Q01"",""Q02"",""Q03""]","[5005.200000017881,7901.200000017881,11886.600000023842]","[]","[5005.200000017881,7901.200000017881,11886.600000023842,12805.600000023842]","0.6666666666666666","0.5","0","stress","","","","","","","","","","","","","","","","","","","","","","","","","","","","","","",""
"15107","","","","instructions","5","166790","0.0-3.0-0.0","32","1","2025-07-09 15:52:20","01610cd0009c79a99da7d0a3353eb402","197.184.125.0","Mozilla/5.0 (Windows NT 10.0; Win64; x64) AppleWebKit/537.36 (KHTML, like Gecko) Chrome/138.0.0.0 Safari/537.36","WebKit","Chrome","138.0.0.0","Windows","10.0","https://app.prolific.com/","en-GB,en-US;q=0.9,en;q=0.8","67215aa0a8e88c6751efc410","683db7602f5db6a34d12d064","686e902a6a55e34cfc0b88c7","1","67215aa0a8e88c6751efc410","1","","","","","","","","","","","","","[{""page_index"":0,""viewing_time"":15106}]","","","","","","","","","","","","","","","","","","","","","","","","","","","","","",""
"7530","","<p>Before you start with this game please answer the following three questions yourself. </p>
  <p>Through this game, we measure several aspects of your cognitive performance, such as reaction times, multi-tasking capabilities </p>
  <p>and the ability to assess the situation you are in.</p>
  <p></p>
  <p><b>How good do you usually are in such tasks?</b></p>","88","html-slider-response","6","174338","0.0-4.0-0.0","32","1","2025-07-09 15:52:20","01610cd0009c79a99da7d0a3353eb402","197.184.125.0","Mozilla/5.0 (Windows NT 10.0; Win64; x64) AppleWebKit/537.36 (KHTML, like Gecko) Chrome/138.0.0.0 Safari/537.36","WebKit","Chrome","138.0.0.0","Windows","10.0","https://app.prolific.com/","en-GB,en-US;q=0.9,en;q=0.8","67215aa0a8e88c6751efc410","683db7602f5db6a34d12d064","686e902a6a55e34cfc0b88c7","1","67215aa0a8e88c6751efc410","1","2025-07-09T15:55:22.517Z","","","","","","","","","","","PreSkillQ","","50","","","","","","","","","","","","","","","","","","","","","","","","","","","","",""
"7064","","<div style=""width:500px;"">
  <p>How well do you think you will perform in this task compared to other participants?</p>
  </div>","88","html-slider-response","7","181405","0.0-4.0-1.0","32","1","2025-07-09 15:52:20","01610cd0009c79a99da7d0a3353eb402","197.184.125.0","Mozilla/5.0 (Windows NT 10.0; Win64; x64) AppleWebKit/537.36 (KHTML, like Gecko) Chrome/138.0.0.0 Safari/537.36","WebKit","Chrome","138.0.0.0","Windows","10.0","https://app.prolific.com/","en-GB,en-US;q=0.9,en;q=0.8","67215aa0a8e88c6751efc410","683db7602f5db6a34d12d064","686e902a6a55e34cfc0b88c7","1","67215aa0a8e88c6751efc410","1","2025-07-09T15:55:29.584Z","","","","","","","","","","","PrePerfQ","","50","","","","","","","","","","","","","","","","","","","","","","","","","","","","",""
"11631","","<div style=""width:500px;"">
  <p>What best describes how you currently feel?</p>
  </div>","68","html-slider-response","8","193040","0.0-4.0-2.0","32","1","2025-07-09 15:52:20","01610cd0009c79a99da7d0a3353eb402","197.184.125.0","Mozilla/5.0 (Windows NT 10.0; Win64; x64) AppleWebKit/537.36 (KHTML, like Gecko) Chrome/138.0.0.0 Safari/537.36","WebKit","Chrome","138.0.0.0","Windows","10.0","https://app.prolific.com/","en-GB,en-US;q=0.9,en;q=0.8","67215aa0a8e88c6751efc410","683db7602f5db6a34d12d064","686e902a6a55e34cfc0b88c7","1","67215aa0a8e88c6751efc410","1","2025-07-09T15:55:41.219Z","","","","","","","","","","","PreMotivationQ","","50","","","","","","","","","","","","","","","","","","","","","","","","","","","","",""
"","","","","ctl-task-cpt","9","217906","0.0-5.0-0.0","32","1","2025-07-09 15:52:20","01610cd0009c79a99da7d0a3353eb402","197.184.125.0","Mozilla/5.0 (Windows NT 10.0; Win64; x64) AppleWebKit/537.36 (KHTML, like Gecko) Chrome/138.0.0.0 Safari/537.36","WebKit","Chrome","138.0.0.0","Windows","10.0","https://app.prolific.com/","en-GB,en-US;q=0.9,en;q=0.8","67215aa0a8e88c6751efc410","683db7602f5db6a34d12d064","686e902a6a55e34cfc0b88c7","1","67215aa0a8e88c6751efc410","1","2025-07-09T15:56:06.085Z","","","","","","","","","","","","","","win-only","1","g1:NE,g2:SW","1","1","0","202490.6","2270.4","7273.5","21839.4","1","4","4","6","2","4","4","4","0","0.030303030303030304","2121.5","3000","1020","[""down"",""left""]","{""num_key_presses"":6,""num_perfect"":6,""num_errors"":0,""num_randdir"":0,""num_randdir_good_moves"":0,""num_whilered"":0,""num_whileblue"":0,""num_blue"":0,""num_good_moves"":6}","[296.22232142857143,297.12857142857143,4.8,296.22232142857143,297.12857142857143,101.8,296.22232142857143,297.12857142857143,202.6,296.22232142857143,297.12857142857143,319.1,296.22232142857143,297.12857142857143,419.5,296.22232142857143,297.12857142857143,521,296.22232142857143,297.12857142857143,621.3,296.22232142857143,297.12857142857143,721.4,296.22232142857143,297.12857142857143,830.9,296.22232142857143,297.12857142857143,932.2,269.22232142857143,328.12857142857143,1038.1,169.22232142857143,400.12857142857143,1143.3,127.22232142857143,426.12857142857143,1247.3,74.22232142857143,469.12857142857143,1348.3,68.22232142857143,500.12857142857143,1457.6,59.222321428571426,525.1285714285714,1560.6,53.222321428571426,533.1285714285714,1666.3,53.222321428571426,533.1285714285714,1766.3,53.222321428571426,533.1285714285714,1871.5,53.222321428571426,533.1285714285714,1979.9,53.222321428571426,533.1285714285714,2086.7,53.222321428571426,533.1285714285714,2186.7,53.222321428571426,533.1285714285714,2299.3,53.222321428571426,533.1285714285714,2400.7,53.222321428571426,533.1285714285714,2500.9,53.222321428571426,533.1285714285714,2602.2,53.222321428571426,533.1285714285714,2713.4,53.222321428571426,533.1285714285714,2816.8,53.222321428571426,533.1285714285714,2916.9,53.222321428571426,533.1285714285714,3023.3,53.222321428571426,533.1285714285714,3128.3,53.222321428571426,533.1285714285714,3233.7,53.222321428571426,533.1285714285714,3336.6,53.222321428571426,533.1285714285714,3442.7,53.222321428571426,533.1285714285714,3547.2,53.222321428571426,533.1285714285714,3651.6,53.222321428571426,533.1285714285714,3751.8,53.222321428571426,533.1285714285714,3860.6,53.222321428571426,533.1285714285714,3963.5,53.222321428571426,533.1285714285714,4068,53.222321428571426,533.1285714285714,4171,53.222321428571426,533.1285714285714,4275.5,53.222321428571426,533.1285714285714,4378.1,53.222321428571426,533.1285714285714,4483.2,53.222321428571426,533.1285714285714,4586.3,53.222321428571426,533.1285714285714,4686.4,53.222321428571426,533.1285714285714,4786.6,53.222321428571426,533.1285714285714,4897.1]","[1590.3,1590.3,1000,0,590.3,""smooth"",""down"",""down"",""good_move"",3607.6,2011.6,1651.3,1596.1,360.2,""smooth"",""down"",""down"",""good_move"",5876.2,2266.8,1858.5,3609.5,408.2,""smooth"",""down"",""down"",""good_move"",8064.1,2186.6,1772.9,5877.7,413.5,""smooth"",""left"",""left"",""good_move"",11611.9,3546,3137.8,8066,408.2,""smooth"",""left"",""left"",""good_move"",14445.5,2831.3,2473.8,11614.4,357.3,""smooth"",""left"",""left"",""good_move""]","",""
"6118","","<div style=""width:500px;"">
  <p>What determined the result of this run?</p>
  </div>","100","html-slider-response","10","224027","0.0-5.0-1.0","32","1","2025-07-09 15:52:20","01610cd0009c79a99da7d0a3353eb402","197.184.125.0","Mozilla/5.0 (Windows NT 10.0; Win64; x64) AppleWebKit/537.36 (KHTML, like Gecko) Chrome/138.0.0.0 Safari/537.36","WebKit","Chrome","138.0.0.0","Windows","10.0","https://app.prolific.com/","en-GB,en-US;q=0.9,en;q=0.8","67215aa0a8e88c6751efc410","683db7602f5db6a34d12d064","686e902a6a55e34cfc0b88c7","1","67215aa0a8e88c6751efc410","1","2025-07-09T15:56:12.206Z","","","","","","","","","","","AttribQ","","50","","","","","","","","","","","","","","","","","","","","","","","","","","","","",""
"4050","","<div style=""width:500px;"">
  <p>How much control did you have over the ball?</p>
  </div>","100","html-slider-response","11","228086","0.0-5.0-2.0","32","1","2025-07-09 15:52:20","01610cd0009c79a99da7d0a3353eb402","197.184.125.0","Mozilla/5.0 (Windows NT 10.0; Win64; x64) AppleWebKit/537.36 (KHTML, like Gecko) Chrome/138.0.0.0 Safari/537.36","WebKit","Chrome","138.0.0.0","Windows","10.0","https://app.prolific.com/","en-GB,en-US;q=0.9,en;q=0.8","67215aa0a8e88c6751efc410","683db7602f5db6a34d12d064","686e902a6a55e34cfc0b88c7","1","67215aa0a8e88c6751efc410","1","2025-07-09T15:56:16.265Z","","","","","","","","","","","ControlQ","","50","","","","","","","","","","","","","","","","","","","","","","","","","","","","",""
"10314","","<div style=""width:500px;"">
  <p>How would you describe your current emotional state?</p>
  </div>","22","html-slider-response","12","238402","0.0-5.0-3.0","32","1","2025-07-09 15:52:20","01610cd0009c79a99da7d0a3353eb402","197.184.125.0","Mozilla/5.0 (Windows NT 10.0; Win64; x64) AppleWebKit/537.36 (KHTML, like Gecko) Chrome/138.0.0.0 Safari/537.36","WebKit","Chrome","138.0.0.0","Windows","10.0","https://app.prolific.com/","en-GB,en-US;q=0.9,en;q=0.8","67215aa0a8e88c6751efc410","683db7602f5db6a34d12d064","686e902a6a55e34cfc0b88c7","1","67215aa0a8e88c6751efc410","1","2025-07-09T15:56:26.581Z","","","","","","","","","","","StressQ","","50","","","","","","","","","","","","","","","","","","","","","","","","","","","","",""
"4211","","<div style=""width:500px;"">
  <p>What best describes how you currently feel?</p>
  </div>","84","html-slider-response","13","242616","0.0-5.0-4.0","32","1","2025-07-09 15:52:20","01610cd0009c79a99da7d0a3353eb402","197.184.125.0","Mozilla/5.0 (Windows NT 10.0; Win64; x64) AppleWebKit/537.36 (KHTML, like Gecko) Chrome/138.0.0.0 Safari/537.36","WebKit","Chrome","138.0.0.0","Windows","10.0","https://app.prolific.com/","en-GB,en-US;q=0.9,en;q=0.8","67215aa0a8e88c6751efc410","683db7602f5db6a34d12d064","686e902a6a55e34cfc0b88c7","1","67215aa0a8e88c6751efc410","1","2025-07-09T15:56:30.795Z","","","","","","","","","","","MotivationQ","","50","","","","","","","","","","","","","","","","","","","","","","","","","","","","",""
"","","","","ctl-task-cpt","14","267442","0.0-5.0-0.1","32","1","2025-07-09 15:52:20","01610cd0009c79a99da7d0a3353eb402","197.184.125.0","Mozilla/5.0 (Windows NT 10.0; Win64; x64) AppleWebKit/537.36 (KHTML, like Gecko) Chrome/138.0.0.0 Safari/537.36","WebKit","Chrome","138.0.0.0","Windows","10.0","https://app.prolific.com/","en-GB,en-US;q=0.9,en;q=0.8","67215aa0a8e88c6751efc410","683db7602f5db6a34d12d064","686e902a6a55e34cfc0b88c7","1","67215aa0a8e88c6751efc410","1","2025-07-09T15:56:55.621Z","","","","","","","","","","","","","","win-only","1","g1:NE,g2:SW","0.9","2","0","252053.7","1357.7","6369.7","21799.9","1","4","8","6","2","8","8","12","4","0.09090909090909091","1080.4","3000","1225","[""down"",""left""]","{""num_key_presses"":6,""num_perfect"":6,""num_errors"":0,""num_randdir"":0,""num_randdir_good_moves"":0,""num_whilered"":0,""num_whileblue"":0,""num_blue"":0,""num_good_moves"":6}","[296.22232142857143,294.12857142857143,1.8,296.22232142857143,294.12857142857143,104.5,296.22232142857143,294.12857142857143,208.7,296.22232142857143,294.12857142857143,311.9,299.22232142857143,300.12857142857143,420.5,230.22232142857143,396.12857142857143,540.5,140.22232142857143,475.12857142857143,644.6,125.22232142857143,501.12857142857143,751.4,93.22232142857143,529.1285714285714,855.1,71.22232142857143,534.1285714285714,956.5,71.22232142857143,535.1285714285714,1058.1,71.22232142857143,535.1285714285714,1158.2,71.22232142857143,535.1285714285714,1260.1,71.22232142857143,535.1285714285714,1365.3,71.22232142857143,535.1285714285714,1469.6,71.22232142857143,535.1285714285714,1571.6,71.22232142857143,535.1285714285714,1681.5,71.22232142857143,535.1285714285714,1784.9,71.22232142857143,535.1285714285714,1885,71.22232142857143,535.1285714285714,1993.7,71.22232142857143,535.1285714285714,2097.1,71.22232142857143,535.1285714285714,2199.7,71.22232142857143,535.1285714285714,2311,71.22232142857143,535.1285714285714,2430.1,71.22232142857143,535.1285714285714,2534.2,71.22232142857143,535.1285714285714,2634.4,71.22232142857143,535.1285714285714,2737.5,71.22232142857143,535.1285714285714,2840.6,71.22232142857143,535.1285714285714,2947.8,71.22232142857143,535.1285714285714,3048.2,71.22232142857143,535.1285714285714,3148.7,71.22232142857143,535.1285714285714,3249.8,71.22232142857143,535.1285714285714,3364.6,71.22232142857143,535.1285714285714,3469.4,71.22232142857143,535.1285714285714,3582,71.22232142857143,535.1285714285714,3684.1,71.22232142857143,535.1285714285714,3785.9,71.22232142857143,535.1285714285714,3897.5,71.22232142857143,535.1285714285714,3999.9,71.22232142857143,535.1285714285714,4107.5,71.22232142857143,535.1285714285714,4209.8,71.22232142857143,535.1285714285714,4314.4,71.22232142857143,535.1285714285714,4422.1,71.22232142857143,535.1285714285714,4531.4,71.22232142857143,535.1285714285714,4633.9,71.22232142857143,535.1285714285714,4734.4,71.22232142857143,535.1285714285714,4844.8,71.22232142857143,535.1285714285714,4945.4]","[1388.8,1388.8,1000,0,388.8,""smooth"",""down"",""down"",""good_move"",4003.1,2610.2,2196.6,1392.9,413.6,""smooth"",""down"",""down"",""good_move"",6603.3,2598.2,2081.1,4005.2,517,""smooth"",""down"",""down"",""good_move"",9153.1,2544.5,2193.6,6608.6,350.9,""smooth"",""left"",""left"",""good_move"",12419.6,3264.4,2905.7,9155.2,358.7,""smooth"",""left"",""left"",""good_move"",15301.9,2880.1,2526.4,12421.8,353.7,""smooth"",""left"",""left"",""good_move""]","",""
"6297","","<div style=""width:500px;"">
  <p>What determined the result of this run?</p>
  </div>","100","html-slider-response","15","273742","0.0-5.0-1.1","32","1","2025-07-09 15:52:20","01610cd0009c79a99da7d0a3353eb402","197.184.125.0","Mozilla/5.0 (Windows NT 10.0; Win64; x64) AppleWebKit/537.36 (KHTML, like Gecko) Chrome/138.0.0.0 Safari/537.36","WebKit","Chrome","138.0.0.0","Windows","10.0","https://app.prolific.com/","en-GB,en-US;q=0.9,en;q=0.8","67215aa0a8e88c6751efc410","683db7602f5db6a34d12d064","686e902a6a55e34cfc0b88c7","1","67215aa0a8e88c6751efc410","1","2025-07-09T15:57:01.921Z","","","","","","","","","","","AttribQ","","50","","","","","","","","","","","","","","","","","","","","","","","","","","","","",""
"6140","","<div style=""width:500px;"">
  <p>How much control did you have over the ball?</p>
  </div>","100","html-slider-response","16","279887","0.0-5.0-2.1","32","1","2025-07-09 15:52:20","01610cd0009c79a99da7d0a3353eb402","197.184.125.0","Mozilla/5.0 (Windows NT 10.0; Win64; x64) AppleWebKit/537.36 (KHTML, like Gecko) Chrome/138.0.0.0 Safari/537.36","WebKit","Chrome","138.0.0.0","Windows","10.0","https://app.prolific.com/","en-GB,en-US;q=0.9,en;q=0.8","67215aa0a8e88c6751efc410","683db7602f5db6a34d12d064","686e902a6a55e34cfc0b88c7","1","67215aa0a8e88c6751efc410","1","2025-07-09T15:57:08.066Z","","","","","","","","","","","ControlQ","","50","","","","","","","","","","","","","","","","","","","","","","","","","","","","",""
"3162","","<div style=""width:500px;"">
  <p>How would you describe your current emotional state?</p>
  </div>","17","html-slider-response","17","283054","0.0-5.0-3.1","32","1","2025-07-09 15:52:20","01610cd0009c79a99da7d0a3353eb402","197.184.125.0","Mozilla/5.0 (Windows NT 10.0; Win64; x64) AppleWebKit/537.36 (KHTML, like Gecko) Chrome/138.0.0.0 Safari/537.36","WebKit","Chrome","138.0.0.0","Windows","10.0","https://app.prolific.com/","en-GB,en-US;q=0.9,en;q=0.8","67215aa0a8e88c6751efc410","683db7602f5db6a34d12d064","686e902a6a55e34cfc0b88c7","1","67215aa0a8e88c6751efc410","1","2025-07-09T15:57:11.233Z","","","","","","","","","","","StressQ","","50","","","","","","","","","","","","","","","","","","","","","","","","","","","","",""
"2472","","<div style=""width:500px;"">
  <p>What best describes how you currently feel?</p>
  </div>","90","html-slider-response","18","285529","0.0-5.0-4.1","32","1","2025-07-09 15:52:20","01610cd0009c79a99da7d0a3353eb402","197.184.125.0","Mozilla/5.0 (Windows NT 10.0; Win64; x64) AppleWebKit/537.36 (KHTML, like Gecko) Chrome/138.0.0.0 Safari/537.36","WebKit","Chrome","138.0.0.0","Windows","10.0","https://app.prolific.com/","en-GB,en-US;q=0.9,en;q=0.8","67215aa0a8e88c6751efc410","683db7602f5db6a34d12d064","686e902a6a55e34cfc0b88c7","1","67215aa0a8e88c6751efc410","1","2025-07-09T15:57:13.708Z","","","","","","","","","","","MotivationQ","","50","","","","","","","","","","","","","","","","","","","","","","","","","","","","",""
"","","","","ctl-task-cpt","19","320684","0.0-5.0-0.2","32","1","2025-07-09 15:52:20","01610cd0009c79a99da7d0a3353eb402","197.184.125.0","Mozilla/5.0 (Windows NT 10.0; Win64; x64) AppleWebKit/537.36 (KHTML, like Gecko) Chrome/138.0.0.0 Safari/537.36","WebKit","Chrome","138.0.0.0","Windows","10.0","https://app.prolific.com/","en-GB,en-US;q=0.9,en;q=0.8","67215aa0a8e88c6751efc410","683db7602f5db6a34d12d064","686e902a6a55e34cfc0b88c7","1","67215aa0a8e88c6751efc410","1","2025-07-09T15:57:48.864Z","","","","","","","","","","","","","","win-only","2","g1:SE,g2:NW","0.8","3","0","294973.3","4716.4","9729.2","32132.2","1","4","8","6","2","8","8","20","12","0.15151515151515152","1226.1","3000","735","[""left"",""up""]","{""num_key_presses"":8,""num_perfect"":6,""num_errors"":0,""num_randdir"":2,""num_randdir_good_moves"":1,""num_whilered"":0,""num_whileblue"":0,""num_blue"":0,""num_good_moves"":7}","[300.22232142857143,297.12857142857143,1.8,300.22232142857143,297.12857142857143,100.2,300.22232142857143,297.12857142857143,215.8,300.22232142857143,297.12857142857143,316.2,300.22232142857143,297.12857142857143,424.9,291.22232142857143,267.12857142857143,526.2,165.22232142857143,143.12857142857143,628.5,7.222321428571426,34.128571428571426,730.9,8.222321428571426,34.128571428571426,837.4,62.222321428571426,64.12857142857143,942.2,62.222321428571426,64.12857142857143,1049.3,62.222321428571426,64.12857142857143,1152.8,62.222321428571426,64.12857142857143,1267.1,62.222321428571426,64.12857142857143,1369.8,62.222321428571426,64.12857142857143,1475.2,326.22232142857143,181.12857142857143,1583.6,422.22232142857143,244.12857142857143,1696.3,610.2223214285714,337.12857142857143,1796.6,685.2223214285714,388.12857142857143,1903.6,685.2223214285714,388.12857142857143,2005.7,685.2223214285714,388.12857142857143,2109.9,685.2223214285714,388.12857142857143,2213.8,978.2223214285714,-54.871428571428574,2324.8,978.2223214285714,-83.87142857142857,2435.2,978.2223214285714,-83.87142857142857,2548.6,978.2223214285714,-83.87142857142857,2652,978.2223214285714,-83.87142857142857,2762.2,978.2223214285714,-83.87142857142857,2867.2,978.2223214285714,-83.87142857142857,2982.3,978.2223214285714,-83.87142857142857,3086.7,978.2223214285714,-83.87142857142857,3190.9,978.2223214285714,-83.87142857142857,3296.2,978.2223214285714,-83.87142857142857,3406.9,978.2223214285714,-83.87142857142857,3510.7,978.2223214285714,-83.87142857142857,3615,978.2223214285714,-83.87142857142857,3726.8,978.2223214285714,-83.87142857142857,3845.5,978.2223214285714,-83.87142857142857,3951.5,978.2223214285714,-83.87142857142857,4057.2,978.2223214285714,-83.87142857142857,4167.3,978.2223214285714,-83.87142857142857,4275.1,978.2223214285714,-83.87142857142857,4384.8,978.2223214285714,-83.87142857142857,4486.5,978.2223214285714,-83.87142857142857,4599.8,978.2223214285714,-83.87142857142857,4699.9,978.2223214285714,-83.87142857142857,4805.3,978.2223214285714,-83.87142857142857,4907.9]","[1503.1,1503.1,1000,0,503.1,""smooth"",""up"",""up"",""good_move"",4548.8,3041.9,2663.5,1506.9,378.4,""oops"",""left"",""down"",""bad_move"",7618.4,3067.6,2605,4550.9,462.6,""oops"",""left"",""up"",""good_move"",11127,3507.7,3104.8,7619.5,402.9,""smooth"",""left"",""left"",""good_move"",13970.4,2837.1,2443.8,11133.3,393.3,""smooth"",""left"",""left"",""good_move"",16319.7,2347.2,1870.2,13972.5,477,""smooth"",""left"",""left"",""good_move"",19054.5,2733,2341,16321.5,392,""smooth"",""up"",""up"",""good_move"",22265.7,3209,2805,19057.1,403.6,""smooth"",""up"",""up"",""good_move""]","",""
"5773","","<div style=""width:500px;"">
  <p>What determined the result of this run?</p>
  </div>","99","html-slider-response","20","326465","0.0-5.0-1.2","32","1","2025-07-09 15:52:20","01610cd0009c79a99da7d0a3353eb402","197.184.125.0","Mozilla/5.0 (Windows NT 10.0; Win64; x64) AppleWebKit/537.36 (KHTML, like Gecko) Chrome/138.0.0.0 Safari/537.36","WebKit","Chrome","138.0.0.0","Windows","10.0","https://app.prolific.com/","en-GB,en-US;q=0.9,en;q=0.8","67215aa0a8e88c6751efc410","683db7602f5db6a34d12d064","686e902a6a55e34cfc0b88c7","1","67215aa0a8e88c6751efc410","1","2025-07-09T15:57:54.644Z","","","","","","","","","","","AttribQ","","50","","","","","","","","","","","","","","","","","","","","","","","","","","","","",""
"5985","","<div style=""width:500px;"">
  <p>How much control did you have over the ball?</p>
  </div>","93","html-slider-response","21","332457","0.0-5.0-2.2","32","1","2025-07-09 15:52:20","01610cd0009c79a99da7d0a3353eb402","197.184.125.0","Mozilla/5.0 (Windows NT 10.0; Win64; x64) AppleWebKit/537.36 (KHTML, like Gecko) Chrome/138.0.0.0 Safari/537.36","WebKit","Chrome","138.0.0.0","Windows","10.0","https://app.prolific.com/","en-GB,en-US;q=0.9,en;q=0.8","67215aa0a8e88c6751efc410","683db7602f5db6a34d12d064","686e902a6a55e34cfc0b88c7","1","67215aa0a8e88c6751efc410","1","2025-07-09T15:58:00.636Z","","","","","","","","","","","ControlQ","","50","","","","","","","","","","","","","","","","","","","","","","","","","","","","",""
"3769","","<div style=""width:500px;"">
  <p>How would you describe your current emotional state?</p>
  </div>","33","html-slider-response","22","336231","0.0-5.0-3.2","32","1","2025-07-09 15:52:20","01610cd0009c79a99da7d0a3353eb402","197.184.125.0","Mozilla/5.0 (Windows NT 10.0; Win64; x64) AppleWebKit/537.36 (KHTML, like Gecko) Chrome/138.0.0.0 Safari/537.36","WebKit","Chrome","138.0.0.0","Windows","10.0","https://app.prolific.com/","en-GB,en-US;q=0.9,en;q=0.8","67215aa0a8e88c6751efc410","683db7602f5db6a34d12d064","686e902a6a55e34cfc0b88c7","1","67215aa0a8e88c6751efc410","1","2025-07-09T15:58:04.410Z","","","","","","","","","","","StressQ","","50","","","","","","","","","","","","","","","","","","","","","","","","","","","","",""
"2593","","<div style=""width:500px;"">
  <p>What best describes how you currently feel?</p>
  </div>","80","html-slider-response","23","338831","0.0-5.0-4.2","32","1","2025-07-09 15:52:20","01610cd0009c79a99da7d0a3353eb402","197.184.125.0","Mozilla/5.0 (Windows NT 10.0; Win64; x64) AppleWebKit/537.36 (KHTML, like Gecko) Chrome/138.0.0.0 Safari/537.36","WebKit","Chrome","138.0.0.0","Windows","10.0","https://app.prolific.com/","en-GB,en-US;q=0.9,en;q=0.8","67215aa0a8e88c6751efc410","683db7602f5db6a34d12d064","686e902a6a55e34cfc0b88c7","1","67215aa0a8e88c6751efc410","1","2025-07-09T15:58:07.010Z","","","","","","","","","","","MotivationQ","","50","","","","","","","","","","","","","","","","","","","","","","","","","","","","",""
"","","","","ctl-task-cpt","24","390049","0.0-5.0-0.3","32","1","2025-07-09 15:52:20","01610cd0009c79a99da7d0a3353eb402","197.184.125.0","Mozilla/5.0 (Windows NT 10.0; Win64; x64) AppleWebKit/537.36 (KHTML, like Gecko) Chrome/138.0.0.0 Safari/537.36","WebKit","Chrome","138.0.0.0","Windows","10.0","https://app.prolific.com/","en-GB,en-US;q=0.9,en;q=0.8","67215aa0a8e88c6751efc410","683db7602f5db6a34d12d064","686e902a6a55e34cfc0b88c7","1","67215aa0a8e88c6751efc410","1","2025-07-09T15:58:58.228Z","","","","","","","","","","","","","","win-only","1","g1:NE,g2:SW","0.7","4","0","348271.8","1191.1","6202.5","48189","1","4","4","6","2","4","4","24","20","0.18181818181818182","1782.8","3000","325","[""down"",""left""]","{""num_key_presses"":10,""num_perfect"":7,""num_errors"":0,""num_randdir"":3,""num_randdir_good_moves"":1,""num_whilered"":0,""num_whileblue"":0,""num_blue"":4,""num_good_moves"":8}","[294.22232142857143,294.12857142857143,1.1,294.22232142857143,294.12857142857143,100.7,294.22232142857143,294.12857142857143,208.1,294.22232142857143,294.12857142857143,320,294.22232142857143,294.12857142857143,423.5,294.22232142857143,294.12857142857143,526.2,294.22232142857143,294.12857142857143,631.9,294.22232142857143,294.12857142857143,736.2,250.22232142857143,356.12857142857143,841.3,154.22232142857143,471.12857142857143,944.5,87.22232142857143,532.1285714285714,1044.7,67.22232142857143,550.1285714285714,1145.3,67.22232142857143,550.1285714285714,1246.1,67.22232142857143,550.1285714285714,1352.3,67.22232142857143,550.1285714285714,1456,67.22232142857143,550.1285714285714,1561.2,67.22232142857143,550.1285714285714,1669.8,67.22232142857143,550.1285714285714,1771.6,67.22232142857143,550.1285714285714,1877.1,68.22232142857143,550.1285714285714,1977.2,68.22232142857143,550.1285714285714,2077.5,68.22232142857143,550.1285714285714,2184.7,93.22232142857143,536.1285714285714,2289.8,350.22232142857143,421.12857142857143,2392.4,634.2223214285714,359.12857142857143,2506.4,726.2223214285714,321.12857142857143,2608,757.2223214285714,296.12857142857143,2715.7,811.2223214285714,257.12857142857143,2827.4,816.2223214285714,252.12857142857143,2936.4,815.2223214285714,252.12857142857143,3043.5,815.2223214285714,252.12857142857143,3148.9,815.2223214285714,252.12857142857143,3249.4,815.2223214285714,252.12857142857143,3353.2,815.2223214285714,252.12857142857143,3454.9,815.2223214285714,252.12857142857143,3555.9,815.2223214285714,252.12857142857143,3666.6,815.2223214285714,252.12857142857143,3768.2,815.2223214285714,252.12857142857143,3873.5,815.2223214285714,252.12857142857143,3975.9,815.2223214285714,252.12857142857143,4081.1,815.2223214285714,252.12857142857143,4185.3,815.2223214285714,252.12857142857143,4285.6,815.2223214285714,252.12857142857143,4399.6,815.2223214285714,252.12857142857143,4516.9,815.2223214285714,252.12857142857143,4618.4,815.2223214285714,252.12857142857143,4718.7,815.2223214285714,252.12857142857143,4827.3,815.2223214285714,252.12857142857143,4936.3]","[5488.9,5488.8,2798,2030.6,660.3,""smooth"",""down"",""down"",""good_move"",8148.9,2658.1,2217.8,5490.8,440.3,""smooth"",""down"",""down"",""good_move"",10919.6,2766.7,2299.2,8152.9,467.5,""smooth"",""down"",""down"",""good_move"",13637.6,2716.1,2241.6,10921.5,474.5,""oops"",""left"",""up"",""bad_move"",16675.4,3035.6,2607.3,13639.8,428.3,""smooth"",""left"",""left"",""good_move"",19228.9,2541.8,2073.3,16687.1,468.5,""smooth"",""left"",""left"",""good_move"",26063.5,6822.9,2010.2,23580.1,473.2,""oops"",""left"",""down"",""good_move"",32174.6,6109.9,2335.8,29371.5,467.4,""oops"",""left"",""right"",""bad_move"",39204.1,7024.5,2886.4,35841.2,476.5,""smooth"",""left"",""left"",""good_move"",41851.5,2645.1,2103.9,39206.4,541.2,""smooth"",""left"",""left"",""good_move""]","",""
"7601","","<div style=""width:500px;"">
  <p>What determined the result of this run?</p>
  </div>","81","html-slider-response","25","397658","0.0-5.0-1.3","32","1","2025-07-09 15:52:20","01610cd0009c79a99da7d0a3353eb402","197.184.125.0","Mozilla/5.0 (Windows NT 10.0; Win64; x64) AppleWebKit/537.36 (KHTML, like Gecko) Chrome/138.0.0.0 Safari/537.36","WebKit","Chrome","138.0.0.0","Windows","10.0","https://app.prolific.com/","en-GB,en-US;q=0.9,en;q=0.8","67215aa0a8e88c6751efc410","683db7602f5db6a34d12d064","686e902a6a55e34cfc0b88c7","1","67215aa0a8e88c6751efc410","1","2025-07-09T15:59:05.837Z","","","","","","","","","","","AttribQ","","50","","","","","","","","","","","","","","","","","","","","","","","","","","","","",""
"2626","","<div style=""width:500px;"">
  <p>How much control did you have over the ball?</p>
  </div>","84","html-slider-response","26","400289","0.0-5.0-2.3","32","1","2025-07-09 15:52:20","01610cd0009c79a99da7d0a3353eb402","197.184.125.0","Mozilla/5.0 (Windows NT 10.0; Win64; x64) AppleWebKit/537.36 (KHTML, like Gecko) Chrome/138.0.0.0 Safari/537.36","WebKit","Chrome","138.0.0.0","Windows","10.0","https://app.prolific.com/","en-GB,en-US;q=0.9,en;q=0.8","67215aa0a8e88c6751efc410","683db7602f5db6a34d12d064","686e902a6a55e34cfc0b88c7","1","67215aa0a8e88c6751efc410","1","2025-07-09T15:59:08.468Z","","","","","","","","","","","ControlQ","","50","","","","","","","","","","","","","","","","","","","","","","","","","","","","",""
"2852","","<div style=""width:500px;"">
  <p>How would you describe your current emotional state?</p>
  </div>","28","html-slider-response","27","403144","0.0-5.0-3.3","32","1","2025-07-09 15:52:20","01610cd0009c79a99da7d0a3353eb402","197.184.125.0","Mozilla/5.0 (Windows NT 10.0; Win64; x64) AppleWebKit/537.36 (KHTML, like Gecko) Chrome/138.0.0.0 Safari/537.36","WebKit","Chrome","138.0.0.0","Windows","10.0","https://app.prolific.com/","en-GB,en-US;q=0.9,en;q=0.8","67215aa0a8e88c6751efc410","683db7602f5db6a34d12d064","686e902a6a55e34cfc0b88c7","1","67215aa0a8e88c6751efc410","1","2025-07-09T15:59:11.324Z","","","","","","","","","","","StressQ","","50","","","","","","","","","","","","","","","","","","","","","","","","","","","","",""
"4433","","<div style=""width:500px;"">
  <p>What best describes how you currently feel?</p>
  </div>","74","html-slider-response","28","407584","0.0-5.0-4.3","32","1","2025-07-09 15:52:20","01610cd0009c79a99da7d0a3353eb402","197.184.125.0","Mozilla/5.0 (Windows NT 10.0; Win64; x64) AppleWebKit/537.36 (KHTML, like Gecko) Chrome/138.0.0.0 Safari/537.36","WebKit","Chrome","138.0.0.0","Windows","10.0","https://app.prolific.com/","en-GB,en-US;q=0.9,en;q=0.8","67215aa0a8e88c6751efc410","683db7602f5db6a34d12d064","686e902a6a55e34cfc0b88c7","1","67215aa0a8e88c6751efc410","1","2025-07-09T15:59:15.763Z","","","","","","","","","","","MotivationQ","","50","","","","","","","","","","","","","","","","","","","","","","","","","","","","",""
"","","","","ctl-task-cpt","29","495540","0.0-5.0-0.4","32","1","2025-07-09 15:52:20","01610cd0009c79a99da7d0a3353eb402","197.184.125.0","Mozilla/5.0 (Windows NT 10.0; Win64; x64) AppleWebKit/537.36 (KHTML, like Gecko) Chrome/138.0.0.0 Safari/537.36","WebKit","Chrome","138.0.0.0","Windows","10.0","https://app.prolific.com/","en-GB,en-US;q=0.9,en;q=0.8","67215aa0a8e88c6751efc410","683db7602f5db6a34d12d064","686e902a6a55e34cfc0b88c7","1","67215aa0a8e88c6751efc410","1","2025-07-09T16:00:43.719Z","","","","","","","","","","","","","","win-only","3","g1:SW,g2:NE","0.6","5","0","417029.1","1364.5","6380.6","84070.7","1","4","4","6","2","4","4","28","24","0.21212121212121213","971.2","3000","270","[""up"",""right""]","{""num_key_presses"":16,""num_perfect"":8,""num_errors"":0,""num_randdir"":8,""num_randdir_good_moves"":3,""num_whilered"":0,""num_whileblue"":0,""num_blue"":9,""num_good_moves"":11}","[300.22232142857143,303.12857142857143,0.1,300.22232142857143,303.12857142857143,104.5,300.22232142857143,303.12857142857143,213.7,300.22232142857143,303.12857142857143,321,300.22232142857143,303.12857142857143,426,378.22232142857143,170.12857142857143,540.8,427.22232142857143,77.12857142857143,648.3,510.22232142857143,52.128571428571426,750.7,530.2223214285714,52.128571428571426,864.2,530.2223214285714,52.128571428571426,984.3,530.2223214285714,52.128571428571426,1087.1,530.2223214285714,52.128571428571426,1196.6,569.2223214285714,63.128571428571426,1314.2,635.2223214285714,93.12857142857143,1423.8,732.2223214285714,138.12857142857143,1543.4,736.2223214285714,139.12857142857143,1647.2,736.2223214285714,139.12857142857143,1752.1,736.2223214285714,139.12857142857143,1865.1,736.2223214285714,139.12857142857143,1972.4,736.2223214285714,139.12857142857143,2073.2,736.2223214285714,139.12857142857143,2185.7,736.2223214285714,139.12857142857143,2292.7,736.2223214285714,139.12857142857143,2406.6,736.2223214285714,139.12857142857143,2509.8,736.2223214285714,139.12857142857143,2619.1,736.2223214285714,139.12857142857143,2727.3,736.2223214285714,139.12857142857143,2839.1,736.2223214285714,139.12857142857143,2951.3,736.2223214285714,139.12857142857143,3054,736.2223214285714,139.12857142857143,3159.4,736.2223214285714,139.12857142857143,3259.8,736.2223214285714,139.12857142857143,3372.8,736.2223214285714,139.12857142857143,3475.9,736.2223214285714,139.12857142857143,3581.4,736.2223214285714,139.12857142857143,3682.1,736.2223214285714,139.12857142857143,3790.1,736.2223214285714,139.12857142857143,3898.4,736.2223214285714,139.12857142857143,3999.4,736.2223214285714,139.12857142857143,4108.6,736.2223214285714,139.12857142857143,4216.1,736.2223214285714,139.12857142857143,4322.3,736.2223214285714,139.12857142857143,4430.1,736.2223214285714,139.12857142857143,4530.2,736.2223214285714,139.12857142857143,4632.7,736.2223214285714,139.12857142857143,4738,736.2223214285714,139.12857142857143,4840.8,736.2223214285714,139.12857142857143,4946.3]","[1503.9,1503.9,1000,0,503.9,""smooth"",""up"",""up"",""good_move"",8397.7,6892.1,2227.6,5667.3,502.8,""oops"",""up"",""down"",""bad_move"",11865.6,3465.2,2684.1,8400.4,781.1,""oops"",""up"",""left"",""bad_move"",19071.6,7202.7,2593,15933.4,545.2,""smooth"",""up"",""up"",""good_move"",25514.9,6432.7,2438.9,22553.4,522.6,""smooth"",""up"",""up"",""good_move"",28438.2,2922,2461.9,25516.3,460,""smooth"",""up"",""up"",""good_move"",34996.6,6556.2,2518.1,32053.7,424.8,""smooth"",""right"",""right"",""good_move"",40525,5527.8,1484.2,38605.7,435.1,""smooth"",""right"",""right"",""good_move"",42515.9,1980.8,1458.4,40535.2,522.3,""oops"",""right"",""down"",""bad_move"",45380.8,2862.1,2335.4,42518.7,526.7,""oops"",""right"",""down"",""bad_move"",48236.8,2854,2196.8,45382.9,657.1,""smooth"",""right"",""right"",""good_move"",61886.9,13647.4,2761.6,58650.5,474.8,""oops"",""right"",""down"",""bad_move"",64546.9,2658.6,2047.9,61888.3,610.7,""oops"",""right"",""right"",""good_move"",67401.4,2852.2,2475.5,64549.2,376.7,""smooth"",""up"",""up"",""good_move"",70872.5,3468.6,2216.4,67403.9,1252.2,""oops"",""up"",""up"",""good_move"",77363.1,6484.3,1957.2,74994.2,411.7,""oops"",""up"",""up"",""good_move""]","",""
"5367","","<div style=""width:500px;"">
  <p>What determined the result of this run?</p>
  </div>","80","html-slider-response","30","500911","0.0-5.0-1.4","32","1","2025-07-09 15:52:20","01610cd0009c79a99da7d0a3353eb402","197.184.125.0","Mozilla/5.0 (Windows NT 10.0; Win64; x64) AppleWebKit/537.36 (KHTML, like Gecko) Chrome/138.0.0.0 Safari/537.36","WebKit","Chrome","138.0.0.0","Windows","10.0","https://app.prolific.com/","en-GB,en-US;q=0.9,en;q=0.8","67215aa0a8e88c6751efc410","683db7602f5db6a34d12d064","686e902a6a55e34cfc0b88c7","1","67215aa0a8e88c6751efc410","1","2025-07-09T16:00:49.090Z","","","","","","","","","","","AttribQ","","50","","","","","","","","","","","","","","","","","","","","","","","","","","","","",""
"6637","","<div style=""width:500px;"">
  <p>How much control did you have over the ball?</p>
  </div>","58","html-slider-response","31","507556","0.0-5.0-2.4","32","1","2025-07-09 15:52:20","01610cd0009c79a99da7d0a3353eb402","197.184.125.0","Mozilla/5.0 (Windows NT 10.0; Win64; x64) AppleWebKit/537.36 (KHTML, like Gecko) Chrome/138.0.0.0 Safari/537.36","WebKit","Chrome","138.0.0.0","Windows","10.0","https://app.prolific.com/","en-GB,en-US;q=0.9,en;q=0.8","67215aa0a8e88c6751efc410","683db7602f5db6a34d12d064","686e902a6a55e34cfc0b88c7","1","67215aa0a8e88c6751efc410","1","2025-07-09T16:00:55.735Z","","","","","","","","","","","ControlQ","","50","","","","","","","","","","","","","","","","","","","","","","","","","","","","",""
"6989","","<div style=""width:500px;"">
  <p>How would you describe your current emotional state?</p>
  </div>","42","html-slider-response","32","514551","0.0-5.0-3.4","32","1","2025-07-09 15:52:20","01610cd0009c79a99da7d0a3353eb402","197.184.125.0","Mozilla/5.0 (Windows NT 10.0; Win64; x64) AppleWebKit/537.36 (KHTML, like Gecko) Chrome/138.0.0.0 Safari/537.36","WebKit","Chrome","138.0.0.0","Windows","10.0","https://app.prolific.com/","en-GB,en-US;q=0.9,en;q=0.8","67215aa0a8e88c6751efc410","683db7602f5db6a34d12d064","686e902a6a55e34cfc0b88c7","1","67215aa0a8e88c6751efc410","1","2025-07-09T16:01:02.730Z","","","","","","","","","","","StressQ","","50","","","","","","","","","","","","","","","","","","","","","","","","","","","","",""
"4748","","<div style=""width:500px;"">
  <p>What best describes how you currently feel?</p>
  </div>","73","html-slider-response","33","519306","0.0-5.0-4.4","32","1","2025-07-09 15:52:20","01610cd0009c79a99da7d0a3353eb402","197.184.125.0","Mozilla/5.0 (Windows NT 10.0; Win64; x64) AppleWebKit/537.36 (KHTML, like Gecko) Chrome/138.0.0.0 Safari/537.36","WebKit","Chrome","138.0.0.0","Windows","10.0","https://app.prolific.com/","en-GB,en-US;q=0.9,en;q=0.8","67215aa0a8e88c6751efc410","683db7602f5db6a34d12d064","686e902a6a55e34cfc0b88c7","1","67215aa0a8e88c6751efc410","1","2025-07-09T16:01:07.485Z","","","","","","","","","","","MotivationQ","","50","","","","","","","","","","","","","","","","","","","","","","","","","","","","",""
"","","","","ctl-task-cpt","34","589772","0.0-5.0-0.5","32","1","2025-07-09 15:52:20","01610cd0009c79a99da7d0a3353eb402","197.184.125.0","Mozilla/5.0 (Windows NT 10.0; Win64; x64) AppleWebKit/537.36 (KHTML, like Gecko) Chrome/138.0.0.0 Safari/537.36","WebKit","Chrome","138.0.0.0","Windows","10.0","https://app.prolific.com/","en-GB,en-US;q=0.9,en;q=0.8","67215aa0a8e88c6751efc410","683db7602f5db6a34d12d064","686e902a6a55e34cfc0b88c7","1","67215aa0a8e88c6751efc410","1","2025-07-09T16:02:17.951Z","","","","","","","","","","","","","","win-only","2","g1:SE,g2:NW","0.5","6","0","528749.9","1306.7","6310.9","67410.7","1","4","8","6","2","8","8","36","28","0.2727272727272727","955.5","3000","2340","[""left"",""up""]","{""num_key_presses"":10,""num_perfect"":5,""num_errors"":0,""num_randdir"":5,""num_randdir_good_moves"":3,""num_whilered"":0,""num_whileblue"":0,""num_blue"":2,""num_good_moves"":8}","[301.22232142857143,299.12857142857143,1,301.22232142857143,299.12857142857143,113.2,301.22232142857143,299.12857142857143,231.5,301.22232142857143,299.12857142857143,345.1,301.22232142857143,299.12857142857143,462,181.22232142857143,211.12857142857143,586.3,77.22232142857143,87.12857142857143,706.1,56.222321428571426,61.128571428571426,834.6,55.222321428571426,60.128571428571426,976.9,55.222321428571426,60.128571428571426,1087.9,55.222321428571426,60.128571428571426,1200.1,91.22232142857143,81.12857142857143,1323.3,292.22232142857143,194.12857142857143,1427.4,373.22232142857143,253.12857142857143,1532.2,416.22232142857143,279.12857142857143,1636.4,416.22232142857143,279.12857142857143,1757.6,416.22232142857143,279.12857142857143,1873,416.22232142857143,279.12857142857143,1998.2,416.22232142857143,279.12857142857143,2099.3,416.22232142857143,279.12857142857143,2222.2,416.22232142857143,279.12857142857143,2323.5,416.22232142857143,279.12857142857143,2447.8,416.22232142857143,279.12857142857143,2571.7,416.22232142857143,279.12857142857143,2693.3,416.22232142857143,279.12857142857143,2829,416.22232142857143,279.12857142857143,2948.2,416.22232142857143,279.12857142857143,3055.8,416.22232142857143,279.12857142857143,3181.3,416.22232142857143,279.12857142857143,3288.9,416.22232142857143,279.12857142857143,3393.1,416.22232142857143,279.12857142857143,3506.8,416.22232142857143,279.12857142857143,3616.3,416.22232142857143,279.12857142857143,3750.9,416.22232142857143,279.12857142857143,3856.2,416.22232142857143,279.12857142857143,3987.7,416.22232142857143,279.12857142857143,4111.5,416.22232142857143,279.12857142857143,4216.3,416.22232142857143,279.12857142857143,4332.3,416.22232142857143,279.12857142857143,4464.2,416.22232142857143,279.12857142857143,4584.7,416.22232142857143,279.12857142857143,4710.9,416.22232142857143,279.12857142857143,4852.7,416.22232142857143,279.12857142857143,4972]","[4683.9,4683.9,2145.4,2039,499.5,""smooth"",""up"",""up"",""good_move"",10855.9,6169.6,2502.9,4686.3,3666.7,""oops"",""up"",""right"",""bad_move"",13792.2,2933.9,2216,10858.3,717.9,""smooth"",""up"",""up"",""good_move"",20208.2,6412,2712.2,13796.2,3699.8,""smooth"",""up"",""up"",""good_move"",26174.3,5964.8,2650.6,20209.5,3314.2,""smooth"",""left"",""left"",""good_move"",36212.3,10034.3,3287.5,32449.9,474.9,""smooth"",""left"",""left"",""good_move"",42826,6612.5,3081.8,36213.5,3530.7,""oops"",""left"",""down"",""bad_move"",45814.9,2986.8,2447.1,42828.1,539.7,""oops"",""left"",""up"",""good_move"",53791.7,7974.5,2736.9,45817.2,5237.6,""oops"",""left"",""left"",""good_move"",60497.1,6701.5,1753.7,53795.6,4947.8,""oops"",""left"",""left"",""good_move""]","",""
"4528","","<div style=""width:500px;"">
  <p>What determined the result of this run?</p>
  </div>","85","html-slider-response","35","594307","0.0-5.0-1.5","32","1","2025-07-09 15:52:20","01610cd0009c79a99da7d0a3353eb402","197.184.125.0","Mozilla/5.0 (Windows NT 10.0; Win64; x64) AppleWebKit/537.36 (KHTML, like Gecko) Chrome/138.0.0.0 Safari/537.36","WebKit","Chrome","138.0.0.0","Windows","10.0","https://app.prolific.com/","en-GB,en-US;q=0.9,en;q=0.8","67215aa0a8e88c6751efc410","683db7602f5db6a34d12d064","686e902a6a55e34cfc0b88c7","1","67215aa0a8e88c6751efc410","1","2025-07-09T16:02:22.486Z","","","","","","","","","","","AttribQ","","50","","","","","","","","","","","","","","","","","","","","","","","","","","","","",""
"2866","","<div style=""width:500px;"">
  <p>How much control did you have over the ball?</p>
  </div>","74","html-slider-response","36","597181","0.0-5.0-2.5","32","1","2025-07-09 15:52:20","01610cd0009c79a99da7d0a3353eb402","197.184.125.0","Mozilla/5.0 (Windows NT 10.0; Win64; x64) AppleWebKit/537.36 (KHTML, like Gecko) Chrome/138.0.0.0 Safari/537.36","WebKit","Chrome","138.0.0.0","Windows","10.0","https://app.prolific.com/","en-GB,en-US;q=0.9,en;q=0.8","67215aa0a8e88c6751efc410","683db7602f5db6a34d12d064","686e902a6a55e34cfc0b88c7","1","67215aa0a8e88c6751efc410","1","2025-07-09T16:02:25.360Z","","","","","","","","","","","ControlQ","","50","","","","","","","","","","","","","","","","","","","","","","","","","","","","",""
"3052","","<div style=""width:500px;"">
  <p>How would you describe your current emotional state?</p>
  </div>","39","html-slider-response","37","600241","0.0-5.0-3.5","32","1","2025-07-09 15:52:20","01610cd0009c79a99da7d0a3353eb402","197.184.125.0","Mozilla/5.0 (Windows NT 10.0; Win64; x64) AppleWebKit/537.36 (KHTML, like Gecko) Chrome/138.0.0.0 Safari/537.36","WebKit","Chrome","138.0.0.0","Windows","10.0","https://app.prolific.com/","en-GB,en-US;q=0.9,en;q=0.8","67215aa0a8e88c6751efc410","683db7602f5db6a34d12d064","686e902a6a55e34cfc0b88c7","1","67215aa0a8e88c6751efc410","1","2025-07-09T16:02:28.420Z","","","","","","","","","","","StressQ","","50","","","","","","","","","","","","","","","","","","","","","","","","","","","","",""
"4699","","<div style=""width:500px;"">
  <p>What best describes how you currently feel?</p>
  </div>","77","html-slider-response","38","604948","0.0-5.0-4.5","32","1","2025-07-09 15:52:20","01610cd0009c79a99da7d0a3353eb402","197.184.125.0","Mozilla/5.0 (Windows NT 10.0; Win64; x64) AppleWebKit/537.36 (KHTML, like Gecko) Chrome/138.0.0.0 Safari/537.36","WebKit","Chrome","138.0.0.0","Windows","10.0","https://app.prolific.com/","en-GB,en-US;q=0.9,en;q=0.8","67215aa0a8e88c6751efc410","683db7602f5db6a34d12d064","686e902a6a55e34cfc0b88c7","1","67215aa0a8e88c6751efc410","1","2025-07-09T16:02:33.127Z","","","","","","","","","","","MotivationQ","","50","","","","","","","","","","","","","","","","","","","","","","","","","","","","",""
"","","","","ctl-task-cpt","39","721577","0.0-5.0-0.6","32","1","2025-07-09 15:52:20","01610cd0009c79a99da7d0a3353eb402","197.184.125.0","Mozilla/5.0 (Windows NT 10.0; Win64; x64) AppleWebKit/537.36 (KHTML, like Gecko) Chrome/138.0.0.0 Safari/537.36","WebKit","Chrome","138.0.0.0","Windows","10.0","https://app.prolific.com/","en-GB,en-US;q=0.9,en;q=0.8","67215aa0a8e88c6751efc410","683db7602f5db6a34d12d064","686e902a6a55e34cfc0b88c7","1","67215aa0a8e88c6751efc410","1","2025-07-09T16:04:29.756Z","","","","","","","","","","","","","","win-only","0","g1:NW,g2:SE","0.4","7","0","614388.1","1227.2","6279.7","113598.4","1","4","8","6","2","8","8","44","36","0.3333333333333333","1348.9","3000","670","[""down"",""right""]","{""num_key_presses"":22,""num_perfect"":9,""num_errors"":0,""num_randdir"":13,""num_randdir_good_moves"":5,""num_whilered"":0,""num_whileblue"":0,""num_blue"":5,""num_good_moves"":14}","[297.22232142857143,299.12857142857143,1,297.22232142857143,299.12857142857143,106.4,297.22232142857143,299.12857142857143,230.7,228.22232142857143,226.12857142857143,339.6,105.22232142857143,111.12857142857143,473.4,280.22232142857143,341.12857142857143,620.4,399.22232142857143,399.12857142857143,732.6,438.22232142857143,428.12857142857143,840.5,490.22232142857143,471.12857142857143,953.8,517.2223214285714,496.12857142857143,1100.8,525.2223214285714,507.12857142857143,1217.9,546.2223214285714,528.1285714285714,1385.1,546.2223214285714,528.1285714285714,1515.1,546.2223214285714,528.1285714285714,1647.1,546.2223214285714,528.1285714285714,1764.1,642.2223214285714,544.1285714285714,1913.4,660.2223214285714,506.12857142857143,2014.4,653.2223214285714,448.12857142857143,2120.1,662.2223214285714,406.12857142857143,2234.5,663.2223214285714,401.12857142857143,2336.6,671.2223214285714,395.12857142857143,2453.8,671.2223214285714,395.12857142857143,2589.9,671.2223214285714,395.12857142857143,2721.7,671.2223214285714,395.12857142857143,2853.5,671.2223214285714,395.12857142857143,2979,671.2223214285714,395.12857142857143,3118.7,671.2223214285714,395.12857142857143,3237.9,671.2223214285714,395.12857142857143,3369.7,671.2223214285714,395.12857142857143,3496.9,671.2223214285714,395.12857142857143,3616.1,671.2223214285714,395.12857142857143,3738.4,671.2223214285714,395.12857142857143,3863.6,671.2223214285714,395.12857142857143,3987.6,671.2223214285714,395.12857142857143,4110.9,671.2223214285714,395.12857142857143,4225.8,671.2223214285714,395.12857142857143,4350.4,671.2223214285714,395.12857142857143,4469.2,671.2223214285714,395.12857142857143,4585.4,671.2223214285714,395.12857142857143,4707.3,671.2223214285714,395.12857142857143,4834.6,671.2223214285714,395.12857142857143,4956.2]","[1565,1565,1000,0,565,""smooth"",""down"",""down"",""good_move"",4606.1,3039.4,2523.5,1566.7,515.9,""oops"",""down"",""up"",""bad_move"",13893.9,9279,2316.1,4614.9,6962.9,""smooth"",""down"",""down"",""good_move"",16950.4,3054.8,2360.6,13895.6,694.2,""oops"",""down"",""up"",""bad_move"",28062.9,11110.5,2915.6,16952.5,8194.8,""oops"",""down"",""down"",""good_move"",31716.4,3652.2,3063.1,28064.2,589.1,""oops"",""down"",""up"",""bad_move"",42530.3,10812.2,1954.3,31718.2,8857.8,""oops"",""down"",""right"",""good_move"",52630.2,10098.2,2338.7,49855.5,436,""smooth"",""down"",""down"",""good_move"",54949.4,2317.1,1886.2,52632.3,430.9,""oops"",""down"",""right"",""good_move"",58128.5,3176.5,2510.7,54952,665.8,""smooth"",""down"",""down"",""good_move"",60759.2,2628.3,2138.4,58131,489.8,""oops"",""down"",""up"",""bad_move"",64228.5,3466.3,2537.9,60762.2,928.4,""smooth"",""down"",""down"",""good_move"",66814.4,2582.9,2181.2,64231.6,401.6,""smooth"",""down"",""down"",""good_move"",69567.9,2751.8,2361.8,66816.1,390,""oops"",""right"",""left"",""bad_move"",75336.3,5766.2,1737,73177.8,421.5,""oops"",""right"",""left"",""bad_move"",82017,6673,1950.9,79508.2,557.9,""oops"",""right"",""right"",""good_move"",88594.4,6574.8,2858.2,85244,492.2,""smooth"",""right"",""right"",""good_move"",91559.1,2962.8,2437.8,88596.4,524.9,""oops"",""right"",""up"",""bad_move"",95726.6,4165,2430.3,91561.7,1734.6,""oops"",""right"",""left"",""bad_move"",100244.5,4515.5,2601.1,95729,1914.4,""smooth"",""right"",""right"",""good_move"",103377.1,3130.7,2756.6,100246.4,374.1,""oops"",""right"",""right"",""good_move"",106648.2,3264.8,2887.9,103383.4,376.9,""smooth"",""down"",""down"",""good_move""]","",""
"4278","","<div style=""width:500px;"">
  <p>What determined the result of this run?</p>
  </div>","83","html-slider-response","40","725857","0.0-5.0-1.6","32","1","2025-07-09 15:52:20","01610cd0009c79a99da7d0a3353eb402","197.184.125.0","Mozilla/5.0 (Windows NT 10.0; Win64; x64) AppleWebKit/537.36 (KHTML, like Gecko) Chrome/138.0.0.0 Safari/537.36","WebKit","Chrome","138.0.0.0","Windows","10.0","https://app.prolific.com/","en-GB,en-US;q=0.9,en;q=0.8","67215aa0a8e88c6751efc410","683db7602f5db6a34d12d064","686e902a6a55e34cfc0b88c7","1","67215aa0a8e88c6751efc410","1","2025-07-09T16:04:34.037Z","","","","","","","","","","","AttribQ","","50","","","","","","","","","","","","","","","","","","","","","","","","","","","","",""
"8346","","<div style=""width:500px;"">
  <p>How much control did you have over the ball?</p>
  </div>","58","html-slider-response","41","734208","0.0-5.0-2.6","32","1","2025-07-09 15:52:20","01610cd0009c79a99da7d0a3353eb402","197.184.125.0","Mozilla/5.0 (Windows NT 10.0; Win64; x64) AppleWebKit/537.36 (KHTML, like Gecko) Chrome/138.0.0.0 Safari/537.36","WebKit","Chrome","138.0.0.0","Windows","10.0","https://app.prolific.com/","en-GB,en-US;q=0.9,en;q=0.8","67215aa0a8e88c6751efc410","683db7602f5db6a34d12d064","686e902a6a55e34cfc0b88c7","1","67215aa0a8e88c6751efc410","1","2025-07-09T16:04:42.387Z","","","","","","","","","","","ControlQ","","50","","","","","","","","","","","","","","","","","","","","","","","","","","","","",""
"9319","","<div style=""width:500px;"">
  <p>How would you describe your current emotional state?</p>
  </div>","54","html-slider-response","42","743531","0.0-5.0-3.6","32","1","2025-07-09 15:52:20","01610cd0009c79a99da7d0a3353eb402","197.184.125.0","Mozilla/5.0 (Windows NT 10.0; Win64; x64) AppleWebKit/537.36 (KHTML, like Gecko) Chrome/138.0.0.0 Safari/537.36","WebKit","Chrome","138.0.0.0","Windows","10.0","https://app.prolific.com/","en-GB,en-US;q=0.9,en;q=0.8","67215aa0a8e88c6751efc410","683db7602f5db6a34d12d064","686e902a6a55e34cfc0b88c7","1","67215aa0a8e88c6751efc410","1","2025-07-09T16:04:51.710Z","","","","","","","","","","","StressQ","","50","","","","","","","","","","","","","","","","","","","","","","","","","","","","",""
"3459","","<div style=""width:500px;"">
  <p>What best describes how you currently feel?</p>
  </div>","74","html-slider-response","43","746998","0.0-5.0-4.6","32","1","2025-07-09 15:52:20","01610cd0009c79a99da7d0a3353eb402","197.184.125.0","Mozilla/5.0 (Windows NT 10.0; Win64; x64) AppleWebKit/537.36 (KHTML, like Gecko) Chrome/138.0.0.0 Safari/537.36","WebKit","Chrome","138.0.0.0","Windows","10.0","https://app.prolific.com/","en-GB,en-US;q=0.9,en;q=0.8","67215aa0a8e88c6751efc410","683db7602f5db6a34d12d064","686e902a6a55e34cfc0b88c7","1","67215aa0a8e88c6751efc410","1","2025-07-09T16:04:55.178Z","","","","","","","","","","","MotivationQ","","50","","","","","","","","","","","","","","","","","","","","","","","","","","","","",""
"","","","","ctl-task-cpt","44","859276","0.0-5.0-0.7","32","1","2025-07-09 15:52:20","01610cd0009c79a99da7d0a3353eb402","197.184.125.0","Mozilla/5.0 (Windows NT 10.0; Win64; x64) AppleWebKit/537.36 (KHTML, like Gecko) Chrome/138.0.0.0 Safari/537.36","WebKit","Chrome","138.0.0.0","Windows","10.0","https://app.prolific.com/","en-GB,en-US;q=0.9,en;q=0.8","67215aa0a8e88c6751efc410","683db7602f5db6a34d12d064","686e902a6a55e34cfc0b88c7","1","67215aa0a8e88c6751efc410","1","2025-07-09T16:06:47.455Z","","","","","","","","","","","","","","win-only","2","g1:SE,g2:NW","0.3","8","0","756441.3","1432.9","6450","109247","1","4","4","6","2","4","4","48","44","0.36363636363636365","886.8","3000","615","[""left"",""up""]","{""num_key_presses"":24,""num_perfect"":9,""num_errors"":0,""num_randdir"":15,""num_randdir_good_moves"":6,""num_whilered"":0,""num_whileblue"":0,""num_blue"":4,""num_good_moves"":15}","[299.22232142857143,304.12857142857143,0.2,299.22232142857143,304.12857142857143,117.7,299.22232142857143,304.12857142857143,227.2,299.22232142857143,304.12857142857143,331.7,280.22232142857143,275.12857142857143,461.3,124.22232142857143,81.12857142857143,587.3,120.22232142857143,81.12857142857143,693.5,89.22232142857143,74.12857142857143,816.5,89.22232142857143,74.12857142857143,920.3,89.22232142857143,74.12857142857143,1022.3,89.22232142857143,74.12857142857143,1133.5,89.22232142857143,74.12857142857143,1239,300.22232142857143,98.12857142857143,1340.6,414.22232142857143,114.12857142857143,1465.5,539.2223214285714,139.12857142857143,1583.4,585.2223214285714,144.12857142857143,1693.2,611.2223214285714,143.12857142857143,1823.3,703.2223214285714,152.12857142857143,1925.3,729.2223214285714,165.12857142857143,2035.6,729.2223214285714,165.12857142857143,2135.9,729.2223214285714,165.12857142857143,2247.2,729.2223214285714,165.12857142857143,2366.4,729.2223214285714,165.12857142857143,2490.8,729.2223214285714,165.12857142857143,2605.3,729.2223214285714,165.12857142857143,2710.2,729.2223214285714,165.12857142857143,2818.5,729.2223214285714,165.12857142857143,2931.4,729.2223214285714,165.12857142857143,3047.8,729.2223214285714,165.12857142857143,3169.8,729.2223214285714,165.12857142857143,3285.5,729.2223214285714,165.12857142857143,3386.1,729.2223214285714,165.12857142857143,3498.2,729.2223214285714,165.12857142857143,3608.7,729.2223214285714,165.12857142857143,3722.7,729.2223214285714,165.12857142857143,3837.8,729.2223214285714,165.12857142857143,3954.8,729.2223214285714,165.12857142857143,4055.1,729.2223214285714,165.12857142857143,4171.7,729.2223214285714,165.12857142857143,4274.9,729.2223214285714,165.12857142857143,4401.3,729.2223214285714,165.12857142857143,4528.7,729.2223214285714,165.12857142857143,4654.8,729.2223214285714,165.12857142857143,4759.7,729.2223214285714,165.12857142857143,4867.2,729.2223214285714,165.12857142857143,4983.5]","[1549.9,1549.9,1000,0,549.9,""smooth"",""up"",""up"",""good_move"",4638.8,3086.4,2478.5,1552.4,607.9,""oops"",""left"",""right"",""bad_move"",12199.2,7549,3420,8321.2,458,""smooth"",""up"",""up"",""good_move"",16011.2,3810.9,2399.6,12200.4,1411.2,""oops"",""up"",""down"",""bad_move"",19104.6,3091.1,2591.4,16013.5,499.7,""oops"",""up"",""up"",""good_move"",23086.1,3979.1,2590.1,19107,1389,""oops"",""up"",""right"",""bad_move"",26650.6,3562.5,3086.4,23088.2,476,""oops"",""up"",""up"",""good_move"",31510.8,4858.2,3143.4,26652.6,1714.8,""oops"",""left"",""down"",""bad_move"",35105.6,3590.2,3130.3,31515.4,460,""smooth"",""left"",""left"",""good_move"",40407.9,5299.9,3058,35108.1,2241.9,""oops"",""left"",""right"",""bad_move"",46909.5,6481.9,2443.4,43887.8,578.3,""smooth"",""left"",""left"",""good_move"",52232.2,5321.1,2466.4,46911.2,2854.6,""oops"",""left"",""up"",""good_move"",57497,5260.2,2996.9,52236.8,2263.3,""oops"",""left"",""right"",""bad_move"",60760.7,3262.3,2737.9,57498.4,524.4,""oops"",""left"",""left"",""good_move"",67545.6,6781.9,2770.4,60763.7,4011.5,""oops"",""left"",""down"",""bad_move"",73943.6,6396.6,2611.9,70789.4,542.3,""smooth"",""left"",""left"",""good_move"",77579.2,3633.6,1982.5,73945.6,1651.1,""smooth"",""left"",""left"",""good_move"",80502.9,2921.2,2413.1,77581.9,508.1,""oops"",""left"",""down"",""bad_move"",83109.4,2602.9,2162,80506.5,440.9,""oops"",""left"",""down"",""bad_move"",85698.6,2582.6,2219.3,83116,363.3,""oops"",""left"",""left"",""good_move"",89342.8,3641.1,2704,85701.7,937.1,""oops"",""left"",""up"",""good_move"",96118.9,6773.4,1834.7,93835.5,448.8,""smooth"",""left"",""left"",""good_move"",99384,3247,2645.8,96137,601.2,""smooth"",""up"",""up"",""good_move"",102498.1,3104.1,2039.1,99394,1065,""smooth"",""up"",""up"",""good_move""]","",""
"2960","","<div style=""width:500px;"">
  <p>What determined the result of this run?</p>
  </div>","81","html-slider-response","45","862241","0.0-5.0-1.7","32","1","2025-07-09 15:52:20","01610cd0009c79a99da7d0a3353eb402","197.184.125.0","Mozilla/5.0 (Windows NT 10.0; Win64; x64) AppleWebKit/537.36 (KHTML, like Gecko) Chrome/138.0.0.0 Safari/537.36","WebKit","Chrome","138.0.0.0","Windows","10.0","https://app.prolific.com/","en-GB,en-US;q=0.9,en;q=0.8","67215aa0a8e88c6751efc410","683db7602f5db6a34d12d064","686e902a6a55e34cfc0b88c7","1","67215aa0a8e88c6751efc410","1","2025-07-09T16:06:50.420Z","","","","","","","","","","","AttribQ","","50","","","","","","","","","","","","","","","","","","","","","","","","","","","","",""
"3274","","<div style=""width:500px;"">
  <p>How much control did you have over the ball?</p>
  </div>","55","html-slider-response","46","865521","0.0-5.0-2.7","32","1","2025-07-09 15:52:20","01610cd0009c79a99da7d0a3353eb402","197.184.125.0","Mozilla/5.0 (Windows NT 10.0; Win64; x64) AppleWebKit/537.36 (KHTML, like Gecko) Chrome/138.0.0.0 Safari/537.36","WebKit","Chrome","138.0.0.0","Windows","10.0","https://app.prolific.com/","en-GB,en-US;q=0.9,en;q=0.8","67215aa0a8e88c6751efc410","683db7602f5db6a34d12d064","686e902a6a55e34cfc0b88c7","1","67215aa0a8e88c6751efc410","1","2025-07-09T16:06:53.700Z","","","","","","","","","","","ControlQ","","50","","","","","","","","","","","","","","","","","","","","","","","","","","","","",""
"3473","","<div style=""width:500px;"">
  <p>How would you describe your current emotional state?</p>
  </div>","57","html-slider-response","47","869001","0.0-5.0-3.7","32","1","2025-07-09 15:52:20","01610cd0009c79a99da7d0a3353eb402","197.184.125.0","Mozilla/5.0 (Windows NT 10.0; Win64; x64) AppleWebKit/537.36 (KHTML, like Gecko) Chrome/138.0.0.0 Safari/537.36","WebKit","Chrome","138.0.0.0","Windows","10.0","https://app.prolific.com/","en-GB,en-US;q=0.9,en;q=0.8","67215aa0a8e88c6751efc410","683db7602f5db6a34d12d064","686e902a6a55e34cfc0b88c7","1","67215aa0a8e88c6751efc410","1","2025-07-09T16:06:57.180Z","","","","","","","","","","","StressQ","","50","","","","","","","","","","","","","","","","","","","","","","","","","","","","",""
"3529","","<div style=""width:500px;"">
  <p>What best describes how you currently feel?</p>
  </div>","72","html-slider-response","48","872534","0.0-5.0-4.7","32","1","2025-07-09 15:52:20","01610cd0009c79a99da7d0a3353eb402","197.184.125.0","Mozilla/5.0 (Windows NT 10.0; Win64; x64) AppleWebKit/537.36 (KHTML, like Gecko) Chrome/138.0.0.0 Safari/537.36","WebKit","Chrome","138.0.0.0","Windows","10.0","https://app.prolific.com/","en-GB,en-US;q=0.9,en;q=0.8","67215aa0a8e88c6751efc410","683db7602f5db6a34d12d064","686e902a6a55e34cfc0b88c7","1","67215aa0a8e88c6751efc410","1","2025-07-09T16:07:00.713Z","","","","","","","","","","","MotivationQ","","50","","","","","","","","","","","","","","","","","","","","","","","","","","","","",""
"","","","","ctl-task-cpt","49","971830","0.0-5.0-0.8","32","1","2025-07-09 15:52:20","01610cd0009c79a99da7d0a3353eb402","197.184.125.0","Mozilla/5.0 (Windows NT 10.0; Win64; x64) AppleWebKit/537.36 (KHTML, like Gecko) Chrome/138.0.0.0 Safari/537.36","WebKit","Chrome","138.0.0.0","Windows","10.0","https://app.prolific.com/","en-GB,en-US;q=0.9,en;q=0.8","67215aa0a8e88c6751efc410","683db7602f5db6a34d12d064","686e902a6a55e34cfc0b88c7","1","67215aa0a8e88c6751efc410","1","2025-07-09T16:08:40.009Z","","","","","","","","","","","","","","win-only","1","g1:NE,g2:SW","0.2","9","0","881975.5","828.6","5861.1","96255.3","1","4","8","6","2","8","8","56","48","0.42424242424242425","1206.8","3000","755","[""down"",""left""]","{""num_key_presses"":22,""num_perfect"":5,""num_errors"":0,""num_randdir"":17,""num_randdir_good_moves"":9,""num_whilered"":0,""num_whileblue"":0,""num_blue"":3,""num_good_moves"":14}","[291.22232142857143,291.12857142857143,0.7,291.22232142857143,291.12857142857143,124.5,291.22232142857143,291.12857142857143,239,298.22232142857143,283.12857142857143,355.6,423.22232142857143,167.12857142857143,455.8,424.22232142857143,164.12857142857143,557,313.22232142857143,283.12857142857143,673.1,238.22232142857143,383.12857142857143,774.6,146.22232142857143,488.12857142857143,883.6,84.22232142857143,518.1285714285714,991.1,53.222321428571426,541.1285714285714,1117.8,53.222321428571426,543.1285714285714,1229.3,55.222321428571426,542.1285714285714,1333.9,186.22232142857143,502.12857142857143,1466.6,440.22232142857143,442.12857142857143,1583,603.2223214285714,409.12857142857143,1708.2,629.2223214285714,404.12857142857143,1811,637.2223214285714,395.12857142857143,1924.5,642.2223214285714,384.12857142857143,2054.4,642.2223214285714,384.12857142857143,2174.2,642.2223214285714,384.12857142857143,2290.8,642.2223214285714,384.12857142857143,2401.3,642.2223214285714,384.12857142857143,2513.5,642.2223214285714,384.12857142857143,2622.5,642.2223214285714,384.12857142857143,2740.6,642.2223214285714,384.12857142857143,2852.7,642.2223214285714,384.12857142857143,2963.4,642.2223214285714,384.12857142857143,3090.1,642.2223214285714,384.12857142857143,3193.3,642.2223214285714,384.12857142857143,3313.8,642.2223214285714,384.12857142857143,3435,642.2223214285714,384.12857142857143,3548.7,642.2223214285714,384.12857142857143,3666.5,642.2223214285714,384.12857142857143,3770.5,642.2223214285714,384.12857142857143,3900.2,642.2223214285714,384.12857142857143,4029.5,642.2223214285714,384.12857142857143,4149.6,642.2223214285714,384.12857142857143,4273.2,642.2223214285714,384.12857142857143,4381.7,642.2223214285714,384.12857142857143,4498.6,642.2223214285714,384.12857142857143,4605.1,642.2223214285714,384.12857142857143,4716.9,642.2223214285714,384.12857142857143,4833.3,642.2223214285714,384.12857142857143,4948.4]","[1457.9,1457.9,1000,0,457.9,""oops"",""down"",""up"",""bad_move"",6653.8,5192.7,2394.6,1461.1,2798.1,""smooth"",""down"",""down"",""good_move"",9399.3,2743.3,2230.8,6656,512.5,""smooth"",""down"",""down"",""good_move"",12051,2650.1,2173.9,9401,476.2,""oops"",""down"",""down"",""good_move"",14107.1,2052.2,1372.4,12054.9,679.8,""oops"",""down"",""left"",""good_move"",24447.5,10333.5,3533,20409.3,505.2,""oops"",""down"",""down"",""good_move"",27313.7,2859.9,2327.9,24453.8,532,""oops"",""left"",""right"",""bad_move"",31017.1,3700.6,3255.7,27316.5,444.9,""oops"",""left"",""up"",""bad_move"",34781,3762.2,2792.5,31019,969.6,""oops"",""left"",""down"",""good_move"",38127.6,3340,2868.4,34787.6,471.6,""oops"",""left"",""up"",""bad_move"",41496.8,3359.8,2817.9,38137,541.9,""oops"",""left"",""up"",""bad_move"",45095.8,3597.1,1894.3,41498.9,1702.6,""oops"",""left"",""left"",""good_move"",49235.3,4137.1,2351.7,45098.2,1785.4,""oops"",""left"",""down"",""good_move"",51847.3,2609.6,1847.5,49237.7,762.1,""oops"",""left"",""down"",""good_move"",57627.7,5772.6,1791.6,55414.5,421.6,""oops"",""left"",""up"",""bad_move"",62551.9,4922.7,2687.6,57629.2,2235.1,""oops"",""left"",""up"",""bad_move"",68196.9,5642.7,2052.6,62554.2,3590.1,""oops"",""left"",""down"",""good_move"",71194.4,2995.6,2341.1,68198.8,654.5,""smooth"",""left"",""left"",""good_move"",76893.9,5697.4,1959.1,71196.5,3738.3,""oops"",""left"",""right"",""bad_move"",79779.1,2883.4,2293.7,76895.7,589.7,""smooth"",""left"",""left"",""good_move"",86424.6,6638.7,2163.4,83678.7,582.6,""smooth"",""left"",""left"",""good_move"",89818.6,3392.8,3020.6,86425.9,372.1,""oops"",""down"",""down"",""good_move""]","",""
"3032","","<div style=""width:500px;"">
  <p>What determined the result of this run?</p>
  </div>","81","html-slider-response","50","974864","0.0-5.0-1.8","32","1","2025-07-09 15:52:20","01610cd0009c79a99da7d0a3353eb402","197.184.125.0","Mozilla/5.0 (Windows NT 10.0; Win64; x64) AppleWebKit/537.36 (KHTML, like Gecko) Chrome/138.0.0.0 Safari/537.36","WebKit","Chrome","138.0.0.0","Windows","10.0","https://app.prolific.com/","en-GB,en-US;q=0.9,en;q=0.8","67215aa0a8e88c6751efc410","683db7602f5db6a34d12d064","686e902a6a55e34cfc0b88c7","1","67215aa0a8e88c6751efc410","1","2025-07-09T16:08:43.043Z","","","","","","","","","","","AttribQ","","50","","","","","","","","","","","","","","","","","","","","","","","","","","","","",""
"4074","","<div style=""width:500px;"">
  <p>How much control did you have over the ball?</p>
  </div>","60","html-slider-response","51","978944","0.0-5.0-2.8","32","1","2025-07-09 15:52:20","01610cd0009c79a99da7d0a3353eb402","197.184.125.0","Mozilla/5.0 (Windows NT 10.0; Win64; x64) AppleWebKit/537.36 (KHTML, like Gecko) Chrome/138.0.0.0 Safari/537.36","WebKit","Chrome","138.0.0.0","Windows","10.0","https://app.prolific.com/","en-GB,en-US;q=0.9,en;q=0.8","67215aa0a8e88c6751efc410","683db7602f5db6a34d12d064","686e902a6a55e34cfc0b88c7","1","67215aa0a8e88c6751efc410","1","2025-07-09T16:08:47.123Z","","","","","","","","","","","ControlQ","","50","","","","","","","","","","","","","","","","","","","","","","","","","","","","",""
"3303","","<div style=""width:500px;"">
  <p>How would you describe your current emotional state?</p>
  </div>","56","html-slider-response","52","982251","0.0-5.0-3.8","32","1","2025-07-09 15:52:20","01610cd0009c79a99da7d0a3353eb402","197.184.125.0","Mozilla/5.0 (Windows NT 10.0; Win64; x64) AppleWebKit/537.36 (KHTML, like Gecko) Chrome/138.0.0.0 Safari/537.36","WebKit","Chrome","138.0.0.0","Windows","10.0","https://app.prolific.com/","en-GB,en-US;q=0.9,en;q=0.8","67215aa0a8e88c6751efc410","683db7602f5db6a34d12d064","686e902a6a55e34cfc0b88c7","1","67215aa0a8e88c6751efc410","1","2025-07-09T16:08:50.431Z","","","","","","","","","","","StressQ","","50","","","","","","","","","","","","","","","","","","","","","","","","","","","","",""
"5247","","<div style=""width:500px;"">
  <p>What best describes how you currently feel?</p>
  </div>","76","html-slider-response","53","987504","0.0-5.0-4.8","32","1","2025-07-09 15:52:20","01610cd0009c79a99da7d0a3353eb402","197.184.125.0","Mozilla/5.0 (Windows NT 10.0; Win64; x64) AppleWebKit/537.36 (KHTML, like Gecko) Chrome/138.0.0.0 Safari/537.36","WebKit","Chrome","138.0.0.0","Windows","10.0","https://app.prolific.com/","en-GB,en-US;q=0.9,en;q=0.8","67215aa0a8e88c6751efc410","683db7602f5db6a34d12d064","686e902a6a55e34cfc0b88c7","1","67215aa0a8e88c6751efc410","1","2025-07-09T16:08:55.683Z","","","","","","","","","","","MotivationQ","","50","","","","","","","","","","","","","","","","","","","","","","","","","","","","",""
"","","","","ctl-task-cpt","54","1135788","0.0-5.0-0.9","32","1","2025-07-09 15:52:20","01610cd0009c79a99da7d0a3353eb402","197.184.125.0","Mozilla/5.0 (Windows NT 10.0; Win64; x64) AppleWebKit/537.36 (KHTML, like Gecko) Chrome/138.0.0.0 Safari/537.36","WebKit","Chrome","138.0.0.0","Windows","10.0","https://app.prolific.com/","en-GB,en-US;q=0.9,en;q=0.8","67215aa0a8e88c6751efc410","683db7602f5db6a34d12d064","686e902a6a55e34cfc0b88c7","1","67215aa0a8e88c6751efc410","1","2025-07-09T16:11:23.967Z","","","","","","","","","","","","","","win-only","2","g1:SE,g2:NW","0.4","10","0","996945","1160.3","6164.9","145225.2","1","4","4","6","2","4","4","60","56","0.45454545454545453","1082.1","3000","1100","[""left"",""up""]","{""num_key_presses"":26,""num_perfect"":11,""num_errors"":0,""num_randdir"":15,""num_randdir_good_moves"":5,""num_whilered"":0,""num_whileblue"":0,""num_blue"":2,""num_good_moves"":16}","[299.22232142857143,300.12857142857143,3.8,299.22232142857143,300.12857142857143,112.6,299.22232142857143,300.12857142857143,219.5,299.22232142857143,300.12857142857143,333.3,299.22232142857143,300.12857142857143,441.2,269.22232142857143,290.12857142857143,551.8,201.22232142857143,193.12857142857143,673,108.22232142857143,117.12857142857143,776.6,50.222321428571426,72.12857142857143,894.9,50.222321428571426,72.12857142857143,996.6,50.222321428571426,72.12857142857143,1121.6,50.222321428571426,72.12857142857143,1245.4,50.222321428571426,72.12857142857143,1355.1,50.222321428571426,72.12857142857143,1479,50.222321428571426,72.12857142857143,1618.8,50.222321428571426,72.12857142857143,1728.4,172.22232142857143,118.12857142857143,1844.6,337.22232142857143,179.12857142857143,1968.4,473.22232142857143,230.12857142857143,2100,614.2223214285714,259.12857142857143,2225.6,678.2223214285714,272.12857142857143,2349,712.2223214285714,268.12857142857143,2473.4,712.2223214285714,268.12857142857143,2586.8,712.2223214285714,268.12857142857143,2694.7,712.2223214285714,268.12857142857143,2798.6,712.2223214285714,268.12857142857143,2908,712.2223214285714,268.12857142857143,3014.8,712.2223214285714,268.12857142857143,3128.8,712.2223214285714,268.12857142857143,3246.7,712.2223214285714,268.12857142857143,3359,712.2223214285714,268.12857142857143,3461.4,712.2223214285714,268.12857142857143,3570.4,712.2223214285714,268.12857142857143,3677.7,712.2223214285714,268.12857142857143,3787,712.2223214285714,268.12857142857143,3890.2,712.2223214285714,268.12857142857143,3995.5,712.2223214285714,268.12857142857143,4114.8,712.2223214285714,268.12857142857143,4223.6,712.2223214285714,268.12857142857143,4341.8,712.2223214285714,268.12857142857143,4461.5,712.2223214285714,268.12857142857143,4578.4,712.2223214285714,268.12857142857143,4687.4,712.2223214285714,268.12857142857143,4913.3]","[1572.1,1572.1,1000,0,572.1,""smooth"",""up"",""up"",""good_move"",11181,9586.5,2284.9,8310.5,585.6,""smooth"",""left"",""left"",""good_move"",17474.7,6291.9,1997,11182.8,4294.9,""oops"",""left"",""right"",""bad_move"",20692.2,3216,2672.9,17476.2,543.1,""oops"",""left"",""down"",""bad_move"",24651.4,3951.6,3396.3,20699.8,555.3,""oops"",""left"",""right"",""bad_move"",27169,2515.4,2004.4,24653.6,511,""oops"",""left"",""left"",""good_move"",34580.8,7409.6,2881.5,27171.2,4528.1,""smooth"",""left"",""left"",""good_move"",43166.8,8584.9,3094.4,34582,5490.4,""oops"",""left"",""down"",""bad_move"",50274.8,7106.4,3211.1,46541.6,522.2,""smooth"",""left"",""left"",""good_move"",59533,9250.9,2906.2,50282.1,6344.7,""oops"",""left"",""left"",""good_move"",69385.4,9851.1,1656.1,59534.4,8195,""smooth"",""up"",""up"",""good_move"",79213.8,9826.8,2583.2,69387,7243.6,""oops"",""up"",""right"",""bad_move"",82563.7,3348.5,2202.6,79215.2,1145.9,""oops"",""up"",""down"",""bad_move"",85285.9,2720.3,2149.2,82565.8,570.9,""smooth"",""up"",""up"",""good_move"",90049.2,4760.8,2145.3,85288.5,2615.5,""smooth"",""up"",""up"",""good_move"",93845.7,3791.8,2314.7,90053.9,1477.1,""smooth"",""up"",""up"",""good_move"",98371,4522.5,2499.2,93848.5,2023.3,""oops"",""up"",""up"",""good_move"",101822.8,3449.7,2328.3,98373.1,1121.4,""oops"",""left"",""right"",""bad_move"",104345.7,2517.3,2072.2,101828.4,445.2,""oops"",""left"",""down"",""bad_move"",106801.1,2447.2,2035.1,104353.9,412.1,""oops"",""left"",""right"",""bad_move"",109586,2783,2422.1,106803.1,360.8,""oops"",""left"",""left"",""good_move"",114302.8,4709.1,2913.8,109593.7,1795.3,""oops"",""left"",""down"",""bad_move"",117726.8,3422.3,3018.5,114304.5,403.8,""smooth"",""left"",""left"",""good_move"",125221.7,7489.6,3118.5,117732.1,4371.1,""oops"",""left"",""up"",""good_move"",131948.6,6721.9,2727.5,125226.7,3994.4,""smooth"",""left"",""left"",""good_move"",138608.4,6656,2224.4,131952.4,4431.6,""smooth"",""up"",""up"",""good_move""]","",""
"3953","","<div style=""width:500px;"">
  <p>What determined the result of this run?</p>
  </div>","79","html-slider-response","55","1139744","0.0-5.0-1.9","32","1","2025-07-09 15:52:20","01610cd0009c79a99da7d0a3353eb402","197.184.125.0","Mozilla/5.0 (Windows NT 10.0; Win64; x64) AppleWebKit/537.36 (KHTML, like Gecko) Chrome/138.0.0.0 Safari/537.36","WebKit","Chrome","138.0.0.0","Windows","10.0","https://app.prolific.com/","en-GB,en-US;q=0.9,en;q=0.8","67215aa0a8e88c6751efc410","683db7602f5db6a34d12d064","686e902a6a55e34cfc0b88c7","1","67215aa0a8e88c6751efc410","1","2025-07-09T16:11:27.923Z","","","","","","","","","","","AttribQ","","50","","","","","","","","","","","","","","","","","","","","","","","","","","","","",""
"2643","","<div style=""width:500px;"">
  <p>How much control did you have over the ball?</p>
  </div>","60","html-slider-response","56","1142391","0.0-5.0-2.9","32","1","2025-07-09 15:52:20","01610cd0009c79a99da7d0a3353eb402","197.184.125.0","Mozilla/5.0 (Windows NT 10.0; Win64; x64) AppleWebKit/537.36 (KHTML, like Gecko) Chrome/138.0.0.0 Safari/537.36","WebKit","Chrome","138.0.0.0","Windows","10.0","https://app.prolific.com/","en-GB,en-US;q=0.9,en;q=0.8","67215aa0a8e88c6751efc410","683db7602f5db6a34d12d064","686e902a6a55e34cfc0b88c7","1","67215aa0a8e88c6751efc410","1","2025-07-09T16:11:30.571Z","","","","","","","","","","","ControlQ","","50","","","","","","","","","","","","","","","","","","","","","","","","","","","","",""
"3999","","<div style=""width:500px;"">
  <p>How would you describe your current emotional state?</p>
  </div>","57","html-slider-response","57","1146399","0.0-5.0-3.9","32","1","2025-07-09 15:52:20","01610cd0009c79a99da7d0a3353eb402","197.184.125.0","Mozilla/5.0 (Windows NT 10.0; Win64; x64) AppleWebKit/537.36 (KHTML, like Gecko) Chrome/138.0.0.0 Safari/537.36","WebKit","Chrome","138.0.0.0","Windows","10.0","https://app.prolific.com/","en-GB,en-US;q=0.9,en;q=0.8","67215aa0a8e88c6751efc410","683db7602f5db6a34d12d064","686e902a6a55e34cfc0b88c7","1","67215aa0a8e88c6751efc410","1","2025-07-09T16:11:34.579Z","","","","","","","","","","","StressQ","","50","","","","","","","","","","","","","","","","","","","","","","","","","","","","",""
"2191","","<div style=""width:500px;"">
  <p>What best describes how you currently feel?</p>
  </div>","73","html-slider-response","58","1148596","0.0-5.0-4.9","32","1","2025-07-09 15:52:20","01610cd0009c79a99da7d0a3353eb402","197.184.125.0","Mozilla/5.0 (Windows NT 10.0; Win64; x64) AppleWebKit/537.36 (KHTML, like Gecko) Chrome/138.0.0.0 Safari/537.36","WebKit","Chrome","138.0.0.0","Windows","10.0","https://app.prolific.com/","en-GB,en-US;q=0.9,en;q=0.8","67215aa0a8e88c6751efc410","683db7602f5db6a34d12d064","686e902a6a55e34cfc0b88c7","1","67215aa0a8e88c6751efc410","1","2025-07-09T16:11:36.775Z","","","","","","","","","","","MotivationQ","","50","","","","","","","","","","","","","","","","","","","","","","","","","","","","",""
"","","","","ctl-task-cpt","59","1176929","0.0-5.0-0.10","32","1","2025-07-09 15:52:20","01610cd0009c79a99da7d0a3353eb402","197.184.125.0","Mozilla/5.0 (Windows NT 10.0; Win64; x64) AppleWebKit/537.36 (KHTML, like Gecko) Chrome/138.0.0.0 Safari/537.36","WebKit","Chrome","138.0.0.0","Windows","10.0","https://app.prolific.com/","en-GB,en-US;q=0.9,en;q=0.8","67215aa0a8e88c6751efc410","683db7602f5db6a34d12d064","686e902a6a55e34cfc0b88c7","1","67215aa0a8e88c6751efc410","1","2025-07-09T16:12:05.108Z","","","","","","","","","","","","","","win-only","0","g1:NW,g2:SE","0.5","11","0","1158035.6","1465.4","6520.9","25290.6","1","4","4","6","2","4","4","64","60","0.48484848484848486","1551.5","3000","2665","[""down"",""right""]","{""num_key_presses"":6,""num_perfect"":4,""num_errors"":0,""num_randdir"":2,""num_randdir_good_moves"":2,""num_whilered"":0,""num_whileblue"":0,""num_blue"":0,""num_good_moves"":6}","[297.22232142857143,300.12857142857143,1,297.22232142857143,300.12857142857143,113.8,297.22232142857143,300.12857142857143,219,297.22232142857143,299.12857142857143,350.1,170.22232142857143,108.12857142857143,502.5,122.22232142857143,98.12857142857143,642.9,225.22232142857143,288.12857142857143,782.3,391.22232142857143,428.12857142857143,923,420.22232142857143,457.12857142857143,1061.1,509.22232142857143,520.1285714285714,1202,534.2223214285714,528.1285714285714,1341.7,534.2223214285714,528.1285714285714,1451,534.2223214285714,528.1285714285714,1574.1,534.2223214285714,528.1285714285714,1702.6,517.2223214285714,511.12857142857143,1833.7,517.2223214285714,511.12857142857143,1934.8,517.2223214285714,511.12857142857143,2047.6,517.2223214285714,511.12857142857143,2171.6,517.2223214285714,511.12857142857143,2281.6,517.2223214285714,511.12857142857143,2394.9,517.2223214285714,511.12857142857143,2511.3,517.2223214285714,511.12857142857143,2614.9,517.2223214285714,511.12857142857143,2732.3,517.2223214285714,511.12857142857143,2853,517.2223214285714,511.12857142857143,2955.7,517.2223214285714,511.12857142857143,3065.9,517.2223214285714,511.12857142857143,3189.7,517.2223214285714,511.12857142857143,3303.8,517.2223214285714,511.12857142857143,3429.2,517.2223214285714,511.12857142857143,3536.4,517.2223214285714,511.12857142857143,3647.2,517.2223214285714,511.12857142857143,3797.2,517.2223214285714,511.12857142857143,3911.1,517.2223214285714,511.12857142857143,4016.1,517.2223214285714,511.12857142857143,4136.1,517.2223214285714,511.12857142857143,4253.4,517.2223214285714,511.12857142857143,4364.5,517.2223214285714,511.12857142857143,4474.3,517.2223214285714,511.12857142857143,4575.7,517.2223214285714,511.12857142857143,4704.8,517.2223214285714,511.12857142857143,4819.6,517.2223214285714,511.12857142857143,4927.7]","[1592.5,1592.5,1000,0,592.5,""oops"",""down"",""right"",""good_move"",5028.5,3434.1,2698.9,1594.4,735.2,""smooth"",""down"",""down"",""good_move"",8189.5,3158.4,2679.7,5031.1,478.7,""smooth"",""down"",""down"",""good_move"",11103.5,2908.7,2294.9,8194.8,613.8,""smooth"",""down"",""down"",""good_move"",14245.5,3126.9,2730.9,11118.6,396,""smooth"",""right"",""right"",""good_move"",17748.7,3497.1,3076.5,14251.6,420.6,""oops"",""right"",""right"",""good_move""]","",""
"2747","","<div style=""width:500px;"">
  <p>What determined the result of this run?</p>
  </div>","100","html-slider-response","60","1179684","0.0-5.0-1.10","32","1","2025-07-09 15:52:20","01610cd0009c79a99da7d0a3353eb402","197.184.125.0","Mozilla/5.0 (Windows NT 10.0; Win64; x64) AppleWebKit/537.36 (KHTML, like Gecko) Chrome/138.0.0.0 Safari/537.36","WebKit","Chrome","138.0.0.0","Windows","10.0","https://app.prolific.com/","en-GB,en-US;q=0.9,en;q=0.8","67215aa0a8e88c6751efc410","683db7602f5db6a34d12d064","686e902a6a55e34cfc0b88c7","1","67215aa0a8e88c6751efc410","1","2025-07-09T16:12:07.863Z","","","","","","","","","","","AttribQ","","50","","","","","","","","","","","","","","","","","","","","","","","","","","","","",""
"7594","","<div style=""width:500px;"">
  <p>How much control did you have over the ball?</p>
  </div>","74","html-slider-response","61","1187285","0.0-5.0-2.10","32","1","2025-07-09 15:52:20","01610cd0009c79a99da7d0a3353eb402","197.184.125.0","Mozilla/5.0 (Windows NT 10.0; Win64; x64) AppleWebKit/537.36 (KHTML, like Gecko) Chrome/138.0.0.0 Safari/537.36","WebKit","Chrome","138.0.0.0","Windows","10.0","https://app.prolific.com/","en-GB,en-US;q=0.9,en;q=0.8","67215aa0a8e88c6751efc410","683db7602f5db6a34d12d064","686e902a6a55e34cfc0b88c7","1","67215aa0a8e88c6751efc410","1","2025-07-09T16:12:15.464Z","","","","","","","","","","","ControlQ","","50","","","","","","","","","","","","","","","","","","","","","","","","","","","","",""
"3167","","<div style=""width:500px;"">
  <p>How would you describe your current emotional state?</p>
  </div>","58","html-slider-response","62","1190456","0.0-5.0-3.10","32","1","2025-07-09 15:52:20","01610cd0009c79a99da7d0a3353eb402","197.184.125.0","Mozilla/5.0 (Windows NT 10.0; Win64; x64) AppleWebKit/537.36 (KHTML, like Gecko) Chrome/138.0.0.0 Safari/537.36","WebKit","Chrome","138.0.0.0","Windows","10.0","https://app.prolific.com/","en-GB,en-US;q=0.9,en;q=0.8","67215aa0a8e88c6751efc410","683db7602f5db6a34d12d064","686e902a6a55e34cfc0b88c7","1","67215aa0a8e88c6751efc410","1","2025-07-09T16:12:18.635Z","","","","","","","","","","","StressQ","","50","","","","","","","","","","","","","","","","","","","","","","","","","","","","",""
"4091","","<div style=""width:500px;"">
  <p>What best describes how you currently feel?</p>
  </div>","70","html-slider-response","63","1194554","0.0-5.0-4.10","32","1","2025-07-09 15:52:20","01610cd0009c79a99da7d0a3353eb402","197.184.125.0","Mozilla/5.0 (Windows NT 10.0; Win64; x64) AppleWebKit/537.36 (KHTML, like Gecko) Chrome/138.0.0.0 Safari/537.36","WebKit","Chrome","138.0.0.0","Windows","10.0","https://app.prolific.com/","en-GB,en-US;q=0.9,en;q=0.8","67215aa0a8e88c6751efc410","683db7602f5db6a34d12d064","686e902a6a55e34cfc0b88c7","1","67215aa0a8e88c6751efc410","1","2025-07-09T16:12:22.733Z","","","","","","","","","","","MotivationQ","","50","","","","","","","","","","","","","","","","","","","","","","","","","","","","",""
"","","","","ctl-task-cpt","64","1287320","0.0-5.0-0.11","32","1","2025-07-09 15:52:20","01610cd0009c79a99da7d0a3353eb402","197.184.125.0","Mozilla/5.0 (Windows NT 10.0; Win64; x64) AppleWebKit/537.36 (KHTML, like Gecko) Chrome/138.0.0.0 Safari/537.36","WebKit","Chrome","138.0.0.0","Windows","10.0","https://app.prolific.com/","en-GB,en-US;q=0.9,en;q=0.8","67215aa0a8e88c6751efc410","683db7602f5db6a34d12d064","686e902a6a55e34cfc0b88c7","1","67215aa0a8e88c6751efc410","1","2025-07-09T16:13:55.499Z","","","","","","","","","","","","","","win-only","2","g1:SE,g2:NW","0.6","12","0","1203992","6043.9","11061","89695.5","1","4","8","6","2","8","8","72","64","0.5454545454545454","1232.3","3000","2190","[""left"",""up""]","{""num_key_presses"":12,""num_perfect"":7,""num_errors"":0,""num_randdir"":5,""num_randdir_good_moves"":2,""num_whilered"":0,""num_whileblue"":0,""num_blue"":3,""num_good_moves"":9}","[291.22232142857143,297.12857142857143,2.2,291.22232142857143,297.12857142857143,131.5,291.22232142857143,297.12857142857143,239.1,291.22232142857143,297.12857142857143,357.7,292.22232142857143,297.12857142857143,481.5,310.22232142857143,334.12857142857143,587,191.22232142857143,215.12857142857143,724.9,119.22232142857143,128.12857142857143,869.3,70.22232142857143,88.12857142857143,1008.2,66.22232142857143,85.12857142857143,1123.3,66.22232142857143,84.12857142857143,1235.5,66.22232142857143,84.12857142857143,1359.5,66.22232142857143,84.12857142857143,1465.4,62.222321428571426,138.12857142857143,1614.4,60.222321428571426,150.12857142857143,1728.2,60.222321428571426,150.12857142857143,1845.4,60.222321428571426,150.12857142857143,1961.9,60.222321428571426,150.12857142857143,2087.8,52.222321428571426,137.12857142857143,2194,67.22232142857143,141.12857142857143,2317.8,67.22232142857143,141.12857142857143,2430.4,67.22232142857143,141.12857142857143,2557.5,67.22232142857143,141.12857142857143,2677.2,67.22232142857143,141.12857142857143,2797.1,96.22232142857143,147.12857142857143,2903.2,97.22232142857143,147.12857142857143,3011.5,97.22232142857143,147.12857142857143,3145,97.22232142857143,147.12857142857143,3256.4,97.22232142857143,147.12857142857143,3364.7,97.22232142857143,147.12857142857143,3486.1,97.22232142857143,147.12857142857143,3633.3,97.22232142857143,147.12857142857143,3762.9,97.22232142857143,147.12857142857143,3912.4,97.22232142857143,147.12857142857143,4063.4,97.22232142857143,147.12857142857143,4182.4,97.22232142857143,147.12857142857143,4301.5,97.22232142857143,147.12857142857143,4435.5,97.22232142857143,147.12857142857143,4552.8,97.22232142857143,147.12857142857143,4696.4,97.22232142857143,147.12857142857143,4816,97.22232142857143,147.12857142857143,4932.9]","[1548.8,1548.8,1000,0,548.8,""smooth"",""up"",""up"",""good_move"",9878.9,8328.8,2307.2,1550.1,6021.6,""smooth"",""up"",""up"",""good_move"",16487.1,6606.8,2439.9,9880.4,4166.8,""smooth"",""left"",""left"",""good_move"",24172.5,7675.6,1899.8,21782.5,490.2,""oops"",""left"",""right"",""bad_move"",27183.9,3007.9,2359.8,24176,648.1,""oops"",""left"",""right"",""bad_move"",33898.2,6712,2011.2,31372,515,""smooth"",""left"",""left"",""good_move"",42310.6,8411.1,2182.7,33899.5,6228.4,""oops"",""left"",""left"",""good_move"",47860.1,5548.1,2582.9,42312,2965.2,""smooth"",""left"",""left"",""good_move"",55478.1,7606.8,3028.4,47871.3,4578.4,""smooth"",""left"",""left"",""good_move"",63236.6,7757.1,2005.2,55479.5,5751.9,""oops"",""up"",""down"",""bad_move"",69857.4,6616.1,2475.4,66799.7,582.3,""oops"",""up"",""up"",""good_move"",77840.7,7980.6,2597.7,69860.2,5382.8,""smooth"",""up"",""up"",""good_move""]","",""
"5796","","<div style=""width:500px;"">
  <p>What determined the result of this run?</p>
  </div>","90","html-slider-response","65","1293154","0.0-5.0-1.11","32","1","2025-07-09 15:52:20","01610cd0009c79a99da7d0a3353eb402","197.184.125.0","Mozilla/5.0 (Windows NT 10.0; Win64; x64) AppleWebKit/537.36 (KHTML, like Gecko) Chrome/138.0.0.0 Safari/537.36","WebKit","Chrome","138.0.0.0","Windows","10.0","https://app.prolific.com/","en-GB,en-US;q=0.9,en;q=0.8","67215aa0a8e88c6751efc410","683db7602f5db6a34d12d064","686e902a6a55e34cfc0b88c7","1","67215aa0a8e88c6751efc410","1","2025-07-09T16:14:01.334Z","","","","","","","","","","","AttribQ","","50","","","","","","","","","","","","","","","","","","","","","","","","","","","","",""
"3502","","<div style=""width:500px;"">
  <p>How much control did you have over the ball?</p>
  </div>","69","html-slider-response","66","1296665","0.0-5.0-2.11","32","1","2025-07-09 15:52:20","01610cd0009c79a99da7d0a3353eb402","197.184.125.0","Mozilla/5.0 (Windows NT 10.0; Win64; x64) AppleWebKit/537.36 (KHTML, like Gecko) Chrome/138.0.0.0 Safari/537.36","WebKit","Chrome","138.0.0.0","Windows","10.0","https://app.prolific.com/","en-GB,en-US;q=0.9,en;q=0.8","67215aa0a8e88c6751efc410","683db7602f5db6a34d12d064","686e902a6a55e34cfc0b88c7","1","67215aa0a8e88c6751efc410","1","2025-07-09T16:14:04.844Z","","","","","","","","","","","ControlQ","","50","","","","","","","","","","","","","","","","","","","","","","","","","","","","",""
"6979","","<div style=""width:500px;"">
  <p>How would you describe your current emotional state?</p>
  </div>","60","html-slider-response","67","1303655","0.0-5.0-3.11","32","1","2025-07-09 15:52:20","01610cd0009c79a99da7d0a3353eb402","197.184.125.0","Mozilla/5.0 (Windows NT 10.0; Win64; x64) AppleWebKit/537.36 (KHTML, like Gecko) Chrome/138.0.0.0 Safari/537.36","WebKit","Chrome","138.0.0.0","Windows","10.0","https://app.prolific.com/","en-GB,en-US;q=0.9,en;q=0.8","67215aa0a8e88c6751efc410","683db7602f5db6a34d12d064","686e902a6a55e34cfc0b88c7","1","67215aa0a8e88c6751efc410","1","2025-07-09T16:14:11.834Z","","","","","","","","","","","StressQ","","50","","","","","","","","","","","","","","","","","","","","","","","","","","","","",""
"5630","","<div style=""width:500px;"">
  <p>What best describes how you currently feel?</p>
  </div>","67","html-slider-response","68","1309293","0.0-5.0-4.11","32","1","2025-07-09 15:52:20","01610cd0009c79a99da7d0a3353eb402","197.184.125.0","Mozilla/5.0 (Windows NT 10.0; Win64; x64) AppleWebKit/537.36 (KHTML, like Gecko) Chrome/138.0.0.0 Safari/537.36","WebKit","Chrome","138.0.0.0","Windows","10.0","https://app.prolific.com/","en-GB,en-US;q=0.9,en;q=0.8","67215aa0a8e88c6751efc410","683db7602f5db6a34d12d064","686e902a6a55e34cfc0b88c7","1","67215aa0a8e88c6751efc410","1","2025-07-09T16:14:17.473Z","","","","","","","","","","","MotivationQ","","50","","","","","","","","","","","","","","","","","","","","","","","","","","","","",""
"","","","","ctl-task-cpt","69","1374741","0.0-5.0-0.12","32","1","2025-07-09 15:52:20","01610cd0009c79a99da7d0a3353eb402","197.184.125.0","Mozilla/5.0 (Windows NT 10.0; Win64; x64) AppleWebKit/537.36 (KHTML, like Gecko) Chrome/138.0.0.0 Safari/537.36","WebKit","Chrome","138.0.0.0","Windows","10.0","https://app.prolific.com/","en-GB,en-US;q=0.9,en;q=0.8","67215aa0a8e88c6751efc410","683db7602f5db6a34d12d064","686e902a6a55e34cfc0b88c7","1","67215aa0a8e88c6751efc410","1","2025-07-09T16:15:22.921Z","","","","","","","","","","","","","","win-only","1","g1:NE,g2:SW","0.7","13","0","1318736.6","1233.9","6246.9","62395.9","1","4","4","6","2","4","4","76","72","0.5757575757575758","1160.3","3000","2565","[""down"",""left""]","{""num_key_presses"":6,""num_perfect"":4,""num_errors"":0,""num_randdir"":2,""num_randdir_good_moves"":2,""num_whilered"":0,""num_whileblue"":0,""num_blue"":9,""num_good_moves"":6}","[298.22232142857143,292.12857142857143,0.8,298.22232142857143,292.12857142857143,127.3,298.22232142857143,292.12857142857143,237.7,298.22232142857143,292.12857142857143,352.8,298.22232142857143,294.12857142857143,459.5,283.22232142857143,305.12857142857143,591.1,181.22232142857143,367.12857142857143,691.6,86.22232142857143,437.12857142857143,798.6,35.222321428571426,510.12857142857143,925.8,23.222321428571426,537.1285714285714,1047.2,23.222321428571426,537.1285714285714,1201,23.222321428571426,537.1285714285714,1317.5,28.222321428571426,524.1285714285714,1460.2,34.222321428571426,523.1285714285714,1599.1,35.222321428571426,523.1285714285714,1707.9,46.222321428571426,528.1285714285714,1828.9,46.222321428571426,528.1285714285714,1962.5,46.222321428571426,528.1285714285714,2095.2,46.222321428571426,528.1285714285714,2228.7,46.222321428571426,528.1285714285714,2364.9,46.222321428571426,528.1285714285714,2495.4,46.222321428571426,528.1285714285714,2631.7,87.22232142857143,542.1285714285714,2787.7,152.22232142857143,559.1285714285714,2917.7,152.22232142857143,559.1285714285714,3044.5,152.22232142857143,559.1285714285714,3185.8,152.22232142857143,559.1285714285714,3303.3,152.22232142857143,559.1285714285714,3425.1,152.22232142857143,559.1285714285714,3555.4,152.22232142857143,559.1285714285714,3677.2,152.22232142857143,559.1285714285714,3819.6,152.22232142857143,559.1285714285714,3957.7,152.22232142857143,559.1285714285714,4093.6,152.22232142857143,559.1285714285714,4227.4,152.22232142857143,559.1285714285714,4361.8,152.22232142857143,559.1285714285714,4470.4,152.22232142857143,559.1285714285714,4607.2,152.22232142857143,559.1285714285714,4743.6,152.22232142857143,559.1285714285714,4872.1]","[16475.9,16475.9,2491.8,13434.2,549.9,""oops"",""down"",""left"",""good_move"",25625.2,9144.7,1090.6,16480.5,8054.1,""smooth"",""down"",""down"",""good_move"",28639.1,3011,2455.4,25628.1,555.6,""smooth"",""down"",""down"",""good_move"",34397.5,5756.8,1630.9,32210.9,555.7,""smooth"",""down"",""down"",""good_move"",51377.3,16978.3,2697.2,48108.1,572,""smooth"",""left"",""left"",""good_move"",55665.1,4286.8,2837.2,51378.5,1449.4,""oops"",""left"",""left"",""good_move""]","",""
"8365","","<div style=""width:500px;"">
  <p>What determined the result of this run?</p>
  </div>","90","html-slider-response","70","1383110","0.0-5.0-1.12","32","1","2025-07-09 15:52:20","01610cd0009c79a99da7d0a3353eb402","197.184.125.0","Mozilla/5.0 (Windows NT 10.0; Win64; x64) AppleWebKit/537.36 (KHTML, like Gecko) Chrome/138.0.0.0 Safari/537.36","WebKit","Chrome","138.0.0.0","Windows","10.0","https://app.prolific.com/","en-GB,en-US;q=0.9,en;q=0.8","67215aa0a8e88c6751efc410","683db7602f5db6a34d12d064","686e902a6a55e34cfc0b88c7","1","67215aa0a8e88c6751efc410","1","2025-07-09T16:15:31.290Z","","","","","","","","","","","AttribQ","","50","","","","","","","","","","","","","","","","","","","","","","","","","","","","",""
"3129","","<div style=""width:500px;"">
  <p>How much control did you have over the ball?</p>
  </div>","69","html-slider-response","71","1386246","0.0-5.0-2.12","32","1","2025-07-09 15:52:20","01610cd0009c79a99da7d0a3353eb402","197.184.125.0","Mozilla/5.0 (Windows NT 10.0; Win64; x64) AppleWebKit/537.36 (KHTML, like Gecko) Chrome/138.0.0.0 Safari/537.36","WebKit","Chrome","138.0.0.0","Windows","10.0","https://app.prolific.com/","en-GB,en-US;q=0.9,en;q=0.8","67215aa0a8e88c6751efc410","683db7602f5db6a34d12d064","686e902a6a55e34cfc0b88c7","1","67215aa0a8e88c6751efc410","1","2025-07-09T16:15:34.425Z","","","","","","","","","","","ControlQ","","50","","","","","","","","","","","","","","","","","","","","","","","","","","","","",""
"2830","","<div style=""width:500px;"">
  <p>How would you describe your current emotional state?</p>
  </div>","57","html-slider-response","72","1389082","0.0-5.0-3.12","32","1","2025-07-09 15:52:20","01610cd0009c79a99da7d0a3353eb402","197.184.125.0","Mozilla/5.0 (Windows NT 10.0; Win64; x64) AppleWebKit/537.36 (KHTML, like Gecko) Chrome/138.0.0.0 Safari/537.36","WebKit","Chrome","138.0.0.0","Windows","10.0","https://app.prolific.com/","en-GB,en-US;q=0.9,en;q=0.8","67215aa0a8e88c6751efc410","683db7602f5db6a34d12d064","686e902a6a55e34cfc0b88c7","1","67215aa0a8e88c6751efc410","1","2025-07-09T16:15:37.262Z","","","","","","","","","","","StressQ","","50","","","","","","","","","","","","","","","","","","","","","","","","","","","","",""
"2938","","<div style=""width:500px;"">
  <p>What best describes how you currently feel?</p>
  </div>","66","html-slider-response","73","1392024","0.0-5.0-4.12","32","1","2025-07-09 15:52:20","01610cd0009c79a99da7d0a3353eb402","197.184.125.0","Mozilla/5.0 (Windows NT 10.0; Win64; x64) AppleWebKit/537.36 (KHTML, like Gecko) Chrome/138.0.0.0 Safari/537.36","WebKit","Chrome","138.0.0.0","Windows","10.0","https://app.prolific.com/","en-GB,en-US;q=0.9,en;q=0.8","67215aa0a8e88c6751efc410","683db7602f5db6a34d12d064","686e902a6a55e34cfc0b88c7","1","67215aa0a8e88c6751efc410","1","2025-07-09T16:15:40.203Z","","","","","","","","","","","MotivationQ","","50","","","","","","","","","","","","","","","","","","","","","","","","","","","","",""
