"rt","response_timestamp","stimulus","response","trial_type","trial_index","time_elapsed","internal_node_id","run_id","condition","recorded_at","source_code_version","ip","user_agent","device","browser","browser_version","platform","platform_version","referer","accept_language","PROLIFIC_PID","STUDY_ID","SESSION_ID","WEEK","BATCH","prolific_id","week","batch","realtime","success","responses","item_order","radio_event_ids","radio_event_times","key_event_times","mouse_event_times","straightlining","zigzagging","honeypot","eventType","view_history","slider_start","which_type","canvas_config","goals_layout","control_level","trial_number","tutorial_trial_number","trial_start_time","phase1_start_time","phase2_start_time","phase3_start_time","goal_1_value","goal_1_distance","goal_2_value","goal_2_distance","goal_selected","outcome","outcome_total","participant_final_score","participant_initial_score","participant_final_score_prop","goal_choice_rt","allocated_time","allocated_time_remaining","goal_direction","counts","mouse_movements","key_presses","question_order","question_id"
"10698","1752703233420","<p style='font-size:40px;line-height:1.25'><strong>Welcome to the experiment!</strong></p><p style='font-size:1.1em;line-height:1.25'>Thank you for participanting in our experiment again! You will be asked to play the Dysfunctional Ball Game again. We will briefly recap the rules before we start.</p><p style='font-size:1.1em;line-height:1.25'>Press <strong>Next</strong> to continue.</p>","0","custom-html-button-response","0","10703","0.0-0.0","128","1","2025-07-16 22:00:18","1f75c3e559b7213887762d5229550c2b","41.116.116.179","Mozilla/5.0 (Windows NT 10.0; Win64; x64) AppleWebKit/537.36 (KHTML, like Gecko) Chrome/138.0.0.0 Safari/537.36","WebKit","Chrome","138.0.0.0","Windows","10.0","https://app.prolific.com/","en-GB,en-US;q=0.9,en;q=0.8","67215aa0a8e88c6751efc410","68764874ac79eee8c1d4cb03","687820a5ac67a4d7ac96c437","2","0","67215aa0a8e88c6751efc410","2","0","2025-07-16T22:00:33.422Z","","","","","","","","","","","","","","","","","","","","","","","","","","","","","","","","","","","","","","","","","",""
"37576","","","","fullscreen","1","49288","0.0-1.0","128","1","2025-07-16 22:00:18","1f75c3e559b7213887762d5229550c2b","41.116.116.179","Mozilla/5.0 (Windows NT 10.0; Win64; x64) AppleWebKit/537.36 (KHTML, like Gecko) Chrome/138.0.0.0 Safari/537.36","WebKit","Chrome","138.0.0.0","Windows","10.0","https://app.prolific.com/","en-GB,en-US;q=0.9,en;q=0.8","67215aa0a8e88c6751efc410","68764874ac79eee8c1d4cb03","687820a5ac67a4d7ac96c437","2","0","67215aa0a8e88c6751efc410","2","0","","true","","","","","","","","","","","","","","","","","","","","","","","","","","","","","","","","","","","","","","","","",""
"9945","1752703281956","<p style='font-size:1.1em;line-height:1.25'>In the following, we will ask you a few questions relating to your feelings in the last 24 hours.<br></p><p style='font-size:1.1em;line-height:1.25'>Press the <strong>Next</strong> button to continue.</p>","0","custom-html-button-response","2","59238","0.0-2.0-0.0","128","1","2025-07-16 22:00:18","1f75c3e559b7213887762d5229550c2b","41.116.116.179","Mozilla/5.0 (Windows NT 10.0; Win64; x64) AppleWebKit/537.36 (KHTML, like Gecko) Chrome/138.0.0.0 Safari/537.36","WebKit","Chrome","138.0.0.0","Windows","10.0","https://app.prolific.com/","en-GB,en-US;q=0.9,en;q=0.8","67215aa0a8e88c6751efc410","68764874ac79eee8c1d4cb03","687820a5ac67a4d7ac96c437","2","0","67215aa0a8e88c6751efc410","2","0","2025-07-16T22:01:21.957Z","","","","","","","","","","","","","","","","","","","","","","","","","","","","","","","","","","","","","","","","","",""
"116311.59999999776","","","","survey-template","3","175561","0.0-2.0-1.0","128","1","2025-07-16 22:00:18","1f75c3e559b7213887762d5229550c2b","41.116.116.179","Mozilla/5.0 (Windows NT 10.0; Win64; x64) AppleWebKit/537.36 (KHTML, like Gecko) Chrome/138.0.0.0 Safari/537.36","WebKit","Chrome","138.0.0.0","Windows","10.0","https://app.prolific.com/","en-GB,en-US;q=0.9,en;q=0.8","67215aa0a8e88c6751efc410","68764874ac79eee8c1d4cb03","687820a5ac67a4d7ac96c437","2","0","67215aa0a8e88c6751efc410","2","0","2025-07-16T22:03:18.280Z","","{""Q01"":""0"",""Q02"":""0"",""Q03"":""1"",""Q04"":""1"",""Q05"":""2"",""Q06"":""1"",""Q07"":""3"",""Q08"":""1"",""Q09"":""1"",""Q10"":""1"",""Q11"":""3"",""Q12"":""3"",""Q13"":""5"",""Q14"":""3"",""Q15"":""0"",""Q16"":""0"",""Q17"":""1"",""Q18"":""1"",""Q19"":""2"",""Q20"":""0"",""Q21"":""0"",""Q22"":""1""}","[0,1,2,3,4,5,6,7,8,9,10,11,12,13,14,15,16,17,18,19,20,21]","[""Q01"",""Q02"",""Q03"",""Q04"",""Q05"",""Q06"",""Q07"",""Q08"",""Q09"",""Q10"",""Q11"",""Q12"",""Q13"",""Q14"",""Q15"",""Q16"",""Q17"",""Q18"",""Q19"",""Q20"",""Q21"",""Q22""]","[8557.199999999255,9730.699999999255,16222,19163.39999999851,24627.699999999255,31077.599999997765,33179.5,38995.39999999851,41187.300000000745,46107.5,49659.300000000745,54603.699999999255,56435.199999999255,59763.199999999255,67726.80000000075,76579.39999999851,81356.59999999776,82411.30000000075,89347.19999999925,96667.19999999925,101171.30000000075,106914.59999999776]","[]","[0.19999999925494194,8557.199999999255,9730.699999999255,16222,19163.39999999851,24627.699999999255,31077.599999997765,33179.5,38995.39999999851,41187.300000000745,46107.5,49659.300000000745,54603.699999999255,56435.199999999255,59763.199999999255,67726.80000000075,72939.5,76579.39999999851,81356.59999999776,82411.30000000075,89347.19999999925,96667.19999999925,101171.30000000075,106914.59999999776,116299.69999999925]","0.4090909090909091","0.2857142857142857","0","drsp","","","","","","","","","","","","","","","","","","","","","","","","","","","","","","",""
"14858.699999999255","","","","survey-template","4","190424","0.0-2.0-2.0","128","1","2025-07-16 22:00:18","1f75c3e559b7213887762d5229550c2b","41.116.116.179","Mozilla/5.0 (Windows NT 10.0; Win64; x64) AppleWebKit/537.36 (KHTML, like Gecko) Chrome/138.0.0.0 Safari/537.36","WebKit","Chrome","138.0.0.0","Windows","10.0","https://app.prolific.com/","en-GB,en-US;q=0.9,en;q=0.8","67215aa0a8e88c6751efc410","68764874ac79eee8c1d4cb03","687820a5ac67a4d7ac96c437","2","0","67215aa0a8e88c6751efc410","2","0","2025-07-16T22:03:33.143Z","","{""Q01"":""1"",""Q02"":""4"",""Q03"":""0""}","[0,1,2]","[""Q01"",""Q02"",""Q03""]","[5102.199999999255,9285.39999999851,12053.89999999851]","[]","[5102.199999999255,9285.39999999851,12053.89999999851,14856.39999999851]","0.6666666666666666","0.5","0","stress","","","","","","","","","","","","","","","","","","","","","","","","","","","","","","",""
"48953","","","","instructions","5","239378","0.0-3.0-0.0","128","1","2025-07-16 22:00:18","1f75c3e559b7213887762d5229550c2b","41.116.116.179","Mozilla/5.0 (Windows NT 10.0; Win64; x64) AppleWebKit/537.36 (KHTML, like Gecko) Chrome/138.0.0.0 Safari/537.36","WebKit","Chrome","138.0.0.0","Windows","10.0","https://app.prolific.com/","en-GB,en-US;q=0.9,en;q=0.8","67215aa0a8e88c6751efc410","68764874ac79eee8c1d4cb03","687820a5ac67a4d7ac96c437","2","0","67215aa0a8e88c6751efc410","2","0","","","","","","","","","","","","","[{""page_index"":0,""viewing_time"":48952}]","","","","","","","","","","","","","","","","","","","","","","","","","","","","","",""
"15372","","<p>Before you start with this game please answer the following three questions yourself. </p>
  <p>Through this game, we measure several aspects of your cognitive performance, such as reaction times, multi-tasking capabilities </p>
  <p>and the ability to assess the situation you are in.</p>
  <p></p>
  <p><b>How good do you usually are in such tasks?</b></p>","90","html-slider-response","6","254755","0.0-4.0-0.0","128","1","2025-07-16 22:00:18","1f75c3e559b7213887762d5229550c2b","41.116.116.179","Mozilla/5.0 (Windows NT 10.0; Win64; x64) AppleWebKit/537.36 (KHTML, like Gecko) Chrome/138.0.0.0 Safari/537.36","WebKit","Chrome","138.0.0.0","Windows","10.0","https://app.prolific.com/","en-GB,en-US;q=0.9,en;q=0.8","67215aa0a8e88c6751efc410","68764874ac79eee8c1d4cb03","687820a5ac67a4d7ac96c437","2","0","67215aa0a8e88c6751efc410","2","0","2025-07-16T22:04:37.474Z","","","","","","","","","","","PreSkillQ","","50","","","","","","","","","","","","","","","","","","","","","","","","","","","","",""
"7428","","<div style=""width:500px;"">
  <p>How well do you think you will perform in this task compared to other participants?</p>
  </div>","92","html-slider-response","7","262186","0.0-4.0-1.0","128","1","2025-07-16 22:00:18","1f75c3e559b7213887762d5229550c2b","41.116.116.179","Mozilla/5.0 (Windows NT 10.0; Win64; x64) AppleWebKit/537.36 (KHTML, like Gecko) Chrome/138.0.0.0 Safari/537.36","WebKit","Chrome","138.0.0.0","Windows","10.0","https://app.prolific.com/","en-GB,en-US;q=0.9,en;q=0.8","67215aa0a8e88c6751efc410","68764874ac79eee8c1d4cb03","687820a5ac67a4d7ac96c437","2","0","67215aa0a8e88c6751efc410","2","0","2025-07-16T22:04:44.906Z","","","","","","","","","","","PrePerfQ","","50","","","","","","","","","","","","","","","","","","","","","","","","","","","","",""
"8789","","<div style=""width:500px;"">
  <p>What best describes how you currently feel?</p>
  </div>","40","html-slider-response","8","270978","0.0-4.0-2.0","128","1","2025-07-16 22:00:18","1f75c3e559b7213887762d5229550c2b","41.116.116.179","Mozilla/5.0 (Windows NT 10.0; Win64; x64) AppleWebKit/537.36 (KHTML, like Gecko) Chrome/138.0.0.0 Safari/537.36","WebKit","Chrome","138.0.0.0","Windows","10.0","https://app.prolific.com/","en-GB,en-US;q=0.9,en;q=0.8","67215aa0a8e88c6751efc410","68764874ac79eee8c1d4cb03","687820a5ac67a4d7ac96c437","2","0","67215aa0a8e88c6751efc410","2","0","2025-07-16T22:04:53.697Z","","","","","","","","","","","PreMotivationQ","","50","","","","","","","","","","","","","","","","","","","","","","","","","","","","",""
"","","","","ctl-task-cpt","9","298315","0.0-5.0-0.0","128","1","2025-07-16 22:00:18","1f75c3e559b7213887762d5229550c2b","41.116.116.179","Mozilla/5.0 (Windows NT 10.0; Win64; x64) AppleWebKit/537.36 (KHTML, like Gecko) Chrome/138.0.0.0 Safari/537.36","WebKit","Chrome","138.0.0.0","Windows","10.0","https://app.prolific.com/","en-GB,en-US;q=0.9,en;q=0.8","67215aa0a8e88c6751efc410","68764874ac79eee8c1d4cb03","687820a5ac67a4d7ac96c437","2","0","67215aa0a8e88c6751efc410","2","0","2025-07-16T22:05:21.035Z","","","","","","","","","","","","","","win-only","0","g1:NW,g2:SE","1","1","0","278088.9","1830.5","6832.8","24327.3","1","4","4","6","2","4","4","4","0","0.030303030303030304","1674.4","3000","705","[""down"",""right""]","{""num_key_presses"":6,""num_perfect"":6,""num_errors"":0,""num_randdir"":0,""num_randdir_good_moves"":0,""num_whilered"":0,""num_whileblue"":0,""num_blue"":1,""num_good_moves"":6}","[292.22232142857143,301.12857142857143,1.5,292.22232142857143,301.12857142857143,101.7,292.22232142857143,301.12857142857143,204.9,292.22232142857143,301.12857142857143,306.3,292.22232142857143,301.12857142857143,412.4,292.22232142857143,301.12857142857143,515.4,360.22232142857143,400.12857142857143,622.3,445.22232142857143,500.12857142857143,726.7,492.22232142857143,532.1285714285714,834.4,499.22232142857143,532.1285714285714,934.4,602.2223214285714,562.1285714285714,1035,616.2223214285714,568.1285714285714,1135.3,616.2223214285714,568.1285714285714,1236.2,616.2223214285714,568.1285714285714,1337,573.2223214285714,563.1285714285714,1445.3,573.2223214285714,563.1285714285714,1546.8,573.2223214285714,563.1285714285714,1667.1,573.2223214285714,563.1285714285714,1772.3,573.2223214285714,563.1285714285714,1877,573.2223214285714,563.1285714285714,1982.8,573.2223214285714,563.1285714285714,2083.4,563.2223214285714,566.1285714285714,2188.3,523.2223214285714,577.1285714285714,2291.4,490.22232142857143,590.1285714285714,2392.2,471.22232142857143,597.1285714285714,2498.3,469.22232142857143,598.1285714285714,2598.5,469.22232142857143,598.1285714285714,2701.5,469.22232142857143,598.1285714285714,2802,469.22232142857143,598.1285714285714,2906.4,469.22232142857143,598.1285714285714,3017.1,469.22232142857143,598.1285714285714,3121.3,469.22232142857143,598.1285714285714,3227.1,469.22232142857143,598.1285714285714,3328.5,469.22232142857143,598.1285714285714,3435.6,469.22232142857143,598.1285714285714,3535.9,469.22232142857143,598.1285714285714,3636.1,469.22232142857143,598.1285714285714,3736.7,469.22232142857143,598.1285714285714,3842.3,469.22232142857143,598.1285714285714,3946.3,469.22232142857143,598.1285714285714,4052.1,469.22232142857143,598.1285714285714,4155.3,469.22232142857143,598.1285714285714,4256.2,469.22232142857143,598.1285714285714,4356.3,469.22232142857143,598.1285714285714,4461.4,469.22232142857143,598.1285714285714,4562.8,469.22232142857143,598.1285714285714,4666.3,469.22232142857143,598.1285714285714,4766.4,469.22232142857143,598.1285714285714,4866.5,469.22232142857143,598.1285714285714,4966.5]","[1563.3,1563.3,1000,0.1,563.3,""smooth"",""down"",""down"",""good_move"",3770.6,2204.5,1743.3,1566.2,461.1,""smooth"",""down"",""down"",""good_move"",6198.6,2426.5,2006.9,3772.1,419.6,""smooth"",""down"",""down"",""good_move"",8863.1,2663.2,2261.1,6200,402,""smooth"",""right"",""right"",""good_move"",14166.3,5301.6,2249.2,11529.6,387.5,""smooth"",""right"",""right"",""good_move"",17381.4,3214.4,2755.3,14167.2,458.9,""smooth"",""right"",""right"",""good_move""]","",""
"10077","","<div style=""width:500px;"">
  <p>What determined the result of this run?</p>
  </div>","100","html-slider-response","10","308395","0.0-5.0-1.0","128","1","2025-07-16 22:00:18","1f75c3e559b7213887762d5229550c2b","41.116.116.179","Mozilla/5.0 (Windows NT 10.0; Win64; x64) AppleWebKit/537.36 (KHTML, like Gecko) Chrome/138.0.0.0 Safari/537.36","WebKit","Chrome","138.0.0.0","Windows","10.0","https://app.prolific.com/","en-GB,en-US;q=0.9,en;q=0.8","67215aa0a8e88c6751efc410","68764874ac79eee8c1d4cb03","687820a5ac67a4d7ac96c437","2","0","67215aa0a8e88c6751efc410","2","0","2025-07-16T22:05:31.114Z","","","","","","","","","","","AttribQ","","50","","","","","","","","","","","","","","","","","","","","","","","","","","","","",""
"3473","","<div style=""width:500px;"">
  <p>How much control did you have over the ball?</p>
  </div>","100","html-slider-response","11","311872","0.0-5.0-2.0","128","1","2025-07-16 22:00:18","1f75c3e559b7213887762d5229550c2b","41.116.116.179","Mozilla/5.0 (Windows NT 10.0; Win64; x64) AppleWebKit/537.36 (KHTML, like Gecko) Chrome/138.0.0.0 Safari/537.36","WebKit","Chrome","138.0.0.0","Windows","10.0","https://app.prolific.com/","en-GB,en-US;q=0.9,en;q=0.8","67215aa0a8e88c6751efc410","68764874ac79eee8c1d4cb03","687820a5ac67a4d7ac96c437","2","0","67215aa0a8e88c6751efc410","2","0","2025-07-16T22:05:34.591Z","","","","","","","","","","","ControlQ","","50","","","","","","","","","","","","","","","","","","","","","","","","","","","","",""
"6648","","<div style=""width:500px;"">
  <p>How would you describe your current emotional state?</p>
  </div>","8","html-slider-response","12","318522","0.0-5.0-3.0","128","1","2025-07-16 22:00:18","1f75c3e559b7213887762d5229550c2b","41.116.116.179","Mozilla/5.0 (Windows NT 10.0; Win64; x64) AppleWebKit/537.36 (KHTML, like Gecko) Chrome/138.0.0.0 Safari/537.36","WebKit","Chrome","138.0.0.0","Windows","10.0","https://app.prolific.com/","en-GB,en-US;q=0.9,en;q=0.8","67215aa0a8e88c6751efc410","68764874ac79eee8c1d4cb03","687820a5ac67a4d7ac96c437","2","0","67215aa0a8e88c6751efc410","2","0","2025-07-16T22:05:41.242Z","","","","","","","","","","","StressQ","","50","","","","","","","","","","","","","","","","","","","","","","","","","","","","",""
"6341","","<div style=""width:500px;"">
  <p>What best describes how you currently feel?</p>
  </div>","50","html-slider-response","13","324866","0.0-5.0-4.0","128","1","2025-07-16 22:00:18","1f75c3e559b7213887762d5229550c2b","41.116.116.179","Mozilla/5.0 (Windows NT 10.0; Win64; x64) AppleWebKit/537.36 (KHTML, like Gecko) Chrome/138.0.0.0 Safari/537.36","WebKit","Chrome","138.0.0.0","Windows","10.0","https://app.prolific.com/","en-GB,en-US;q=0.9,en;q=0.8","67215aa0a8e88c6751efc410","68764874ac79eee8c1d4cb03","687820a5ac67a4d7ac96c437","2","0","67215aa0a8e88c6751efc410","2","0","2025-07-16T22:05:47.586Z","","","","","","","","","","","MotivationQ","","50","","","","","","","","","","","","","","","","","","","","","","","","","","","","",""
"","","","","ctl-task-cpt","14","356903","0.0-5.0-0.1","128","1","2025-07-16 22:00:18","1f75c3e559b7213887762d5229550c2b","41.116.116.179","Mozilla/5.0 (Windows NT 10.0; Win64; x64) AppleWebKit/537.36 (KHTML, like Gecko) Chrome/138.0.0.0 Safari/537.36","WebKit","Chrome","138.0.0.0","Windows","10.0","https://app.prolific.com/","en-GB,en-US;q=0.9,en;q=0.8","67215aa0a8e88c6751efc410","68764874ac79eee8c1d4cb03","687820a5ac67a4d7ac96c437","2","0","67215aa0a8e88c6751efc410","2","0","2025-07-16T22:06:19.622Z","","","","","","","","","","","","","","win-only","0","g1:NW,g2:SE","0.9","2","0","331972","1686.1","6687.8","29016.7","1","4","8","6","2","8","8","12","4","0.09090909090909091","1030.8","3000","820","[""down"",""right""]","{""num_key_presses"":6,""num_perfect"":6,""num_errors"":0,""num_randdir"":0,""num_randdir_good_moves"":0,""num_whilered"":0,""num_whileblue"":0,""num_blue"":1,""num_good_moves"":6}","[293.22232142857143,298.12857142857143,1,293.22232142857143,298.12857142857143,100.1,293.22232142857143,298.12857142857143,210.2,293.22232142857143,298.12857142857143,310.4,293.22232142857143,298.12857142857143,415.2,329.22232142857143,391.12857142857143,518.2,450.22232142857143,493.12857142857143,620,492.22232142857143,542.1285714285714,720.5,508.22232142857143,557.1285714285714,824.2,508.22232142857143,557.1285714285714,926.5,508.22232142857143,557.1285714285714,1026.6,508.22232142857143,557.1285714285714,1128.3,508.22232142857143,557.1285714285714,1228.7,508.22232142857143,557.1285714285714,1328.9,429.22232142857143,573.1285714285714,1432.5,359.22232142857143,575.1285714285714,1535.1,359.22232142857143,575.1285714285714,1635.3,359.22232142857143,575.1285714285714,1735.9,359.22232142857143,575.1285714285714,1836.8,359.22232142857143,575.1285714285714,1945.2,359.22232142857143,575.1285714285714,2052.6,359.22232142857143,575.1285714285714,2155.9,359.22232142857143,575.1285714285714,2259.9,359.22232142857143,575.1285714285714,2364.6,359.22232142857143,575.1285714285714,2465.4,359.22232142857143,575.1285714285714,2576,359.22232142857143,575.1285714285714,2676.3,359.22232142857143,575.1285714285714,2781.2,359.22232142857143,575.1285714285714,2885.3,359.22232142857143,575.1285714285714,2985.5,359.22232142857143,575.1285714285714,3094.8,359.22232142857143,575.1285714285714,3200.8,359.22232142857143,575.1285714285714,3309.8,359.22232142857143,575.1285714285714,3410.3,359.22232142857143,575.1285714285714,3515.6,359.22232142857143,575.1285714285714,3615.6,359.22232142857143,575.1285714285714,3726.1,359.22232142857143,575.1285714285714,3827.5,359.22232142857143,575.1285714285714,3930,359.22232142857143,575.1285714285714,4031.5,359.22232142857143,575.1285714285714,4135.6,359.22232142857143,575.1285714285714,4235.9,359.22232142857143,575.1285714285714,4345,359.22232142857143,575.1285714285714,4445.7,359.22232142857143,575.1285714285714,4550.1,359.22232142857143,575.1285714285714,4650.3,359.22232142857143,575.1285714285714,4759.1,359.22232142857143,575.1285714285714,4860.8,359.22232142857143,575.1285714285714,4961]","[1409.3,1409.3,1000,0,409.3,""smooth"",""down"",""down"",""good_move"",5041.1,3626.9,3187.2,1414.2,439.7,""smooth"",""down"",""down"",""good_move"",11997,6954.3,2315.2,9207.9,473.9,""smooth"",""down"",""down"",""good_move"",15679.2,3681.5,3307.9,11997.8,373.5,""smooth"",""right"",""right"",""good_move"",18993.9,3313.2,2899.8,15680.7,413.4,""smooth"",""right"",""right"",""good_move"",22217.7,3221.8,2824.3,18996,397.4,""smooth"",""right"",""right"",""good_move""]","",""
"3602","","<div style=""width:500px;"">
  <p>What determined the result of this run?</p>
  </div>","100","html-slider-response","15","360512","0.0-5.0-1.1","128","1","2025-07-16 22:00:18","1f75c3e559b7213887762d5229550c2b","41.116.116.179","Mozilla/5.0 (Windows NT 10.0; Win64; x64) AppleWebKit/537.36 (KHTML, like Gecko) Chrome/138.0.0.0 Safari/537.36","WebKit","Chrome","138.0.0.0","Windows","10.0","https://app.prolific.com/","en-GB,en-US;q=0.9,en;q=0.8","67215aa0a8e88c6751efc410","68764874ac79eee8c1d4cb03","687820a5ac67a4d7ac96c437","2","0","67215aa0a8e88c6751efc410","2","0","2025-07-16T22:06:23.231Z","","","","","","","","","","","AttribQ","","50","","","","","","","","","","","","","","","","","","","","","","","","","","","","",""
"2403","","<div style=""width:500px;"">
  <p>How much control did you have over the ball?</p>
  </div>","100","html-slider-response","16","362919","0.0-5.0-2.1","128","1","2025-07-16 22:00:18","1f75c3e559b7213887762d5229550c2b","41.116.116.179","Mozilla/5.0 (Windows NT 10.0; Win64; x64) AppleWebKit/537.36 (KHTML, like Gecko) Chrome/138.0.0.0 Safari/537.36","WebKit","Chrome","138.0.0.0","Windows","10.0","https://app.prolific.com/","en-GB,en-US;q=0.9,en;q=0.8","67215aa0a8e88c6751efc410","68764874ac79eee8c1d4cb03","687820a5ac67a4d7ac96c437","2","0","67215aa0a8e88c6751efc410","2","0","2025-07-16T22:06:25.638Z","","","","","","","","","","","ControlQ","","50","","","","","","","","","","","","","","","","","","","","","","","","","","","","",""
"3426","","<div style=""width:500px;"">
  <p>How would you describe your current emotional state?</p>
  </div>","9","html-slider-response","17","366347","0.0-5.0-3.1","128","1","2025-07-16 22:00:18","1f75c3e559b7213887762d5229550c2b","41.116.116.179","Mozilla/5.0 (Windows NT 10.0; Win64; x64) AppleWebKit/537.36 (KHTML, like Gecko) Chrome/138.0.0.0 Safari/537.36","WebKit","Chrome","138.0.0.0","Windows","10.0","https://app.prolific.com/","en-GB,en-US;q=0.9,en;q=0.8","67215aa0a8e88c6751efc410","68764874ac79eee8c1d4cb03","687820a5ac67a4d7ac96c437","2","0","67215aa0a8e88c6751efc410","2","0","2025-07-16T22:06:29.066Z","","","","","","","","","","","StressQ","","50","","","","","","","","","","","","","","","","","","","","","","","","","","","","",""
"13981","","<div style=""width:500px;"">
  <p>What best describes how you currently feel?</p>
  </div>","51","html-slider-response","18","380330","0.0-5.0-4.1","128","1","2025-07-16 22:00:18","1f75c3e559b7213887762d5229550c2b","41.116.116.179","Mozilla/5.0 (Windows NT 10.0; Win64; x64) AppleWebKit/537.36 (KHTML, like Gecko) Chrome/138.0.0.0 Safari/537.36","WebKit","Chrome","138.0.0.0","Windows","10.0","https://app.prolific.com/","en-GB,en-US;q=0.9,en;q=0.8","67215aa0a8e88c6751efc410","68764874ac79eee8c1d4cb03","687820a5ac67a4d7ac96c437","2","0","67215aa0a8e88c6751efc410","2","0","2025-07-16T22:06:43.049Z","","","","","","","","","","","MotivationQ","","50","","","","","","","","","","","","","","","","","","","","","","","","","","","","",""
"","","","","ctl-task-cpt","19","415132","0.0-5.0-0.2","128","1","2025-07-16 22:00:18","1f75c3e559b7213887762d5229550c2b","41.116.116.179","Mozilla/5.0 (Windows NT 10.0; Win64; x64) AppleWebKit/537.36 (KHTML, like Gecko) Chrome/138.0.0.0 Safari/537.36","WebKit","Chrome","138.0.0.0","Windows","10.0","https://app.prolific.com/","en-GB,en-US;q=0.9,en;q=0.8","67215aa0a8e88c6751efc410","68764874ac79eee8c1d4cb03","687820a5ac67a4d7ac96c437","2","0","67215aa0a8e88c6751efc410","2","0","2025-07-16T22:07:17.852Z","","","","","","","","","","","","","","win-only","2","g1:SE,g2:NW","0.8","3","0","387437.4","1548.9","6552.2","31789.5","1","4","8","6","2","8","8","20","12","0.15151515151515152","1264.3","3000","540","[""left"",""up""]","{""num_key_presses"":8,""num_perfect"":6,""num_errors"":0,""num_randdir"":2,""num_randdir_good_moves"":1,""num_whilered"":0,""num_whileblue"":0,""num_blue"":1,""num_good_moves"":7}","[292.22232142857143,301.12857142857143,1.4,292.22232142857143,301.12857142857143,101.6,292.22232142857143,301.12857142857143,202.5,292.22232142857143,301.12857142857143,309.8,292.22232142857143,301.12857142857143,412.6,292.22232142857143,301.12857142857143,514.7,259.22232142857143,222.12857142857143,627.3,165.22232142857143,133.12857142857143,727.8,73.22232142857143,115.12857142857143,828.4,57.222321428571426,104.12857142857143,937.3,51.222321428571426,91.12857142857143,1038.8,53.222321428571426,81.12857142857143,1145.7,53.222321428571426,80.12857142857143,1248,53.222321428571426,80.12857142857143,1354.2,53.222321428571426,80.12857142857143,1455.3,53.222321428571426,80.12857142857143,1559.2,53.222321428571426,80.12857142857143,1663.8,53.222321428571426,80.12857142857143,1768.5,53.222321428571426,80.12857142857143,1874,53.222321428571426,80.12857142857143,1974.8,53.222321428571426,80.12857142857143,2080.2,53.222321428571426,80.12857142857143,2184.9,53.222321428571426,80.12857142857143,2288,53.222321428571426,80.12857142857143,2388.1,53.222321428571426,80.12857142857143,2497.5,53.222321428571426,80.12857142857143,2602.8,53.222321428571426,80.12857142857143,2702.8,53.222321428571426,80.12857142857143,2808.5,53.222321428571426,80.12857142857143,2911.7,53.222321428571426,80.12857142857143,3014.1,53.222321428571426,80.12857142857143,3117.5,53.222321428571426,80.12857142857143,3218,53.222321428571426,80.12857142857143,3329.2,53.222321428571426,80.12857142857143,3432.7,53.222321428571426,80.12857142857143,3536.6,53.222321428571426,80.12857142857143,3637.6,53.222321428571426,80.12857142857143,3738.2,53.222321428571426,80.12857142857143,3843.2,53.222321428571426,80.12857142857143,3947.3,53.222321428571426,80.12857142857143,4055.5,53.222321428571426,80.12857142857143,4163.3,53.222321428571426,80.12857142857143,4264.1,53.222321428571426,80.12857142857143,4368.8,53.222321428571426,80.12857142857143,4478.7,53.222321428571426,80.12857142857143,4587.1,53.222321428571426,80.12857142857143,4687.5,53.222321428571426,80.12857142857143,4788.2,53.222321428571426,80.12857142857143,4897.9]","[1464.1,1464.1,1000,0,464.1,""smooth"",""up"",""up"",""good_move"",7659,6193.5,2293.1,4981.2,384.7,""oops"",""up"",""right"",""bad_move"",10795.3,3135.2,2670.1,7660.1,465.1,""smooth"",""up"",""up"",""good_move"",13823.3,3025.8,2678.5,10797.6,347.3,""oops"",""up"",""up"",""good_move"",16508.1,2684.1,2267.6,13824.1,416.6,""smooth"",""left"",""left"",""good_move"",19279.9,2769.5,2391.6,16510.4,378,""smooth"",""left"",""left"",""good_move"",22309.6,3028.2,2687.1,19281.4,341.1,""smooth"",""left"",""left"",""good_move"",25123.7,2812.7,2480.1,22311,332.6,""smooth"",""left"",""left"",""good_move""]","",""
"24900","","<div style=""width:500px;"">
  <p>What determined the result of this run?</p>
  </div>","100","html-slider-response","20","440035","0.0-5.0-1.2","128","1","2025-07-16 22:00:18","1f75c3e559b7213887762d5229550c2b","41.116.116.179","Mozilla/5.0 (Windows NT 10.0; Win64; x64) AppleWebKit/537.36 (KHTML, like Gecko) Chrome/138.0.0.0 Safari/537.36","WebKit","Chrome","138.0.0.0","Windows","10.0","https://app.prolific.com/","en-GB,en-US;q=0.9,en;q=0.8","67215aa0a8e88c6751efc410","68764874ac79eee8c1d4cb03","687820a5ac67a4d7ac96c437","2","0","67215aa0a8e88c6751efc410","2","0","2025-07-16T22:07:42.754Z","","","","","","","","","","","AttribQ","","50","","","","","","","","","","","","","","","","","","","","","","","","","","","","",""
"7612","","<div style=""width:500px;"">
  <p>How much control did you have over the ball?</p>
  </div>","87","html-slider-response","21","447650","0.0-5.0-2.2","128","1","2025-07-16 22:00:18","1f75c3e559b7213887762d5229550c2b","41.116.116.179","Mozilla/5.0 (Windows NT 10.0; Win64; x64) AppleWebKit/537.36 (KHTML, like Gecko) Chrome/138.0.0.0 Safari/537.36","WebKit","Chrome","138.0.0.0","Windows","10.0","https://app.prolific.com/","en-GB,en-US;q=0.9,en;q=0.8","67215aa0a8e88c6751efc410","68764874ac79eee8c1d4cb03","687820a5ac67a4d7ac96c437","2","0","67215aa0a8e88c6751efc410","2","0","2025-07-16T22:07:50.369Z","","","","","","","","","","","ControlQ","","50","","","","","","","","","","","","","","","","","","","","","","","","","","","","",""
"4974","","<div style=""width:500px;"">
  <p>How would you describe your current emotional state?</p>
  </div>","9","html-slider-response","22","452626","0.0-5.0-3.2","128","1","2025-07-16 22:00:18","1f75c3e559b7213887762d5229550c2b","41.116.116.179","Mozilla/5.0 (Windows NT 10.0; Win64; x64) AppleWebKit/537.36 (KHTML, like Gecko) Chrome/138.0.0.0 Safari/537.36","WebKit","Chrome","138.0.0.0","Windows","10.0","https://app.prolific.com/","en-GB,en-US;q=0.9,en;q=0.8","67215aa0a8e88c6751efc410","68764874ac79eee8c1d4cb03","687820a5ac67a4d7ac96c437","2","0","67215aa0a8e88c6751efc410","2","0","2025-07-16T22:07:55.345Z","","","","","","","","","","","StressQ","","50","","","","","","","","","","","","","","","","","","","","","","","","","","","","",""
"4134","","<div style=""width:500px;"">
  <p>What best describes how you currently feel?</p>
  </div>","55","html-slider-response","23","456762","0.0-5.0-4.2","128","1","2025-07-16 22:00:18","1f75c3e559b7213887762d5229550c2b","41.116.116.179","Mozilla/5.0 (Windows NT 10.0; Win64; x64) AppleWebKit/537.36 (KHTML, like Gecko) Chrome/138.0.0.0 Safari/537.36","WebKit","Chrome","138.0.0.0","Windows","10.0","https://app.prolific.com/","en-GB,en-US;q=0.9,en;q=0.8","67215aa0a8e88c6751efc410","68764874ac79eee8c1d4cb03","687820a5ac67a4d7ac96c437","2","0","67215aa0a8e88c6751efc410","2","0","2025-07-16T22:07:59.482Z","","","","","","","","","","","MotivationQ","","50","","","","","","","","","","","","","","","","","","","","","","","","","","","","",""
"","","","","ctl-task-cpt","24","503891","0.0-5.0-0.3","128","1","2025-07-16 22:00:18","1f75c3e559b7213887762d5229550c2b","41.116.116.179","Mozilla/5.0 (Windows NT 10.0; Win64; x64) AppleWebKit/537.36 (KHTML, like Gecko) Chrome/138.0.0.0 Safari/537.36","WebKit","Chrome","138.0.0.0","Windows","10.0","https://app.prolific.com/","en-GB,en-US;q=0.9,en;q=0.8","67215aa0a8e88c6751efc410","68764874ac79eee8c1d4cb03","687820a5ac67a4d7ac96c437","2","0","67215aa0a8e88c6751efc410","2","0","2025-07-16T22:08:46.610Z","","","","","","","","","","","","","","win-only","2","g1:SE,g2:NW","0.7","4","0","463869.6","974.8","5977.5","44112.6","1","4","4","6","2","-4","-4","16","20","0.12121212121212122","1096.5","3000","-2350","[""left"",""up""]","{""num_key_presses"":9,""num_perfect"":6,""num_errors"":0,""num_randdir"":3,""num_randdir_good_moves"":1,""num_whilered"":0,""num_whileblue"":0,""num_blue"":4,""num_good_moves"":7}","[294.22232142857143,300.12857142857143,1.1,294.22232142857143,300.12857142857143,101.4,294.22232142857143,300.12857142857143,201.7,294.22232142857143,300.12857142857143,305.1,294.22232142857143,300.12857142857143,409.4,273.22232142857143,242.12857142857143,517.2,169.22232142857143,110.12857142857143,622.1,138.22232142857143,96.12857142857143,730.7,73.22232142857143,71.12857142857143,837.8,35.222321428571426,55.128571428571426,943.9,35.222321428571426,55.128571428571426,1044.7,35.222321428571426,55.128571428571426,1169.9,35.222321428571426,55.128571428571426,1270.4,35.222321428571426,55.128571428571426,1372.5,35.222321428571426,55.128571428571426,1481.7,35.222321428571426,55.128571428571426,1582.2,35.222321428571426,55.128571428571426,1683.6,35.222321428571426,55.128571428571426,1789.5,35.222321428571426,55.128571428571426,1892.9,35.222321428571426,55.128571428571426,2003.1,35.222321428571426,55.128571428571426,2110.5,35.222321428571426,55.128571428571426,2212.8,35.222321428571426,55.128571428571426,2324.5,35.222321428571426,55.128571428571426,2426.6,35.222321428571426,55.128571428571426,2527.3,35.222321428571426,55.128571428571426,2630.6,35.222321428571426,55.128571428571426,2741.4,35.222321428571426,55.128571428571426,2845.5,35.222321428571426,55.128571428571426,2953.1,35.222321428571426,55.128571428571426,3054.1,35.222321428571426,55.128571428571426,3155.6,35.222321428571426,55.128571428571426,3258.6,35.222321428571426,55.128571428571426,3359.6,35.222321428571426,55.128571428571426,3461.8,35.222321428571426,55.128571428571426,3566.4,35.222321428571426,55.128571428571426,3670.3,35.222321428571426,55.128571428571426,3772,35.222321428571426,55.128571428571426,3876.8,35.222321428571426,55.128571428571426,3976.8,35.222321428571426,55.128571428571426,4090.7,35.222321428571426,55.128571428571426,4192.7,35.222321428571426,55.128571428571426,4300.3,35.222321428571426,55.128571428571426,4402.3,35.222321428571426,55.128571428571426,4505.8,35.222321428571426,55.128571428571426,4607.8,35.222321428571426,55.128571428571426,4709.2,35.222321428571426,55.128571428571426,4810.4,35.222321428571426,55.128571428571426,4915.2]","[8536.8,8536.8,2732.4,5338.8,465.6,""smooth"",""up"",""up"",""good_move"",10335.9,1797.7,1234,8538.2,563.8,""smooth"",""up"",""up"",""good_move"",13537.3,3200.1,2726.9,10337.4,473,""oops"",""up"",""up"",""good_move"",16197.6,2658.7,2295.6,13538.9,363.1,""oops"",""left"",""down"",""bad_move"",19244.7,3045.5,2613.7,16199.2,431.8,""smooth"",""left"",""left"",""good_move"",22287.7,3041.1,2680.9,19246.6,360.2,""smooth"",""left"",""left"",""good_move"",26513.9,4224.8,1641,24518.1,354.8,""smooth"",""left"",""left"",""good_move"",29880.9,3364.6,3014.3,26516.4,350.2,""oops"",""up"",""right"",""bad_move"",32670.8,2788.3,2459.6,29882.5,328.7,""smooth"",""up"",""up"",""good_move""]","",""
"12406","","<div style=""width:500px;"">
  <p>What determined the result of this run?</p>
  </div>","55","html-slider-response","25","516299","0.0-5.0-1.3","128","1","2025-07-16 22:00:18","1f75c3e559b7213887762d5229550c2b","41.116.116.179","Mozilla/5.0 (Windows NT 10.0; Win64; x64) AppleWebKit/537.36 (KHTML, like Gecko) Chrome/138.0.0.0 Safari/537.36","WebKit","Chrome","138.0.0.0","Windows","10.0","https://app.prolific.com/","en-GB,en-US;q=0.9,en;q=0.8","67215aa0a8e88c6751efc410","68764874ac79eee8c1d4cb03","687820a5ac67a4d7ac96c437","2","0","67215aa0a8e88c6751efc410","2","0","2025-07-16T22:08:59.018Z","","","","","","","","","","","AttribQ","","50","","","","","","","","","","","","","","","","","","","","","","","","","","","","",""
"7467","","<div style=""width:500px;"">
  <p>How much control did you have over the ball?</p>
  </div>","34","html-slider-response","26","523770","0.0-5.0-2.3","128","1","2025-07-16 22:00:18","1f75c3e559b7213887762d5229550c2b","41.116.116.179","Mozilla/5.0 (Windows NT 10.0; Win64; x64) AppleWebKit/537.36 (KHTML, like Gecko) Chrome/138.0.0.0 Safari/537.36","WebKit","Chrome","138.0.0.0","Windows","10.0","https://app.prolific.com/","en-GB,en-US;q=0.9,en;q=0.8","67215aa0a8e88c6751efc410","68764874ac79eee8c1d4cb03","687820a5ac67a4d7ac96c437","2","0","67215aa0a8e88c6751efc410","2","0","2025-07-16T22:09:06.489Z","","","","","","","","","","","ControlQ","","50","","","","","","","","","","","","","","","","","","","","","","","","","","","","",""
"9223","","<div style=""width:500px;"">
  <p>How would you describe your current emotional state?</p>
  </div>","67","html-slider-response","27","532995","0.0-5.0-3.3","128","1","2025-07-16 22:00:18","1f75c3e559b7213887762d5229550c2b","41.116.116.179","Mozilla/5.0 (Windows NT 10.0; Win64; x64) AppleWebKit/537.36 (KHTML, like Gecko) Chrome/138.0.0.0 Safari/537.36","WebKit","Chrome","138.0.0.0","Windows","10.0","https://app.prolific.com/","en-GB,en-US;q=0.9,en;q=0.8","67215aa0a8e88c6751efc410","68764874ac79eee8c1d4cb03","687820a5ac67a4d7ac96c437","2","0","67215aa0a8e88c6751efc410","2","0","2025-07-16T22:09:15.715Z","","","","","","","","","","","StressQ","","50","","","","","","","","","","","","","","","","","","","","","","","","","","","","",""
"5047","","<div style=""width:500px;"">
  <p>What best describes how you currently feel?</p>
  </div>","63","html-slider-response","28","538050","0.0-5.0-4.3","128","1","2025-07-16 22:00:18","1f75c3e559b7213887762d5229550c2b","41.116.116.179","Mozilla/5.0 (Windows NT 10.0; Win64; x64) AppleWebKit/537.36 (KHTML, like Gecko) Chrome/138.0.0.0 Safari/537.36","WebKit","Chrome","138.0.0.0","Windows","10.0","https://app.prolific.com/","en-GB,en-US;q=0.9,en;q=0.8","67215aa0a8e88c6751efc410","68764874ac79eee8c1d4cb03","687820a5ac67a4d7ac96c437","2","0","67215aa0a8e88c6751efc410","2","0","2025-07-16T22:09:20.769Z","","","","","","","","","","","MotivationQ","","50","","","","","","","","","","","","","","","","","","","","","","","","","","","","",""
"","","","","ctl-task-cpt","29","589240","0.0-5.0-0.4","128","1","2025-07-16 22:00:18","1f75c3e559b7213887762d5229550c2b","41.116.116.179","Mozilla/5.0 (Windows NT 10.0; Win64; x64) AppleWebKit/537.36 (KHTML, like Gecko) Chrome/138.0.0.0 Safari/537.36","WebKit","Chrome","138.0.0.0","Windows","10.0","https://app.prolific.com/","en-GB,en-US;q=0.9,en;q=0.8","67215aa0a8e88c6751efc410","68764874ac79eee8c1d4cb03","687820a5ac67a4d7ac96c437","2","0","67215aa0a8e88c6751efc410","2","0","2025-07-16T22:10:11.960Z","","","","","","","","","","","","","","win-only","0","g1:NW,g2:SE","0.6","5","0","545157.7","1047.2","6054.9","48163.2","1","4","4","6","2","-4","-5","11","16","0.08333333333333333","1254.4","3000","-2100","[""down"",""right""]","{""num_key_presses"":13,""num_perfect"":8,""num_errors"":1,""num_randdir"":4,""num_randdir_good_moves"":0,""num_whilered"":0,""num_whileblue"":1,""num_blue"":2,""num_good_moves"":9}","[291.22232142857143,296.12857142857143,1.2,291.22232142857143,296.12857142857143,110.8,291.22232142857143,296.12857142857143,211.1,291.22232142857143,296.12857142857143,311.1,291.22232142857143,296.12857142857143,417,353.22232142857143,408.12857142857143,520,375.22232142857143,470.12857142857143,632.4,471.22232142857143,522.1285714285714,735.1,478.22232142857143,522.1285714285714,837.3,485.22232142857143,518.1285714285714,939.3,540.2223214285714,530.1285714285714,1050.8,540.2223214285714,530.1285714285714,1173.4,540.2223214285714,530.1285714285714,1274.6,540.2223214285714,530.1285714285714,1382.6,540.2223214285714,530.1285714285714,1488.9,500.22232142857143,548.1285714285714,1591.8,384.22232142857143,568.1285714285714,1694.7,352.22232142857143,566.1285714285714,1795.8,352.22232142857143,566.1285714285714,1914.9,352.22232142857143,566.1285714285714,2016.6,352.22232142857143,566.1285714285714,2119.6,352.22232142857143,566.1285714285714,2219.7,352.22232142857143,566.1285714285714,2320.1,352.22232142857143,566.1285714285714,2425.6,352.22232142857143,566.1285714285714,2528.2,352.22232142857143,566.1285714285714,2630.4,352.22232142857143,566.1285714285714,2735.6,352.22232142857143,566.1285714285714,2838.8,352.22232142857143,566.1285714285714,2947.3,352.22232142857143,566.1285714285714,3054.1,352.22232142857143,566.1285714285714,3160,352.22232142857143,566.1285714285714,3263.4,352.22232142857143,566.1285714285714,3366,352.22232142857143,566.1285714285714,3475.2,352.22232142857143,566.1285714285714,3577.4,352.22232142857143,566.1285714285714,3679.9,352.22232142857143,566.1285714285714,3785.8,352.22232142857143,566.1285714285714,3901.7,352.22232142857143,566.1285714285714,4002.8,352.22232142857143,566.1285714285714,4110.7,352.22232142857143,566.1285714285714,4211.5,352.22232142857143,566.1285714285714,4324.4,352.22232142857143,566.1285714285714,4431.4,352.22232142857143,566.1285714285714,4534.6,352.22232142857143,566.1285714285714,4638.6,352.22232142857143,566.1285714285714,4742,352.22232142857143,566.1285714285714,4842.3,352.22232142857143,566.1285714285714,4947.9]","[1535.2,1535.3,1000,0,535.3,""oops"",""down"",""up"",""bad_move"",4267.2,2730.6,2303.5,1536.7,427,""oops"",""down"",""up"",""bad_move"",7463.1,3194.5,2855.8,4268.6,338.7,""smooth"",""down"",""down"",""good_move"",10740.7,3273.9,2945.1,7466.8,328.8,""smooth"",""down"",""down"",""good_move"",13274,2529.7,2110.3,10744.3,419.4,""smooth"",""down"",""down"",""good_move"",16295.2,3010.2,2676.4,13285,333.8,""smooth"",""down"",""down"",""good_move"",19026.9,2729.6,2381.1,16297.3,348.5,""smooth"",""down"",""down"",""good_move"",21172.9,2137.5,1803.8,19035.4,333.7,""smooth"",""right"",""right"",""good_move"",23413.2,2238.2,1918.5,21175,319.7,""oops"",""right"",""left"",""bad_move"",26966.2,3551.4,3250.4,23414.8,301.1,""while_blue"",""right"",""right"",""good_move"",29727.9,2753.3,2289.4,26974.6,463.9,""oops"",""right"",""left"",""bad_move"",33126.4,3394.8,3006.3,29731.6,388.5,""smooth"",""right"",""right"",""good_move"",39433.4,6305.4,2181.8,36930.8,320.8,""smooth"",""right"",""right"",""good_move""]","",""
"16725","","<div style=""width:500px;"">
  <p>What determined the result of this run?</p>
  </div>","55","html-slider-response","30","605968","0.0-5.0-1.4","128","1","2025-07-16 22:00:18","1f75c3e559b7213887762d5229550c2b","41.116.116.179","Mozilla/5.0 (Windows NT 10.0; Win64; x64) AppleWebKit/537.36 (KHTML, like Gecko) Chrome/138.0.0.0 Safari/537.36","WebKit","Chrome","138.0.0.0","Windows","10.0","https://app.prolific.com/","en-GB,en-US;q=0.9,en;q=0.8","67215aa0a8e88c6751efc410","68764874ac79eee8c1d4cb03","687820a5ac67a4d7ac96c437","2","0","67215aa0a8e88c6751efc410","2","0","2025-07-16T22:10:28.688Z","","","","","","","","","","","AttribQ","","50","","","","","","","","","","","","","","","","","","","","","","","","","","","","",""
"6767","","<div style=""width:500px;"">
  <p>How much control did you have over the ball?</p>
  </div>","32","html-slider-response","31","612738","0.0-5.0-2.4","128","1","2025-07-16 22:00:18","1f75c3e559b7213887762d5229550c2b","41.116.116.179","Mozilla/5.0 (Windows NT 10.0; Win64; x64) AppleWebKit/537.36 (KHTML, like Gecko) Chrome/138.0.0.0 Safari/537.36","WebKit","Chrome","138.0.0.0","Windows","10.0","https://app.prolific.com/","en-GB,en-US;q=0.9,en;q=0.8","67215aa0a8e88c6751efc410","68764874ac79eee8c1d4cb03","687820a5ac67a4d7ac96c437","2","0","67215aa0a8e88c6751efc410","2","0","2025-07-16T22:10:35.457Z","","","","","","","","","","","ControlQ","","50","","","","","","","","","","","","","","","","","","","","","","","","","","","","",""
"3399","","<div style=""width:500px;"">
  <p>How would you describe your current emotional state?</p>
  </div>","70","html-slider-response","32","616139","0.0-5.0-3.4","128","1","2025-07-16 22:00:18","1f75c3e559b7213887762d5229550c2b","41.116.116.179","Mozilla/5.0 (Windows NT 10.0; Win64; x64) AppleWebKit/537.36 (KHTML, like Gecko) Chrome/138.0.0.0 Safari/537.36","WebKit","Chrome","138.0.0.0","Windows","10.0","https://app.prolific.com/","en-GB,en-US;q=0.9,en;q=0.8","67215aa0a8e88c6751efc410","68764874ac79eee8c1d4cb03","687820a5ac67a4d7ac96c437","2","0","67215aa0a8e88c6751efc410","2","0","2025-07-16T22:10:38.858Z","","","","","","","","","","","StressQ","","50","","","","","","","","","","","","","","","","","","","","","","","","","","","","",""
"3046","","<div style=""width:500px;"">
  <p>What best describes how you currently feel?</p>
  </div>","64","html-slider-response","33","619188","0.0-5.0-4.4","128","1","2025-07-16 22:00:18","1f75c3e559b7213887762d5229550c2b","41.116.116.179","Mozilla/5.0 (Windows NT 10.0; Win64; x64) AppleWebKit/537.36 (KHTML, like Gecko) Chrome/138.0.0.0 Safari/537.36","WebKit","Chrome","138.0.0.0","Windows","10.0","https://app.prolific.com/","en-GB,en-US;q=0.9,en;q=0.8","67215aa0a8e88c6751efc410","68764874ac79eee8c1d4cb03","687820a5ac67a4d7ac96c437","2","0","67215aa0a8e88c6751efc410","2","0","2025-07-16T22:10:41.907Z","","","","","","","","","","","MotivationQ","","50","","","","","","","","","","","","","","","","","","","","","","","","","","","","",""
"","","","","ctl-task-cpt","34","659698","0.0-5.0-0.5","128","1","2025-07-16 22:00:18","1f75c3e559b7213887762d5229550c2b","41.116.116.179","Mozilla/5.0 (Windows NT 10.0; Win64; x64) AppleWebKit/537.36 (KHTML, like Gecko) Chrome/138.0.0.0 Safari/537.36","WebKit","Chrome","138.0.0.0","Windows","10.0","https://app.prolific.com/","en-GB,en-US;q=0.9,en;q=0.8","67215aa0a8e88c6751efc410","68764874ac79eee8c1d4cb03","687820a5ac67a4d7ac96c437","2","0","67215aa0a8e88c6751efc410","2","0","2025-07-16T22:11:22.417Z","","","","","","","","","","","","","","win-only","0","g1:NW,g2:SE","0.5","6","0","626298.3","1153.1","6162.1","37471.8","1","4","8","6","2","8","8","19","11","0.14393939393939395","1259.3","3000","1950","[""down"",""right""]","{""num_key_presses"":8,""num_perfect"":5,""num_errors"":0,""num_randdir"":3,""num_randdir_good_moves"":2,""num_whilered"":0,""num_whileblue"":0,""num_blue"":3,""num_good_moves"":7}","[301.22232142857143,297.12857142857143,1.8,301.22232142857143,297.12857142857143,101.8,301.22232142857143,297.12857142857143,202.6,301.22232142857143,297.12857142857143,302.8,301.22232142857143,297.12857142857143,409.9,180.22232142857143,186.12857142857143,520.9,176.22232142857143,182.12857142857143,630.8,152.22232142857143,177.12857142857143,733.8,212.22232142857143,328.12857142857143,839.1,513.2223214285714,503.12857142857143,948.4,545.2223214285714,519.1285714285714,1052.6,561.2223214285714,532.1285714285714,1162.8,561.2223214285714,532.1285714285714,1269.3,561.2223214285714,532.1285714285714,1371.6,561.2223214285714,532.1285714285714,1476.1,561.2223214285714,532.1285714285714,1581.1,561.2223214285714,532.1285714285714,1682.1,561.2223214285714,532.1285714285714,1791.2,561.2223214285714,532.1285714285714,1893.1,561.2223214285714,532.1285714285714,2005.3,561.2223214285714,532.1285714285714,2107.2,561.2223214285714,532.1285714285714,2207.2,561.2223214285714,532.1285714285714,2311.1,561.2223214285714,532.1285714285714,2415.1,561.2223214285714,532.1285714285714,2516.2,561.2223214285714,532.1285714285714,2623,561.2223214285714,532.1285714285714,2729.8,561.2223214285714,532.1285714285714,2835.4,561.2223214285714,532.1285714285714,2940.6,561.2223214285714,532.1285714285714,3053.4,561.2223214285714,532.1285714285714,3157.6,561.2223214285714,532.1285714285714,3262.9,561.2223214285714,532.1285714285714,3365.9,561.2223214285714,532.1285714285714,3467.3,561.2223214285714,532.1285714285714,3569.4,561.2223214285714,532.1285714285714,3672.1,561.2223214285714,532.1285714285714,3776.9,561.2223214285714,532.1285714285714,3881.6,561.2223214285714,532.1285714285714,3987.7,561.2223214285714,532.1285714285714,4089.9,561.2223214285714,532.1285714285714,4190.8,561.2223214285714,532.1285714285714,4294.5,561.2223214285714,532.1285714285714,4397.4,561.2223214285714,532.1285714285714,4502.1,561.2223214285714,532.1285714285714,4603.6,561.2223214285714,532.1285714285714,4709.3,561.2223214285714,532.1285714285714,4814,561.2223214285714,532.1285714285714,4918.7]","[1385.7,1385.7,1000,0,385.7,""oops"",""down"",""right"",""good_move"",4124,2733.5,2316.2,1390.5,417.3,""oops"",""down"",""right"",""good_move"",9550.5,5419.2,2370.2,6865.3,315,""smooth"",""down"",""down"",""good_move"",12140.5,2579.7,2199.2,9560.9,380.5,""smooth"",""right"",""right"",""good_move"",19140.3,6996.2,2460.1,16284.4,395.8,""smooth"",""down"",""down"",""good_move"",21683,2541.4,2082,19141.6,459.4,""oops"",""down"",""left"",""bad_move"",28202.4,6506.4,1917.1,25875.8,409.6,""smooth"",""down"",""down"",""good_move"",30991,2786.7,2331.1,28204.3,455.6,""smooth"",""right"",""right"",""good_move""]","",""
"3958","","<div style=""width:500px;"">
  <p>What determined the result of this run?</p>
  </div>","74","html-slider-response","35","663660","0.0-5.0-1.5","128","1","2025-07-16 22:00:18","1f75c3e559b7213887762d5229550c2b","41.116.116.179","Mozilla/5.0 (Windows NT 10.0; Win64; x64) AppleWebKit/537.36 (KHTML, like Gecko) Chrome/138.0.0.0 Safari/537.36","WebKit","Chrome","138.0.0.0","Windows","10.0","https://app.prolific.com/","en-GB,en-US;q=0.9,en;q=0.8","67215aa0a8e88c6751efc410","68764874ac79eee8c1d4cb03","687820a5ac67a4d7ac96c437","2","0","67215aa0a8e88c6751efc410","2","0","2025-07-16T22:11:26.380Z","","","","","","","","","","","AttribQ","","50","","","","","","","","","","","","","","","","","","","","","","","","","","","","",""
"7831","","<div style=""width:500px;"">
  <p>How much control did you have over the ball?</p>
  </div>","61","html-slider-response","36","671494","0.0-5.0-2.5","128","1","2025-07-16 22:00:18","1f75c3e559b7213887762d5229550c2b","41.116.116.179","Mozilla/5.0 (Windows NT 10.0; Win64; x64) AppleWebKit/537.36 (KHTML, like Gecko) Chrome/138.0.0.0 Safari/537.36","WebKit","Chrome","138.0.0.0","Windows","10.0","https://app.prolific.com/","en-GB,en-US;q=0.9,en;q=0.8","67215aa0a8e88c6751efc410","68764874ac79eee8c1d4cb03","687820a5ac67a4d7ac96c437","2","0","67215aa0a8e88c6751efc410","2","0","2025-07-16T22:11:34.214Z","","","","","","","","","","","ControlQ","","50","","","","","","","","","","","","","","","","","","","","","","","","","","","","",""
"7226","","<div style=""width:500px;"">
  <p>How would you describe your current emotional state?</p>
  </div>","55","html-slider-response","37","678727","0.0-5.0-3.5","128","1","2025-07-16 22:00:18","1f75c3e559b7213887762d5229550c2b","41.116.116.179","Mozilla/5.0 (Windows NT 10.0; Win64; x64) AppleWebKit/537.36 (KHTML, like Gecko) Chrome/138.0.0.0 Safari/537.36","WebKit","Chrome","138.0.0.0","Windows","10.0","https://app.prolific.com/","en-GB,en-US;q=0.9,en;q=0.8","67215aa0a8e88c6751efc410","68764874ac79eee8c1d4cb03","687820a5ac67a4d7ac96c437","2","0","67215aa0a8e88c6751efc410","2","0","2025-07-16T22:11:41.446Z","","","","","","","","","","","StressQ","","50","","","","","","","","","","","","","","","","","","","","","","","","","","","","",""
"4387","","<div style=""width:500px;"">
  <p>What best describes how you currently feel?</p>
  </div>","67","html-slider-response","38","683116","0.0-5.0-4.5","128","1","2025-07-16 22:00:18","1f75c3e559b7213887762d5229550c2b","41.116.116.179","Mozilla/5.0 (Windows NT 10.0; Win64; x64) AppleWebKit/537.36 (KHTML, like Gecko) Chrome/138.0.0.0 Safari/537.36","WebKit","Chrome","138.0.0.0","Windows","10.0","https://app.prolific.com/","en-GB,en-US;q=0.9,en;q=0.8","67215aa0a8e88c6751efc410","68764874ac79eee8c1d4cb03","687820a5ac67a4d7ac96c437","2","0","67215aa0a8e88c6751efc410","2","0","2025-07-16T22:11:45.835Z","","","","","","","","","","","MotivationQ","","50","","","","","","","","","","","","","","","","","","","","","","","","","","","","",""
"","","","","ctl-task-cpt","39","729097","0.0-5.0-0.6","128","1","2025-07-16 22:00:18","1f75c3e559b7213887762d5229550c2b","41.116.116.179","Mozilla/5.0 (Windows NT 10.0; Win64; x64) AppleWebKit/537.36 (KHTML, like Gecko) Chrome/138.0.0.0 Safari/537.36","WebKit","Chrome","138.0.0.0","Windows","10.0","https://app.prolific.com/","en-GB,en-US;q=0.9,en;q=0.8","67215aa0a8e88c6751efc410","68764874ac79eee8c1d4cb03","687820a5ac67a4d7ac96c437","2","0","67215aa0a8e88c6751efc410","2","0","2025-07-16T22:12:31.817Z","","","","","","","","","","","","","","win-only","3","g1:SW,g2:NE","0.4","7","0","690223.7","1316.2","6324.4","42957.4","1","4","8","6","2","8","8","27","19","0.20454545454545456","1142.9","3000","1670","[""up"",""right""]","{""num_key_presses"":10,""num_perfect"":4,""num_errors"":0,""num_randdir"":6,""num_randdir_good_moves"":4,""num_whilered"":0,""num_whileblue"":0,""num_blue"":2,""num_good_moves"":8}","[300.22232142857143,295.12857142857143,1.8,300.22232142857143,295.12857142857143,107.3,300.22232142857143,295.12857142857143,207.3,300.22232142857143,295.12857142857143,317.3,276.22232142857143,333.12857142857143,433,250.22232142857143,363.12857142857143,534.7,371.22232142857143,257.12857142857143,635.1,465.22232142857143,161.12857142857143,741.9,481.22232142857143,140.12857142857143,845.3,508.22232142857143,103.12857142857143,966.7,524.2223214285714,82.12857142857143,1069.2,524.2223214285714,82.12857142857143,1180.2,524.2223214285714,82.12857142857143,1286,524.2223214285714,82.12857142857143,1391.6,456.22232142857143,159.12857142857143,1505,288.22232142857143,259.12857142857143,1615.3,241.22232142857143,311.12857142857143,1715.8,236.22232142857143,328.12857142857143,1822.3,236.22232142857143,328.12857142857143,1923.5,236.22232142857143,328.12857142857143,2035.7,236.22232142857143,328.12857142857143,2138.6,236.22232142857143,328.12857142857143,2242.6,236.22232142857143,328.12857142857143,2344.3,236.22232142857143,328.12857142857143,2451.2,236.22232142857143,328.12857142857143,2554.4,236.22232142857143,328.12857142857143,2666.5,236.22232142857143,328.12857142857143,2777.7,236.22232142857143,328.12857142857143,2880.9,236.22232142857143,328.12857142857143,2982.8,236.22232142857143,328.12857142857143,3095.6,236.22232142857143,328.12857142857143,3195.8,236.22232142857143,328.12857142857143,3299.1,236.22232142857143,328.12857142857143,3408.6,236.22232142857143,328.12857142857143,3511.7,236.22232142857143,328.12857142857143,3625.3,236.22232142857143,328.12857142857143,3728.1,236.22232142857143,328.12857142857143,3830.4,236.22232142857143,328.12857142857143,3931.9,236.22232142857143,328.12857142857143,4035.6,236.22232142857143,328.12857142857143,4142.9,236.22232142857143,328.12857142857143,4244.3,236.22232142857143,328.12857142857143,4358.4,236.22232142857143,328.12857142857143,4459.1,236.22232142857143,328.12857142857143,4569.2,236.22232142857143,328.12857142857143,4683.6,236.22232142857143,328.12857142857143,4796.2,236.22232142857143,328.12857142857143,4897]","[1520.4,1520.4,1000,0,520.4,""oops"",""up"",""down"",""bad_move"",5222.1,3700.5,2940.6,1521.6,759.9,""oops"",""up"",""up"",""good_move"",8093.8,2869.8,2310.5,5224,559.3,""oops"",""up"",""up"",""good_move"",10985.2,2886,2363,8099.3,523,""smooth"",""up"",""up"",""good_move"",17750,6763.1,2256.2,15114.7,379.1,""oops"",""up"",""up"",""good_move"",21299,3548,2986.7,17751.1,561.2,""smooth"",""right"",""right"",""good_move"",27550.1,6249.1,2402.1,24761.6,386.5,""oops"",""right"",""right"",""good_move"",30632.8,3079.9,2710.6,27552.9,369.3,""oops"",""right"",""down"",""bad_move"",33595.8,2960.4,2605.3,30635.5,355,""smooth"",""right"",""right"",""good_move"",36317.1,2718.1,2370.3,33599.1,347.7,""smooth"",""up"",""up"",""good_move""]","",""
"5408","","<div style=""width:500px;"">
  <p>What determined the result of this run?</p>
  </div>","79","html-slider-response","40","734508","0.0-5.0-1.6","128","1","2025-07-16 22:00:18","1f75c3e559b7213887762d5229550c2b","41.116.116.179","Mozilla/5.0 (Windows NT 10.0; Win64; x64) AppleWebKit/537.36 (KHTML, like Gecko) Chrome/138.0.0.0 Safari/537.36","WebKit","Chrome","138.0.0.0","Windows","10.0","https://app.prolific.com/","en-GB,en-US;q=0.9,en;q=0.8","67215aa0a8e88c6751efc410","68764874ac79eee8c1d4cb03","687820a5ac67a4d7ac96c437","2","0","67215aa0a8e88c6751efc410","2","0","2025-07-16T22:12:37.227Z","","","","","","","","","","","AttribQ","","50","","","","","","","","","","","","","","","","","","","","","","","","","","","","",""
"3604","","<div style=""width:500px;"">
  <p>How much control did you have over the ball?</p>
  </div>","71","html-slider-response","41","738116","0.0-5.0-2.6","128","1","2025-07-16 22:00:18","1f75c3e559b7213887762d5229550c2b","41.116.116.179","Mozilla/5.0 (Windows NT 10.0; Win64; x64) AppleWebKit/537.36 (KHTML, like Gecko) Chrome/138.0.0.0 Safari/537.36","WebKit","Chrome","138.0.0.0","Windows","10.0","https://app.prolific.com/","en-GB,en-US;q=0.9,en;q=0.8","67215aa0a8e88c6751efc410","68764874ac79eee8c1d4cb03","687820a5ac67a4d7ac96c437","2","0","67215aa0a8e88c6751efc410","2","0","2025-07-16T22:12:40.836Z","","","","","","","","","","","ControlQ","","50","","","","","","","","","","","","","","","","","","","","","","","","","","","","",""
"3876","","<div style=""width:500px;"">
  <p>How would you describe your current emotional state?</p>
  </div>","51","html-slider-response","42","741997","0.0-5.0-3.6","128","1","2025-07-16 22:00:18","1f75c3e559b7213887762d5229550c2b","41.116.116.179","Mozilla/5.0 (Windows NT 10.0; Win64; x64) AppleWebKit/537.36 (KHTML, like Gecko) Chrome/138.0.0.0 Safari/537.36","WebKit","Chrome","138.0.0.0","Windows","10.0","https://app.prolific.com/","en-GB,en-US;q=0.9,en;q=0.8","67215aa0a8e88c6751efc410","68764874ac79eee8c1d4cb03","687820a5ac67a4d7ac96c437","2","0","67215aa0a8e88c6751efc410","2","0","2025-07-16T22:12:44.716Z","","","","","","","","","","","StressQ","","50","","","","","","","","","","","","","","","","","","","","","","","","","","","","",""
"3540","","<div style=""width:500px;"">
  <p>What best describes how you currently feel?</p>
  </div>","72","html-slider-response","43","745541","0.0-5.0-4.6","128","1","2025-07-16 22:00:18","1f75c3e559b7213887762d5229550c2b","41.116.116.179","Mozilla/5.0 (Windows NT 10.0; Win64; x64) AppleWebKit/537.36 (KHTML, like Gecko) Chrome/138.0.0.0 Safari/537.36","WebKit","Chrome","138.0.0.0","Windows","10.0","https://app.prolific.com/","en-GB,en-US;q=0.9,en;q=0.8","67215aa0a8e88c6751efc410","68764874ac79eee8c1d4cb03","687820a5ac67a4d7ac96c437","2","0","67215aa0a8e88c6751efc410","2","0","2025-07-16T22:12:48.260Z","","","","","","","","","","","MotivationQ","","50","","","","","","","","","","","","","","","","","","","","","","","","","","","","",""
"","","","","ctl-task-cpt","44","782546","0.0-5.0-0.7","128","1","2025-07-16 22:00:18","1f75c3e559b7213887762d5229550c2b","41.116.116.179","Mozilla/5.0 (Windows NT 10.0; Win64; x64) AppleWebKit/537.36 (KHTML, like Gecko) Chrome/138.0.0.0 Safari/537.36","WebKit","Chrome","138.0.0.0","Windows","10.0","https://app.prolific.com/","en-GB,en-US;q=0.9,en;q=0.8","67215aa0a8e88c6751efc410","68764874ac79eee8c1d4cb03","687820a5ac67a4d7ac96c437","2","0","67215aa0a8e88c6751efc410","2","0","2025-07-16T22:13:25.265Z","","","","","","","","","","","","","","win-only","0","g1:NW,g2:SE","0.3","8","0","752649.3","1027.6","6031.4","33966.7","1","4","4","6","2","4","4","31","27","0.23484848484848486","1118.2","3000","1980","[""down"",""right""]","{""num_key_presses"":8,""num_perfect"":3,""num_errors"":0,""num_randdir"":5,""num_randdir_good_moves"":4,""num_whilered"":0,""num_whileblue"":0,""num_blue"":1,""num_good_moves"":7}","[296.22232142857143,295.12857142857143,2.2,296.22232142857143,295.12857142857143,107,296.22232142857143,295.12857142857143,215.6,296.22232142857143,295.12857142857143,321.3,296.22232142857143,295.12857142857143,421.8,305.22232142857143,313.12857142857143,529.1,395.22232142857143,421.12857142857143,636.8,441.22232142857143,480.12857142857143,754.8,470.22232142857143,511.12857142857143,870.5,498.22232142857143,523.1285714285714,982.4,498.22232142857143,523.1285714285714,1084.5,498.22232142857143,523.1285714285714,1191.6,498.22232142857143,523.1285714285714,1305.7,498.22232142857143,523.1285714285714,1410.6,498.22232142857143,523.1285714285714,1519.9,498.22232142857143,523.1285714285714,1623.4,498.22232142857143,523.1285714285714,1724.7,498.22232142857143,523.1285714285714,1830.7,498.22232142857143,523.1285714285714,1943.7,498.22232142857143,523.1285714285714,2050.5,498.22232142857143,523.1285714285714,2161,498.22232142857143,523.1285714285714,2265.8,498.22232142857143,523.1285714285714,2374.9,498.22232142857143,523.1285714285714,2478.6,498.22232142857143,523.1285714285714,2592.6,498.22232142857143,523.1285714285714,2705.2,498.22232142857143,523.1285714285714,2811.5,498.22232142857143,523.1285714285714,2916.9,498.22232142857143,523.1285714285714,3022.4,498.22232142857143,523.1285714285714,3131.2,498.22232142857143,523.1285714285714,3240.8,498.22232142857143,523.1285714285714,3343.4,498.22232142857143,523.1285714285714,3450.8,498.22232142857143,523.1285714285714,3562.1,498.22232142857143,523.1285714285714,3674,498.22232142857143,523.1285714285714,3780.7,498.22232142857143,523.1285714285714,3888.1,498.22232142857143,523.1285714285714,3991,498.22232142857143,523.1285714285714,4093.3,498.22232142857143,523.1285714285714,4195.3,498.22232142857143,523.1285714285714,4305.6,498.22232142857143,523.1285714285714,4406.1,498.22232142857143,523.1285714285714,4519.4,498.22232142857143,523.1285714285714,4635.8,498.22232142857143,523.1285714285714,4751.7,498.22232142857143,523.1285714285714,4853.4,498.22232142857143,523.1285714285714,4960.8]","[1412.4,1412.4,1000,0,412.4,""oops"",""down"",""down"",""good_move"",5074.3,3659.4,3241.6,1414.9,417.8,""oops"",""down"",""down"",""good_move"",12411.4,7336,2736.9,9196.2,478.3,""smooth"",""down"",""down"",""good_move"",16096.7,3680.3,3331.9,12416.4,348.4,""oops"",""right"",""up"",""bad_move"",19031.9,2932.9,2525,16099.1,407.8,""oops"",""right"",""down"",""good_move"",22401.9,3367.1,2979.6,19034.8,387.5,""oops"",""right"",""right"",""good_move"",24734.1,2319.4,1847,22414.7,472.4,""smooth"",""right"",""right"",""good_move"",27606.2,2870.1,2492.5,24736.1,377.6,""smooth"",""right"",""right"",""good_move""]","",""
"3488","","<div style=""width:500px;"">
  <p>What determined the result of this run?</p>
  </div>","85","html-slider-response","45","786038","0.0-5.0-1.7","128","1","2025-07-16 22:00:18","1f75c3e559b7213887762d5229550c2b","41.116.116.179","Mozilla/5.0 (Windows NT 10.0; Win64; x64) AppleWebKit/537.36 (KHTML, like Gecko) Chrome/138.0.0.0 Safari/537.36","WebKit","Chrome","138.0.0.0","Windows","10.0","https://app.prolific.com/","en-GB,en-US;q=0.9,en;q=0.8","67215aa0a8e88c6751efc410","68764874ac79eee8c1d4cb03","687820a5ac67a4d7ac96c437","2","0","67215aa0a8e88c6751efc410","2","0","2025-07-16T22:13:28.758Z","","","","","","","","","","","AttribQ","","50","","","","","","","","","","","","","","","","","","","","","","","","","","","","",""
"2921","","<div style=""width:500px;"">
  <p>How much control did you have over the ball?</p>
  </div>","71","html-slider-response","46","788963","0.0-5.0-2.7","128","1","2025-07-16 22:00:18","1f75c3e559b7213887762d5229550c2b","41.116.116.179","Mozilla/5.0 (Windows NT 10.0; Win64; x64) AppleWebKit/537.36 (KHTML, like Gecko) Chrome/138.0.0.0 Safari/537.36","WebKit","Chrome","138.0.0.0","Windows","10.0","https://app.prolific.com/","en-GB,en-US;q=0.9,en;q=0.8","67215aa0a8e88c6751efc410","68764874ac79eee8c1d4cb03","687820a5ac67a4d7ac96c437","2","0","67215aa0a8e88c6751efc410","2","0","2025-07-16T22:13:31.683Z","","","","","","","","","","","ControlQ","","50","","","","","","","","","","","","","","","","","","","","","","","","","","","","",""
"2917","","<div style=""width:500px;"">
  <p>How would you describe your current emotional state?</p>
  </div>","48","html-slider-response","47","791885","0.0-5.0-3.7","128","1","2025-07-16 22:00:18","1f75c3e559b7213887762d5229550c2b","41.116.116.179","Mozilla/5.0 (Windows NT 10.0; Win64; x64) AppleWebKit/537.36 (KHTML, like Gecko) Chrome/138.0.0.0 Safari/537.36","WebKit","Chrome","138.0.0.0","Windows","10.0","https://app.prolific.com/","en-GB,en-US;q=0.9,en;q=0.8","67215aa0a8e88c6751efc410","68764874ac79eee8c1d4cb03","687820a5ac67a4d7ac96c437","2","0","67215aa0a8e88c6751efc410","2","0","2025-07-16T22:13:34.605Z","","","","","","","","","","","StressQ","","50","","","","","","","","","","","","","","","","","","","","","","","","","","","","",""
"3193","","<div style=""width:500px;"">
  <p>What best describes how you currently feel?</p>
  </div>","71","html-slider-response","48","795082","0.0-5.0-4.7","128","1","2025-07-16 22:00:18","1f75c3e559b7213887762d5229550c2b","41.116.116.179","Mozilla/5.0 (Windows NT 10.0; Win64; x64) AppleWebKit/537.36 (KHTML, like Gecko) Chrome/138.0.0.0 Safari/537.36","WebKit","Chrome","138.0.0.0","Windows","10.0","https://app.prolific.com/","en-GB,en-US;q=0.9,en;q=0.8","67215aa0a8e88c6751efc410","68764874ac79eee8c1d4cb03","687820a5ac67a4d7ac96c437","2","0","67215aa0a8e88c6751efc410","2","0","2025-07-16T22:13:37.802Z","","","","","","","","","","","MotivationQ","","50","","","","","","","","","","","","","","","","","","","","","","","","","","","","",""
"","","","","ctl-task-cpt","49","834806","0.0-5.0-0.8","128","1","2025-07-16 22:00:18","1f75c3e559b7213887762d5229550c2b","41.116.116.179","Mozilla/5.0 (Windows NT 10.0; Win64; x64) AppleWebKit/537.36 (KHTML, like Gecko) Chrome/138.0.0.0 Safari/537.36","WebKit","Chrome","138.0.0.0","Windows","10.0","https://app.prolific.com/","en-GB,en-US;q=0.9,en;q=0.8","67215aa0a8e88c6751efc410","68764874ac79eee8c1d4cb03","687820a5ac67a4d7ac96c437","2","0","67215aa0a8e88c6751efc410","2","0","2025-07-16T22:14:17.526Z","","","","","","","","","","","","","","win-only","3","g1:SW,g2:NE","0.2","9","0","802193.4","1009.6","6020.6","36681.1","1","4","8","6","2","8","8","39","31","0.29545454545454547","856.3","3000","1990","[""up"",""right""]","{""num_key_presses"":10,""num_perfect"":2,""num_errors"":0,""num_randdir"":8,""num_randdir_good_moves"":6,""num_whilered"":0,""num_whileblue"":0,""num_blue"":0,""num_good_moves"":8}","[301.22232142857143,297.12857142857143,4.5,301.22232142857143,297.12857142857143,106.3,301.22232142857143,297.12857142857143,207.7,301.22232142857143,297.12857142857143,316.4,330.22232142857143,225.12857142857143,429,475.22232142857143,137.12857142857143,542.9,540.2223214285714,89.12857142857143,657.9,551.2223214285714,71.12857142857143,765.6,551.2223214285714,71.12857142857143,885.7,551.2223214285714,71.12857142857143,991.9,551.2223214285714,71.12857142857143,1098.8,536.2223214285714,137.12857142857143,1210.4,520.2223214285714,217.12857142857143,1322.8,459.22232142857143,299.12857142857143,1441.7,406.22232142857143,386.12857142857143,1558.4,358.22232142857143,486.12857142857143,1680.3,358.22232142857143,489.12857142857143,1789.6,358.22232142857143,489.12857142857143,1899,358.22232142857143,489.12857142857143,1999.3,358.22232142857143,489.12857142857143,2106.9,358.22232142857143,489.12857142857143,2219.8,358.22232142857143,489.12857142857143,2349.5,358.22232142857143,489.12857142857143,2469.5,358.22232142857143,489.12857142857143,2584.7,358.22232142857143,489.12857142857143,2688.3,358.22232142857143,489.12857142857143,2797.6,358.22232142857143,489.12857142857143,2905.4,358.22232142857143,489.12857142857143,3014.9,358.22232142857143,489.12857142857143,3126.6,358.22232142857143,489.12857142857143,3231.9,358.22232142857143,489.12857142857143,3333.9,358.22232142857143,489.12857142857143,3435.8,358.22232142857143,489.12857142857143,3535.8,358.22232142857143,489.12857142857143,3639.7,358.22232142857143,489.12857142857143,3751.3,358.22232142857143,489.12857142857143,3863.8,358.22232142857143,489.12857142857143,3965.1,358.22232142857143,489.12857142857143,4080.2,358.22232142857143,489.12857142857143,4191.5,358.22232142857143,489.12857142857143,4297.3,358.22232142857143,489.12857142857143,4405.7,358.22232142857143,489.12857142857143,4510.5,358.22232142857143,489.12857142857143,4614.1,358.22232142857143,489.12857142857143,4721.4,358.22232142857143,489.12857142857143,4822.5,358.22232142857143,489.12857142857143,4931.9]","[1433.6,1433.6,1000,0,433.6,""oops"",""up"",""right"",""good_move"",4309.8,2874.6,2477,1435.2,397.6,""oops"",""right"",""up"",""good_move"",7844.2,3531.4,1790.9,4312.8,1740.5,""oops"",""up"",""up"",""good_move"",11315.1,3469,2410.2,7846.1,1058.8,""oops"",""right"",""right"",""good_move"",14682.7,3365.8,2968.9,11317,396.8,""oops"",""up"",""right"",""good_move"",17033.3,2348.4,1938.3,14684.9,410.1,""oops"",""up"",""left"",""bad_move"",21563.3,4527.8,2910,17035.5,1617.8,""oops"",""up"",""up"",""good_move"",24459,2893.7,2241.1,21565.4,652.6,""oops"",""right"",""left"",""bad_move"",27644.7,3183.7,2852.2,24461,331.5,""smooth"",""right"",""right"",""good_move"",30359.8,2713.3,2332,27646.6,381.2,""smooth"",""right"",""right"",""good_move""]","",""
"5368","","<div style=""width:500px;"">
  <p>What determined the result of this run?</p>
  </div>","84","html-slider-response","50","840179","0.0-5.0-1.8","128","1","2025-07-16 22:00:18","1f75c3e559b7213887762d5229550c2b","41.116.116.179","Mozilla/5.0 (Windows NT 10.0; Win64; x64) AppleWebKit/537.36 (KHTML, like Gecko) Chrome/138.0.0.0 Safari/537.36","WebKit","Chrome","138.0.0.0","Windows","10.0","https://app.prolific.com/","en-GB,en-US;q=0.9,en;q=0.8","67215aa0a8e88c6751efc410","68764874ac79eee8c1d4cb03","687820a5ac67a4d7ac96c437","2","0","67215aa0a8e88c6751efc410","2","0","2025-07-16T22:14:22.898Z","","","","","","","","","","","AttribQ","","50","","","","","","","","","","","","","","","","","","","","","","","","","","","","",""
"7084","","<div style=""width:500px;"">
  <p>How much control did you have over the ball?</p>
  </div>","78","html-slider-response","51","847269","0.0-5.0-2.8","128","1","2025-07-16 22:00:18","1f75c3e559b7213887762d5229550c2b","41.116.116.179","Mozilla/5.0 (Windows NT 10.0; Win64; x64) AppleWebKit/537.36 (KHTML, like Gecko) Chrome/138.0.0.0 Safari/537.36","WebKit","Chrome","138.0.0.0","Windows","10.0","https://app.prolific.com/","en-GB,en-US;q=0.9,en;q=0.8","67215aa0a8e88c6751efc410","68764874ac79eee8c1d4cb03","687820a5ac67a4d7ac96c437","2","0","67215aa0a8e88c6751efc410","2","0","2025-07-16T22:14:29.988Z","","","","","","","","","","","ControlQ","","50","","","","","","","","","","","","","","","","","","","","","","","","","","","","",""
"3507","","<div style=""width:500px;"">
  <p>How would you describe your current emotional state?</p>
  </div>","45","html-slider-response","52","850784","0.0-5.0-3.8","128","1","2025-07-16 22:00:18","1f75c3e559b7213887762d5229550c2b","41.116.116.179","Mozilla/5.0 (Windows NT 10.0; Win64; x64) AppleWebKit/537.36 (KHTML, like Gecko) Chrome/138.0.0.0 Safari/537.36","WebKit","Chrome","138.0.0.0","Windows","10.0","https://app.prolific.com/","en-GB,en-US;q=0.9,en;q=0.8","67215aa0a8e88c6751efc410","68764874ac79eee8c1d4cb03","687820a5ac67a4d7ac96c437","2","0","67215aa0a8e88c6751efc410","2","0","2025-07-16T22:14:33.504Z","","","","","","","","","","","StressQ","","50","","","","","","","","","","","","","","","","","","","","","","","","","","","","",""
"2513","","<div style=""width:500px;"">
  <p>What best describes how you currently feel?</p>
  </div>","74","html-slider-response","53","853302","0.0-5.0-4.8","128","1","2025-07-16 22:00:18","1f75c3e559b7213887762d5229550c2b","41.116.116.179","Mozilla/5.0 (Windows NT 10.0; Win64; x64) AppleWebKit/537.36 (KHTML, like Gecko) Chrome/138.0.0.0 Safari/537.36","WebKit","Chrome","138.0.0.0","Windows","10.0","https://app.prolific.com/","en-GB,en-US;q=0.9,en;q=0.8","67215aa0a8e88c6751efc410","68764874ac79eee8c1d4cb03","687820a5ac67a4d7ac96c437","2","0","67215aa0a8e88c6751efc410","2","0","2025-07-16T22:14:36.021Z","","","","","","","","","","","MotivationQ","","50","","","","","","","","","","","","","","","","","","","","","","","","","","","","",""
"","","","","ctl-task-cpt","54","881525","0.0-5.0-0.9","128","1","2025-07-16 22:00:18","1f75c3e559b7213887762d5229550c2b","41.116.116.179","Mozilla/5.0 (Windows NT 10.0; Win64; x64) AppleWebKit/537.36 (KHTML, like Gecko) Chrome/138.0.0.0 Safari/537.36","WebKit","Chrome","138.0.0.0","Windows","10.0","https://app.prolific.com/","en-GB,en-US;q=0.9,en;q=0.8","67215aa0a8e88c6751efc410","68764874ac79eee8c1d4cb03","687820a5ac67a4d7ac96c437","2","0","67215aa0a8e88c6751efc410","2","0","2025-07-16T22:15:04.244Z","","","","","","","","","","","","","","win-only","1","g1:NE,g2:SW","0.4","10","0","860411.4","1880.1","6888.6","25180.9","1","4","4","6","2","4","4","43","39","0.32575757575757575","921","3000","2345","[""down"",""left""]","{""num_key_presses"":6,""num_perfect"":3,""num_errors"":0,""num_randdir"":3,""num_randdir_good_moves"":3,""num_whilered"":0,""num_whileblue"":0,""num_blue"":0,""num_good_moves"":6}","[292.22232142857143,297.12857142857143,4.8,292.22232142857143,297.12857142857143,104.9,292.22232142857143,297.12857142857143,212.8,292.22232142857143,297.12857142857143,329.4,292.22232142857143,297.12857142857143,437.5,209.22232142857143,411.12857142857143,551.9,125.22232142857143,481.12857142857143,655.5,88.22232142857143,514.1285714285714,760.2,88.22232142857143,514.1285714285714,870.8,88.22232142857143,514.1285714285714,979.6,88.22232142857143,514.1285714285714,1080.1,88.22232142857143,514.1285714285714,1183.3,88.22232142857143,514.1285714285714,1285.4,88.22232142857143,514.1285714285714,1396.5,88.22232142857143,514.1285714285714,1499.4,88.22232142857143,514.1285714285714,1602.9,88.22232142857143,514.1285714285714,1707.7,88.22232142857143,514.1285714285714,1816.6,88.22232142857143,514.1285714285714,1919.7,88.22232142857143,514.1285714285714,2025.7,88.22232142857143,514.1285714285714,2126.9,88.22232142857143,514.1285714285714,2228.8,88.22232142857143,514.1285714285714,2329.4,88.22232142857143,514.1285714285714,2438.6,88.22232142857143,514.1285714285714,2540.8,88.22232142857143,514.1285714285714,2655.2,88.22232142857143,514.1285714285714,2767.8,88.22232142857143,514.1285714285714,2888.5,88.22232142857143,514.1285714285714,2997.2,88.22232142857143,514.1285714285714,3107.7,88.22232142857143,514.1285714285714,3216.2,88.22232142857143,514.1285714285714,3324,88.22232142857143,514.1285714285714,3429,88.22232142857143,514.1285714285714,3533.2,88.22232142857143,514.1285714285714,3647.7,88.22232142857143,514.1285714285714,3764.3,88.22232142857143,514.1285714285714,3870.6,88.22232142857143,514.1285714285714,3985.3,88.22232142857143,514.1285714285714,4089.8,88.22232142857143,514.1285714285714,4207,88.22232142857143,514.1285714285714,4317.4,88.22232142857143,514.1285714285714,4417.8,88.22232142857143,514.1285714285714,4530.1,88.22232142857143,514.1285714285714,4644.8,88.22232142857143,514.1285714285714,4763.4,88.22232142857143,514.1285714285714,4874.7,88.22232142857143,514.1285714285714,4990.9]","[1496.2,1496.2,1000,0,496.2,""oops"",""down"",""left"",""good_move"",4407.5,2908.4,1951.6,1499.1,956.9,""smooth"",""left"",""left"",""good_move"",7641.1,3231.6,2319.1,4409.5,912.5,""oops"",""down"",""down"",""good_move"",10987,3342.5,2986.8,7644.5,355.8,""smooth"",""left"",""left"",""good_move"",14663.4,3674.8,2537.9,10988.8,1136.7,""oops"",""down"",""down"",""good_move"",17858.9,3193.5,2783.8,14665.4,409.7,""smooth"",""down"",""down"",""good_move""]","",""
"2926","","<div style=""width:500px;"">
  <p>What determined the result of this run?</p>
  </div>","90","html-slider-response","55","884458","0.0-5.0-1.9","128","1","2025-07-16 22:00:18","1f75c3e559b7213887762d5229550c2b","41.116.116.179","Mozilla/5.0 (Windows NT 10.0; Win64; x64) AppleWebKit/537.36 (KHTML, like Gecko) Chrome/138.0.0.0 Safari/537.36","WebKit","Chrome","138.0.0.0","Windows","10.0","https://app.prolific.com/","en-GB,en-US;q=0.9,en;q=0.8","67215aa0a8e88c6751efc410","68764874ac79eee8c1d4cb03","687820a5ac67a4d7ac96c437","2","0","67215aa0a8e88c6751efc410","2","0","2025-07-16T22:15:07.178Z","","","","","","","","","","","AttribQ","","50","","","","","","","","","","","","","","","","","","","","","","","","","","","","",""
"3853","","<div style=""width:500px;"">
  <p>How much control did you have over the ball?</p>
  </div>","83","html-slider-response","56","888315","0.0-5.0-2.9","128","1","2025-07-16 22:00:18","1f75c3e559b7213887762d5229550c2b","41.116.116.179","Mozilla/5.0 (Windows NT 10.0; Win64; x64) AppleWebKit/537.36 (KHTML, like Gecko) Chrome/138.0.0.0 Safari/537.36","WebKit","Chrome","138.0.0.0","Windows","10.0","https://app.prolific.com/","en-GB,en-US;q=0.9,en;q=0.8","67215aa0a8e88c6751efc410","68764874ac79eee8c1d4cb03","687820a5ac67a4d7ac96c437","2","0","67215aa0a8e88c6751efc410","2","0","2025-07-16T22:15:11.034Z","","","","","","","","","","","ControlQ","","50","","","","","","","","","","","","","","","","","","","","","","","","","","","","",""
"2907","","<div style=""width:500px;"">
  <p>How would you describe your current emotional state?</p>
  </div>","37","html-slider-response","57","891228","0.0-5.0-3.9","128","1","2025-07-16 22:00:18","1f75c3e559b7213887762d5229550c2b","41.116.116.179","Mozilla/5.0 (Windows NT 10.0; Win64; x64) AppleWebKit/537.36 (KHTML, like Gecko) Chrome/138.0.0.0 Safari/537.36","WebKit","Chrome","138.0.0.0","Windows","10.0","https://app.prolific.com/","en-GB,en-US;q=0.9,en;q=0.8","67215aa0a8e88c6751efc410","68764874ac79eee8c1d4cb03","687820a5ac67a4d7ac96c437","2","0","67215aa0a8e88c6751efc410","2","0","2025-07-16T22:15:13.947Z","","","","","","","","","","","StressQ","","50","","","","","","","","","","","","","","","","","","","","","","","","","","","","",""
"2008","","<div style=""width:500px;"">
  <p>What best describes how you currently feel?</p>
  </div>","73","html-slider-response","58","893241","0.0-5.0-4.9","128","1","2025-07-16 22:00:18","1f75c3e559b7213887762d5229550c2b","41.116.116.179","Mozilla/5.0 (Windows NT 10.0; Win64; x64) AppleWebKit/537.36 (KHTML, like Gecko) Chrome/138.0.0.0 Safari/537.36","WebKit","Chrome","138.0.0.0","Windows","10.0","https://app.prolific.com/","en-GB,en-US;q=0.9,en;q=0.8","67215aa0a8e88c6751efc410","68764874ac79eee8c1d4cb03","687820a5ac67a4d7ac96c437","2","0","67215aa0a8e88c6751efc410","2","0","2025-07-16T22:15:15.960Z","","","","","","","","","","","MotivationQ","","50","","","","","","","","","","","","","","","","","","","","","","","","","","","","",""
"","","","","ctl-task-cpt","59","976757","0.0-5.0-0.10","128","1","2025-07-16 22:00:18","1f75c3e559b7213887762d5229550c2b","41.116.116.179","Mozilla/5.0 (Windows NT 10.0; Win64; x64) AppleWebKit/537.36 (KHTML, like Gecko) Chrome/138.0.0.0 Safari/537.36","WebKit","Chrome","138.0.0.0","Windows","10.0","https://app.prolific.com/","en-GB,en-US;q=0.9,en;q=0.8","67215aa0a8e88c6751efc410","68764874ac79eee8c1d4cb03","687820a5ac67a4d7ac96c437","2","0","67215aa0a8e88c6751efc410","2","0","2025-07-16T22:16:39.477Z","","","","","","","","","","","","","","win-only","3","g1:SW,g2:NE","0.5","11","0","900356.4","1183.6","6193.7","80491.2","1","4","4","6","2","4","4","47","43","0.3560606060606061","1298.2","3000","1295","[""up"",""right""]","{""num_key_presses"":16,""num_perfect"":9,""num_errors"":0,""num_randdir"":7,""num_randdir_good_moves"":2,""num_whilered"":0,""num_whileblue"":0,""num_blue"":5,""num_good_moves"":11}","[298.22232142857143,296.12857142857143,1,298.22232142857143,296.12857142857143,117.7,298.22232142857143,296.12857142857143,219.3,298.22232142857143,296.12857142857143,339.5,298.22232142857143,296.12857142857143,472.7,266.22232142857143,319.12857142857143,583.9,240.22232142857143,327.12857142857143,706.5,452.22232142857143,140.12857142857143,833.8,492.22232142857143,65.12857142857143,962.4,502.22232142857143,64.12857142857143,1102.3,508.22232142857143,62.128571428571426,1228.4,508.22232142857143,62.128571428571426,1347.8,508.22232142857143,62.128571428571426,1450.3,512.2223214285714,89.12857142857143,1567.1,510.22232142857143,221.12857142857143,1703.6,492.22232142857143,301.12857142857143,1803.7,491.22232142857143,307.12857142857143,1906.6,491.22232142857143,311.12857142857143,2012.4,491.22232142857143,311.12857142857143,2117.4,491.22232142857143,311.12857142857143,2235.5,491.22232142857143,311.12857142857143,2361.7,491.22232142857143,311.12857142857143,2485.2,491.22232142857143,311.12857142857143,2612.7,491.22232142857143,311.12857142857143,2735.5,491.22232142857143,311.12857142857143,2860.2,491.22232142857143,311.12857142857143,2982.1,491.22232142857143,311.12857142857143,3115,491.22232142857143,311.12857142857143,3237.5,491.22232142857143,311.12857142857143,3354.4,491.22232142857143,311.12857142857143,3483.8,491.22232142857143,311.12857142857143,3606.6,491.22232142857143,311.12857142857143,3733.7,491.22232142857143,311.12857142857143,3854.7,491.22232142857143,311.12857142857143,3980.5,491.22232142857143,311.12857142857143,4109.5,491.22232142857143,311.12857142857143,4240.4,491.22232142857143,311.12857142857143,4363.8,491.22232142857143,311.12857142857143,4487.7,491.22232142857143,311.12857142857143,4608.4,491.22232142857143,311.12857142857143,4726.6,491.22232142857143,311.12857142857143,4829.2,491.22232142857143,311.12857142857143,4932.4]","[1457.1,1457.1,1000,0,457.1,""oops"",""up"",""down"",""bad_move"",4909.1,3450.5,3087.4,1458.7,363,""smooth"",""right"",""right"",""good_move"",8135.6,3223.2,2863.6,4912.4,359.6,""oops"",""up"",""down"",""bad_move"",11796.2,3658.3,3326.4,8137.9,331.9,""smooth"",""right"",""right"",""good_move"",17200.1,5396.1,1889.9,14873.2,437,""smooth"",""right"",""right"",""good_move"",20576.8,3374.8,2869.1,17202,505.7,""smooth"",""up"",""up"",""good_move"",24585.3,4000.8,2894.5,20584.5,1106.3,""oops"",""up"",""down"",""bad_move"",27108.3,2519.5,2048.8,24588.8,470.7,""oops"",""up"",""up"",""good_move"",31607.4,4497.1,2753.5,27110.3,1743.6,""oops"",""up"",""down"",""bad_move"",37943.2,6334.1,2425,35114.3,403.9,""smooth"",""up"",""up"",""good_move"",44206.3,6252.1,2096.3,41658.7,451.3,""smooth"",""up"",""up"",""good_move"",48228.2,4011.2,2533.9,44217,1477.3,""oops"",""up"",""down"",""bad_move"",51015.6,2783.3,1836.1,48232.3,947.2,""smooth"",""up"",""up"",""good_move"",59284.6,8267.5,2277.9,56623.5,383.2,""oops"",""up"",""up"",""good_move"",64667.6,5382,2514.9,59285.8,2866.9,""smooth"",""up"",""up"",""good_move"",74048.9,9380.2,2787.2,70863,398.7,""smooth"",""up"",""up"",""good_move""]","",""
"2329","","<div style=""width:500px;"">
  <p>What determined the result of this run?</p>
  </div>","91","html-slider-response","60","979089","0.0-5.0-1.10","128","1","2025-07-16 22:00:18","1f75c3e559b7213887762d5229550c2b","41.116.116.179","Mozilla/5.0 (Windows NT 10.0; Win64; x64) AppleWebKit/537.36 (KHTML, like Gecko) Chrome/138.0.0.0 Safari/537.36","WebKit","Chrome","138.0.0.0","Windows","10.0","https://app.prolific.com/","en-GB,en-US;q=0.9,en;q=0.8","67215aa0a8e88c6751efc410","68764874ac79eee8c1d4cb03","687820a5ac67a4d7ac96c437","2","0","67215aa0a8e88c6751efc410","2","0","2025-07-16T22:16:41.808Z","","","","","","","","","","","AttribQ","","50","","","","","","","","","","","","","","","","","","","","","","","","","","","","",""
"1601","","<div style=""width:500px;"">
  <p>How much control did you have over the ball?</p>
  </div>","79","html-slider-response","61","980693","0.0-5.0-2.10","128","1","2025-07-16 22:00:18","1f75c3e559b7213887762d5229550c2b","41.116.116.179","Mozilla/5.0 (Windows NT 10.0; Win64; x64) AppleWebKit/537.36 (KHTML, like Gecko) Chrome/138.0.0.0 Safari/537.36","WebKit","Chrome","138.0.0.0","Windows","10.0","https://app.prolific.com/","en-GB,en-US;q=0.9,en;q=0.8","67215aa0a8e88c6751efc410","68764874ac79eee8c1d4cb03","687820a5ac67a4d7ac96c437","2","0","67215aa0a8e88c6751efc410","2","0","2025-07-16T22:16:43.413Z","","","","","","","","","","","ControlQ","","50","","","","","","","","","","","","","","","","","","","","","","","","","","","","",""
"3300","","<div style=""width:500px;"">
  <p>How would you describe your current emotional state?</p>
  </div>","41","html-slider-response","62","983996","0.0-5.0-3.10","128","1","2025-07-16 22:00:18","1f75c3e559b7213887762d5229550c2b","41.116.116.179","Mozilla/5.0 (Windows NT 10.0; Win64; x64) AppleWebKit/537.36 (KHTML, like Gecko) Chrome/138.0.0.0 Safari/537.36","WebKit","Chrome","138.0.0.0","Windows","10.0","https://app.prolific.com/","en-GB,en-US;q=0.9,en;q=0.8","67215aa0a8e88c6751efc410","68764874ac79eee8c1d4cb03","687820a5ac67a4d7ac96c437","2","0","67215aa0a8e88c6751efc410","2","0","2025-07-16T22:16:46.715Z","","","","","","","","","","","StressQ","","50","","","","","","","","","","","","","","","","","","","","","","","","","","","","",""
"2589","","<div style=""width:500px;"">
  <p>What best describes how you currently feel?</p>
  </div>","71","html-slider-response","63","986587","0.0-5.0-4.10","128","1","2025-07-16 22:00:18","1f75c3e559b7213887762d5229550c2b","41.116.116.179","Mozilla/5.0 (Windows NT 10.0; Win64; x64) AppleWebKit/537.36 (KHTML, like Gecko) Chrome/138.0.0.0 Safari/537.36","WebKit","Chrome","138.0.0.0","Windows","10.0","https://app.prolific.com/","en-GB,en-US;q=0.9,en;q=0.8","67215aa0a8e88c6751efc410","68764874ac79eee8c1d4cb03","687820a5ac67a4d7ac96c437","2","0","67215aa0a8e88c6751efc410","2","0","2025-07-16T22:16:49.306Z","","","","","","","","","","","MotivationQ","","50","","","","","","","","","","","","","","","","","","","","","","","","","","","","",""
"","","","","ctl-task-cpt","64","1044117","0.0-5.0-0.11","128","1","2025-07-16 22:00:18","1f75c3e559b7213887762d5229550c2b","41.116.116.179","Mozilla/5.0 (Windows NT 10.0; Win64; x64) AppleWebKit/537.36 (KHTML, like Gecko) Chrome/138.0.0.0 Safari/537.36","WebKit","Chrome","138.0.0.0","Windows","10.0","https://app.prolific.com/","en-GB,en-US;q=0.9,en;q=0.8","67215aa0a8e88c6751efc410","68764874ac79eee8c1d4cb03","687820a5ac67a4d7ac96c437","2","0","67215aa0a8e88c6751efc410","2","0","2025-07-16T22:17:46.836Z","","","","","","","","","","","","","","win-only","2","g1:SE,g2:NW","0.6","12","0","993703.1","3606.1","8626.7","54471.7","1","4","8","6","2","8","8","55","47","0.4166666666666667","891.3","3000","2600","[""left"",""up""]","{""num_key_presses"":6,""num_perfect"":4,""num_errors"":0,""num_randdir"":2,""num_randdir_good_moves"":2,""num_whilered"":0,""num_whileblue"":0,""num_blue"":2,""num_good_moves"":6}","[296.22232142857143,301.12857142857143,7.1,296.22232142857143,301.12857142857143,105.1,296.22232142857143,301.12857142857143,227,296.22232142857143,301.12857142857143,345.3,275.22232142857143,273.12857142857143,463.7,73.22232142857143,105.12857142857143,575.8,78.22232142857143,92.12857142857143,696.7,78.22232142857143,92.12857142857143,799.2,78.22232142857143,92.12857142857143,909.2,78.22232142857143,92.12857142857143,1012.1,78.22232142857143,92.12857142857143,1112.6,78.22232142857143,92.12857142857143,1232.1,78.22232142857143,92.12857142857143,1358.6,78.22232142857143,92.12857142857143,1479.7,78.22232142857143,92.12857142857143,1594.9,78.22232142857143,92.12857142857143,1704.2,78.22232142857143,92.12857142857143,1817.5,78.22232142857143,92.12857142857143,1926,78.22232142857143,92.12857142857143,2031.1,78.22232142857143,92.12857142857143,2154.1,78.22232142857143,92.12857142857143,2256.2,78.22232142857143,92.12857142857143,2359.4,78.22232142857143,92.12857142857143,2461.2,78.22232142857143,92.12857142857143,2587.5,78.22232142857143,92.12857142857143,2706.8,78.22232142857143,92.12857142857143,2810.5,78.22232142857143,92.12857142857143,2915.4,78.22232142857143,92.12857142857143,3029.9,78.22232142857143,92.12857142857143,3140.5,78.22232142857143,92.12857142857143,3257.7,78.22232142857143,92.12857142857143,3383.2,78.22232142857143,92.12857142857143,3503.3,78.22232142857143,92.12857142857143,3628.5,78.22232142857143,92.12857142857143,3751.6,78.22232142857143,92.12857142857143,3872.7,78.22232142857143,92.12857142857143,3993.4,78.22232142857143,92.12857142857143,4127.4,78.22232142857143,92.12857142857143,4251.7,78.22232142857143,92.12857142857143,4370,78.22232142857143,92.12857142857143,4473.6,78.22232142857143,92.12857142857143,4594.1,78.22232142857143,92.12857142857143,4715,78.22232142857143,92.12857142857143,4829.3,78.22232142857143,92.12857142857143,4935.2]","[1487.3,1487.3,1000,0,487.3,""oops"",""up"",""left"",""good_move"",14449.5,12959.8,2712.9,11093.1,643.5,""smooth"",""up"",""up"",""good_move"",20655.1,6204.5,2805.3,14450.7,3399.2,""smooth"",""up"",""up"",""good_move"",27576.2,6909.3,2461.5,20667,4447.7,""smooth"",""up"",""up"",""good_move"",36140,8562.8,2315.1,27577.3,6247.6,""smooth"",""left"",""left"",""good_move"",44951.3,8810.2,1922.2,36141.1,6888,""oops"",""left"",""left"",""good_move""]","",""
"2601","","<div style=""width:500px;"">
  <p>What determined the result of this run?</p>
  </div>","93","html-slider-response","65","1046723","0.0-5.0-1.11","128","1","2025-07-16 22:00:18","1f75c3e559b7213887762d5229550c2b","41.116.116.179","Mozilla/5.0 (Windows NT 10.0; Win64; x64) AppleWebKit/537.36 (KHTML, like Gecko) Chrome/138.0.0.0 Safari/537.36","WebKit","Chrome","138.0.0.0","Windows","10.0","https://app.prolific.com/","en-GB,en-US;q=0.9,en;q=0.8","67215aa0a8e88c6751efc410","68764874ac79eee8c1d4cb03","687820a5ac67a4d7ac96c437","2","0","67215aa0a8e88c6751efc410","2","0","2025-07-16T22:17:49.442Z","","","","","","","","","","","AttribQ","","50","","","","","","","","","","","","","","","","","","","","","","","","","","","","",""
"1952","","<div style=""width:500px;"">
  <p>How much control did you have over the ball?</p>
  </div>","82","html-slider-response","66","1048682","0.0-5.0-2.11","128","1","2025-07-16 22:00:18","1f75c3e559b7213887762d5229550c2b","41.116.116.179","Mozilla/5.0 (Windows NT 10.0; Win64; x64) AppleWebKit/537.36 (KHTML, like Gecko) Chrome/138.0.0.0 Safari/537.36","WebKit","Chrome","138.0.0.0","Windows","10.0","https://app.prolific.com/","en-GB,en-US;q=0.9,en;q=0.8","67215aa0a8e88c6751efc410","68764874ac79eee8c1d4cb03","687820a5ac67a4d7ac96c437","2","0","67215aa0a8e88c6751efc410","2","0","2025-07-16T22:17:51.402Z","","","","","","","","","","","ControlQ","","50","","","","","","","","","","","","","","","","","","","","","","","","","","","","",""
"2169","","<div style=""width:500px;"">
  <p>How would you describe your current emotional state?</p>
  </div>","33","html-slider-response","67","1050856","0.0-5.0-3.11","128","1","2025-07-16 22:00:18","1f75c3e559b7213887762d5229550c2b","41.116.116.179","Mozilla/5.0 (Windows NT 10.0; Win64; x64) AppleWebKit/537.36 (KHTML, like Gecko) Chrome/138.0.0.0 Safari/537.36","WebKit","Chrome","138.0.0.0","Windows","10.0","https://app.prolific.com/","en-GB,en-US;q=0.9,en;q=0.8","67215aa0a8e88c6751efc410","68764874ac79eee8c1d4cb03","687820a5ac67a4d7ac96c437","2","0","67215aa0a8e88c6751efc410","2","0","2025-07-16T22:17:53.575Z","","","","","","","","","","","StressQ","","50","","","","","","","","","","","","","","","","","","","","","","","","","","","","",""
"2843","","<div style=""width:500px;"">
  <p>What best describes how you currently feel?</p>
  </div>","76","html-slider-response","68","1053706","0.0-5.0-4.11","128","1","2025-07-16 22:00:18","1f75c3e559b7213887762d5229550c2b","41.116.116.179","Mozilla/5.0 (Windows NT 10.0; Win64; x64) AppleWebKit/537.36 (KHTML, like Gecko) Chrome/138.0.0.0 Safari/537.36","WebKit","Chrome","138.0.0.0","Windows","10.0","https://app.prolific.com/","en-GB,en-US;q=0.9,en;q=0.8","67215aa0a8e88c6751efc410","68764874ac79eee8c1d4cb03","687820a5ac67a4d7ac96c437","2","0","67215aa0a8e88c6751efc410","2","0","2025-07-16T22:17:56.425Z","","","","","","","","","","","MotivationQ","","50","","","","","","","","","","","","","","","","","","","","","","","","","","","","",""
"","","","","ctl-task-cpt","69","1105228","0.0-5.0-0.12","128","1","2025-07-16 22:00:18","1f75c3e559b7213887762d5229550c2b","41.116.116.179","Mozilla/5.0 (Windows NT 10.0; Win64; x64) AppleWebKit/537.36 (KHTML, like Gecko) Chrome/138.0.0.0 Safari/537.36","WebKit","Chrome","138.0.0.0","Windows","10.0","https://app.prolific.com/","en-GB,en-US;q=0.9,en;q=0.8","67215aa0a8e88c6751efc410","68764874ac79eee8c1d4cb03","687820a5ac67a4d7ac96c437","2","0","67215aa0a8e88c6751efc410","2","0","2025-07-16T22:18:47.947Z","","","","","","","","","","","","","","win-only","2","g1:SE,g2:NW","0.7","13","0","1060827.3","1128.8","6142.2","48473.1","1","4","4","6","2","4","4","59","55","0.44696969696969696","1342.3","3000","2330","[""left"",""up""]","{""num_key_presses"":8,""num_perfect"":7,""num_errors"":0,""num_randdir"":1,""num_randdir_good_moves"":0,""num_whilered"":0,""num_whileblue"":0,""num_blue"":1,""num_good_moves"":7}","[294.22232142857143,304.12857142857143,0.8,294.22232142857143,304.12857142857143,114.5,294.22232142857143,304.12857142857143,229.5,294.22232142857143,304.12857142857143,339.3,332.22232142857143,337.12857142857143,494.6,542.2223214285714,513.1285714285714,662.9,539.2223214285714,505.12857142857143,776.5,99.22232142857143,37.128571428571426,939.8,51.222321428571426,5.128571428571426,1066,56.222321428571426,44.128571428571426,1221,67.22232142857143,57.128571428571426,1324.8,67.22232142857143,57.128571428571426,1456,67.22232142857143,57.128571428571426,1578.5,67.22232142857143,57.128571428571426,1694.2,67.22232142857143,57.128571428571426,1805.7,67.22232142857143,57.128571428571426,1914.7,67.22232142857143,57.128571428571426,2026.8,67.22232142857143,57.128571428571426,2154.9,67.22232142857143,57.128571428571426,2265.9,67.22232142857143,57.128571428571426,2379.1,67.22232142857143,57.128571428571426,2490,67.22232142857143,57.128571428571426,2612.6,67.22232142857143,57.128571428571426,2723.6,67.22232142857143,57.128571428571426,2831.3,67.22232142857143,57.128571428571426,2942.6,67.22232142857143,57.128571428571426,3048.8,67.22232142857143,57.128571428571426,3167.9,67.22232142857143,57.128571428571426,3276.5,67.22232142857143,57.128571428571426,3392.5,67.22232142857143,57.128571428571426,3499.2,67.22232142857143,57.128571428571426,3608.4,67.22232142857143,57.128571428571426,3726.1,67.22232142857143,57.128571428571426,3836.9,67.22232142857143,57.128571428571426,3948.6,67.22232142857143,57.128571428571426,4059.5,67.22232142857143,57.128571428571426,4181.1,67.22232142857143,57.128571428571426,4287.7,67.22232142857143,57.128571428571426,4432.4,67.22232142857143,57.128571428571426,4538.6,67.22232142857143,57.128571428571426,4686,67.22232142857143,57.128571428571426,4790.3,67.22232142857143,57.128571428571426,4904.5]","[1667.3,1667.3,1000,0,667.3,""oops"",""up"",""right"",""bad_move"",4436.3,2766.1,2164.7,1670.2,601.4,""smooth"",""up"",""up"",""good_move"",16245.4,11804.2,1871.3,13923.3,450.8,""smooth"",""up"",""up"",""good_move"",20126.3,3879.8,2618.4,16246.5,1261.4,""smooth"",""up"",""up"",""good_move"",24667.6,4538.2,2848.7,20129.4,1689.5,""smooth"",""left"",""left"",""good_move"",29751.7,5079.3,2375.4,24672.5,2703.8,""smooth"",""left"",""left"",""good_move"",35934.5,6179.2,2307.2,29755.3,3872,""smooth"",""left"",""left"",""good_move"",42011.8,6072.3,2215.1,35939.5,3857.3,""smooth"",""left"",""left"",""good_move""]","",""
"3185","","<div style=""width:500px;"">
  <p>What determined the result of this run?</p>
  </div>","94","html-slider-response","70","1108415","0.0-5.0-1.12","128","1","2025-07-16 22:00:18","1f75c3e559b7213887762d5229550c2b","41.116.116.179","Mozilla/5.0 (Windows NT 10.0; Win64; x64) AppleWebKit/537.36 (KHTML, like Gecko) Chrome/138.0.0.0 Safari/537.36","WebKit","Chrome","138.0.0.0","Windows","10.0","https://app.prolific.com/","en-GB,en-US;q=0.9,en;q=0.8","67215aa0a8e88c6751efc410","68764874ac79eee8c1d4cb03","687820a5ac67a4d7ac96c437","2","0","67215aa0a8e88c6751efc410","2","0","2025-07-16T22:18:51.134Z","","","","","","","","","","","AttribQ","","50","","","","","","","","","","","","","","","","","","","","","","","","","","","","",""
"2907","","<div style=""width:500px;"">
  <p>How much control did you have over the ball?</p>
  </div>","85","html-slider-response","71","1111326","0.0-5.0-2.12","128","1","2025-07-16 22:00:18","1f75c3e559b7213887762d5229550c2b","41.116.116.179","Mozilla/5.0 (Windows NT 10.0; Win64; x64) AppleWebKit/537.36 (KHTML, like Gecko) Chrome/138.0.0.0 Safari/537.36","WebKit","Chrome","138.0.0.0","Windows","10.0","https://app.prolific.com/","en-GB,en-US;q=0.9,en;q=0.8","67215aa0a8e88c6751efc410","68764874ac79eee8c1d4cb03","687820a5ac67a4d7ac96c437","2","0","67215aa0a8e88c6751efc410","2","0","2025-07-16T22:18:54.045Z","","","","","","","","","","","ControlQ","","50","","","","","","","","","","","","","","","","","","","","","","","","","","","","",""
"7436","","<div style=""width:500px;"">
  <p>How would you describe your current emotional state?</p>
  </div>","28","html-slider-response","72","1118766","0.0-5.0-3.12","128","1","2025-07-16 22:00:18","1f75c3e559b7213887762d5229550c2b","41.116.116.179","Mozilla/5.0 (Windows NT 10.0; Win64; x64) AppleWebKit/537.36 (KHTML, like Gecko) Chrome/138.0.0.0 Safari/537.36","WebKit","Chrome","138.0.0.0","Windows","10.0","https://app.prolific.com/","en-GB,en-US;q=0.9,en;q=0.8","67215aa0a8e88c6751efc410","68764874ac79eee8c1d4cb03","687820a5ac67a4d7ac96c437","2","0","67215aa0a8e88c6751efc410","2","0","2025-07-16T22:19:01.485Z","","","","","","","","","","","StressQ","","50","","","","","","","","","","","","","","","","","","","","","","","","","","","","",""
"2732","","<div style=""width:500px;"">
  <p>What best describes how you currently feel?</p>
  </div>","78","html-slider-response","73","1121501","0.0-5.0-4.12","128","1","2025-07-16 22:00:18","1f75c3e559b7213887762d5229550c2b","41.116.116.179","Mozilla/5.0 (Windows NT 10.0; Win64; x64) AppleWebKit/537.36 (KHTML, like Gecko) Chrome/138.0.0.0 Safari/537.36","WebKit","Chrome","138.0.0.0","Windows","10.0","https://app.prolific.com/","en-GB,en-US;q=0.9,en;q=0.8","67215aa0a8e88c6751efc410","68764874ac79eee8c1d4cb03","687820a5ac67a4d7ac96c437","2","0","67215aa0a8e88c6751efc410","2","0","2025-07-16T22:19:04.221Z","","","","","","","","","","","MotivationQ","","50","","","","","","","","","","","","","","","","","","","","","","","","","","","","",""
"","","","","ctl-task-cpt","74","1155039","0.0-5.0-0.13","128","1","2025-07-16 22:00:18","1f75c3e559b7213887762d5229550c2b","41.116.116.179","Mozilla/5.0 (Windows NT 10.0; Win64; x64) AppleWebKit/537.36 (KHTML, like Gecko) Chrome/138.0.0.0 Safari/537.36","WebKit","Chrome","138.0.0.0","Windows","10.0","https://app.prolific.com/","en-GB,en-US;q=0.9,en;q=0.8","67215aa0a8e88c6751efc410","68764874ac79eee8c1d4cb03","687820a5ac67a4d7ac96c437","2","0","67215aa0a8e88c6751efc410","2","0","2025-07-16T22:19:37.759Z","","","","","","","","","","","","","","win-only","0","g1:NW,g2:SE","0.8","14","0","1128625.6","857.6","5883.2","30483.4","1","4","8","6","2","8","8","67","59","0.5075757575757576","1128.4","3000","2240","[""down"",""right""]","{""num_key_presses"":6,""num_perfect"":5,""num_errors"":0,""num_randdir"":1,""num_randdir_good_moves"":1,""num_whilered"":0,""num_whileblue"":0,""num_blue"":2,""num_good_moves"":6}","[294.22232142857143,300.12857142857143,7.8,294.22232142857143,300.12857142857143,112.8,294.22232142857143,300.12857142857143,232.7,247.22232142857143,299.12857142857143,345,195.22232142857143,247.12857142857143,461,274.22232142857143,375.12857142857143,604.9,470.22232142857143,512.1285714285714,713.9,569.2223214285714,575.1285714285714,842.2,569.2223214285714,575.1285714285714,959.2,570.2223214285714,548.1285714285714,1069.5,570.2223214285714,548.1285714285714,1176.5,570.2223214285714,548.1285714285714,1279.3,543.2223214285714,566.1285714285714,1409,454.22232142857143,598.1285714285714,1515,454.22232142857143,598.1285714285714,1625.5,454.22232142857143,598.1285714285714,1726.8,454.22232142857143,598.1285714285714,1840.8,454.22232142857143,598.1285714285714,1965.7,454.22232142857143,598.1285714285714,2094.5,454.22232142857143,598.1285714285714,2214.4,454.22232142857143,598.1285714285714,2321.5,454.22232142857143,598.1285714285714,2428.1,454.22232142857143,598.1285714285714,2531.3,454.22232142857143,598.1285714285714,2648.6,470.22232142857143,585.1285714285714,2759.6,499.22232142857143,565.1285714285714,2867.9,519.2223214285714,555.1285714285714,2977.9,522.2223214285714,554.1285714285714,3096.8,522.2223214285714,554.1285714285714,3206.1,522.2223214285714,554.1285714285714,3317.1,522.2223214285714,554.1285714285714,3419.7,522.2223214285714,554.1285714285714,3534.7,522.2223214285714,554.1285714285714,3648.7,522.2223214285714,554.1285714285714,3751.2,522.2223214285714,554.1285714285714,3880.9,522.2223214285714,554.1285714285714,3994.9,522.2223214285714,554.1285714285714,4118.8,522.2223214285714,554.1285714285714,4228.2,522.2223214285714,554.1285714285714,4337,522.2223214285714,554.1285714285714,4445.9,522.2223214285714,554.1285714285714,4546.3,522.2223214285714,554.1285714285714,4648.3,522.2223214285714,554.1285714285714,4773.5,522.2223214285714,554.1285714285714,4897.2]","[1909.6,1909.6,1000,0,909.6,""smooth"",""down"",""down"",""good_move"",5220.9,3305.5,2876.6,1915.4,428.9,""smooth"",""down"",""down"",""good_move"",11974.1,6748.4,2542,8915.7,516.4,""smooth"",""down"",""down"",""good_move"",14969.3,2994.2,2432.9,11975.1,561.3,""oops"",""right"",""right"",""good_move"",17980.9,3009.3,2434.9,14971.6,574.4,""smooth"",""right"",""right"",""good_move"",24069.4,6086.6,1777.8,21864.7,426.9,""smooth"",""right"",""right"",""good_move""]","",""
"3379","","<div style=""width:500px;"">
  <p>What determined the result of this run?</p>
