"rt","response_timestamp","stimulus","response","trial_type","trial_index","time_elapsed","internal_node_id","run_id","condition","recorded_at","source_code_version","ip","user_agent","device","browser","browser_version","platform","platform_version","referer","accept_language","PROLIFIC_PID","STUDY_ID","SESSION_ID","WEEK","BATCH","prolific_id","week","batch","realtime","success","responses","item_order","radio_event_ids","radio_event_times","key_event_times","mouse_event_times","straightlining","zigzagging","honeypot","eventType","view_history","slider_start","which_type","canvas_config","goals_layout","control_level","trial_number","tutorial_trial_number","trial_start_time","phase1_start_time","phase2_start_time","phase3_start_time","goal_1_value","goal_1_distance","goal_2_value","goal_2_distance","goal_selected","outcome","outcome_total","participant_final_score","participant_initial_score","participant_final_score_prop","goal_choice_rt","allocated_time","allocated_time_remaining","goal_direction","counts","mouse_movements","key_presses","question_order","question_id"
"18398","1752654754471","<p style='font-size:40px;line-height:1.25'><strong>Welcome to the experiment!</strong></p><p style='font-size:1.1em;line-height:1.25'>Thank you for participanting in our experiment again! You will be asked to play the Dysfunctional Ball Game again. We will briefly recap the rules before we start.</p><p style='font-size:1.1em;line-height:1.25'>Press <strong>Next</strong> to continue.</p>","0","custom-html-button-response","0","18404","0.0-0.0","71","1","2025-07-16 08:31:43","1f75c3e559b7213887762d5229550c2b","78.145.195.194","Mozilla/5.0 (Windows NT 10.0; Win64; x64) AppleWebKit/537.36 (KHTML, like Gecko) Chrome/138.0.0.0 Safari/537.36","WebKit","Chrome","138.0.0.0","Windows","10.0","https://app.prolific.com/","en-US,en;q=0.9","5cab22cd68194f001511b2d6","686e379bc37a29ffa5cdc956","687761d8593b57143228c6db","1","1","5cab22cd68194f001511b2d6","1","1","2025-07-16T08:32:34.474Z","","","","","","","","","","","","","","","","","","","","","","","","","","","","","","","","","","","","","","","","","",""
"3393","","","","fullscreen","1","22821","0.0-1.0","71","1","2025-07-16 08:31:43","1f75c3e559b7213887762d5229550c2b","78.145.195.194","Mozilla/5.0 (Windows NT 10.0; Win64; x64) AppleWebKit/537.36 (KHTML, like Gecko) Chrome/138.0.0.0 Safari/537.36","WebKit","Chrome","138.0.0.0","Windows","10.0","https://app.prolific.com/","en-US,en;q=0.9","5cab22cd68194f001511b2d6","686e379bc37a29ffa5cdc956","687761d8593b57143228c6db","1","1","5cab22cd68194f001511b2d6","1","1","","true","","","","","","","","","","","","","","","","","","","","","","","","","","","","","","","","","","","","","","","","",""
"2421","1752654761316","<p style='font-size:1.1em;line-height:1.25'>In the following, we will ask you a few questions relating to your feelings in the last 24 hours.<br></p><p style='font-size:1.1em;line-height:1.25'>Press the <strong>Next</strong> button to continue.</p>","0","custom-html-button-response","2","25248","0.0-2.0-0.0","71","1","2025-07-16 08:31:43","1f75c3e559b7213887762d5229550c2b","78.145.195.194","Mozilla/5.0 (Windows NT 10.0; Win64; x64) AppleWebKit/537.36 (KHTML, like Gecko) Chrome/138.0.0.0 Safari/537.36","WebKit","Chrome","138.0.0.0","Windows","10.0","https://app.prolific.com/","en-US,en;q=0.9","5cab22cd68194f001511b2d6","686e379bc37a29ffa5cdc956","687761d8593b57143228c6db","1","1","5cab22cd68194f001511b2d6","1","1","2025-07-16T08:32:41.317Z","","","","","","","","","","","","","","","","","","","","","","","","","","","","","","","","","","","","","","","","","",""
"55032.59999990463","","","","survey-template","3","80296","0.0-2.0-1.0","71","1","2025-07-16 08:31:43","1f75c3e559b7213887762d5229550c2b","78.145.195.194","Mozilla/5.0 (Windows NT 10.0; Win64; x64) AppleWebKit/537.36 (KHTML, like Gecko) Chrome/138.0.0.0 Safari/537.36","WebKit","Chrome","138.0.0.0","Windows","10.0","https://app.prolific.com/","en-US,en;q=0.9","5cab22cd68194f001511b2d6","686e379bc37a29ffa5cdc956","687761d8593b57143228c6db","1","1","5cab22cd68194f001511b2d6","1","1","2025-07-16T08:33:36.365Z","","{""Q01"":""3"",""Q02"":""3"",""Q03"":""3"",""Q04"":""3"",""Q05"":""1"",""Q06"":""0"",""Q07"":""0"",""Q08"":""0"",""Q09"":""0"",""Q10"":""0"",""Q11"":""3"",""Q12"":""1"",""Q13"":""5"",""Q14"":""0"",""Q15"":""0"",""Q16"":""4"",""Q17"":""3"",""Q18"":""1"",""Q19"":""1"",""Q20"":""1"",""Q21"":""1"",""Q22"":""0""}","[0,1,2,3,4,5,6,7,8,9,10,11,12,13,14,15,16,17,18,19,20,21]","[""Q01"",""Q02"",""Q03"",""Q04"",""Q05"",""Q07"",""Q06"",""Q08"",""Q09"",""Q10"",""Q11"",""Q12"",""Q13"",""Q14"",""Q14"",""Q15"",""Q16"",""Q17"",""Q18"",""Q18"",""Q19"",""Q19"",""Q20"",""Q21"",""Q22""]","[4500.199999809265,5485.699999809265,6991.300000190735,7925.900000095367,9206.900000095367,13591.699999809265,14430.400000095367,17077.300000190735,21795,24005.300000190735,25772.599999904633,27577,29323.599999904633,31503,31538,36730.5,37848.5,42264.90000009537,43677.800000190735,43691.300000190735,45029.90000009537,46228.699999809265,50765.59999990463,52687.09999990463,53943.09999990463]","[]","[0.19999980926513672,4500.199999809265,5485.699999809265,6991.300000190735,7925.900000095367,9206.900000095367,12589.699999809265,13591.699999809265,14430.400000095367,17077.300000190735,21795,24005.300000190735,25772.599999904633,27577,29323.599999904633,31503,31538,35382,36730.5,37848.5,42264.90000009537,43677.800000190735,43691.300000190735,45029.90000009537,46228.699999809265,50765.59999990463,52687.09999990463,53943.09999990463,55006.5]","0.36363636363636365","0.19047619047619047","0","drsp","","","","","","","","","","","","","","","","","","","","","","","","","","","","","","",""
"7083.799999713898","","","","survey-template","4","87387","0.0-2.0-2.0","71","1","2025-07-16 08:31:43","1f75c3e559b7213887762d5229550c2b","78.145.195.194","Mozilla/5.0 (Windows NT 10.0; Win64; x64) AppleWebKit/537.36 (KHTML, like Gecko) Chrome/138.0.0.0 Safari/537.36","WebKit","Chrome","138.0.0.0","Windows","10.0","https://app.prolific.com/","en-US,en;q=0.9","5cab22cd68194f001511b2d6","686e379bc37a29ffa5cdc956","687761d8593b57143228c6db","1","1","5cab22cd68194f001511b2d6","1","1","2025-07-16T08:33:43.456Z","","{""Q01"":""3"",""Q02"":""3"",""Q03"":""2""}","[0,1,2]","[""Q01"",""Q02"",""Q03"",""Q03""]","[2264.5,3848.5999999046326,5868.099999904633,5882.599999904633]","[]","[2264.5,3848.5999999046326,5868.099999904633,5882.599999904633,7079]","0.6666666666666666","0.5","0","stress","","","","","","","","","","","","","","","","","","","","","","","","","","","","","","",""
"18772","","","","instructions","5","106165","0.0-3.0-0.0","71","1","2025-07-16 08:31:43","1f75c3e559b7213887762d5229550c2b","78.145.195.194","Mozilla/5.0 (Windows NT 10.0; Win64; x64) AppleWebKit/537.36 (KHTML, like Gecko) Chrome/138.0.0.0 Safari/537.36","WebKit","Chrome","138.0.0.0","Windows","10.0","https://app.prolific.com/","en-US,en;q=0.9","5cab22cd68194f001511b2d6","686e379bc37a29ffa5cdc956","687761d8593b57143228c6db","1","1","5cab22cd68194f001511b2d6","1","1","","","","","","","","","","","","","[{""page_index"":0,""viewing_time"":18771}]","","","","","","","","","","","","","","","","","","","","","","","","","","","","","",""
"6272","","<p>Before you start with this game please answer the following three questions yourself. </p>
  <p>Through this game, we measure several aspects of your cognitive performance, such as reaction times, multi-tasking capabilities </p>
  <p>and the ability to assess the situation you are in.</p>
  <p></p>
  <p><b>How good do you usually are in such tasks?</b></p>","79","html-slider-response","6","112442","0.0-4.0-0.0","71","1","2025-07-16 08:31:43","1f75c3e559b7213887762d5229550c2b","78.145.195.194","Mozilla/5.0 (Windows NT 10.0; Win64; x64) AppleWebKit/537.36 (KHTML, like Gecko) Chrome/138.0.0.0 Safari/537.36","WebKit","Chrome","138.0.0.0","Windows","10.0","https://app.prolific.com/","en-US,en;q=0.9","5cab22cd68194f001511b2d6","686e379bc37a29ffa5cdc956","687761d8593b57143228c6db","1","1","5cab22cd68194f001511b2d6","1","1","2025-07-16T08:34:08.511Z","","","","","","","","","","","PreSkillQ","","50","","","","","","","","","","","","","","","","","","","","","","","","","","","","",""
"13753","","<div style=""width:500px;"">
  <p>How well do you think you will perform in this task compared to other participants?</p>
  </div>","51","html-slider-response","7","126198","0.0-4.0-1.0","71","1","2025-07-16 08:31:43","1f75c3e559b7213887762d5229550c2b","78.145.195.194","Mozilla/5.0 (Windows NT 10.0; Win64; x64) AppleWebKit/537.36 (KHTML, like Gecko) Chrome/138.0.0.0 Safari/537.36","WebKit","Chrome","138.0.0.0","Windows","10.0","https://app.prolific.com/","en-US,en;q=0.9","5cab22cd68194f001511b2d6","686e379bc37a29ffa5cdc956","687761d8593b57143228c6db","1","1","5cab22cd68194f001511b2d6","1","1","2025-07-16T08:34:22.267Z","","","","","","","","","","","PrePerfQ","","50","","","","","","","","","","","","","","","","","","","","","","","","","","","","",""
"3148","","<div style=""width:500px;"">
  <p>What best describes how you currently feel?</p>
  </div>","87","html-slider-response","8","129349","0.0-4.0-2.0","71","1","2025-07-16 08:31:43","1f75c3e559b7213887762d5229550c2b","78.145.195.194","Mozilla/5.0 (Windows NT 10.0; Win64; x64) AppleWebKit/537.36 (KHTML, like Gecko) Chrome/138.0.0.0 Safari/537.36","WebKit","Chrome","138.0.0.0","Windows","10.0","https://app.prolific.com/","en-US,en;q=0.9","5cab22cd68194f001511b2d6","686e379bc37a29ffa5cdc956","687761d8593b57143228c6db","1","1","5cab22cd68194f001511b2d6","1","1","2025-07-16T08:34:25.418Z","","","","","","","","","","","PreMotivationQ","","50","","","","","","","","","","","","","","","","","","","","","","","","","","","","",""
"","","","","ctl-task-cpt","9","158169","0.0-5.0-0.0","71","1","2025-07-16 08:31:43","1f75c3e559b7213887762d5229550c2b","78.145.195.194","Mozilla/5.0 (Windows NT 10.0; Win64; x64) AppleWebKit/537.36 (KHTML, like Gecko) Chrome/138.0.0.0 Safari/537.36","WebKit","Chrome","138.0.0.0","Windows","10.0","https://app.prolific.com/","en-US,en;q=0.9","5cab22cd68194f001511b2d6","686e379bc37a29ffa5cdc956","687761d8593b57143228c6db","1","1","5cab22cd68194f001511b2d6","1","1","2025-07-16T08:34:54.239Z","","","","","","","","","","","","","","win-only","1","g1:NE,g2:SW","1","1","0","133079.8","3809.4","8818.4","25802.7","1","4","8","6","2","8","7","7","0","0.05303030303030303","2070.4","3000","925","[""down"",""left""]","{""num_key_presses"":6,""num_perfect"":5,""num_errors"":1,""num_randdir"":0,""num_randdir_good_moves"":0,""num_whilered"":0,""num_whileblue"":1,""num_blue"":1,""num_good_moves"":6}","[297.22232142857143,294.12857142857143,1.2,297.22232142857143,294.12857142857143,110.4,297.22232142857143,294.12857142857143,225.4,297.22232142857143,294.12857142857143,329,297.22232142857143,294.12857142857143,432.8,297.22232142857143,294.12857142857143,545.4,297.22232142857143,294.12857142857143,647.5,297.22232142857143,294.12857142857143,755.9,297.22232142857143,294.12857142857143,857.1,297.22232142857143,294.12857142857143,958,297.22232142857143,294.12857142857143,1062.9,297.22232142857143,294.12857142857143,1167.1,297.22232142857143,294.12857142857143,1267.5,297.22232142857143,294.12857142857143,1376.6,297.22232142857143,294.12857142857143,1478.4,321.22232142857143,302.12857142857143,1584.6,103.22232142857143,560.1285714285714,1696.7,88.22232142857143,553.1285714285714,1798.9,86.22232142857143,546.1285714285714,1909.8,86.22232142857143,546.1285714285714,2012.5,86.22232142857143,546.1285714285714,2117.8,86.22232142857143,546.1285714285714,2223.5,110.22232142857143,545.1285714285714,2327.8,324.22232142857143,543.1285714285714,2428.7,500.22232142857143,544.1285714285714,2529.4,527.2223214285714,542.1285714285714,2636.2,527.2223214285714,542.1285714285714,2737.2,527.2223214285714,542.1285714285714,2839.3,527.2223214285714,542.1285714285714,2941.6,527.2223214285714,542.1285714285714,3050.7,527.2223214285714,542.1285714285714,3153.9,527.2223214285714,542.1285714285714,3254.8,527.2223214285714,542.1285714285714,3354.9,527.2223214285714,542.1285714285714,3455.1,527.2223214285714,542.1285714285714,3557.2,527.2223214285714,542.1285714285714,3658.9,527.2223214285714,542.1285714285714,3761.9,527.2223214285714,542.1285714285714,3868.7,527.2223214285714,542.1285714285714,3975.7,527.2223214285714,542.1285714285714,4076.9,527.2223214285714,542.1285714285714,4179.4,527.2223214285714,542.1285714285714,4282.9,527.2223214285714,542.1285714285714,4389.3,527.2223214285714,542.1285714285714,4489.8,527.2223214285714,542.1285714285714,4591.9,527.2223214285714,542.1285714285714,4691.9,527.2223214285714,542.1285714285714,4797.2,527.2223214285714,542.1285714285714,4897.4,527.2223214285714,542.1285714285714,4998.5]","[1553.6,1553.5,1000,0.1,553.6,""smooth"",""down"",""down"",""good_move"",4651.1,3095,2611.8,1556.3,483.1,""smooth"",""left"",""left"",""good_move"",7968.4,3315.8,2886.9,4652.6,428.9,""smooth"",""down"",""down"",""good_move"",10765.5,2795.8,2367.4,7969.8,428.3,""smooth"",""left"",""left"",""good_move"",13848.6,3081.9,2666.2,10766.7,415.7,""smooth"",""down"",""down"",""good_move"",16866.9,3016,2646.8,13850.9,369.2,""while_blue"",""left"",""left"",""good_move""]","",""
"20663","","<div style=""width:500px;"">
  <p>What determined the result of this run?</p>
  </div>","100","html-slider-response","10","178835","0.0-5.0-1.0","71","1","2025-07-16 08:31:43","1f75c3e559b7213887762d5229550c2b","78.145.195.194","Mozilla/5.0 (Windows NT 10.0; Win64; x64) AppleWebKit/537.36 (KHTML, like Gecko) Chrome/138.0.0.0 Safari/537.36","WebKit","Chrome","138.0.0.0","Windows","10.0","https://app.prolific.com/","en-US,en;q=0.9","5cab22cd68194f001511b2d6","686e379bc37a29ffa5cdc956","687761d8593b57143228c6db","1","1","5cab22cd68194f001511b2d6","1","1","2025-07-16T08:35:14.905Z","","","","","","","","","","","AttribQ","","50","","","","","","","","","","","","","","","","","","","","","","","","","","","","",""
"3735","","<div style=""width:500px;"">
  <p>How much control did you have over the ball?</p>
  </div>","100","html-slider-response","11","182574","0.0-5.0-2.0","71","1","2025-07-16 08:31:43","1f75c3e559b7213887762d5229550c2b","78.145.195.194","Mozilla/5.0 (Windows NT 10.0; Win64; x64) AppleWebKit/537.36 (KHTML, like Gecko) Chrome/138.0.0.0 Safari/537.36","WebKit","Chrome","138.0.0.0","Windows","10.0","https://app.prolific.com/","en-US,en;q=0.9","5cab22cd68194f001511b2d6","686e379bc37a29ffa5cdc956","687761d8593b57143228c6db","1","1","5cab22cd68194f001511b2d6","1","1","2025-07-16T08:35:18.643Z","","","","","","","","","","","ControlQ","","50","","","","","","","","","","","","","","","","","","","","","","","","","","","","",""
"3536","","<div style=""width:500px;"">
  <p>How would you describe your current emotional state?</p>
  </div>","0","html-slider-response","12","186113","0.0-5.0-3.0","71","1","2025-07-16 08:31:43","1f75c3e559b7213887762d5229550c2b","78.145.195.194","Mozilla/5.0 (Windows NT 10.0; Win64; x64) AppleWebKit/537.36 (KHTML, like Gecko) Chrome/138.0.0.0 Safari/537.36","WebKit","Chrome","138.0.0.0","Windows","10.0","https://app.prolific.com/","en-US,en;q=0.9","5cab22cd68194f001511b2d6","686e379bc37a29ffa5cdc956","687761d8593b57143228c6db","1","1","5cab22cd68194f001511b2d6","1","1","2025-07-16T08:35:22.182Z","","","","","","","","","","","StressQ","","50","","","","","","","","","","","","","","","","","","","","","","","","","","","","",""
"4039","","<div style=""width:500px;"">
  <p>What best describes how you currently feel?</p>
  </div>","100","html-slider-response","13","190155","0.0-5.0-4.0","71","1","2025-07-16 08:31:43","1f75c3e559b7213887762d5229550c2b","78.145.195.194","Mozilla/5.0 (Windows NT 10.0; Win64; x64) AppleWebKit/537.36 (KHTML, like Gecko) Chrome/138.0.0.0 Safari/537.36","WebKit","Chrome","138.0.0.0","Windows","10.0","https://app.prolific.com/","en-US,en;q=0.9","5cab22cd68194f001511b2d6","686e379bc37a29ffa5cdc956","687761d8593b57143228c6db","1","1","5cab22cd68194f001511b2d6","1","1","2025-07-16T08:35:26.224Z","","","","","","","","","","","MotivationQ","","50","","","","","","","","","","","","","","","","","","","","","","","","","","","","",""
"","","","","ctl-task-cpt","14","229578","0.0-5.0-0.1","71","1","2025-07-16 08:31:43","1f75c3e559b7213887762d5229550c2b","78.145.195.194","Mozilla/5.0 (Windows NT 10.0; Win64; x64) AppleWebKit/537.36 (KHTML, like Gecko) Chrome/138.0.0.0 Safari/537.36","WebKit","Chrome","138.0.0.0","Windows","10.0","https://app.prolific.com/","en-US,en;q=0.9","5cab22cd68194f001511b2d6","686e379bc37a29ffa5cdc956","687761d8593b57143228c6db","1","1","5cab22cd68194f001511b2d6","1","1","2025-07-16T08:36:05.647Z","","","","","","","","","","","","","","win-only","1","g1:NE,g2:SW","0.9","2","0","193882.3","1165","6168.1","36411","1","4","4","6","2","4","4","11","7","0.08333333333333333","3087.7","3000","300","[""down"",""left""]","{""num_key_presses"":8,""num_perfect"":7,""num_errors"":0,""num_randdir"":1,""num_randdir_good_moves"":0,""num_whilered"":0,""num_whileblue"":0,""num_blue"":2,""num_good_moves"":7}","[295.22232142857143,297.12857142857143,1,295.22232142857143,297.12857142857143,101.6,295.22232142857143,297.12857142857143,205.4,295.22232142857143,297.12857142857143,312.8,295.22232142857143,297.12857142857143,421.1,283.22232142857143,321.12857142857143,529.2,266.22232142857143,352.12857142857143,635.3,267.22232142857143,341.12857142857143,738.9,459.22232142857143,148.12857142857143,843.4,542.2223214285714,95.12857142857143,945.1,542.2223214285714,95.12857142857143,1050.8,542.2223214285714,95.12857142857143,1152.8,543.2223214285714,90.12857142857143,1256.4,543.2223214285714,86.12857142857143,1357,543.2223214285714,86.12857142857143,1464.1,543.2223214285714,86.12857142857143,1567.7,543.2223214285714,86.12857142857143,1670.7,543.2223214285714,86.12857142857143,1772.9,543.2223214285714,86.12857142857143,1885.2,543.2223214285714,86.12857142857143,1986.6,543.2223214285714,86.12857142857143,2087.5,543.2223214285714,86.12857142857143,2196.7,543.2223214285714,86.12857142857143,2297.7,543.2223214285714,86.12857142857143,2402.7,513.2223214285714,124.12857142857143,2507,87.22232142857143,571.1285714285714,2610.1,65.22232142857143,595.1285714285714,2711.2,61.222321428571426,603.1285714285714,2816.3,58.222321428571426,576.1285714285714,2918,60.222321428571426,563.1285714285714,3021.6,60.222321428571426,563.1285714285714,3122.1,60.222321428571426,563.1285714285714,3229.5,60.222321428571426,563.1285714285714,3335.1,60.222321428571426,563.1285714285714,3435.9,60.222321428571426,563.1285714285714,3535.9,60.222321428571426,563.1285714285714,3642,60.222321428571426,563.1285714285714,3742.2,60.222321428571426,563.1285714285714,3853.2,60.222321428571426,563.1285714285714,3957.8,60.222321428571426,563.1285714285714,4060,60.222321428571426,563.1285714285714,4168.3,60.222321428571426,563.1285714285714,4271.2,60.222321428571426,563.1285714285714,4379.7,60.222321428571426,563.1285714285714,4487.4,60.222321428571426,563.1285714285714,4600.1,60.222321428571426,563.1285714285714,4701.2,60.222321428571426,563.1285714285714,4802.6,60.222321428571426,563.1285714285714,4913.7]","[1365.7,1365.7,1000,0,365.7,""smooth"",""down"",""down"",""good_move"",4085.7,2718.4,2325.2,1367.3,393.2,""smooth"",""left"",""left"",""good_move"",11918.2,7829.2,3147.4,8268.5,502.3,""smooth"",""down"",""down"",""good_move"",15617.5,3697.6,3103.7,11919.9,594,""oops"",""left"",""up"",""bad_move"",18583.9,2964.8,2583.8,15619.1,381,""smooth"",""left"",""left"",""good_move"",20792.1,2206.9,1738.4,18585.2,468.5,""smooth"",""down"",""down"",""good_move"",27077.9,6284.2,2674,24063.6,340.3,""smooth"",""left"",""left"",""good_move"",30114.2,3035.2,2673.4,27079.1,361.7,""smooth"",""down"",""down"",""good_move""]","",""
"4498","","<div style=""width:500px;"">
  <p>What determined the result of this run?</p>
  </div>","97","html-slider-response","15","234079","0.0-5.0-1.1","71","1","2025-07-16 08:31:43","1f75c3e559b7213887762d5229550c2b","78.145.195.194","Mozilla/5.0 (Windows NT 10.0; Win64; x64) AppleWebKit/537.36 (KHTML, like Gecko) Chrome/138.0.0.0 Safari/537.36","WebKit","Chrome","138.0.0.0","Windows","10.0","https://app.prolific.com/","en-US,en;q=0.9","5cab22cd68194f001511b2d6","686e379bc37a29ffa5cdc956","687761d8593b57143228c6db","1","1","5cab22cd68194f001511b2d6","1","1","2025-07-16T08:36:10.149Z","","","","","","","","","","","AttribQ","","50","","","","","","","","","","","","","","","","","","","","","","","","","","","","",""
"6388","","<div style=""width:500px;"">
  <p>How much control did you have over the ball?</p>
  </div>","98","html-slider-response","16","240471","0.0-5.0-2.1","71","1","2025-07-16 08:31:43","1f75c3e559b7213887762d5229550c2b","78.145.195.194","Mozilla/5.0 (Windows NT 10.0; Win64; x64) AppleWebKit/537.36 (KHTML, like Gecko) Chrome/138.0.0.0 Safari/537.36","WebKit","Chrome","138.0.0.0","Windows","10.0","https://app.prolific.com/","en-US,en;q=0.9","5cab22cd68194f001511b2d6","686e379bc37a29ffa5cdc956","687761d8593b57143228c6db","1","1","5cab22cd68194f001511b2d6","1","1","2025-07-16T08:36:16.540Z","","","","","","","","","","","ControlQ","","50","","","","","","","","","","","","","","","","","","","","","","","","","","","","",""
"2355","","<div style=""width:500px;"">
  <p>How would you describe your current emotional state?</p>
  </div>","0","html-slider-response","17","242829","0.0-5.0-3.1","71","1","2025-07-16 08:31:43","1f75c3e559b7213887762d5229550c2b","78.145.195.194","Mozilla/5.0 (Windows NT 10.0; Win64; x64) AppleWebKit/537.36 (KHTML, like Gecko) Chrome/138.0.0.0 Safari/537.36","WebKit","Chrome","138.0.0.0","Windows","10.0","https://app.prolific.com/","en-US,en;q=0.9","5cab22cd68194f001511b2d6","686e379bc37a29ffa5cdc956","687761d8593b57143228c6db","1","1","5cab22cd68194f001511b2d6","1","1","2025-07-16T08:36:18.899Z","","","","","","","","","","","StressQ","","50","","","","","","","","","","","","","","","","","","","","","","","","","","","","",""
"3058","","<div style=""width:500px;"">
  <p>What best describes how you currently feel?</p>
  </div>","100","html-slider-response","18","245892","0.0-5.0-4.1","71","1","2025-07-16 08:31:43","1f75c3e559b7213887762d5229550c2b","78.145.195.194","Mozilla/5.0 (Windows NT 10.0; Win64; x64) AppleWebKit/537.36 (KHTML, like Gecko) Chrome/138.0.0.0 Safari/537.36","WebKit","Chrome","138.0.0.0","Windows","10.0","https://app.prolific.com/","en-US,en;q=0.9","5cab22cd68194f001511b2d6","686e379bc37a29ffa5cdc956","687761d8593b57143228c6db","1","1","5cab22cd68194f001511b2d6","1","1","2025-07-16T08:36:21.962Z","","","","","","","","","","","MotivationQ","","50","","","","","","","","","","","","","","","","","","","","","","","","","","","","",""
"","","","","ctl-task-cpt","19","280039","0.0-5.0-0.2","71","1","2025-07-16 08:31:43","1f75c3e559b7213887762d5229550c2b","78.145.195.194","Mozilla/5.0 (Windows NT 10.0; Win64; x64) AppleWebKit/537.36 (KHTML, like Gecko) Chrome/138.0.0.0 Safari/537.36","WebKit","Chrome","138.0.0.0","Windows","10.0","https://app.prolific.com/","en-US,en;q=0.9","5cab22cd68194f001511b2d6","686e379bc37a29ffa5cdc956","687761d8593b57143228c6db","1","1","5cab22cd68194f001511b2d6","1","1","2025-07-16T08:36:56.108Z","","","","","","","","","","","","","","win-only","3","g1:SW,g2:NE","0.8","3","0","249620.7","1698.6","6708","31122.9","1","4","4","6","2","4","4","15","11","0.11363636363636363","1472.4","3000","1005","[""up"",""right""]","{""num_key_presses"":6,""num_perfect"":4,""num_errors"":0,""num_randdir"":2,""num_randdir_good_moves"":2,""num_whilered"":0,""num_whileblue"":0,""num_blue"":2,""num_good_moves"":6}","[299.22232142857143,292.12857142857143,1.2,299.22232142857143,292.12857142857143,100.5,299.22232142857143,292.12857142857143,206.7,299.22232142857143,298.12857142857143,309.4,288.22232142857143,331.12857142857143,413.3,273.22232142857143,362.12857142857143,514.6,273.22232142857143,362.12857142857143,615.4,517.2223214285714,79.12857142857143,725.7,592.2223214285714,22.128571428571426,830.4,592.2223214285714,23.128571428571426,936.9,589.2223214285714,34.128571428571426,1037.5,572.2223214285714,48.128571428571426,1139.1,572.2223214285714,48.128571428571426,1251.5,572.2223214285714,48.128571428571426,1364.9,572.2223214285714,48.128571428571426,1476.9,572.2223214285714,48.128571428571426,1580.1,572.2223214285714,48.128571428571426,1680.1,559.2223214285714,74.12857142857143,1781.9,509.22232142857143,219.12857142857143,1889.3,428.22232142857143,400.12857142857143,1989.6,428.22232142857143,424.12857142857143,2100.2,428.22232142857143,424.12857142857143,2204,428.22232142857143,424.12857142857143,2304.1,428.22232142857143,424.12857142857143,2414.8,428.22232142857143,424.12857142857143,2519.3,428.22232142857143,424.12857142857143,2620.1,428.22232142857143,424.12857142857143,2726.9,428.22232142857143,424.12857142857143,2827.5,428.22232142857143,424.12857142857143,2940.2,428.22232142857143,424.12857142857143,3042.9,428.22232142857143,424.12857142857143,3143.5,428.22232142857143,424.12857142857143,3255.5,428.22232142857143,424.12857142857143,3355.8,428.22232142857143,424.12857142857143,3458.2,428.22232142857143,424.12857142857143,3564.1,428.22232142857143,424.12857142857143,3669.2,428.22232142857143,424.12857142857143,3771,428.22232142857143,424.12857142857143,3879.9,428.22232142857143,424.12857142857143,3980.5,428.22232142857143,424.12857142857143,4086.9,428.22232142857143,424.12857142857143,4200.6,428.22232142857143,424.12857142857143,4312.9,428.22232142857143,424.12857142857143,4413.9,428.22232142857143,424.12857142857143,4520.5,428.22232142857143,424.12857142857143,4623.5,428.22232142857143,424.12857142857143,4729.2,428.22232142857143,424.12857142857143,4834.7,428.22232142857143,424.12857142857143,4936.9]","[1971.4,1971.4,1000,0,971.4,""smooth"",""up"",""up"",""good_move"",9188.1,7215.3,3008.4,5769.5,410.2,""oops"",""right"",""up"",""good_move"",11875.1,2683.8,2254.3,9191.3,429.5,""smooth"",""right"",""right"",""good_move"",15202.4,3325.4,2934.8,11877,390.6,""oops"",""up"",""right"",""good_move"",17824.1,2620.2,2228.1,15203.9,392.1,""smooth"",""up"",""up"",""good_move"",24278.4,6451.1,2810.1,21118.5,349.8,""smooth"",""right"",""right"",""good_move""]","",""
"5889","","<div style=""width:500px;"">
  <p>What determined the result of this run?</p>
  </div>","98","html-slider-response","20","285932","0.0-5.0-1.2","71","1","2025-07-16 08:31:43","1f75c3e559b7213887762d5229550c2b","78.145.195.194","Mozilla/5.0 (Windows NT 10.0; Win64; x64) AppleWebKit/537.36 (KHTML, like Gecko) Chrome/138.0.0.0 Safari/537.36","WebKit","Chrome","138.0.0.0","Windows","10.0","https://app.prolific.com/","en-US,en;q=0.9","5cab22cd68194f001511b2d6","686e379bc37a29ffa5cdc956","687761d8593b57143228c6db","1","1","5cab22cd68194f001511b2d6","1","1","2025-07-16T08:37:02.001Z","","","","","","","","","","","AttribQ","","50","","","","","","","","","","","","","","","","","","","","","","","","","","","","",""
"3421","","<div style=""width:500px;"">
  <p>How much control did you have over the ball?</p>
  </div>","99","html-slider-response","21","289356","0.0-5.0-2.2","71","1","2025-07-16 08:31:43","1f75c3e559b7213887762d5229550c2b","78.145.195.194","Mozilla/5.0 (Windows NT 10.0; Win64; x64) AppleWebKit/537.36 (KHTML, like Gecko) Chrome/138.0.0.0 Safari/537.36","WebKit","Chrome","138.0.0.0","Windows","10.0","https://app.prolific.com/","en-US,en;q=0.9","5cab22cd68194f001511b2d6","686e379bc37a29ffa5cdc956","687761d8593b57143228c6db","1","1","5cab22cd68194f001511b2d6","1","1","2025-07-16T08:37:05.425Z","","","","","","","","","","","ControlQ","","50","","","","","","","","","","","","","","","","","","","","","","","","","","","","",""
"2683","","<div style=""width:500px;"">
  <p>How would you describe your current emotional state?</p>
  </div>","0","html-slider-response","22","292041","0.0-5.0-3.2","71","1","2025-07-16 08:31:43","1f75c3e559b7213887762d5229550c2b","78.145.195.194","Mozilla/5.0 (Windows NT 10.0; Win64; x64) AppleWebKit/537.36 (KHTML, like Gecko) Chrome/138.0.0.0 Safari/537.36","WebKit","Chrome","138.0.0.0","Windows","10.0","https://app.prolific.com/","en-US,en;q=0.9","5cab22cd68194f001511b2d6","686e379bc37a29ffa5cdc956","687761d8593b57143228c6db","1","1","5cab22cd68194f001511b2d6","1","1","2025-07-16T08:37:08.111Z","","","","","","","","","","","StressQ","","50","","","","","","","","","","","","","","","","","","","","","","","","","","","","",""
"98944","","<div style=""width:500px;"">
  <p>What best describes how you currently feel?</p>
  </div>","100","html-slider-response","23","390988","0.0-5.0-4.2","71","1","2025-07-16 08:31:43","1f75c3e559b7213887762d5229550c2b","78.145.195.194","Mozilla/5.0 (Windows NT 10.0; Win64; x64) AppleWebKit/537.36 (KHTML, like Gecko) Chrome/138.0.0.0 Safari/537.36","WebKit","Chrome","138.0.0.0","Windows","10.0","https://app.prolific.com/","en-US,en;q=0.9","5cab22cd68194f001511b2d6","686e379bc37a29ffa5cdc956","687761d8593b57143228c6db","1","1","5cab22cd68194f001511b2d6","1","1","2025-07-16T08:38:47.057Z","","","","","","","","","","","MotivationQ","","50","","","","","","","","","","","","","","","","","","","","","","","","","","","","",""
"","","","","ctl-task-cpt","24","430387","0.0-5.0-0.3","71","1","2025-07-16 08:31:43","1f75c3e559b7213887762d5229550c2b","78.145.195.194","Mozilla/5.0 (Windows NT 10.0; Win64; x64) AppleWebKit/537.36 (KHTML, like Gecko) Chrome/138.0.0.0 Safari/537.36","WebKit","Chrome","138.0.0.0","Windows","10.0","https://app.prolific.com/","en-US,en;q=0.9","5cab22cd68194f001511b2d6","686e379bc37a29ffa5cdc956","687761d8593b57143228c6db","1","1","5cab22cd68194f001511b2d6","1","1","2025-07-16T08:39:26.456Z","","","","","","","","","","","","","","win-only","2","g1:SE,g2:NW","0.7","4","0","394717","1662.9","6667.2","36373.7","1","4","8","6","2","8","8","23","15","0.17424242424242425","1557","3000","1135","[""left"",""up""]","{""num_key_presses"":8,""num_perfect"":5,""num_errors"":0,""num_randdir"":3,""num_randdir_good_moves"":2,""num_whilered"":0,""num_whileblue"":0,""num_blue"":2,""num_good_moves"":7}","[296.22232142857143,287.12857142857143,1.2,296.22232142857143,287.12857142857143,100.6,296.22232142857143,287.12857142857143,204.6,296.22232142857143,287.12857142857143,310.5,296.22232142857143,287.12857142857143,415.2,296.22232142857143,287.12857142857143,536.2,296.22232142857143,287.12857142857143,637.9,296.22232142857143,287.12857142857143,746.3,296.22232142857143,287.12857142857143,851.9,295.22232142857143,286.12857142857143,955.2,104.22232142857143,166.12857142857143,1058.7,-7.777678571428574,80.12857142857143,1161.7,28.222321428571426,57.128571428571426,1267.3,46.222321428571426,60.128571428571426,1377.6,70.22232142857143,38.128571428571426,1478.5,71.22232142857143,37.128571428571426,1579.3,71.22232142857143,37.128571428571426,1682.4,71.22232142857143,49.128571428571426,1788.5,44.222321428571426,283.12857142857143,1896,30.222321428571426,377.12857142857143,1996.6,30.222321428571426,377.12857142857143,2097.6,30.222321428571426,377.12857142857143,2202.4,30.222321428571426,377.12857142857143,2302.5,30.222321428571426,377.12857142857143,2405.6,30.222321428571426,377.12857142857143,2510.6,30.222321428571426,377.12857142857143,2613.9,30.222321428571426,377.12857142857143,2720.4,30.222321428571426,377.12857142857143,2832.4,30.222321428571426,377.12857142857143,2951.6,30.222321428571426,377.12857142857143,3055.2,30.222321428571426,377.12857142857143,3161,30.222321428571426,377.12857142857143,3261.3,30.222321428571426,377.12857142857143,3361.3,30.222321428571426,377.12857142857143,3469.4,30.222321428571426,377.12857142857143,3571.2,30.222321428571426,377.12857142857143,3680.3,30.222321428571426,377.12857142857143,3785.1,30.222321428571426,377.12857142857143,3895.8,30.222321428571426,377.12857142857143,4002.8,30.222321428571426,377.12857142857143,4105.1,30.222321428571426,377.12857142857143,4205.4,30.222321428571426,377.12857142857143,4313.1,30.222321428571426,377.12857142857143,4413.7,30.222321428571426,377.12857142857143,4536,30.222321428571426,377.12857142857143,4647.5,30.222321428571426,377.12857142857143,4753.1,30.222321428571426,377.12857142857143,4854,30.222321428571426,377.12857142857143,4967.4]","[1436.8,1436.8,1000,0,436.8,""smooth"",""up"",""up"",""good_move"",7891.1,6452.2,2800.5,4731.2,359.4,""smooth"",""left"",""left"",""good_move"",11947.9,4051.7,3652,7896.3,399.6,""smooth"",""up"",""up"",""good_move"",15023.1,3073.6,2671.8,11949.5,401.8,""oops"",""left"",""up"",""good_move"",17847.8,2821.6,2308.7,15026.3,512.8,""oops"",""left"",""right"",""bad_move"",20938.4,3088,2722.1,17850.4,365.9,""smooth"",""left"",""left"",""good_move"",23448.7,2508.8,2143.2,20940,365.5,""oops"",""left"",""left"",""good_move"",29563.2,6095,2232.7,26998.1,332.4,""smooth"",""left"",""left"",""good_move""]","",""
"5853","","<div style=""width:500px;"">
  <p>What determined the result of this run?</p>
  </div>","97","html-slider-response","25","436244","0.0-5.0-1.3","71","1","2025-07-16 08:31:43","1f75c3e559b7213887762d5229550c2b","78.145.195.194","Mozilla/5.0 (Windows NT 10.0; Win64; x64) AppleWebKit/537.36 (KHTML, like Gecko) Chrome/138.0.0.0 Safari/537.36","WebKit","Chrome","138.0.0.0","Windows","10.0","https://app.prolific.com/","en-US,en;q=0.9","5cab22cd68194f001511b2d6","686e379bc37a29ffa5cdc956","687761d8593b57143228c6db","1","1","5cab22cd68194f001511b2d6","1","1","2025-07-16T08:39:32.314Z","","","","","","","","","","","AttribQ","","50","","","","","","","","","","","","","","","","","","","","","","","","","","","","",""
"3493","","<div style=""width:500px;"">
  <p>How much control did you have over the ball?</p>
  </div>","99","html-slider-response","26","439742","0.0-5.0-2.3","71","1","2025-07-16 08:31:43","1f75c3e559b7213887762d5229550c2b","78.145.195.194","Mozilla/5.0 (Windows NT 10.0; Win64; x64) AppleWebKit/537.36 (KHTML, like Gecko) Chrome/138.0.0.0 Safari/537.36","WebKit","Chrome","138.0.0.0","Windows","10.0","https://app.prolific.com/","en-US,en;q=0.9","5cab22cd68194f001511b2d6","686e379bc37a29ffa5cdc956","687761d8593b57143228c6db","1","1","5cab22cd68194f001511b2d6","1","1","2025-07-16T08:39:35.811Z","","","","","","","","","","","ControlQ","","50","","","","","","","","","","","","","","","","","","","","","","","","","","","","",""
"2974","","<div style=""width:500px;"">
  <p>How would you describe your current emotional state?</p>
  </div>","0","html-slider-response","27","442723","0.0-5.0-3.3","71","1","2025-07-16 08:31:43","1f75c3e559b7213887762d5229550c2b","78.145.195.194","Mozilla/5.0 (Windows NT 10.0; Win64; x64) AppleWebKit/537.36 (KHTML, like Gecko) Chrome/138.0.0.0 Safari/537.36","WebKit","Chrome","138.0.0.0","Windows","10.0","https://app.prolific.com/","en-US,en;q=0.9","5cab22cd68194f001511b2d6","686e379bc37a29ffa5cdc956","687761d8593b57143228c6db","1","1","5cab22cd68194f001511b2d6","1","1","2025-07-16T08:39:38.792Z","","","","","","","","","","","StressQ","","50","","","","","","","","","","","","","","","","","","","","","","","","","","","","",""
"2637","","<div style=""width:500px;"">
  <p>What best describes how you currently feel?</p>
  </div>","100","html-slider-response","28","445365","0.0-5.0-4.3","71","1","2025-07-16 08:31:43","1f75c3e559b7213887762d5229550c2b","78.145.195.194","Mozilla/5.0 (Windows NT 10.0; Win64; x64) AppleWebKit/537.36 (KHTML, like Gecko) Chrome/138.0.0.0 Safari/537.36","WebKit","Chrome","138.0.0.0","Windows","10.0","https://app.prolific.com/","en-US,en;q=0.9","5cab22cd68194f001511b2d6","686e379bc37a29ffa5cdc956","687761d8593b57143228c6db","1","1","5cab22cd68194f001511b2d6","1","1","2025-07-16T08:39:41.434Z","","","","","","","","","","","MotivationQ","","50","","","","","","","","","","","","","","","","","","","","","","","","","","","","",""
"","","","","ctl-task-cpt","29","472506","0.0-5.0-0.4","71","1","2025-07-16 08:31:43","1f75c3e559b7213887762d5229550c2b","78.145.195.194","Mozilla/5.0 (Windows NT 10.0; Win64; x64) AppleWebKit/537.36 (KHTML, like Gecko) Chrome/138.0.0.0 Safari/537.36","WebKit","Chrome","138.0.0.0","Windows","10.0","https://app.prolific.com/","en-US,en;q=0.9","5cab22cd68194f001511b2d6","686e379bc37a29ffa5cdc956","687761d8593b57143228c6db","1","1","5cab22cd68194f001511b2d6","1","1","2025-07-16T08:40:08.575Z","","","","","","","","","","","","","","win-only","2","g1:SE,g2:NW","0.6","5","0","449094.8","1366.1","6379.6","24111.2","1","4","8","6","1","1","1","24","23","0.18181818181818182","1063.4","3000","2340","[""down"",""right""]","{""num_key_presses"":4,""num_perfect"":3,""num_errors"":0,""num_randdir"":1,""num_randdir_good_moves"":1,""num_whilered"":0,""num_whileblue"":0,""num_blue"":2,""num_good_moves"":4}","[291.22232142857143,299.12857142857143,1.3,291.22232142857143,299.12857142857143,110.6,291.22232142857143,299.12857142857143,211.4,291.22232142857143,299.12857142857143,317.7,291.22232142857143,299.12857142857143,422.1,291.22232142857143,299.12857142857143,535.2,389.22232142857143,384.12857142857143,647.2,573.2223214285714,502.12857142857143,751.6,564.2223214285714,554.1285714285714,856.8,559.2223214285714,557.1285714285714,959.6,559.2223214285714,553.1285714285714,1076.5,559.2223214285714,553.1285714285714,1178.9,557.2223214285714,553.1285714285714,1288.9,394.22232142857143,547.1285714285714,1394.6,304.22232142857143,527.1285714285714,1495.3,304.22232142857143,527.1285714285714,1600.9,304.22232142857143,527.1285714285714,1706.6,304.22232142857143,527.1285714285714,1809.9,304.22232142857143,527.1285714285714,1918,304.22232142857143,527.1285714285714,2019.9,304.22232142857143,527.1285714285714,2122.2,304.22232142857143,527.1285714285714,2223.8,304.22232142857143,527.1285714285714,2330.9,304.22232142857143,527.1285714285714,2431.3,304.22232142857143,527.1285714285714,2531.4,304.22232142857143,527.1285714285714,2644.7,304.22232142857143,527.1285714285714,2746.8,304.22232142857143,527.1285714285714,2847.6,304.22232142857143,527.1285714285714,2949.3,304.22232142857143,527.1285714285714,3052.2,304.22232142857143,527.1285714285714,3152.7,304.22232142857143,527.1285714285714,3258.3,304.22232142857143,527.1285714285714,3374.1,304.22232142857143,527.1285714285714,3475.5,304.22232142857143,527.1285714285714,3579.2,304.22232142857143,527.1285714285714,3689.7,304.22232142857143,527.1285714285714,3792.8,304.22232142857143,527.1285714285714,3892.9,304.22232142857143,527.1285714285714,3999.8,304.22232142857143,527.1285714285714,4112.1,304.22232142857143,527.1285714285714,4222.8,304.22232142857143,527.1285714285714,4326.9,304.22232142857143,527.1285714285714,4430.2,304.22232142857143,527.1285714285714,4539.6,304.22232142857143,527.1285714285714,4642.4,304.22232142857143,527.1285714285714,4743.8,304.22232142857143,527.1285714285714,4844.3,304.22232142857143,527.1285714285714,4950.2]","[1495.1,1495.1,1000,0,495.1,""smooth"",""right"",""right"",""good_move"",3927.5,2416.8,1932.6,1510.8,484.1,""smooth"",""down"",""down"",""good_move"",13676.6,9743.7,2308.3,10859.3,509,""smooth"",""right"",""right"",""good_move"",17423.7,3744.3,3310.9,13679.6,433.3,""oops"",""down"",""down"",""good_move""]","",""
"3854","","<div style=""width:500px;"">
  <p>What determined the result of this run?</p>
  </div>","98","html-slider-response","30","476365","0.0-5.0-1.4","71","1","2025-07-16 08:31:43","1f75c3e559b7213887762d5229550c2b","78.145.195.194","Mozilla/5.0 (Windows NT 10.0; Win64; x64) AppleWebKit/537.36 (KHTML, like Gecko) Chrome/138.0.0.0 Safari/537.36","WebKit","Chrome","138.0.0.0","Windows","10.0","https://app.prolific.com/","en-US,en;q=0.9","5cab22cd68194f001511b2d6","686e379bc37a29ffa5cdc956","687761d8593b57143228c6db","1","1","5cab22cd68194f001511b2d6","1","1","2025-07-16T08:40:12.434Z","","","","","","","","","","","AttribQ","","50","","","","","","","","","","","","","","","","","","","","","","","","","","","","",""
"3411","","<div style=""width:500px;"">
  <p>How much control did you have over the ball?</p>
  </div>","100","html-slider-response","31","479780","0.0-5.0-2.4","71","1","2025-07-16 08:31:43","1f75c3e559b7213887762d5229550c2b","78.145.195.194","Mozilla/5.0 (Windows NT 10.0; Win64; x64) AppleWebKit/537.36 (KHTML, like Gecko) Chrome/138.0.0.0 Safari/537.36","WebKit","Chrome","138.0.0.0","Windows","10.0","https://app.prolific.com/","en-US,en;q=0.9","5cab22cd68194f001511b2d6","686e379bc37a29ffa5cdc956","687761d8593b57143228c6db","1","1","5cab22cd68194f001511b2d6","1","1","2025-07-16T08:40:15.849Z","","","","","","","","","","","ControlQ","","50","","","","","","","","","","","","","","","","","","","","","","","","","","","","",""
"2768","","<div style=""width:500px;"">
  <p>How would you describe your current emotional state?</p>
  </div>","0","html-slider-response","32","482555","0.0-5.0-3.4","71","1","2025-07-16 08:31:43","1f75c3e559b7213887762d5229550c2b","78.145.195.194","Mozilla/5.0 (Windows NT 10.0; Win64; x64) AppleWebKit/537.36 (KHTML, like Gecko) Chrome/138.0.0.0 Safari/537.36","WebKit","Chrome","138.0.0.0","Windows","10.0","https://app.prolific.com/","en-US,en;q=0.9","5cab22cd68194f001511b2d6","686e379bc37a29ffa5cdc956","687761d8593b57143228c6db","1","1","5cab22cd68194f001511b2d6","1","1","2025-07-16T08:40:18.624Z","","","","","","","","","","","StressQ","","50","","","","","","","","","","","","","","","","","","","","","","","","","","","","",""
"2069","","<div style=""width:500px;"">
  <p>What best describes how you currently feel?</p>
  </div>","100","html-slider-response","33","484627","0.0-5.0-4.4","71","1","2025-07-16 08:31:43","1f75c3e559b7213887762d5229550c2b","78.145.195.194","Mozilla/5.0 (Windows NT 10.0; Win64; x64) AppleWebKit/537.36 (KHTML, like Gecko) Chrome/138.0.0.0 Safari/537.36","WebKit","Chrome","138.0.0.0","Windows","10.0","https://app.prolific.com/","en-US,en;q=0.9","5cab22cd68194f001511b2d6","686e379bc37a29ffa5cdc956","687761d8593b57143228c6db","1","1","5cab22cd68194f001511b2d6","1","1","2025-07-16T08:40:20.696Z","","","","","","","","","","","MotivationQ","","50","","","","","","","","","","","","","","","","","","","","","","","","","","","","",""
"","","","","ctl-task-cpt","34","527400","0.0-5.0-0.5","71","1","2025-07-16 08:31:43","1f75c3e559b7213887762d5229550c2b","78.145.195.194","Mozilla/5.0 (Windows NT 10.0; Win64; x64) AppleWebKit/537.36 (KHTML, like Gecko) Chrome/138.0.0.0 Safari/537.36","WebKit","Chrome","138.0.0.0","Windows","10.0","https://app.prolific.com/","en-US,en;q=0.9","5cab22cd68194f001511b2d6","686e379bc37a29ffa5cdc956","687761d8593b57143228c6db","1","1","5cab22cd68194f001511b2d6","1","1","2025-07-16T08:41:03.469Z","","","","","","","","","","","","","","win-only","3","g1:SW,g2:NE","0.5","6","0","488355.5","1164.6","6188.7","39739.4","1","4","4","6","1","1","1","25","24","0.1893939393939394","1186.4","3000","1500","[""down"",""left""]","{""num_key_presses"":10,""num_perfect"":5,""num_errors"":0,""num_randdir"":5,""num_randdir_good_moves"":2,""num_whilered"":0,""num_whileblue"":0,""num_blue"":1,""num_good_moves"":7}","[294.22232142857143,302.12857142857143,1.5,294.22232142857143,302.12857142857143,101.5,294.22232142857143,302.12857142857143,209.1,294.22232142857143,302.12857142857143,326.2,294.22232142857143,302.12857142857143,429.5,294.22232142857143,302.12857142857143,536.3,316.22232142857143,278.12857142857143,646.2,375.22232142857143,237.12857142857143,754,201.22232142857143,417.12857142857143,859.5,47.222321428571426,543.1285714285714,960.3,41.222321428571426,544.1285714285714,1068.2,41.222321428571426,544.1285714285714,1175.9,41.222321428571426,544.1285714285714,1284.8,41.222321428571426,544.1285714285714,1399.7,41.222321428571426,544.1285714285714,1506.9,41.222321428571426,544.1285714285714,1620.3,41.222321428571426,544.1285714285714,1743.9,41.222321428571426,544.1285714285714,1857.4,41.222321428571426,544.1285714285714,1972,41.222321428571426,544.1285714285714,2075.5,41.222321428571426,544.1285714285714,2184.4,41.222321428571426,544.1285714285714,2297.1,41.222321428571426,544.1285714285714,2399.5,41.222321428571426,544.1285714285714,2513.2,41.222321428571426,544.1285714285714,2631.2,41.222321428571426,544.1285714285714,2741.1,41.222321428571426,544.1285714285714,2850.4,41.222321428571426,544.1285714285714,2958.5,41.222321428571426,544.1285714285714,3086.7,41.222321428571426,544.1285714285714,3192.5,41.222321428571426,544.1285714285714,3302.1,41.222321428571426,544.1285714285714,3405.7,41.222321428571426,544.1285714285714,3520.3,41.222321428571426,544.1285714285714,3624.9,41.222321428571426,544.1285714285714,3726.6,41.222321428571426,544.1285714285714,3850.8,41.222321428571426,544.1285714285714,3958,41.222321428571426,544.1285714285714,4067.3,41.222321428571426,544.1285714285714,4176.3,41.222321428571426,544.1285714285714,4282.7,41.222321428571426,544.1285714285714,4384.3,41.222321428571426,544.1285714285714,4490.3,41.222321428571426,544.1285714285714,4590.8,41.222321428571426,544.1285714285714,4705.9,41.222321428571426,544.1285714285714,4807.3,41.222321428571426,544.1285714285714,4908.3]","[1467.5,1467.5,1000,0,467.5,""oops"",""down"",""up"",""bad_move"",4269.3,2798.8,2294.9,1470.5,503.9,""smooth"",""down"",""down"",""good_move"",10826.1,6554.7,2656.4,7710.9,458.8,""oops"",""down"",""down"",""good_move"",14036.7,3204,2763.8,10832.7,440.2,""oops"",""left"",""right"",""bad_move"",16832.3,2793.9,2353.1,14038.4,440.8,""smooth"",""left"",""left"",""good_move"",20489.5,3652.2,3280,16837.3,372.2,""smooth"",""left"",""left"",""good_move"",23556.1,3065,2653.3,20491.1,411.7,""smooth"",""left"",""left"",""good_move"",26866.1,3306.5,2882.3,23559.6,424.2,""oops"",""down"",""right"",""bad_move"",30240.4,3372.8,2999.6,26867.6,373.2,""oops"",""left"",""left"",""good_move"",33259.4,3017.8,2623.3,30241.6,394.5,""smooth"",""down"",""down"",""good_move""]","",""
"3126","","<div style=""width:500px;"">
  <p>What determined the result of this run?</p>
  </div>","72","html-slider-response","35","530530","0.0-5.0-1.5","71","1","2025-07-16 08:31:43","1f75c3e559b7213887762d5229550c2b","78.145.195.194","Mozilla/5.0 (Windows NT 10.0; Win64; x64) AppleWebKit/537.36 (KHTML, like Gecko) Chrome/138.0.0.0 Safari/537.36","WebKit","Chrome","138.0.0.0","Windows","10.0","https://app.prolific.com/","en-US,en;q=0.9","5cab22cd68194f001511b2d6","686e379bc37a29ffa5cdc956","687761d8593b57143228c6db","1","1","5cab22cd68194f001511b2d6","1","1","2025-07-16T08:41:06.599Z","","","","","","","","","","","AttribQ","","50","","","","","","","","","","","","","","","","","","","","","","","","","","","","",""
"2853","","<div style=""width:500px;"">
  <p>How much control did you have over the ball?</p>
  </div>","74","html-slider-response","36","533389","0.0-5.0-2.5","71","1","2025-07-16 08:31:43","1f75c3e559b7213887762d5229550c2b","78.145.195.194","Mozilla/5.0 (Windows NT 10.0; Win64; x64) AppleWebKit/537.36 (KHTML, like Gecko) Chrome/138.0.0.0 Safari/537.36","WebKit","Chrome","138.0.0.0","Windows","10.0","https://app.prolific.com/","en-US,en;q=0.9","5cab22cd68194f001511b2d6","686e379bc37a29ffa5cdc956","687761d8593b57143228c6db","1","1","5cab22cd68194f001511b2d6","1","1","2025-07-16T08:41:09.458Z","","","","","","","","","","","ControlQ","","50","","","","","","","","","","","","","","","","","","","","","","","","","","","","",""
"2576","","<div style=""width:500px;"">
  <p>How would you describe your current emotional state?</p>
  </div>","0","html-slider-response","37","535974","0.0-5.0-3.5","71","1","2025-07-16 08:31:43","1f75c3e559b7213887762d5229550c2b","78.145.195.194","Mozilla/5.0 (Windows NT 10.0; Win64; x64) AppleWebKit/537.36 (KHTML, like Gecko) Chrome/138.0.0.0 Safari/537.36","WebKit","Chrome","138.0.0.0","Windows","10.0","https://app.prolific.com/","en-US,en;q=0.9","5cab22cd68194f001511b2d6","686e379bc37a29ffa5cdc956","687761d8593b57143228c6db","1","1","5cab22cd68194f001511b2d6","1","1","2025-07-16T08:41:12.044Z","","","","","","","","","","","StressQ","","50","","","","","","","","","","","","","","","","","","","","","","","","","","","","",""
"2117","","<div style=""width:500px;"">
  <p>What best describes how you currently feel?</p>
  </div>","100","html-slider-response","38","538097","0.0-5.0-4.5","71","1","2025-07-16 08:31:43","1f75c3e559b7213887762d5229550c2b","78.145.195.194","Mozilla/5.0 (Windows NT 10.0; Win64; x64) AppleWebKit/537.36 (KHTML, like Gecko) Chrome/138.0.0.0 Safari/537.36","WebKit","Chrome","138.0.0.0","Windows","10.0","https://app.prolific.com/","en-US,en;q=0.9","5cab22cd68194f001511b2d6","686e379bc37a29ffa5cdc956","687761d8593b57143228c6db","1","1","5cab22cd68194f001511b2d6","1","1","2025-07-16T08:41:14.166Z","","","","","","","","","","","MotivationQ","","50","","","","","","","","","","","","","","","","","","","","","","","","","","","","",""
"","","","","ctl-task-cpt","39","559322","0.0-5.0-0.6","71","1","2025-07-16 08:31:43","1f75c3e559b7213887762d5229550c2b","78.145.195.194","Mozilla/5.0 (Windows NT 10.0; Win64; x64) AppleWebKit/537.36 (KHTML, like Gecko) Chrome/138.0.0.0 Safari/537.36","WebKit","Chrome","138.0.0.0","Windows","10.0","https://app.prolific.com/","en-US,en;q=0.9","5cab22cd68194f001511b2d6","686e379bc37a29ffa5cdc956","687761d8593b57143228c6db","1","1","5cab22cd68194f001511b2d6","1","1","2025-07-16T08:41:35.391Z","","","","","","","","","","","","","","win-only","2","g1:SE,g2:NW","0.4","7","0","541825.7","1558.7","6572.1","18177.1","1","4","4","6","1","1","1","26","25","0.19696969696969696","1366.5","3000","2480","[""down"",""right""]","{""num_key_presses"":4,""num_perfect"":2,""num_errors"":0,""num_randdir"":2,""num_randdir_good_moves"":2,""num_whilered"":0,""num_whileblue"":0,""num_blue"":0,""num_good_moves"":4}","[296.22232142857143,295.12857142857143,0.1,296.22232142857143,295.12857142857143,113.4,296.22232142857143,295.12857142857143,218.1,296.22232142857143,295.12857142857143,330.5,296.22232142857143,295.12857142857143,433.4,296.22232142857143,295.12857142857143,536.4,296.22232142857143,295.12857142857143,647.2,351.22232142857143,359.12857142857143,760.1,484.22232142857143,476.12857142857143,867.6,519.2223214285714,545.1285714285714,986.4,558.2223214285714,579.1285714285714,1091.1,557.2223214285714,575.1285714285714,1201.4,548.2223214285714,555.1285714285714,1316.3,548.2223214285714,555.1285714285714,1434.1,548.2223214285714,555.1285714285714,1544.8,535.2223214285714,553.1285714285714,1645.7,399.22232142857143,542.1285714285714,1751.5,319.22232142857143,522.1285714285714,1859.6,319.22232142857143,522.1285714285714,1961.1,319.22232142857143,522.1285714285714,2067.4,319.22232142857143,522.1285714285714,2173.4,319.22232142857143,522.1285714285714,2276.5,319.22232142857143,522.1285714285714,2385.2,319.22232142857143,522.1285714285714,2506,319.22232142857143,522.1285714285714,2608.2,319.22232142857143,522.1285714285714,2712.2,319.22232142857143,522.1285714285714,2828.5,319.22232142857143,522.1285714285714,2942.6,319.22232142857143,522.1285714285714,3063.5,319.22232142857143,522.1285714285714,3173.3,319.22232142857143,522.1285714285714,3276.3,319.22232142857143,522.1285714285714,3407.1,319.22232142857143,522.1285714285714,3514,319.22232142857143,522.1285714285714,3618.7,319.22232142857143,522.1285714285714,3728.5,319.22232142857143,522.1285714285714,3844.9,319.22232142857143,522.1285714285714,3957,319.22232142857143,522.1285714285714,4068,319.22232142857143,522.1285714285714,4168.3,319.22232142857143,522.1285714285714,4277.6,319.22232142857143,522.1285714285714,4385.5,319.22232142857143,522.1285714285714,4494,319.22232142857143,522.1285714285714,4615.5,319.22232142857143,522.1285714285714,4726.6,319.22232142857143,522.1285714285714,4845.4,319.22232142857143,522.1285714285714,4953.8]","[1426,1426,1000,0,426,""oops"",""right"",""down"",""good_move"",4883.3,3455.7,3054.1,1427.6,401.6,""oops"",""right"",""down"",""good_move"",8198.6,3310,2736.4,4888.6,573.6,""smooth"",""right"",""right"",""good_move"",11245.2,3042.6,2533.7,8202.7,508.8,""smooth"",""right"",""right"",""good_move""]","",""
"7045","","<div style=""width:500px;"">
  <p>What determined the result of this run?</p>
  </div>","98","html-slider-response","40","566370","0.0-5.0-1.6","71","1","2025-07-16 08:31:43","1f75c3e559b7213887762d5229550c2b","78.145.195.194","Mozilla/5.0 (Windows NT 10.0; Win64; x64) AppleWebKit/537.36 (KHTML, like Gecko) Chrome/138.0.0.0 Safari/537.36","WebKit","Chrome","138.0.0.0","Windows","10.0","https://app.prolific.com/","en-US,en;q=0.9","5cab22cd68194f001511b2d6","686e379bc37a29ffa5cdc956","687761d8593b57143228c6db","1","1","5cab22cd68194f001511b2d6","1","1","2025-07-16T08:41:42.440Z","","","","","","","","","","","AttribQ","","50","","","","","","","","","","","","","","","","","","","","","","","","","","","","",""
"15679","","<div style=""width:500px;"">
  <p>How much control did you have over the ball?</p>
  </div>","99","html-slider-response","41","582055","0.0-5.0-2.6","71","1","2025-07-16 08:31:43","1f75c3e559b7213887762d5229550c2b","78.145.195.194","Mozilla/5.0 (Windows NT 10.0; Win64; x64) AppleWebKit/537.36 (KHTML, like Gecko) Chrome/138.0.0.0 Safari/537.36","WebKit","Chrome","138.0.0.0","Windows","10.0","https://app.prolific.com/","en-US,en;q=0.9","5cab22cd68194f001511b2d6","686e379bc37a29ffa5cdc956","687761d8593b57143228c6db","1","1","5cab22cd68194f001511b2d6","1","1","2025-07-16T08:41:58.125Z","","","","","","","","","","","ControlQ","","50","","","","","","","","","","","","","","","","","","","","","","","","","","","","",""
"3687","","<div style=""width:500px;"">
  <p>How would you describe your current emotional state?</p>
  </div>","0","html-slider-response","42","585750","0.0-5.0-3.6","71","1","2025-07-16 08:31:43","1f75c3e559b7213887762d5229550c2b","78.145.195.194","Mozilla/5.0 (Windows NT 10.0; Win64; x64) AppleWebKit/537.36 (KHTML, like Gecko) Chrome/138.0.0.0 Safari/537.36","WebKit","Chrome","138.0.0.0","Windows","10.0","https://app.prolific.com/","en-US,en;q=0.9","5cab22cd68194f001511b2d6","686e379bc37a29ffa5cdc956","687761d8593b57143228c6db","1","1","5cab22cd68194f001511b2d6","1","1","2025-07-16T08:42:01.819Z","","","","","","","","","","","StressQ","","50","","","","","","","","","","","","","","","","","","","","","","","","","","","","",""
"2116","","<div style=""width:500px;"">
  <p>What best describes how you currently feel?</p>
  </div>","100","html-slider-response","43","587872","0.0-5.0-4.6","71","1","2025-07-16 08:31:43","1f75c3e559b7213887762d5229550c2b","78.145.195.194","Mozilla/5.0 (Windows NT 10.0; Win64; x64) AppleWebKit/537.36 (KHTML, like Gecko) Chrome/138.0.0.0 Safari/537.36","WebKit","Chrome","138.0.0.0","Windows","10.0","https://app.prolific.com/","en-US,en;q=0.9","5cab22cd68194f001511b2d6","686e379bc37a29ffa5cdc956","687761d8593b57143228c6db","1","1","5cab22cd68194f001511b2d6","1","1","2025-07-16T08:42:03.941Z","","","","","","","","","","","MotivationQ","","50","","","","","","","","","","","","","","","","","","","","","","","","","","","","",""
"","","","","ctl-task-cpt","44","673366","0.0-5.0-0.7","71","1","2025-07-16 08:31:43","1f75c3e559b7213887762d5229550c2b","78.145.195.194","Mozilla/5.0 (Windows NT 10.0; Win64; x64) AppleWebKit/537.36 (KHTML, like Gecko) Chrome/138.0.0.0 Safari/537.36","WebKit","Chrome","138.0.0.0","Windows","10.0","https://app.prolific.com/","en-US,en;q=0.9","5cab22cd68194f001511b2d6","686e379bc37a29ffa5cdc956","687761d8593b57143228c6db","1","1","5cab22cd68194f001511b2d6","1","1","2025-07-16T08:43:29.435Z","","","","","","","","","","","","","","win-only","3","g1:SW,g2:NE","0.3","8","0","591600.9","1528.1","6531","82463.9","1","4","8","6","1","1","1","27","26","0.20454545454545456","1683.3","3000","1820","[""down"",""left""]","{""num_key_presses"":12,""num_perfect"":3,""num_errors"":0,""num_randdir"":9,""num_randdir_good_moves"":5,""num_whilered"":0,""num_whileblue"":0,""num_blue"":4,""num_good_moves"":8}","[293.22232142857143,301.12857142857143,2.7,293.22232142857143,301.12857142857143,117.4,293.22232142857143,301.12857142857143,222.3,293.22232142857143,301.12857142857143,328.6,293.22232142857143,301.12857142857143,453.3,293.22232142857143,301.12857142857143,558.2,293.22232142857143,301.12857142857143,662.1,293.22232142857143,301.12857142857143,795.9,293.22232142857143,301.12857142857143,899.9,105.22232142857143,479.12857142857143,1041.3,104.22232142857143,479.12857142857143,1148.9,92.22232142857143,500.12857142857143,1264.4,62.222321428571426,530.1285714285714,1388.3,62.222321428571426,530.1285714285714,1511.8,62.222321428571426,530.1285714285714,1629.8,62.222321428571426,530.1285714285714,1764.4,62.222321428571426,530.1285714285714,1870.3,62.222321428571426,530.1285714285714,1980.7,62.222321428571426,530.1285714285714,2119,62.222321428571426,530.1285714285714,2250.4,62.222321428571426,530.1285714285714,2377.7,62.222321428571426,530.1285714285714,2509.1,62.222321428571426,530.1285714285714,2644.6,62.222321428571426,530.1285714285714,2754.5,62.222321428571426,530.1285714285714,2866.2,62.222321428571426,530.1285714285714,3004.9,62.222321428571426,530.1285714285714,3117.2,62.222321428571426,530.1285714285714,3231.3,62.222321428571426,530.1285714285714,3333.1,62.222321428571426,530.1285714285714,3462,62.222321428571426,530.1285714285714,3562.7,62.222321428571426,530.1285714285714,3665.4,62.222321428571426,530.1285714285714,3791.9,62.222321428571426,530.1285714285714,3894.9,62.222321428571426,530.1285714285714,4028,62.222321428571426,530.1285714285714,4155.6,62.222321428571426,530.1285714285714,4265,62.222321428571426,530.1285714285714,4372.9,62.222321428571426,530.1285714285714,4475.4,62.222321428571426,530.1285714285714,4586.6,62.222321428571426,530.1285714285714,4689.2,62.222321428571426,530.1285714285714,4799.3,62.222321428571426,530.1285714285714,4901.7]","[1396.5,1396.5,1000,0,396.5,""oops"",""down"",""up"",""bad_move"",8544.3,7146.6,3308.8,1397.7,3837.8,""smooth"",""down"",""down"",""good_move"",12384.9,3839.1,3331.7,8545.8,507.4,""smooth"",""left"",""left"",""good_move"",23462.5,11076.2,2500,20485.9,476.7,""oops"",""down"",""up"",""bad_move"",31140.9,7677.4,2388.3,23463.5,5289.1,""oops"",""down"",""right"",""bad_move"",38147.5,7005.5,2054.5,35591.4,501.7,""smooth"",""left"",""left"",""good_move"",50017.7,11869.3,2764.6,46797.9,455.2,""oops"",""left"",""left"",""good_move"",58341.1,8321.7,1826.4,50019.4,6495.3,""oops"",""down"",""right"",""bad_move"",65314.4,6972.1,2155.2,62671.2,488,""oops"",""down"",""down"",""good_move"",68700.5,3373.5,2399.4,65327,974.1,""oops"",""down"",""down"",""good_move"",72341.8,3635.4,3264.6,68706.4,370.8,""oops"",""left"",""left"",""good_move"",75558.9,3215.7,2697.6,72343.2,518.1,""oops"",""down"",""down"",""good_move""]","",""
"4472","","<div style=""width:500px;"">
  <p>What determined the result of this run?</p>
  </div>","73","html-slider-response","45","677845","0.0-5.0-1.7","71","1","2025-07-16 08:31:43","1f75c3e559b7213887762d5229550c2b","78.145.195.194","Mozilla/5.0 (Windows NT 10.0; Win64; x64) AppleWebKit/537.36 (KHTML, like Gecko) Chrome/138.0.0.0 Safari/537.36","WebKit","Chrome","138.0.0.0","Windows","10.0","https://app.prolific.com/","en-US,en;q=0.9","5cab22cd68194f001511b2d6","686e379bc37a29ffa5cdc956","687761d8593b57143228c6db","1","1","5cab22cd68194f001511b2d6","1","1","2025-07-16T08:43:33.914Z","","","","","","","","","","","AttribQ","","50","","","","","","","","","","","","","","","","","","","","","","","","","","","","",""
"7498","","<div style=""width:500px;"">
  <p>How much control did you have over the ball?</p>
  </div>","91","html-slider-response","46","685348","0.0-5.0-2.7","71","1","2025-07-16 08:31:43","1f75c3e559b7213887762d5229550c2b","78.145.195.194","Mozilla/5.0 (Windows NT 10.0; Win64; x64) AppleWebKit/537.36 (KHTML, like Gecko) Chrome/138.0.0.0 Safari/537.36","WebKit","Chrome","138.0.0.0","Windows","10.0","https://app.prolific.com/","en-US,en;q=0.9","5cab22cd68194f001511b2d6","686e379bc37a29ffa5cdc956","687761d8593b57143228c6db","1","1","5cab22cd68194f001511b2d6","1","1","2025-07-16T08:43:41.417Z","","","","","","","","","","","ControlQ","","50","","","","","","","","","","","","","","","","","","","","","","","","","","","","",""
"3695","","<div style=""width:500px;"">
  <p>How would you describe your current emotional state?</p>
  </div>","0","html-slider-response","47","689048","0.0-5.0-3.7","71","1","2025-07-16 08:31:43","1f75c3e559b7213887762d5229550c2b","78.145.195.194","Mozilla/5.0 (Windows NT 10.0; Win64; x64) AppleWebKit/537.36 (KHTML, like Gecko) Chrome/138.0.0.0 Safari/537.36","WebKit","Chrome","138.0.0.0","Windows","10.0","https://app.prolific.com/","en-US,en;q=0.9","5cab22cd68194f001511b2d6","686e379bc37a29ffa5cdc956","687761d8593b57143228c6db","1","1","5cab22cd68194f001511b2d6","1","1","2025-07-16T08:43:45.117Z","","","","","","","","","","","StressQ","","50","","","","","","","","","","","","","","","","","","","","","","","","","","","","",""
"3885","","<div style=""width:500px;"">
  <p>What best describes how you currently feel?</p>
  </div>","99","html-slider-response","48","692939","0.0-5.0-4.7","71","1","2025-07-16 08:31:43","1f75c3e559b7213887762d5229550c2b","78.145.195.194","Mozilla/5.0 (Windows NT 10.0; Win64; x64) AppleWebKit/537.36 (KHTML, like Gecko) Chrome/138.0.0.0 Safari/537.36","WebKit","Chrome","138.0.0.0","Windows","10.0","https://app.prolific.com/","en-US,en;q=0.9","5cab22cd68194f001511b2d6","686e379bc37a29ffa5cdc956","687761d8593b57143228c6db","1","1","5cab22cd68194f001511b2d6","1","1","2025-07-16T08:43:49.009Z","","","","","","","","","","","MotivationQ","","50","","","","","","","","","","","","","","","","","","","","","","","","","","","","",""
"","","","","ctl-task-cpt","49","829147","0.0-5.0-0.8","71","1","2025-07-16 08:31:43","1f75c3e559b7213887762d5229550c2b","78.145.195.194","Mozilla/5.0 (Windows NT 10.0; Win64; x64) AppleWebKit/537.36 (KHTML, like Gecko) Chrome/138.0.0.0 Safari/537.36","WebKit","Chrome","138.0.0.0","Windows","10.0","https://app.prolific.com/","en-US,en;q=0.9","5cab22cd68194f001511b2d6","686e379bc37a29ffa5cdc956","687761d8593b57143228c6db","1","1","5cab22cd68194f001511b2d6","1","1","2025-07-16T08:46:05.216Z","","","","","","","","","","","","","","win-only","0","g1:NW,g2:SE","0.2","9","0","696669.9","4017.6","9033.5","133166","1","4","8","6","2","8","7","34","27","0.25757575757575757","1341.8","3000","710","[""down"",""right""]","{""num_key_presses"":26,""num_perfect"":5,""num_errors"":1,""num_randdir"":20,""num_randdir_good_moves"":10,""num_whilered"":0,""num_whileblue"":1,""num_blue"":10,""num_good_moves"":16}","[290.22232142857143,297.12857142857143,2.5,290.22232142857143,297.12857142857143,117.5,290.22232142857143,297.12857142857143,224.7,290.22232142857143,297.12857142857143,337.2,290.22232142857143,297.12857142857143,447.4,290.22232142857143,297.12857142857143,565.4,290.22232142857143,297.12857142857143,675.9,355.22232142857143,333.12857142857143,801,515.2223214285714,494.12857142857143,934.5,519.2223214285714,537.1285714285714,1067.9,517.2223214285714,550.1285714285714,1198.7,517.2223214285714,546.1285714285714,1305.4,517.2223214285714,546.1285714285714,1442.2,517.2223214285714,546.1285714285714,1565.3,478.22232142857143,547.1285714285714,1689.7,360.22232142857143,515.1285714285714,1797.1,360.22232142857143,515.1285714285714,1897.6,360.22232142857143,515.1285714285714,2005.6,360.22232142857143,515.1285714285714,2128,360.22232142857143,515.1285714285714,2229.5,360.22232142857143,515.1285714285714,2339.4,360.22232142857143,515.1285714285714,2448.7,360.22232142857143,515.1285714285714,2558.8,360.22232142857143,515.1285714285714,2665.2,360.22232142857143,515.1285714285714,2765.6,360.22232142857143,515.1285714285714,2879.1,360.22232142857143,515.1285714285714,3015.5,360.22232142857143,515.1285714285714,3140.6,360.22232142857143,515.1285714285714,3261.6,360.22232142857143,515.1285714285714,3365.8,360.22232142857143,515.1285714285714,3476.5,360.22232142857143,515.1285714285714,3583.3,360.22232142857143,515.1285714285714,3687.3,360.22232142857143,515.1285714285714,3793.1,360.22232142857143,515.1285714285714,3901.6,360.22232142857143,515.1285714285714,4004.1,360.22232142857143,515.1285714285714,4117.9,360.22232142857143,515.1285714285714,4228,360.22232142857143,515.1285714285714,4333.4,360.22232142857143,515.1285714285714,4433.7,360.22232142857143,515.1285714285714,4565.6,360.22232142857143,515.1285714285714,4665.6,360.22232142857143,515.1285714285714,4774.2,360.22232142857143,515.1285714285714,4881.6,360.22232142857143,515.1285714285714,4991.1]","[7686,7686,2130.7,5037.7,517.6,""smooth"",""right"",""right"",""good_move"",10489.5,2801.2,2284.6,7688.4,516.6,""oops"",""down"",""left"",""bad_move"",15055.1,4563.9,2221.3,10491.2,2342.6,""oops"",""down"",""up"",""bad_move"",20264.1,5207.1,2604.3,15057,2602.8,""smooth"",""right"",""right"",""good_move"",26620.2,6354.6,1554.8,24499.7,565.7,""oops"",""down"",""left"",""bad_move"",33346.6,6720.9,1870.2,31102.6,373.8,""oops"",""down"",""left"",""bad_move"",37657.6,4310,2002.8,33347.6,2307.2,""oops"",""down"",""up"",""bad_move"",42484,4823.8,2213.4,37660.2,2610.4,""oops"",""down"",""down"",""good_move"",44933.5,2446.9,1881.7,42486.6,565.2,""oops"",""right"",""down"",""good_move"",55604.3,10669.6,2660.6,52485.1,458.6,""oops"",""right"",""right"",""good_move"",59340.9,3735.5,2801.6,55605.4,933.9,""smooth"",""down"",""down"",""good_move"",62431.3,3087.3,2604.6,59344,482.7,""smooth"",""right"",""right"",""good_move"",72671.8,10239.3,2240.3,69975.9,455.6,""oops"",""down"",""up"",""bad_move"",80084.9,7412.2,2369.4,72672.7,5042.8,""oops"",""down"",""left"",""bad_move"",85769.1,5678,2322.4,80091.1,3355.6,""oops"",""down"",""right"",""good_move"",88882.4,3112.4,2461.9,85770,650.5,""oops"",""down"",""right"",""good_move"",91679.2,2795.3,2369.2,88884,426,""oops"",""down"",""down"",""good_move"",95044.6,3361.9,2998.9,91682.7,363,""oops"",""down"",""left"",""bad_move"",98489.2,3443.1,2977.1,95046.1,466,""oops"",""down"",""right"",""good_move"",101410.6,2918.7,2527.9,98492,390.8,""oops"",""down"",""right"",""good_move"",104258.6,2842.9,2453.2,101415.8,389.6,""oops"",""down"",""down"",""good_move"",107081.2,2821.4,2415.2,104259.9,406.1,""oops"",""down"",""left"",""bad_move"",110510.5,3428.1,3095.7,107082.4,332.4,""while_blue"",""down"",""right"",""good_move"",116477.6,5965.7,2550.3,113548.8,378.6,""oops"",""down"",""left"",""bad_move"",120633.3,4154.4,2405,116479,1749.3,""oops"",""down"",""right"",""good_move"",123601.7,2967.2,2555.9,120634.5,411.3,""smooth"",""down"",""down"",""good_move""]","",""
"3341","","<div style=""width:500px;"">
  <p>What determined the result of this run?</p>
  </div>","56","html-slider-response","50","832491","0.0-5.0-1.8","71","1","2025-07-16 08:31:43","1f75c3e559b7213887762d5229550c2b","78.145.195.194","Mozilla/5.0 (Windows NT 10.0; Win64; x64) AppleWebKit/537.36 (KHTML, like Gecko) Chrome/138.0.0.0 Safari/537.36","WebKit","Chrome","138.0.0.0","Windows","10.0","https://app.prolific.com/","en-US,en;q=0.9","5cab22cd68194f001511b2d6","686e379bc37a29ffa5cdc956","687761d8593b57143228c6db","1","1","5cab22cd68194f001511b2d6","1","1","2025-07-16T08:46:08.560Z","","","","","","","","","","","AttribQ","","50","","","","","","","","","","","","","","","","","","","","","","","","","","","","",""
"2685","","<div style=""width:500px;"">
  <p>How much control did you have over the ball?</p>
  </div>","55","html-slider-response","51","835180","0.0-5.0-2.8","71","1","2025-07-16 08:31:43","1f75c3e559b7213887762d5229550c2b","78.145.195.194","Mozilla/5.0 (Windows NT 10.0; Win64; x64) AppleWebKit/537.36 (KHTML, like Gecko) Chrome/138.0.0.0 Safari/537.36","WebKit","Chrome","138.0.0.0","Windows","10.0","https://app.prolific.com/","en-US,en;q=0.9","5cab22cd68194f001511b2d6","686e379bc37a29ffa5cdc956","687761d8593b57143228c6db","1","1","5cab22cd68194f001511b2d6","1","1","2025-07-16T08:46:11.249Z","","","","","","","","","","","ControlQ","","50","","","","","","","","","","","","","","","","","","","","","","","","","","","","",""
"3568","","<div style=""width:500px;"">
  <p>How would you describe your current emotional state?</p>
  </div>","9","html-slider-response","52","838755","0.0-5.0-3.8","71","1","2025-07-16 08:31:43","1f75c3e559b7213887762d5229550c2b","78.145.195.194","Mozilla/5.0 (Windows NT 10.0; Win64; x64) AppleWebKit/537.36 (KHTML, like Gecko) Chrome/138.0.0.0 Safari/537.36","WebKit","Chrome","138.0.0.0","Windows","10.0","https://app.prolific.com/","en-US,en;q=0.9","5cab22cd68194f001511b2d6","686e379bc37a29ffa5cdc956","687761d8593b57143228c6db","1","1","5cab22cd68194f001511b2d6","1","1","2025-07-16T08:46:14.825Z","","","","","","","","","","","StressQ","","50","","","","","","","","","","","","","","","","","","","","","","","","","","","","",""
"2411","","<div style=""width:500px;"">
  <p>What best describes how you currently feel?</p>
  </div>","100","html-slider-response","53","841173","0.0-5.0-4.8","71","1","2025-07-16 08:31:43","1f75c3e559b7213887762d5229550c2b","78.145.195.194","Mozilla/5.0 (Windows NT 10.0; Win64; x64) AppleWebKit/537.36 (KHTML, like Gecko) Chrome/138.0.0.0 Safari/537.36","WebKit","Chrome","138.0.0.0","Windows","10.0","https://app.prolific.com/","en-US,en;q=0.9","5cab22cd68194f001511b2d6","686e379bc37a29ffa5cdc956","687761d8593b57143228c6db","1","1","5cab22cd68194f001511b2d6","1","1","2025-07-16T08:46:17.242Z","","","","","","","","","","","MotivationQ","","50","","","","","","","","","","","","","","","","","","","","","","","","","","","","",""
"","","","","ctl-task-cpt","54","865802","0.0-5.0-0.9","71","1","2025-07-16 08:31:43","1f75c3e559b7213887762d5229550c2b","78.145.195.194","Mozilla/5.0 (Windows NT 10.0; Win64; x64) AppleWebKit/537.36 (KHTML, like Gecko) Chrome/138.0.0.0 Safari/537.36","WebKit","Chrome","138.0.0.0","Windows","10.0","https://app.prolific.com/","en-US,en;q=0.9","5cab22cd68194f001511b2d6","686e379bc37a29ffa5cdc956","687761d8593b57143228c6db","1","1","5cab22cd68194f001511b2d6","1","1","2025-07-16T08:46:41.872Z","","","","","","","","","","","","","","win-only","3","g1:SW,g2:NE","0.4","10","0","844906","1641.6","6661.3","21557.9","1","4","4","6","1","1","1","35","34","0.26515151515151514","1146.9","3000","2705","[""down"",""left""]","{""num_key_presses"":4,""num_perfect"":3,""num_errors"":0,""num_randdir"":1,""num_randdir_good_moves"":1,""num_whilered"":0,""num_whileblue"":0,""num_blue"":0,""num_good_moves"":4}","[297.22232142857143,301.12857142857143,1.2,297.22232142857143,301.12857142857143,109.4,297.22232142857143,301.12857142857143,240.7,297.22232142857143,301.12857142857143,353.5,297.22232142857143,301.12857142857143,478.1,329.22232142857143,264.12857142857143,621,265.22232142857143,348.12857142857143,752.9,58.222321428571426,521.1285714285714,887.1,58.222321428571426,521.1285714285714,1008.6,58.222321428571426,521.1285714285714,1121,58.222321428571426,521.1285714285714,1238.7,58.222321428571426,521.1285714285714,1354,58.222321428571426,521.1285714285714,1475.4,58.222321428571426,521.1285714285714,1584,58.222321428571426,521.1285714285714,1691.2,58.222321428571426,521.1285714285714,1798,58.222321428571426,521.1285714285714,1903.1,58.222321428571426,521.1285714285714,2007.4,58.222321428571426,521.1285714285714,2129.4,58.222321428571426,521.1285714285714,2239.7,58.222321428571426,521.1285714285714,2346.4,58.222321428571426,521.1285714285714,2454.3,58.222321428571426,521.1285714285714,2564.9,58.222321428571426,521.1285714285714,2669.9,58.222321428571426,521.1285714285714,2775.6,58.222321428571426,521.1285714285714,2887,58.222321428571426,521.1285714285714,2996.5,58.222321428571426,521.1285714285714,3117.4,58.222321428571426,521.1285714285714,3233.6,58.222321428571426,521.1285714285714,3338.2,58.222321428571426,521.1285714285714,3441,58.222321428571426,521.1285714285714,3553.9,58.222321428571426,521.1285714285714,3661.9,58.222321428571426,521.1285714285714,3769,58.222321428571426,521.1285714285714,3871.4,58.222321428571426,521.1285714285714,3983.9,58.222321428571426,521.1285714285714,4090.6,58.222321428571426,521.1285714285714,4206.8,58.222321428571426,521.1285714285714,4331.5,58.222321428571426,521.1285714285714,4440.9,58.222321428571426,521.1285714285714,4548.9,58.222321428571426,521.1285714285714,4650.1,58.222321428571426,521.1285714285714,4763.5,58.222321428571426,521.1285714285714,4866.6,58.222321428571426,521.1285714285714,4979.3]","[1477.7,1477.7,1000,0,477.7,""smooth"",""down"",""down"",""good_move"",4504.8,3026.1,2417.7,1478.7,608.4,""smooth"",""left"",""left"",""good_move"",11766.4,7260.4,2619.7,4506,4640.7,""smooth"",""down"",""down"",""good_move"",14149.4,2382.1,1563,11767.3,819.1,""oops"",""left"",""left"",""good_move""]","",""
"24213","","<div style=""width:500px;"">
  <p>What determined the result of this run?</p>
  </div>","91","html-slider-response","55","890021","0.0-5.0-1.9","71","1","2025-07-16 08:31:43","1f75c3e559b7213887762d5229550c2b","78.145.195.194","Mozilla/5.0 (Windows NT 10.0; Win64; x64) AppleWebKit/537.36 (KHTML, like Gecko) Chrome/138.0.0.0 Safari/537.36","WebKit","Chrome","138.0.0.0","Windows","10.0","https://app.prolific.com/","en-US,en;q=0.9","5cab22cd68194f001511b2d6","686e379bc37a29ffa5cdc956","687761d8593b57143228c6db","1","1","5cab22cd68194f001511b2d6","1","1","2025-07-16T08:47:06.091Z","","","","","","","","","","","AttribQ","","50","","","","","","","","","","","","","","","","","","","","","","","","","","","","",""
"6548","","<div style=""width:500px;"">
  <p>How much control did you have over the ball?</p>
  </div>","95","html-slider-response","56","896574","0.0-5.0-2.9","71","1","2025-07-16 08:31:43","1f75c3e559b7213887762d5229550c2b","78.145.195.194","Mozilla/5.0 (Windows NT 10.0; Win64; x64) AppleWebKit/537.36 (KHTML, like Gecko) Chrome/138.0.0.0 Safari/537.36","WebKit","Chrome","138.0.0.0","Windows","10.0","https://app.prolific.com/","en-US,en;q=0.9","5cab22cd68194f001511b2d6","686e379bc37a29ffa5cdc956","687761d8593b57143228c6db","1","1","5cab22cd68194f001511b2d6","1","1","2025-07-16T08:47:12.644Z","","","","","","","","","","","ControlQ","","50","","","","","","","","","","","","","","","","","","","","","","","","","","","","",""
"4318","","<div style=""width:500px;"">
  <p>How would you describe your current emotional state?</p>
  </div>","6","html-slider-response","57","900899","0.0-5.0-3.9","71","1","2025-07-16 08:31:43","1f75c3e559b7213887762d5229550c2b","78.145.195.194","Mozilla/5.0 (Windows NT 10.0; Win64; x64) AppleWebKit/537.36 (KHTML, like Gecko) Chrome/138.0.0.0 Safari/537.36","WebKit","Chrome","138.0.0.0","Windows","10.0","https://app.prolific.com/","en-US,en;q=0.9","5cab22cd68194f001511b2d6","686e379bc37a29ffa5cdc956","687761d8593b57143228c6db","1","1","5cab22cd68194f001511b2d6","1","1","2025-07-16T08:47:16.968Z","","","","","","","","","","","StressQ","","50","","","","","","","","","","","","","","","","","","","","","","","","","","","","",""
"6351","","<div style=""width:500px;"">
  <p>What best describes how you currently feel?</p>
  </div>","100","html-slider-response","58","907256","0.0-5.0-4.9","71","1","2025-07-16 08:31:43","1f75c3e559b7213887762d5229550c2b","78.145.195.194","Mozilla/5.0 (Windows NT 10.0; Win64; x64) AppleWebKit/537.36 (KHTML, like Gecko) Chrome/138.0.0.0 Safari/537.36","WebKit","Chrome","138.0.0.0","Windows","10.0","https://app.prolific.com/","en-US,en;q=0.9","5cab22cd68194f001511b2d6","686e379bc37a29ffa5cdc956","687761d8593b57143228c6db","1","1","5cab22cd68194f001511b2d6","1","1","2025-07-16T08:47:23.325Z","","","","","","","","","","","MotivationQ","","50","","","","","","","","","","","","","","","","","","","","","","","","","","","","",""
"","","","","ctl-task-cpt","59","997537","0.0-5.0-0.10","71","1","2025-07-16 08:31:43","1f75c3e559b7213887762d5229550c2b","78.145.195.194","Mozilla/5.0 (Windows NT 10.0; Win64; x64) AppleWebKit/537.36 (KHTML, like Gecko) Chrome/138.0.0.0 Safari/537.36","WebKit","Chrome","138.0.0.0","Windows","10.0","https://app.prolific.com/","en-US,en;q=0.9","5cab22cd68194f001511b2d6","686e379bc37a29ffa5cdc956","687761d8593b57143228c6db","1","1","5cab22cd68194f001511b2d6","1","1","2025-07-16T08:48:53.607Z","","","","","","","","","","","","","","win-only","3","g1:SW,g2:NE","0.5","11","0","910985.6","6606.8","11635.2","87230.1","1","4","8","6","1","1","1","36","35","0.2727272727272727","2001.5","3000","2315","[""down"",""left""]","{""num_key_presses"":12,""num_perfect"":7,""num_errors"":0,""num_randdir"":5,""num_randdir_good_moves"":1,""num_whilered"":0,""num_whileblue"":0,""num_blue"":1,""num_good_moves"":8}","[293.22232142857143,299.12857142857143,1.2,293.22232142857143,299.12857142857143,125.7,293.22232142857143,299.12857142857143,265.6,293.22232142857143,299.12857142857143,410.1,293.22232142857143,299.12857142857143,517.4,293.22232142857143,299.12857142857143,655.9,293.22232142857143,299.12857142857143,792,293.22232142857143,299.12857142857143,924.4,293.22232142857143,299.12857142857143,1061.7,293.22232142857143,299.12857142857143,1198.3,258.22232142857143,339.12857142857143,1346.7,181.22232142857143,415.12857142857143,1459,111.22232142857143,456.12857142857143,1560.5,94.22232142857143,493.12857142857143,1719.5,83.22232142857143,510.12857142857143,1826.6,71.22232142857143,522.1285714285714,1966.1,71.22232142857143,522.1285714285714,2076.6,71.22232142857143,522.1285714285714,2179.2,81.22232142857143,521.1285714285714,2331.6,143.22232142857143,511.12857142857143,2437.6,426.22232142857143,517.1285714285714,2568.8,540.2223214285714,554.1285714285714,2676.7,540.2223214285714,554.1285714285714,2817,540.2223214285714,554.1285714285714,2955.3,540.2223214285714,554.1285714285714,3103.1,540.2223214285714,554.1285714285714,3239.3,540.2223214285714,554.1285714285714,3361.1,540.2223214285714,554.1285714285714,3469.1,540.2223214285714,554.1285714285714,3571.4,540.2223214285714,554.1285714285714,3704.9,540.2223214285714,554.1285714285714,3815.1,540.2223214285714,554.1285714285714,3926.9,540.2223214285714,554.1285714285714,4031.6,540.2223214285714,554.1285714285714,4137,540.2223214285714,554.1285714285714,4248.8,540.2223214285714,554.1285714285714,4350.9,540.2223214285714,554.1285714285714,4460.6,540.2223214285714,554.1285714285714,4563.2,540.2223214285714,554.1285714285714,4663.7,540.2223214285714,554.1285714285714,4769,540.2223214285714,554.1285714285714,4914.2]","[1566.3,1565.1,1000,1.3,565.1,""oops"",""down"",""up"",""bad_move"",11439.4,9869.2,2822.2,1570.2,7047,""oops"",""down"",""right"",""bad_move"",15483.8,4043.3,2764,11440.6,1279.3,""smooth"",""down"",""down"",""good_move"",21954.8,6468.5,2007.5,19410.2,537.2,""oops"",""left"",""right"",""bad_move"",25669.4,3713.7,2365.6,21955.7,1348.1,""smooth"",""left"",""left"",""good_move"",36198.2,10527.1,3691.6,25671.1,6835.5,""smooth"",""down"",""down"",""good_move"",39195.6,2996,2266.5,36199.7,729.5,""smooth"",""left"",""left"",""good_move"",50220.9,11024,2283.2,39197,8740.8,""smooth"",""left"",""left"",""good_move"",61775.5,11551,2261.7,50224.5,9289.3,""oops"",""down"",""down"",""good_move"",65388.7,3612.3,2910.1,61776.4,702.2,""oops"",""left"",""right"",""bad_move"",68701.3,3311.1,2795.2,65390.2,515.9,""smooth"",""left"",""left"",""good_move"",75191.2,6488.6,2583.9,68702.8,3904.6,""smooth"",""left"",""left"",""good_move""]","",""
"12727","","<div style=""width:500px;"">
  <p>What determined the result of this run?</p>
  </div>","90","html-slider-response","60","1010270","0.0-5.0-1.10","71","1","2025-07-16 08:31:43","1f75c3e559b7213887762d5229550c2b","78.145.195.194","Mozilla/5.0 (Windows NT 10.0; Win64; x64) AppleWebKit/537.36 (KHTML, like Gecko) Chrome/138.0.0.0 Safari/537.36","WebKit","Chrome","138.0.0.0","Windows","10.0","https://app.prolific.com/","en-US,en;q=0.9","5cab22cd68194f001511b2d6","686e379bc37a29ffa5cdc956","687761d8593b57143228c6db","1","1","5cab22cd68194f001511b2d6","1","1","2025-07-16T08:49:06.339Z","","","","","","","","","","","AttribQ","","50","","","","","","","","","","","","","","","","","","","","","","","","","","","","",""
"5285","","<div style=""width:500px;"">
  <p>How much control did you have over the ball?</p>
  </div>","91","html-slider-response","61","1015563","0.0-5.0-2.10","71","1","2025-07-16 08:31:43","1f75c3e559b7213887762d5229550c2b","78.145.195.194","Mozilla/5.0 (Windows NT 10.0; Win64; x64) AppleWebKit/537.36 (KHTML, like Gecko) Chrome/138.0.0.0 Safari/537.36","WebKit","Chrome","138.0.0.0","Windows","10.0","https://app.prolific.com/","en-US,en;q=0.9","5cab22cd68194f001511b2d6","686e379bc37a29ffa5cdc956","687761d8593b57143228c6db","1","1","5cab22cd68194f001511b2d6","1","1","2025-07-16T08:49:11.633Z","","","","","","","","","","","ControlQ","","50","","","","","","","","","","","","","","","","","","","","","","","","","","","","",""
"4148","","<div style=""width:500px;"">
  <p>How would you describe your current emotional state?</p>
  </div>","5","html-slider-response","62","1019718","0.0-5.0-3.10","71","1","2025-07-16 08:31:43","1f75c3e559b7213887762d5229550c2b","78.145.195.194","Mozilla/5.0 (Windows NT 10.0; Win64; x64) AppleWebKit/537.36 (KHTML, like Gecko) Chrome/138.0.0.0 Safari/537.36","WebKit","Chrome","138.0.0.0","Windows","10.0","https://app.prolific.com/","en-US,en;q=0.9","5cab22cd68194f001511b2d6","686e379bc37a29ffa5cdc956","687761d8593b57143228c6db","1","1","5cab22cd68194f001511b2d6","1","1","2025-07-16T08:49:15.788Z","","","","","","","","","","","StressQ","","50","","","","","","","","","","","","","","","","","","","","","","","","","","","","",""
"6246","","<div style=""width:500px;"">
  <p>What best describes how you currently feel?</p>
  </div>","100","html-slider-response","63","1025969","0.0-5.0-4.10","71","1","2025-07-16 08:31:43","1f75c3e559b7213887762d5229550c2b","78.145.195.194","Mozilla/5.0 (Windows NT 10.0; Win64; x64) AppleWebKit/537.36 (KHTML, like Gecko) Chrome/138.0.0.0 Safari/537.36","WebKit","Chrome","138.0.0.0","Windows","10.0","https://app.prolific.com/","en-US,en;q=0.9","5cab22cd68194f001511b2d6","686e379bc37a29ffa5cdc956","687761d8593b57143228c6db","1","1","5cab22cd68194f001511b2d6","1","1","2025-07-16T08:49:22.039Z","","","","","","","","","","","MotivationQ","","50","","","","","","","","","","","","","","","","","","","","","","","","","","","","",""
"","","","","ctl-task-cpt","64","1061605","0.0-5.0-0.11","71","1","2025-07-16 08:31:43","1f75c3e559b7213887762d5229550c2b","78.145.195.194","Mozilla/5.0 (Windows NT 10.0; Win64; x64) AppleWebKit/537.36 (KHTML, like Gecko) Chrome/138.0.0.0 Safari/537.36","WebKit","Chrome","138.0.0.0","Windows","10.0","https://app.prolific.com/","en-US,en;q=0.9","5cab22cd68194f001511b2d6","686e379bc37a29ffa5cdc956","687761d8593b57143228c6db","1","1","5cab22cd68194f001511b2d6","1","1","2025-07-16T08:49:57.674Z","","","","","","","","","","","","","","win-only","0","g1:NW,g2:SE","0.6","12","0","1029698.1","4369.5","9381.6","32574","1","4","4","6","2","4","4","40","36","0.30303030303030304","1594.4","3000","2625","[""down"",""right""]","{""num_key_presses"":6,""num_perfect"":4,""num_errors"":0,""num_randdir"":2,""num_randdir_good_moves"":2,""num_whilered"":0,""num_whileblue"":0,""num_blue"":1,""num_good_moves"":6}","[299.22232142857143,301.12857142857143,1.2,299.22232142857143,301.12857142857143,129.9,299.22232142857143,301.12857142857143,253.5,299.22232142857143,301.12857142857143,379.1,299.22232142857143,301.12857142857143,479.2,299.22232142857143,302.12857142857143,606.9,273.22232142857143,405.12857142857143,737.2,323.22232142857143,474.12857142857143,862.7,424.22232142857143,545.1285714285714,982.2,430.22232142857143,547.1285714285714,1084.9,444.22232142857143,537.1285714285714,1189.5,511.22232142857143,566.1285714285714,1307.3,521.2223214285714,566.1285714285714,1412.8,521.2223214285714,563.1285714285714,1519.1,521.2223214285714,561.1285714285714,1640.4,521.2223214285714,561.1285714285714,1747.3,521.2223214285714,561.1285714285714,1847.3,229.22232142857143,518.1285714285714,1982.6,-26.777678571428574,488.12857142857143,2106.6,-26.777678571428574,488.12857142857143,2210,-26.777678571428574,488.12857142857143,2335.9,-26.777678571428574,488.12857142857143,2460.3,-26.777678571428574,488.12857142857143,2587.9,-26.777678571428574,488.12857142857143,2713,-26.777678571428574,488.12857142857143,2821,-26.777678571428574,488.12857142857143,2945,-26.777678571428574,488.12857142857143,3068.4,-26.777678571428574,488.12857142857143,3175.5,-26.777678571428574,488.12857142857143,3303.6,-26.777678571428574,488.12857142857143,3425.4,-26.777678571428574,488.12857142857143,3554.3,-26.777678571428574,488.12857142857143,3676.3,-26.777678571428574,488.12857142857143,3787,-26.777678571428574,488.12857142857143,3912.8,-26.777678571428574,488.12857142857143,4046.1,-26.777678571428574,488.12857142857143,4160.3,-26.777678571428574,488.12857142857143,4284.7,-26.777678571428574,488.12857142857143,4418.7,-26.777678571428574,488.12857142857143,4543.6,-26.777678571428574,488.12857142857143,4669.7,-26.777678571428574,488.12857142857143,4794.3,-26.777678571428574,488.12857142857143,4916]","[1541.2,1541.2,1000,0,541.2,""oops"",""right"",""down"",""good_move"",4735.1,3191.3,2555.8,1543.8,635.5,""smooth"",""right"",""right"",""good_move"",7865.1,3126.8,2603.9,4738.3,522.9,""smooth"",""right"",""right"",""good_move"",15675.1,7792.3,2949.1,12314,412.1,""smooth"",""down"",""down"",""good_move"",19417.3,3740.9,3215.3,15676.4,525.6,""oops"",""right"",""down"",""good_move"",22287.2,2864.8,2275,19422.4,589.8,""smooth"",""right"",""right"",""good_move""]","",""
"11742","","<div style=""width:500px;"">
  <p>What determined the result of this run?</p>
  </div>","94","html-slider-response","65","1073352","0.0-5.0-1.11","71","1","2025-07-16 08:31:43","1f75c3e559b7213887762d5229550c2b","78.145.195.194","Mozilla/5.0 (Windows NT 10.0; Win64; x64) AppleWebKit/537.36 (KHTML, like Gecko) Chrome/138.0.0.0 Safari/537.36","WebKit","Chrome","138.0.0.0","Windows","10.0","https://app.prolific.com/","en-US,en;q=0.9","5cab22cd68194f001511b2d6","686e379bc37a29ffa5cdc956","687761d8593b57143228c6db","1","1","5cab22cd68194f001511b2d6","1","1","2025-07-16T08:50:09.421Z","","","","","","","","","","","AttribQ","","50","","","","","","","","","","","","","","","","","","","","","","","","","","","","",""
"8153","","<div style=""width:500px;"">
  <p>How much control did you have over the ball?</p>
  </div>","91","html-slider-response","66","1081511","0.0-5.0-2.11","71","1","2025-07-16 08:31:43","1f75c3e559b7213887762d5229550c2b","78.145.195.194","Mozilla/5.0 (Windows NT 10.0; Win64; x64) AppleWebKit/537.36 (KHTML, like Gecko) Chrome/138.0.0.0 Safari/537.36","WebKit","Chrome","138.0.0.0","Windows","10.0","https://app.prolific.com/","en-US,en;q=0.9","5cab22cd68194f001511b2d6","686e379bc37a29ffa5cdc956","687761d8593b57143228c6db","1","1","5cab22cd68194f001511b2d6","1","1","2025-07-16T08:50:17.580Z","","","","","","","","","","","ControlQ","","50","","","","","","","","","","","","","","","","","","","","","","","","","","","","",""
"3315","","<div style=""width:500px;"">
  <p>How would you describe your current emotional state?</p>
  </div>","4","html-slider-response","67","1084829","0.0-5.0-3.11","71","1","2025-07-16 08:31:43","1f75c3e559b7213887762d5229550c2b","78.145.195.194","Mozilla/5.0 (Windows NT 10.0; Win64; x64) AppleWebKit/537.36 (KHTML, like Gecko) Chrome/138.0.0.0 Safari/537.36","WebKit","Chrome","138.0.0.0","Windows","10.0","https://app.prolific.com/","en-US,en;q=0.9","5cab22cd68194f001511b2d6","686e379bc37a29ffa5cdc956","687761d8593b57143228c6db","1","1","5cab22cd68194f001511b2d6","1","1","2025-07-16T08:50:20.898Z","","","","","","","","","","","StressQ","","50","","","","","","","","","","","","","","","","","","","","","","","","","","","","",""
"5655","","<div style=""width:500px;"">
  <p>What best describes how you currently feel?</p>
  </div>","99","html-slider-response","68","1090489","0.0-5.0-4.11","71","1","2025-07-16 08:31:43","1f75c3e559b7213887762d5229550c2b","78.145.195.194","Mozilla/5.0 (Windows NT 10.0; Win64; x64) AppleWebKit/537.36 (KHTML, like Gecko) Chrome/138.0.0.0 Safari/537.36","WebKit","Chrome","138.0.0.0","Windows","10.0","https://app.prolific.com/","en-US,en;q=0.9","5cab22cd68194f001511b2d6","686e379bc37a29ffa5cdc956","687761d8593b57143228c6db","1","1","5cab22cd68194f001511b2d6","1","1","2025-07-16T08:50:26.558Z","","","","","","","","","","","MotivationQ","","50","","","","","","","","","","","","","","","","","","","","","","","","","","","","",""
"","","","","ctl-task-cpt","69","1145622","0.0-5.0-0.12","71","1","2025-07-16 08:31:43","1f75c3e559b7213887762d5229550c2b","78.145.195.194","Mozilla/5.0 (Windows NT 10.0; Win64; x64) AppleWebKit/537.36 (KHTML, like Gecko) Chrome/138.0.0.0 Safari/537.36","WebKit","Chrome","138.0.0.0","Windows","10.0","https://app.prolific.com/","en-US,en;q=0.9","5cab22cd68194f001511b2d6","686e379bc37a29ffa5cdc956","687761d8593b57143228c6db","1","1","5cab22cd68194f001511b2d6","1","1","2025-07-16T08:51:21.691Z","","","","","","","","","","","","","","win-only","2","g1:SE,g2:NW","0.7","13","0","1094220","1452.4","6474","52082.6","1","4","4","6","2","4","4","44","40","0.3333333333333333","1201.8","3000","2420","[""left"",""up""]","{""num_key_presses"":8,""num_perfect"":7,""num_errors"":0,""num_randdir"":1,""num_randdir_good_moves"":0,""num_whilered"":0,""num_whileblue"":0,""num_blue"":1,""num_good_moves"":7}","[288.22232142857143,301.12857142857143,10.8,288.22232142857143,301.12857142857143,116.8,288.22232142857143,301.12857142857143,216.9,288.22232142857143,301.12857142857143,330.7,288.22232142857143,301.12857142857143,439.7,289.22232142857143,303.12857142857143,554.9,217.22232142857143,261.12857142857143,659,46.222321428571426,188.12857142857143,788.4,64.22232142857143,97.12857142857143,900.3,67.22232142857143,55.128571428571426,1018.6,66.22232142857143,73.12857142857143,1138.6,66.22232142857143,73.12857142857143,1262.6,66.22232142857143,73.12857142857143,1385.1,68.22232142857143,78.12857142857143,1503.1,68.22232142857143,78.12857142857143,1613.2,68.22232142857143,78.12857142857143,1716.1,68.22232142857143,78.12857142857143,1824.6,68.22232142857143,78.12857142857143,1935.6,68.22232142857143,78.12857142857143,2042.4,68.22232142857143,78.12857142857143,2151.8,68.22232142857143,78.12857142857143,2269.4,68.22232142857143,78.12857142857143,2382.3,68.22232142857143,78.12857142857143,2529.3,68.22232142857143,78.12857142857143,2646.4,68.22232142857143,78.12857142857143,2757.3,68.22232142857143,78.12857142857143,2887.4,68.22232142857143,78.12857142857143,3004.2,68.22232142857143,78.12857142857143,3117.1,68.22232142857143,78.12857142857143,3238.1,68.22232142857143,78.12857142857143,3359.6,68.22232142857143,78.12857142857143,3479.7,68.22232142857143,78.12857142857143,3597.6,68.22232142857143,78.12857142857143,3715,68.22232142857143,78.12857142857143,3833.9,68.22232142857143,78.12857142857143,3953.5,68.22232142857143,78.12857142857143,4061.7,68.22232142857143,78.12857142857143,4194.6,68.22232142857143,78.12857142857143,4314.6,68.22232142857143,78.12857142857143,4441.2,68.22232142857143,78.12857142857143,4557.2,68.22232142857143,78.12857142857143,4683.5,68.22232142857143,78.12857142857143,4809.9,68.22232142857143,78.12857142857143,4923.5]","[5087.3,5087.3,2619.2,2047.5,420.6,""smooth"",""up"",""up"",""good_move"",11902,6812.1,3403.9,5089.9,3408.2,""smooth"",""left"",""left"",""good_move"",19244.5,7341.3,2219,11903.2,5122.3,""smooth"",""up"",""up"",""good_move"",23533.3,4288,2305.7,19245.3,1982.3,""oops"",""left"",""right"",""bad_move"",25962,2424.3,1739.3,23537.7,685,""smooth"",""left"",""left"",""good_move"",31575.8,5612.5,2571.8,25963.3,3040.7,""smooth"",""up"",""up"",""good_move"",37570.5,5989.8,1340,31580.7,4649.8,""smooth"",""left"",""left"",""good_move"",44886,7314.6,3220.1,37571.5,4094.4,""smooth"",""left"",""left"",""good_move""]","",""
"11574","","<div style=""width:500px;"">
  <p>What determined the result of this run?</p>
  </div>","90","html-slider-response","70","1157201","0.0-5.0-1.12","71","1","2025-07-16 08:31:43","1f75c3e559b7213887762d5229550c2b","78.145.195.194","Mozilla/5.0 (Windows NT 10.0; Win64; x64) AppleWebKit/537.36 (KHTML, like Gecko) Chrome/138.0.0.0 Safari/537.36","WebKit","Chrome","138.0.0.0","Windows","10.0","https://app.prolific.com/","en-US,en;q=0.9","5cab22cd68194f001511b2d6","686e379bc37a29ffa5cdc956","687761d8593b57143228c6db","1","1","5cab22cd68194f001511b2d6","1","1","2025-07-16T08:51:33.270Z","","","","","","","","","","","AttribQ","","50","","","","","","","","","","","","","","","","","","","","","","","","","","","","",""
"2887","","<div style=""width:500px;"">
  <p>How much control did you have over the ball?</p>
  </div>","92","html-slider-response","71","1160094","0.0-5.0-2.12","71","1","2025-07-16 08:31:43","1f75c3e559b7213887762d5229550c2b","78.145.195.194","Mozilla/5.0 (Windows NT 10.0; Win64; x64) AppleWebKit/537.36 (KHTML, like Gecko) Chrome/138.0.0.0 Safari/537.36","WebKit","Chrome","138.0.0.0","Windows","10.0","https://app.prolific.com/","en-US,en;q=0.9","5cab22cd68194f001511b2d6","686e379bc37a29ffa5cdc956","687761d8593b57143228c6db","1","1","5cab22cd68194f001511b2d6","1","1","2025-07-16T08:51:36.163Z","","","","","","","","","","","ControlQ","","50","","","","","","","","","","","","","","","","","","","","","","","","","","","","",""
"3261","","<div style=""width:500px;"">
  <p>How would you describe your current emotional state?</p>
  </div>","0","html-slider-response","72","1163360","0.0-5.0-3.12","71","1","2025-07-16 08:31:43","1f75c3e559b7213887762d5229550c2b","78.145.195.194","Mozilla/5.0 (Windows NT 10.0; Win64; x64) AppleWebKit/537.36 (KHTML, like Gecko) Chrome/138.0.0.0 Safari/537.36","WebKit","Chrome","138.0.0.0","Windows","10.0","https://app.prolific.com/","en-US,en;q=0.9","5cab22cd68194f001511b2d6","686e379bc37a29ffa5cdc956","687761d8593b57143228c6db","1","1","5cab22cd68194f001511b2d6","1","1","2025-07-16T08:51:39.429Z","","","","","","","","","","","StressQ","","50","","","","","","","","","","","","","","","","","","","","","","","","","","","","",""
"2311","","<div style=""width:500px;"">
  <p>What best describes how you currently feel?</p>
  </div>","100","html-slider-response","73","1165676","0.0-5.0-4.12","71","1","2025-07-16 08:31:43","1f75c3e559b7213887762d5229550c2b","78.145.195.194","Mozilla/5.0 (Windows NT 10.0; Win64; x64) AppleWebKit/537.36 (KHTML, like Gecko) Chrome/138.0.0.0 Safari/537.36","WebKit","Chrome","138.0.0.0","Windows","10.0","https://app.prolific.com/","en-US,en;q=0.9","5cab22cd68194f001511b2d6","686e379bc37a29ffa5cdc956","687761d8593b57143228c6db","1","1","5cab22cd68194f001511b2d6","1","1","2025-07-16T08:51:41.746Z","","","","","","","","","","","MotivationQ","","50","","","","","","","","","","","","","","","","","","","","","","","","","","","","",""
"","","","","ctl-task-cpt","74","1195190","0.0-5.0-0.13","71","1","2025-07-16 08:31:43","1f75c3e559b7213887762d5229550c2b","78.145.195.194","Mozilla/5.0 (Windows NT 10.0; Win64; x64) AppleWebKit/537.36 (KHTML, like Gecko) Chrome/138.0.0.0 Safari/537.36","WebKit","Chrome","138.0.0.0","Windows","10.0","https://app.prolific.com/","en-US,en;q=0.9","5cab22cd68194f001511b2d6","686e379bc37a29ffa5cdc956","687761d8593b57143228c6db","1","1","5cab22cd68194f001511b2d6","1","1","2025-07-16T08:52:11.259Z","","","","","","","","","","","","","","win-only","2","g1:SE,g2:NW","0.8","14","0","1169408","1491.5","6498.2","26433.8","1","4","8","6","1","1","1","45","44","0.3409090909090909","1091.4","3000","2840","[""down"",""right""]","{""num_key_presses"":4,""num_perfect"":3,""num_errors"":0,""num_randdir"":1,""num_randdir_good_moves"":1,""num_whilered"":0,""num_whileblue"":0,""num_blue"":2,""num_good_moves"":4}","[292.22232142857143,288.12857142857143,1.2,292.22232142857143,288.12857142857143,144.5,292.22232142857143,288.12857142857143,257.4,292.22232142857143,288.12857142857143,366,292.22232142857143,288.12857142857143,486.8,333.22232142857143,341.12857142857143,622,499.22232142857143,506.12857142857143,759.5,515.2223214285714,533.1285714285714,881.9,520.2223214285714,536.1285714285714,1008.1,531.2223214285714,533.1285714285714,1152.5,531.2223214285714,533.1285714285714,1269,531.2223214285714,533.1285714285714,1389.1,452.22232142857143,521.1285714285714,1525.9,186.22232142857143,440.12857142857143,1656.3,186.22232142857143,440.12857142857143,1768.3,186.22232142857143,440.12857142857143,1870.8,186.22232142857143,440.12857142857143,1992.1,186.22232142857143,440.12857142857143,2112.9,186.22232142857143,440.12857142857143,2223.1,186.22232142857143,440.12857142857143,2335.1,186.22232142857143,440.12857142857143,2446.8,186.22232142857143,440.12857142857143,2550.1,186.22232142857143,440.12857142857143,2664.9,186.22232142857143,440.12857142857143,2766.9,186.22232142857143,440.12857142857143,2873.8,186.22232142857143,440.12857142857143,2978.2,186.22232142857143,440.12857142857143,3092.7,186.22232142857143,440.12857142857143,3202.1,186.22232142857143,440.12857142857143,3304.2,186.22232142857143,440.12857142857143,3415.7,186.22232142857143,440.12857142857143,3539.7,186.22232142857143,440.12857142857143,3661.3,186.22232142857143,440.12857142857143,3775.9,186.22232142857143,440.12857142857143,3911.6,186.22232142857143,440.12857142857143,4035.5,186.22232142857143,440.12857142857143,4171.4,186.22232142857143,440.12857142857143,4304.2,186.22232142857143,440.12857142857143,4422,186.22232142857143,440.12857142857143,4542.3,186.22232142857143,440.12857142857143,4674.2,186.22232142857143,440.12857142857143,4811.9,186.22232142857143,440.12857142857143,4939.4]","[5579.9,5579.9,2941,2045.5,593.4,""smooth"",""right"",""right"",""good_move"",8728.5,3146.5,2344.5,5582,802,""smooth"",""down"",""down"",""good_move"",14557.9,5827.8,2253.6,11808.9,495.4,""smooth"",""right"",""right"",""good_move"",18622,4063.3,3499.2,14558.7,564.2,""oops"",""down"",""down"",""good_move""]","",""
"3230","","<div style=""width:500px;"">
  <p>What determined the result of this run?</p>
  </div>","100","html-slider-response","75","1198425","0.0-5.0-1.13","71","1","2025-07-16 08:31:43","1f75c3e559b7213887762d5229550c2b","78.145.195.194","Mozilla/5.0 (Windows NT 10.0; Win64; x64) AppleWebKit/537.36 (KHTML, like Gecko) Chrome/138.0.0.0 Safari/537.36","WebKit","Chrome","138.0.0.0","Windows","10.0","https://app.prolific.com/","en-US,en;q=0.9","5cab22cd68194f001511b2d6","686e379bc37a29ffa5cdc956","687761d8593b57143228c6db","1","1","5cab22cd68194f001511b2d6","1","1","2025-07-16T08:52:14.494Z","","","","","","","","","","","AttribQ","","50","","","","","","","","","","","","","","","","","","","","","","","","","","","","",""
"3247","","<div style=""width:500px;"">
  <p>How much control did you have over the ball?</p>
  </div>","100","html-slider-response","76","1201676","0.0-5.0-2.13","71","1","2025-07-16 08:31:43","1f75c3e559b7213887762d5229550c2b","78.145.195.194","Mozilla/5.0 (Windows NT 10.0; Win64; x64) AppleWebKit/537.36 (KHTML, like Gecko) Chrome/138.0.0.0 Safari/537.36","WebKit","Chrome","138.0.0.0","Windows","10.0","https://app.prolific.com/","en-US,en;q=0.9","5cab22cd68194f001511b2d6","686e379bc37a29ffa5cdc956","687761d8593b57143228c6db","1","1","5cab22cd68194f001511b2d6","1","1","2025-07-16T08:52:17.745Z","","","","","","","","","","","ControlQ","","50","","","","","","","","","","","","","","","","","","","","","","","","","","","","",""
"2773","","<div style=""width:500px;"">
  <p>How would you describe your current emotional state?</p>
  </div>","0","html-slider-response","77","1204457","0.0-5.0-3.13","71","1","2025-07-16 08:31:43","1f75c3e559b7213887762d5229550c2b","78.145.195.194","Mozilla/5.0 (Windows NT 10.0; Win64; x64) AppleWebKit/537.36 (KHTML, like Gecko) Chrome/138.0.0.0 Safari/537.36","WebKit","Chrome","138.0.0.0","Windows","10.0","https://app.prolific.com/","en-US,en;q=0.9","5cab22cd68194f001511b2d6","686e379bc37a29ffa5cdc956","687761d8593b57143228c6db","1","1","5cab22cd68194f001511b2d6","1","1","2025-07-16T08:52:20.527Z","","","","","","","","","","","StressQ","","50","","","","","","","","","","","","","","","","","","","","","","","","","","","","",""
"2802","","<div style=""width:500px;"">
