"rt","response_timestamp","stimulus","response","trial_type","trial_index","time_elapsed","internal_node_id","run_id","condition","recorded_at","source_code_version","ip","user_agent","device","browser","browser_version","platform","platform_version","referer","accept_language","PROLIFIC_PID","STUDY_ID","SESSION_ID","WEEK","BATCH","prolific_id","week","batch","realtime","success","responses","item_order","radio_event_ids","radio_event_times","key_event_times","mouse_event_times","straightlining","zigzagging","honeypot","eventType","view_history","slider_start","which_type","canvas_config","goals_layout","control_level","trial_number","tutorial_trial_number","trial_start_time","phase1_start_time","phase2_start_time","phase3_start_time","goal_1_value","goal_1_distance","goal_2_value","goal_2_distance","goal_selected","outcome","outcome_total","participant_final_score","participant_initial_score","participant_final_score_prop","goal_choice_rt","allocated_time","allocated_time_remaining","goal_direction","counts","mouse_movements","key_presses","question_order","question_id"
"1890","1753090147028","<p style='font-size:40px;line-height:1.25'><strong>Welcome to the experiment!</strong></p><p style='font-size:1.1em;line-height:1.25'>Thank you for participanting in our experiment again! You will be asked to play the Dysfunctional Ball Game again. We will briefly recap the rules before we start.</p><p style='font-size:1.1em;line-height:1.25'>Press <strong>Next</strong> to continue.</p>","0","custom-html-button-response","0","1894","0.0-0.0","136","1","2025-07-21 09:29:06","1f75c3e559b7213887762d5229550c2b","71.138.89.249","Mozilla/5.0 (Windows NT 10.0; Win64; x64) AppleWebKit/537.36 (KHTML, like Gecko) Chrome/138.0.0.0 Safari/537.36","WebKit","Chrome","138.0.0.0","Windows","10.0","https://app.prolific.com/","en-US,en;q=0.9","5f0a7dec44c42c19a6c9f6d9","686e379bc37a29ffa5cdc956","687e071c6d799f84edacabd5","1","1","5f0a7dec44c42c19a6c9f6d9","1","1","2025-07-21T09:29:07.032Z","","","","","","","","","","","","","","","","","","","","","","","","","","","","","","","","","","","","","","","","","",""
"5413","","","","fullscreen","1","8316","0.0-1.0","136","1","2025-07-21 09:29:06","1f75c3e559b7213887762d5229550c2b","71.138.89.249","Mozilla/5.0 (Windows NT 10.0; Win64; x64) AppleWebKit/537.36 (KHTML, like Gecko) Chrome/138.0.0.0 Safari/537.36","WebKit","Chrome","138.0.0.0","Windows","10.0","https://app.prolific.com/","en-US,en;q=0.9","5f0a7dec44c42c19a6c9f6d9","686e379bc37a29ffa5cdc956","687e071c6d799f84edacabd5","1","1","5f0a7dec44c42c19a6c9f6d9","1","1","","true","","","","","","","","","","","","","","","","","","","","","","","","","","","","","","","","","","","","","","","","",""
"4962","1753090158417","<p style='font-size:1.1em;line-height:1.25'>In the following, we will ask you a few questions relating to your feelings in the last 24 hours.<br></p><p style='font-size:1.1em;line-height:1.25'>Press the <strong>Next</strong> button to continue.</p>","0","custom-html-button-response","2","13281","0.0-2.0-0.0","136","1","2025-07-21 09:29:06","1f75c3e559b7213887762d5229550c2b","71.138.89.249","Mozilla/5.0 (Windows NT 10.0; Win64; x64) AppleWebKit/537.36 (KHTML, like Gecko) Chrome/138.0.0.0 Safari/537.36","WebKit","Chrome","138.0.0.0","Windows","10.0","https://app.prolific.com/","en-US,en;q=0.9","5f0a7dec44c42c19a6c9f6d9","686e379bc37a29ffa5cdc956","687e071c6d799f84edacabd5","1","1","5f0a7dec44c42c19a6c9f6d9","1","1","2025-07-21T09:29:18.419Z","","","","","","","","","","","","","","","","","","","","","","","","","","","","","","","","","","","","","","","","","",""
"66661.29999998212","","","","survey-template","3","79953","0.0-2.0-1.0","136","1","2025-07-21 09:29:06","1f75c3e559b7213887762d5229550c2b","71.138.89.249","Mozilla/5.0 (Windows NT 10.0; Win64; x64) AppleWebKit/537.36 (KHTML, like Gecko) Chrome/138.0.0.0 Safari/537.36","WebKit","Chrome","138.0.0.0","Windows","10.0","https://app.prolific.com/","en-US,en;q=0.9","5f0a7dec44c42c19a6c9f6d9","686e379bc37a29ffa5cdc956","687e071c6d799f84edacabd5","1","1","5f0a7dec44c42c19a6c9f6d9","1","1","2025-07-21T09:30:25.090Z","","{""Q01"":""0"",""Q02"":""0"",""Q03"":""0"",""Q04"":""2"",""Q05"":""1"",""Q06"":""1"",""Q07"":""1"",""Q08"":""1"",""Q09"":""0"",""Q10"":""0"",""Q11"":""0"",""Q12"":""0"",""Q13"":""5"",""Q14"":""2"",""Q15"":""0"",""Q16"":""0"",""Q17"":""0"",""Q18"":""0"",""Q19"":""0"",""Q20"":""0"",""Q21"":""1"",""Q22"":""1""}","[0,1,2,3,4,5,6,7,8,9,10,11,12,13,14,15,16,17,18,19,20,21]","[""Q01"",""Q02"",""Q03"",""Q04"",""Q04"",""Q05"",""Q06"",""Q07"",""Q08"",""Q09"",""Q10"",""Q11"",""Q12"",""Q13"",""Q14"",""Q15"",""Q16"",""Q17"",""Q18"",""Q19"",""Q20"",""Q21"",""Q21"",""Q22""]","[10133.199999988079,10849.399999976158,13809.59999999404,16018.699999988079,17091.5,19115,22339.69999998808,24165.29999998212,25686.09999999404,28398.79999998212,30789.29999998212,32327.19999998808,33459.09999999404,35612.69999998808,38885.5,41482.59999999404,43716.69999998808,45099.09999999404,46450.79999998212,48966.79999998212,54936.29999998212,58452.39999997616,59063.39999997616,63146]","[]","[0.29999998211860657,8692.59999999404,10133.199999988079,10849.399999976158,12420.899999976158,13809.59999999404,16018.699999988079,17091.5,19115,22339.69999998808,24165.29999998212,25686.09999999404,28398.79999998212,30789.29999998212,32327.19999998808,33459.09999999404,35612.69999998808,38885.5,41482.59999999404,43716.69999998808,45099.09999999404,46450.79999998212,48966.79999998212,54936.29999998212,57544.89999997616,58452.39999997616,59063.39999997616,63146,66655.39999997616]","0.5909090909090909","0.19047619047619047","0","drsp","","","","","","","","","","","","","","","","","","","","","","","","","","","","","","",""
"16130.199999988079","","","","survey-template","4","96086","0.0-2.0-2.0","136","1","2025-07-21 09:29:06","1f75c3e559b7213887762d5229550c2b","71.138.89.249","Mozilla/5.0 (Windows NT 10.0; Win64; x64) AppleWebKit/537.36 (KHTML, like Gecko) Chrome/138.0.0.0 Safari/537.36","WebKit","Chrome","138.0.0.0","Windows","10.0","https://app.prolific.com/","en-US,en;q=0.9","5f0a7dec44c42c19a6c9f6d9","686e379bc37a29ffa5cdc956","687e071c6d799f84edacabd5","1","1","5f0a7dec44c42c19a6c9f6d9","1","1","2025-07-21T09:30:41.223Z","","{""Q01"":""2"",""Q02"":""2"",""Q03"":""0""}","[0,1,2]","[""Q01"",""Q02"",""Q03""]","[7798.5999999940395,12266.699999988079,15005]","[]","[7798.5999999940395,12266.699999988079,15005,16129.299999982119]","0.3333333333333333","0.5","0","stress","","","","","","","","","","","","","","","","","","","","","","","","","","","","","","",""
"49352","","","","instructions","5","145440","0.0-3.0-0.0","136","1","2025-07-21 09:29:06","1f75c3e559b7213887762d5229550c2b","71.138.89.249","Mozilla/5.0 (Windows NT 10.0; Win64; x64) AppleWebKit/537.36 (KHTML, like Gecko) Chrome/138.0.0.0 Safari/537.36","WebKit","Chrome","138.0.0.0","Windows","10.0","https://app.prolific.com/","en-US,en;q=0.9","5f0a7dec44c42c19a6c9f6d9","686e379bc37a29ffa5cdc956","687e071c6d799f84edacabd5","1","1","5f0a7dec44c42c19a6c9f6d9","1","1","","","","","","","","","","","","","[{""page_index"":0,""viewing_time"":49352}]","","","","","","","","","","","","","","","","","","","","","","","","","","","","","",""
"15392","","<p>Before you start with this game please answer the following three questions yourself. </p>
  <p>Through this game, we measure several aspects of your cognitive performance, such as reaction times, multi-tasking capabilities </p>
  <p>and the ability to assess the situation you are in.</p>
  <p></p>
  <p><b>How good do you usually are in such tasks?</b></p>","84","html-slider-response","6","160835","0.0-4.0-0.0","136","1","2025-07-21 09:29:06","1f75c3e559b7213887762d5229550c2b","71.138.89.249","Mozilla/5.0 (Windows NT 10.0; Win64; x64) AppleWebKit/537.36 (KHTML, like Gecko) Chrome/138.0.0.0 Safari/537.36","WebKit","Chrome","138.0.0.0","Windows","10.0","https://app.prolific.com/","en-US,en;q=0.9","5f0a7dec44c42c19a6c9f6d9","686e379bc37a29ffa5cdc956","687e071c6d799f84edacabd5","1","1","5f0a7dec44c42c19a6c9f6d9","1","1","2025-07-21T09:31:45.972Z","","","","","","","","","","","PreSkillQ","","50","","","","","","","","","","","","","","","","","","","","","","","","","","","","",""
"5409","","<div style=""width:500px;"">
  <p>How well do you think you will perform in this task compared to other participants?</p>
  </div>","50","html-slider-response","7","166247","0.0-4.0-1.0","136","1","2025-07-21 09:29:06","1f75c3e559b7213887762d5229550c2b","71.138.89.249","Mozilla/5.0 (Windows NT 10.0; Win64; x64) AppleWebKit/537.36 (KHTML, like Gecko) Chrome/138.0.0.0 Safari/537.36","WebKit","Chrome","138.0.0.0","Windows","10.0","https://app.prolific.com/","en-US,en;q=0.9","5f0a7dec44c42c19a6c9f6d9","686e379bc37a29ffa5cdc956","687e071c6d799f84edacabd5","1","1","5f0a7dec44c42c19a6c9f6d9","1","1","2025-07-21T09:31:51.384Z","","","","","","","","","","","PrePerfQ","","50","","","","","","","","","","","","","","","","","","","","","","","","","","","","",""
"4297","","<div style=""width:500px;"">
  <p>What best describes how you currently feel?</p>
  </div>","68","html-slider-response","8","170546","0.0-4.0-2.0","136","1","2025-07-21 09:29:06","1f75c3e559b7213887762d5229550c2b","71.138.89.249","Mozilla/5.0 (Windows NT 10.0; Win64; x64) AppleWebKit/537.36 (KHTML, like Gecko) Chrome/138.0.0.0 Safari/537.36","WebKit","Chrome","138.0.0.0","Windows","10.0","https://app.prolific.com/","en-US,en;q=0.9","5f0a7dec44c42c19a6c9f6d9","686e379bc37a29ffa5cdc956","687e071c6d799f84edacabd5","1","1","5f0a7dec44c42c19a6c9f6d9","1","1","2025-07-21T09:31:55.683Z","","","","","","","","","","","PreMotivationQ","","50","","","","","","","","","","","","","","","","","","","","","","","","","","","","",""
"","","","","ctl-task-cpt","9","200737","0.0-5.0-0.0","136","1","2025-07-21 09:29:06","1f75c3e559b7213887762d5229550c2b","71.138.89.249","Mozilla/5.0 (Windows NT 10.0; Win64; x64) AppleWebKit/537.36 (KHTML, like Gecko) Chrome/138.0.0.0 Safari/537.36","WebKit","Chrome","138.0.0.0","Windows","10.0","https://app.prolific.com/","en-US,en;q=0.9","5f0a7dec44c42c19a6c9f6d9","686e379bc37a29ffa5cdc956","687e071c6d799f84edacabd5","1","1","5f0a7dec44c42c19a6c9f6d9","1","1","2025-07-21T09:32:25.875Z","","","","","","","","","","","","","","win-only","2","g1:SE,g2:NW","1","1","0","172900.7","3274.4","8276.1","27180.6","1","4","8","6","2","-8","-8","0","0","0","5001.7","3000","-2710","[""left"",""up""]","{""num_key_presses"":4,""num_perfect"":4,""num_errors"":0,""num_randdir"":0,""num_randdir_good_moves"":0,""num_whilered"":0,""num_whileblue"":0,""num_blue"":1,""num_good_moves"":4}","[416.2929267883301,412.57421788573265,0.3,416.2929267883301,412.57421788573265,101.2,416.2929267883301,412.57421788573265,201.2,416.2929267883301,412.57421788573265,302.1,416.2929267883301,412.57421788573265,410.3,416.2929267883301,412.57421788573265,511.3,416.2929267883301,412.57421788573265,617.2,416.2929267883301,412.57421788573265,727.3,416.2929267883301,412.57421788573265,832.1,416.2929267883301,412.57421788573265,932.1,416.2929267883301,412.57421788573265,1032.2,416.2929267883301,412.57421788573265,1136.5,416.2929267883301,412.57421788573265,1237.7,416.2929267883301,412.57421788573265,1343.6,416.2929267883301,412.57421788573265,1447.4,416.2929267883301,412.57421788573265,1551.4,416.2929267883301,412.57421788573265,1652.3,416.2929267883301,412.57421788573265,1760.2,416.2929267883301,412.57421788573265,1862.1,416.2929267883301,412.57421788573265,1967.5,416.2929267883301,412.57421788573265,2077.2,416.2929267883301,412.57421788573265,2181.9,416.2929267883301,412.57421788573265,2287.3,416.2929267883301,412.57421788573265,2387.8,416.2929267883301,412.57421788573265,2493.2,416.2929267883301,412.57421788573265,2593.3,416.2929267883301,412.57421788573265,2693.6,416.2929267883301,412.57421788573265,2796.7,416.2929267883301,412.57421788573265,2897.6,416.2929267883301,412.57421788573265,3001.5,416.2929267883301,412.57421788573265,3102.1,416.2929267883301,412.57421788573265,3210.3,426.1366767883301,420.77734288573265,3310.5,447.4648017883301,445.38671788573265,3411,455.6679267883301,465.07421788573265,3511,455.6679267883301,469.99609288573265,3611.1,457.3085517883301,471.63671788573265,3712.1,457.3085517883301,471.63671788573265,3816.9,457.3085517883301,471.63671788573265,3926.7,457.3085517883301,471.63671788573265,4031.7,457.3085517883301,471.63671788573265,4137.3,457.3085517883301,471.63671788573265,4243.7,444.1835517883301,456.87109288573265,4345.5,394.9648017883301,428.98046788573265,4448.5,347.3866767883301,419.13671788573265,4552.5,335.9023017883301,414.21484288573265,4659.9,334.2616767883301,414.21484288573265,4760,334.2616767883301,414.21484288573265,4860.6,329.3398017883301,404.37109288573265,4961.8]","[2505,2504.9,1000,0.1,1504.9,""smooth"",""up"",""up"",""good_move"",5716.9,3211.1,2321.9,2505.9,889.1,""smooth"",""left"",""left"",""good_move"",8962,3244.3,2833.7,5718,410.3,""smooth"",""up"",""up"",""good_move"",16064.3,7100.5,3011.3,12609.4,443.6,""smooth"",""up"",""up"",""good_move""]","",""
"6271","","<div style=""width:500px;"">
  <p>What determined the result of this run?</p>
  </div>","65","html-slider-response","10","207011","0.0-5.0-1.0","136","1","2025-07-21 09:29:06","1f75c3e559b7213887762d5229550c2b","71.138.89.249","Mozilla/5.0 (Windows NT 10.0; Win64; x64) AppleWebKit/537.36 (KHTML, like Gecko) Chrome/138.0.0.0 Safari/537.36","WebKit","Chrome","138.0.0.0","Windows","10.0","https://app.prolific.com/","en-US,en;q=0.9","5f0a7dec44c42c19a6c9f6d9","686e379bc37a29ffa5cdc956","687e071c6d799f84edacabd5","1","1","5f0a7dec44c42c19a6c9f6d9","1","1","2025-07-21T09:32:32.148Z","","","","","","","","","","","AttribQ","","50","","","","","","","","","","","","","","","","","","","","","","","","","","","","",""
"4910","","<div style=""width:500px;"">
  <p>How much control did you have over the ball?</p>
  </div>","42","html-slider-response","11","211923","0.0-5.0-2.0","136","1","2025-07-21 09:29:06","1f75c3e559b7213887762d5229550c2b","71.138.89.249","Mozilla/5.0 (Windows NT 10.0; Win64; x64) AppleWebKit/537.36 (KHTML, like Gecko) Chrome/138.0.0.0 Safari/537.36","WebKit","Chrome","138.0.0.0","Windows","10.0","https://app.prolific.com/","en-US,en;q=0.9","5f0a7dec44c42c19a6c9f6d9","686e379bc37a29ffa5cdc956","687e071c6d799f84edacabd5","1","1","5f0a7dec44c42c19a6c9f6d9","1","1","2025-07-21T09:32:37.061Z","","","","","","","","","","","ControlQ","","50","","","","","","","","","","","","","","","","","","","","","","","","","","","","",""
"6051","","<div style=""width:500px;"">
  <p>How would you describe your current emotional state?</p>
  </div>","42","html-slider-response","12","217976","0.0-5.0-3.0","136","1","2025-07-21 09:29:06","1f75c3e559b7213887762d5229550c2b","71.138.89.249","Mozilla/5.0 (Windows NT 10.0; Win64; x64) AppleWebKit/537.36 (KHTML, like Gecko) Chrome/138.0.0.0 Safari/537.36","WebKit","Chrome","138.0.0.0","Windows","10.0","https://app.prolific.com/","en-US,en;q=0.9","5f0a7dec44c42c19a6c9f6d9","686e379bc37a29ffa5cdc956","687e071c6d799f84edacabd5","1","1","5f0a7dec44c42c19a6c9f6d9","1","1","2025-07-21T09:32:43.113Z","","","","","","","","","","","StressQ","","50","","","","","","","","","","","","","","","","","","","","","","","","","","","","",""
"3643","","<div style=""width:500px;"">
  <p>What best describes how you currently feel?</p>
  </div>","76","html-slider-response","13","221621","0.0-5.0-4.0","136","1","2025-07-21 09:29:06","1f75c3e559b7213887762d5229550c2b","71.138.89.249","Mozilla/5.0 (Windows NT 10.0; Win64; x64) AppleWebKit/537.36 (KHTML, like Gecko) Chrome/138.0.0.0 Safari/537.36","WebKit","Chrome","138.0.0.0","Windows","10.0","https://app.prolific.com/","en-US,en;q=0.9","5f0a7dec44c42c19a6c9f6d9","686e379bc37a29ffa5cdc956","687e071c6d799f84edacabd5","1","1","5f0a7dec44c42c19a6c9f6d9","1","1","2025-07-21T09:32:46.759Z","","","","","","","","","","","MotivationQ","","50","","","","","","","","","","","","","","","","","","","","","","","","","","","","",""
"","","","","ctl-task-cpt","14","256752","0.0-5.0-0.1","136","1","2025-07-21 09:29:06","1f75c3e559b7213887762d5229550c2b","71.138.89.249","Mozilla/5.0 (Windows NT 10.0; Win64; x64) AppleWebKit/537.36 (KHTML, like Gecko) Chrome/138.0.0.0 Safari/537.36","WebKit","Chrome","138.0.0.0","Windows","10.0","https://app.prolific.com/","en-US,en;q=0.9","5f0a7dec44c42c19a6c9f6d9","686e379bc37a29ffa5cdc956","687e071c6d799f84edacabd5","1","1","5f0a7dec44c42c19a6c9f6d9","1","1","2025-07-21T09:33:21.889Z","","","","","","","","","","","","","","win-only","2","g1:SE,g2:NW","0.9","2","0","223973.4","1941.3","6942.2","32121.5","1","4","4","6","2","-4","-5","0","0","0","5000.9","3000","-2890","[""left"",""up""]","{""num_key_presses"":7,""num_perfect"":5,""num_errors"":1,""num_randdir"":1,""num_randdir_good_moves"":1,""num_whilered"":0,""num_whileblue"":0,""num_blue"":1,""num_good_moves"":5}","[424.4960517883301,414.21484288573265,0.2,424.4960517883301,414.21484288573265,103.4,864.1835517883301,384.68359288573265,211.3,1038.08980178833,376.48046788573265,317.1,1038.08980178833,376.48046788573265,421.2,1038.08980178833,376.48046788573265,527.4,1038.08980178833,376.48046788573265,630.4,1038.08980178833,376.48046788573265,730.5,1038.08980178833,376.48046788573265,835.4,1038.08980178833,376.48046788573265,936.4,1038.08980178833,376.48046788573265,1036.9,1038.08980178833,376.48046788573265,1139.6,1038.08980178833,376.48046788573265,1240.7,1038.08980178833,376.48046788573265,1345.9,1038.08980178833,376.48046788573265,1449.2,1038.08980178833,376.48046788573265,1550,1038.08980178833,376.48046788573265,1654.7,1038.08980178833,376.48046788573265,1756.4,1038.08980178833,376.48046788573265,1859.5,1038.08980178833,376.48046788573265,1960.8,1038.08980178833,376.48046788573265,2065.9,1038.08980178833,376.48046788573265,2172.5,1038.08980178833,376.48046788573265,2275.4,1038.08980178833,376.48046788573265,2380.6,1038.08980178833,376.48046788573265,2488.5,1038.08980178833,376.48046788573265,2588.8,1038.08980178833,376.48046788573265,2693.2,1038.08980178833,376.48046788573265,2794.8,1038.08980178833,376.48046788573265,2895.1,1038.08980178833,376.48046788573265,3003.7,1038.08980178833,376.48046788573265,3104.7,1038.08980178833,376.48046788573265,3210.6,1038.08980178833,376.48046788573265,3315.8,1038.08980178833,376.48046788573265,3421.3,1038.08980178833,376.48046788573265,3524.9,1038.08980178833,376.48046788573265,3629.3,1038.08980178833,376.48046788573265,3729.3,1038.08980178833,376.48046788573265,3830.2,1038.08980178833,376.48046788573265,3930.9,1038.08980178833,376.48046788573265,4035.5,1038.08980178833,376.48046788573265,4142.2,1038.08980178833,376.48046788573265,4247.8,1038.08980178833,376.48046788573265,4355.4,1038.08980178833,376.48046788573265,4460,1038.08980178833,376.48046788573265,4560.5,1038.08980178833,376.48046788573265,4664.9,1038.08980178833,376.48046788573265,4764.9,1038.08980178833,376.48046788573265,4871.9,1038.08980178833,376.48046788573265,4975]","[840.6,840.6,1000,0,-159.4,""error"",""-"",""-"",""no_move"",4440.5,3599.6,2134.2,1844.1,462.2,""smooth"",""down"",""down"",""bad_move"",7525.4,3083.8,2625.7,4441.7,458,""smooth"",""left"",""left"",""good_move"",10446.2,2919.1,2259.1,7527.1,660,""oops"",""up"",""up"",""good_move"",16440,5993.2,2065.8,13973.5,400.7,""smooth"",""up"",""up"",""good_move"",19783.6,3342.8,2820,16440.8,522.8,""smooth"",""up"",""up"",""good_move"",22871.6,3087.5,2638.7,19784.1,448.8,""smooth"",""left"",""left"",""good_move""]","",""
"3392","","<div style=""width:500px;"">
  <p>What determined the result of this run?</p>
  </div>","64","html-slider-response","15","260145","0.0-5.0-1.1","136","1","2025-07-21 09:29:06","1f75c3e559b7213887762d5229550c2b","71.138.89.249","Mozilla/5.0 (Windows NT 10.0; Win64; x64) AppleWebKit/537.36 (KHTML, like Gecko) Chrome/138.0.0.0 Safari/537.36","WebKit","Chrome","138.0.0.0","Windows","10.0","https://app.prolific.com/","en-US,en;q=0.9","5f0a7dec44c42c19a6c9f6d9","686e379bc37a29ffa5cdc956","687e071c6d799f84edacabd5","1","1","5f0a7dec44c42c19a6c9f6d9","1","1","2025-07-21T09:33:25.283Z","","","","","","","","","","","AttribQ","","50","","","","","","","","","","","","","","","","","","","","","","","","","","","","",""
"2669","","<div style=""width:500px;"">
  <p>How much control did you have over the ball?</p>
  </div>","53","html-slider-response","16","262817","0.0-5.0-2.1","136","1","2025-07-21 09:29:06","1f75c3e559b7213887762d5229550c2b","71.138.89.249","Mozilla/5.0 (Windows NT 10.0; Win64; x64) AppleWebKit/537.36 (KHTML, like Gecko) Chrome/138.0.0.0 Safari/537.36","WebKit","Chrome","138.0.0.0","Windows","10.0","https://app.prolific.com/","en-US,en;q=0.9","5f0a7dec44c42c19a6c9f6d9","686e379bc37a29ffa5cdc956","687e071c6d799f84edacabd5","1","1","5f0a7dec44c42c19a6c9f6d9","1","1","2025-07-21T09:33:27.954Z","","","","","","","","","","","ControlQ","","50","","","","","","","","","","","","","","","","","","","","","","","","","","","","",""
"2509","","<div style=""width:500px;"">
  <p>How would you describe your current emotional state?</p>
  </div>","49","html-slider-response","17","265329","0.0-5.0-3.1","136","1","2025-07-21 09:29:06","1f75c3e559b7213887762d5229550c2b","71.138.89.249","Mozilla/5.0 (Windows NT 10.0; Win64; x64) AppleWebKit/537.36 (KHTML, like Gecko) Chrome/138.0.0.0 Safari/537.36","WebKit","Chrome","138.0.0.0","Windows","10.0","https://app.prolific.com/","en-US,en;q=0.9","5f0a7dec44c42c19a6c9f6d9","686e379bc37a29ffa5cdc956","687e071c6d799f84edacabd5","1","1","5f0a7dec44c42c19a6c9f6d9","1","1","2025-07-21T09:33:30.467Z","","","","","","","","","","","StressQ","","50","","","","","","","","","","","","","","","","","","","","","","","","","","","","",""
"2795","","<div style=""width:500px;"">
  <p>What best describes how you currently feel?</p>
  </div>","72","html-slider-response","18","268127","0.0-5.0-4.1","136","1","2025-07-21 09:29:06","1f75c3e559b7213887762d5229550c2b","71.138.89.249","Mozilla/5.0 (Windows NT 10.0; Win64; x64) AppleWebKit/537.36 (KHTML, like Gecko) Chrome/138.0.0.0 Safari/537.36","WebKit","Chrome","138.0.0.0","Windows","10.0","https://app.prolific.com/","en-US,en;q=0.9","5f0a7dec44c42c19a6c9f6d9","686e379bc37a29ffa5cdc956","687e071c6d799f84edacabd5","1","1","5f0a7dec44c42c19a6c9f6d9","1","1","2025-07-21T09:33:33.264Z","","","","","","","","","","","MotivationQ","","50","","","","","","","","","","","","","","","","","","","","","","","","","","","","",""
"","","","","ctl-task-cpt","19","307774","0.0-5.0-0.2","136","1","2025-07-21 09:29:06","1f75c3e559b7213887762d5229550c2b","71.138.89.249","Mozilla/5.0 (Windows NT 10.0; Win64; x64) AppleWebKit/537.36 (KHTML, like Gecko) Chrome/138.0.0.0 Safari/537.36","WebKit","Chrome","138.0.0.0","Windows","10.0","https://app.prolific.com/","en-US,en;q=0.9","5f0a7dec44c42c19a6c9f6d9","686e379bc37a29ffa5cdc956","687e071c6d799f84edacabd5","1","1","5f0a7dec44c42c19a6c9f6d9","1","1","2025-07-21T09:34:12.911Z","","","","","","","","","","","","","","win-only","2","g1:SE,g2:NW","0.8","3","0","270480.7","2027.5","7031.2","36626.5","1","4","4","6","2","-4","-4","0","0","0","5003.6","3000","-2615","[""left"",""up""]","{""num_key_presses"":7,""num_perfect"":6,""num_errors"":0,""num_randdir"":1,""num_randdir_good_moves"":1,""num_whilered"":0,""num_whileblue"":0,""num_blue"":2,""num_good_moves"":3}","[417.9335517883301,414.21484288573265,0.3,417.9335517883301,414.21484288573265,102.8,424.4960517883301,414.21484288573265,204.5,765.7460517883301,447.02734288573265,314,790.3554267883301,450.30859288573265,417.8,854.3398017883301,450.30859288573265,519.9,857.6210517883301,450.30859288573265,624.7,864.1835517883301,450.30859288573265,729.6,890.4335517883301,451.94921788573265,831.7,1006.9179267883301,445.38671788573265,932.4,1006.9179267883301,445.38671788573265,1033.6,1006.9179267883301,445.38671788573265,1133.6,1006.9179267883301,445.38671788573265,1233.7,1006.9179267883301,445.38671788573265,1334.9,1006.9179267883301,445.38671788573265,1435.6,1006.9179267883301,445.38671788573265,1537.9,1006.9179267883301,445.38671788573265,1639.3,1006.9179267883301,445.38671788573265,1749.9,1006.9179267883301,445.38671788573265,1853.2,1006.9179267883301,445.38671788573265,1963.3,1006.9179267883301,445.38671788573265,2063.6,1006.9179267883301,445.38671788573265,2164.6,1006.9179267883301,445.38671788573265,2268.3,1006.9179267883301,445.38671788573265,2368.4,1006.9179267883301,445.38671788573265,2469.1,1006.9179267883301,445.38671788573265,2573.1,1006.9179267883301,445.38671788573265,2682.2,1006.9179267883301,445.38671788573265,2783.1,1006.9179267883301,445.38671788573265,2883.7,1006.9179267883301,445.38671788573265,2984.1,1006.9179267883301,445.38671788573265,3087.3,1006.9179267883301,445.38671788573265,3188.3,1006.9179267883301,445.38671788573265,3288.4,1006.9179267883301,445.38671788573265,3393.2,1006.9179267883301,445.38671788573265,3495.8,1006.9179267883301,445.38671788573265,3599.7,1006.9179267883301,445.38671788573265,3704.9,1006.9179267883301,445.38671788573265,3814.5,1006.9179267883301,445.38671788573265,3916.8,1006.9179267883301,445.38671788573265,4019.8,1006.9179267883301,445.38671788573265,4123.2,1006.9179267883301,445.38671788573265,4229.7,1006.9179267883301,445.38671788573265,4333.4,1006.9179267883301,445.38671788573265,4434.3,1006.9179267883301,445.38671788573265,4539.4,1006.9179267883301,445.38671788573265,4647.5,1006.9179267883301,445.38671788573265,4749.9,1006.9179267883301,445.38671788573265,4853.5,1006.9179267883301,445.38671788573265,4962.2]","[1561.1,1561.1,1000,0,561.2,""smooth"",""right"",""right"",""bad_move"",4891.9,3329.5,2882.7,1562.4,446.8,""smooth"",""down"",""down"",""bad_move"",11649.3,6755.8,2999.4,8214.3,435.6,""smooth"",""right"",""right"",""bad_move"",14315.5,2665.5,2227.3,11650,438.2,""smooth"",""down"",""down"",""bad_move"",21590.7,7274.8,3314.1,17861.7,414.9,""oops"",""up"",""left"",""good_move"",24657.1,3066.1,2609.7,21591.1,456.4,""smooth"",""up"",""up"",""good_move"",27390.8,2733.1,2303.2,24657.7,429.9,""smooth"",""up"",""up"",""good_move""]","",""
"3052","","<div style=""width:500px;"">
  <p>What determined the result of this run?</p>
  </div>","74","html-slider-response","20","310828","0.0-5.0-1.2","136","1","2025-07-21 09:29:06","1f75c3e559b7213887762d5229550c2b","71.138.89.249","Mozilla/5.0 (Windows NT 10.0; Win64; x64) AppleWebKit/537.36 (KHTML, like Gecko) Chrome/138.0.0.0 Safari/537.36","WebKit","Chrome","138.0.0.0","Windows","10.0","https://app.prolific.com/","en-US,en;q=0.9","5f0a7dec44c42c19a6c9f6d9","686e379bc37a29ffa5cdc956","687e071c6d799f84edacabd5","1","1","5f0a7dec44c42c19a6c9f6d9","1","1","2025-07-21T09:34:15.965Z","","","","","","","","","","","AttribQ","","50","","","","","","","","","","","","","","","","","","","","","","","","","","","","",""
"2461","","<div style=""width:500px;"">
  <p>How much control did you have over the ball?</p>
  </div>","64","html-slider-response","21","313290","0.0-5.0-2.2","136","1","2025-07-21 09:29:06","1f75c3e559b7213887762d5229550c2b","71.138.89.249","Mozilla/5.0 (Windows NT 10.0; Win64; x64) AppleWebKit/537.36 (KHTML, like Gecko) Chrome/138.0.0.0 Safari/537.36","WebKit","Chrome","138.0.0.0","Windows","10.0","https://app.prolific.com/","en-US,en;q=0.9","5f0a7dec44c42c19a6c9f6d9","686e379bc37a29ffa5cdc956","687e071c6d799f84edacabd5","1","1","5f0a7dec44c42c19a6c9f6d9","1","1","2025-07-21T09:34:18.427Z","","","","","","","","","","","ControlQ","","50","","","","","","","","","","","","","","","","","","","","","","","","","","","","",""
"2572","","<div style=""width:500px;"">
  <p>How would you describe your current emotional state?</p>
  </div>","65","html-slider-response","22","315864","0.0-5.0-3.2","136","1","2025-07-21 09:29:06","1f75c3e559b7213887762d5229550c2b","71.138.89.249","Mozilla/5.0 (Windows NT 10.0; Win64; x64) AppleWebKit/537.36 (KHTML, like Gecko) Chrome/138.0.0.0 Safari/537.36","WebKit","Chrome","138.0.0.0","Windows","10.0","https://app.prolific.com/","en-US,en;q=0.9","5f0a7dec44c42c19a6c9f6d9","686e379bc37a29ffa5cdc956","687e071c6d799f84edacabd5","1","1","5f0a7dec44c42c19a6c9f6d9","1","1","2025-07-21T09:34:21.001Z","","","","","","","","","","","StressQ","","50","","","","","","","","","","","","","","","","","","","","","","","","","","","","",""
"3743","","<div style=""width:500px;"">
  <p>What best describes how you currently feel?</p>
  </div>","76","html-slider-response","23","319610","0.0-5.0-4.2","136","1","2025-07-21 09:29:06","1f75c3e559b7213887762d5229550c2b","71.138.89.249","Mozilla/5.0 (Windows NT 10.0; Win64; x64) AppleWebKit/537.36 (KHTML, like Gecko) Chrome/138.0.0.0 Safari/537.36","WebKit","Chrome","138.0.0.0","Windows","10.0","https://app.prolific.com/","en-US,en;q=0.9","5f0a7dec44c42c19a6c9f6d9","686e379bc37a29ffa5cdc956","687e071c6d799f84edacabd5","1","1","5f0a7dec44c42c19a6c9f6d9","1","1","2025-07-21T09:34:24.748Z","","","","","","","","","","","MotivationQ","","50","","","","","","","","","","","","","","","","","","","","","","","","","","","","",""
"","","","","ctl-task-cpt","24","363246","0.0-5.0-0.3","136","1","2025-07-21 09:29:06","1f75c3e559b7213887762d5229550c2b","71.138.89.249","Mozilla/5.0 (Windows NT 10.0; Win64; x64) AppleWebKit/537.36 (KHTML, like Gecko) Chrome/138.0.0.0 Safari/537.36","WebKit","Chrome","138.0.0.0","Windows","10.0","https://app.prolific.com/","en-US,en;q=0.9","5f0a7dec44c42c19a6c9f6d9","686e379bc37a29ffa5cdc956","687e071c6d799f84edacabd5","1","1","5f0a7dec44c42c19a6c9f6d9","1","1","2025-07-21T09:35:08.383Z","","","","","","","","","","","","","","win-only","2","g1:SE,g2:NW","0.7","4","0","321969.3","1307.8","6312.1","40603.2","1","4","8","6","2","-8","-9","0","0","0","5004.3","3000","-2680","[""left"",""up""]","{""num_key_presses"":10,""num_perfect"":7,""num_errors"":1,""num_randdir"":2,""num_randdir_good_moves"":0,""num_whilered"":0,""num_whileblue"":1,""num_blue"":2,""num_good_moves"":7}","[417.9335517883301,414.21484288573265,0.1,417.9335517883301,410.93359288573265,103.9,608.2460517883301,397.80859288573265,208.1,711.6054267883301,381.40234288573265,318.9,969.1835517883301,340.38671788573265,429.4,969.1835517883301,340.38671788573265,532.5,969.1835517883301,340.38671788573265,633.1,972.4648017883301,340.38671788573265,733.9,1090.58980178833,327.26171788573265,835.6,1092.23042678833,325.62109288573265,938.2,1092.23042678833,325.62109288573265,1038.5,1092.23042678833,325.62109288573265,1144,1092.23042678833,325.62109288573265,1249,1092.23042678833,325.62109288573265,1349.4,1092.23042678833,325.62109288573265,1453.9,1092.23042678833,325.62109288573265,1554.4,1092.23042678833,325.62109288573265,1658.7,1092.23042678833,325.62109288573265,1763.1,1092.23042678833,325.62109288573265,1868,1092.23042678833,325.62109288573265,1968.9,1092.23042678833,325.62109288573265,2073.1,1092.23042678833,325.62109288573265,2173.4,1092.23042678833,325.62109288573265,2273.9,1092.23042678833,325.62109288573265,2378.8,1092.23042678833,325.62109288573265,2479.2,1092.23042678833,325.62109288573265,2583.5,1092.23042678833,325.62109288573265,2683.6,1092.23042678833,325.62109288573265,2794.6,1092.23042678833,325.62109288573265,2902.2,1092.23042678833,325.62109288573265,3005.8,1092.23042678833,325.62109288573265,3112.6,1092.23042678833,325.62109288573265,3214,1092.23042678833,325.62109288573265,3318.6,1092.23042678833,325.62109288573265,3418.7,1092.23042678833,325.62109288573265,3518.9,1092.23042678833,325.62109288573265,3629.6,1092.23042678833,325.62109288573265,3732.8,1092.23042678833,325.62109288573265,3833.4,1092.23042678833,325.62109288573265,3933.4,1092.23042678833,325.62109288573265,4033.8,1092.23042678833,325.62109288573265,4138.6,1092.23042678833,325.62109288573265,4238.6,1092.23042678833,325.62109288573265,4341.8,1092.23042678833,325.62109288573265,4448.8,1092.23042678833,325.62109288573265,4553.5,1092.23042678833,325.62109288573265,4653.8,1092.23042678833,325.62109288573265,4758.5,1092.23042678833,325.62109288573265,4859.4,1092.23042678833,325.62109288573265,4961.8]","[1442.4,1442.4,1000,0,442.5,""smooth"",""up"",""up"",""good_move"",7989.6,6545.8,2866.2,4693.6,429.8,""smooth"",""up"",""up"",""good_move"",10641.8,2651.5,2175.9,7990.3,475.6,""smooth"",""up"",""up"",""good_move"",13564.7,2922.3,2544.2,10642.4,378.2,""smooth"",""left"",""left"",""good_move"",16531.2,2964.4,2529.2,13566.8,435.2,""oops"",""left"",""right"",""bad_move"",19796.2,3264.6,2951.6,16531.6,313,""smooth"",""left"",""left"",""good_move"",22249.7,2452.9,2064.1,19796.8,388.8,""smooth"",""left"",""left"",""good_move"",25261.4,3011.2,2669.8,22250.2,341.4,""while_blue"",""left"",""right"",""bad_move"",28843.2,3581.1,3212.9,25262.1,368.3,""smooth"",""left"",""left"",""good_move"",31591.8,2747.8,2328.7,28844,419.1,""oops"",""left"",""right"",""bad_move""]","",""
"4988","","<div style=""width:500px;"">
  <p>What determined the result of this run?</p>
  </div>","14","html-slider-response","25","368237","0.0-5.0-1.3","136","1","2025-07-21 09:29:06","1f75c3e559b7213887762d5229550c2b","71.138.89.249","Mozilla/5.0 (Windows NT 10.0; Win64; x64) AppleWebKit/537.36 (KHTML, like Gecko) Chrome/138.0.0.0 Safari/537.36","WebKit","Chrome","138.0.0.0","Windows","10.0","https://app.prolific.com/","en-US,en;q=0.9","5f0a7dec44c42c19a6c9f6d9","686e379bc37a29ffa5cdc956","687e071c6d799f84edacabd5","1","1","5f0a7dec44c42c19a6c9f6d9","1","1","2025-07-21T09:35:13.374Z","","","","","","","","","","","AttribQ","","50","","","","","","","","","","","","","","","","","","","","","","","","","","","","",""
"3598","","<div style=""width:500px;"">
  <p>How much control did you have over the ball?</p>
  </div>","16","html-slider-response","26","371837","0.0-5.0-2.3","136","1","2025-07-21 09:29:06","1f75c3e559b7213887762d5229550c2b","71.138.89.249","Mozilla/5.0 (Windows NT 10.0; Win64; x64) AppleWebKit/537.36 (KHTML, like Gecko) Chrome/138.0.0.0 Safari/537.36","WebKit","Chrome","138.0.0.0","Windows","10.0","https://app.prolific.com/","en-US,en;q=0.9","5f0a7dec44c42c19a6c9f6d9","686e379bc37a29ffa5cdc956","687e071c6d799f84edacabd5","1","1","5f0a7dec44c42c19a6c9f6d9","1","1","2025-07-21T09:35:16.975Z","","","","","","","","","","","ControlQ","","50","","","","","","","","","","","","","","","","","","","","","","","","","","","","",""
"2890","","<div style=""width:500px;"">
  <p>How would you describe your current emotional state?</p>
  </div>","100","html-slider-response","27","374729","0.0-5.0-3.3","136","1","2025-07-21 09:29:06","1f75c3e559b7213887762d5229550c2b","71.138.89.249","Mozilla/5.0 (Windows NT 10.0; Win64; x64) AppleWebKit/537.36 (KHTML, like Gecko) Chrome/138.0.0.0 Safari/537.36","WebKit","Chrome","138.0.0.0","Windows","10.0","https://app.prolific.com/","en-US,en;q=0.9","5f0a7dec44c42c19a6c9f6d9","686e379bc37a29ffa5cdc956","687e071c6d799f84edacabd5","1","1","5f0a7dec44c42c19a6c9f6d9","1","1","2025-07-21T09:35:19.866Z","","","","","","","","","","","StressQ","","50","","","","","","","","","","","","","","","","","","","","","","","","","","","","",""
"4619","","<div style=""width:500px;"">
  <p>What best describes how you currently feel?</p>
  </div>","57","html-slider-response","28","379349","0.0-5.0-4.3","136","1","2025-07-21 09:29:06","1f75c3e559b7213887762d5229550c2b","71.138.89.249","Mozilla/5.0 (Windows NT 10.0; Win64; x64) AppleWebKit/537.36 (KHTML, like Gecko) Chrome/138.0.0.0 Safari/537.36","WebKit","Chrome","138.0.0.0","Windows","10.0","https://app.prolific.com/","en-US,en;q=0.9","5f0a7dec44c42c19a6c9f6d9","686e379bc37a29ffa5cdc956","687e071c6d799f84edacabd5","1","1","5f0a7dec44c42c19a6c9f6d9","1","1","2025-07-21T09:35:24.486Z","","","","","","","","","","","MotivationQ","","50","","","","","","","","","","","","","","","","","","","","","","","","","","","","",""
"","","","","ctl-task-cpt","29","419963","0.0-5.0-0.4","136","1","2025-07-21 09:29:06","1f75c3e559b7213887762d5229550c2b","71.138.89.249","Mozilla/5.0 (Windows NT 10.0; Win64; x64) AppleWebKit/537.36 (KHTML, like Gecko) Chrome/138.0.0.0 Safari/537.36","WebKit","Chrome","138.0.0.0","Windows","10.0","https://app.prolific.com/","en-US,en;q=0.9","5f0a7dec44c42c19a6c9f6d9","686e379bc37a29ffa5cdc956","687e071c6d799f84edacabd5","1","1","5f0a7dec44c42c19a6c9f6d9","1","1","2025-07-21T09:36:05.100Z","","","","","","","","","","","","","","win-only","0","g1:NW,g2:SE","0.6","5","0","381702.1","1825.4","6829.5","37585.6","1","4","8","6","1","-1","-2","0","0","0","5004.1","3000","-2560","[""left"",""up""]","{""num_key_presses"":10,""num_perfect"":5,""num_errors"":1,""num_randdir"":4,""num_randdir_good_moves"":1,""num_whilered"":0,""num_whileblue"":1,""num_blue"":1,""num_good_moves"":6}","[414.6523017883301,427.33984288573265,0.7,414.6523017883301,427.33984288573265,105.9,518.0116767883301,409.29296788573265,209,728.0116767883301,381.40234288573265,317.9,931.4491767883301,337.10546788573265,420,1043.01167678833,319.05859288573265,520.2,1043.01167678833,319.05859288573265,620.8,1043.01167678833,319.05859288573265,735.2,1043.01167678833,319.05859288573265,836.4,1043.01167678833,319.05859288573265,936.5,1043.01167678833,319.05859288573265,1046.1,1043.01167678833,319.05859288573265,1150.7,1043.01167678833,319.05859288573265,1250.9,1043.01167678833,319.05859288573265,1356,1043.01167678833,319.05859288573265,1465,1043.01167678833,319.05859288573265,1568,1043.01167678833,319.05859288573265,1669.1,1043.01167678833,319.05859288573265,1770.7,1043.01167678833,319.05859288573265,1883.4,1043.01167678833,319.05859288573265,1985.5,1043.01167678833,319.05859288573265,2097.3,1043.01167678833,319.05859288573265,2200.7,1043.01167678833,319.05859288573265,2302.3,1043.01167678833,319.05859288573265,2417.8,1043.01167678833,319.05859288573265,2519.9,1043.01167678833,319.05859288573265,2621.3,1043.01167678833,319.05859288573265,2721.6,1043.01167678833,319.05859288573265,2828.2,1043.01167678833,319.05859288573265,2934.5,1043.01167678833,319.05859288573265,3035.1,1043.01167678833,319.05859288573265,3136,1043.01167678833,319.05859288573265,3236.3,1043.01167678833,319.05859288573265,3336.3,1043.01167678833,319.05859288573265,3445.7,1043.01167678833,319.05859288573265,3546.3,1043.01167678833,319.05859288573265,3651.7,1043.01167678833,319.05859288573265,3761.6,1043.01167678833,319.05859288573265,3865.9,1043.01167678833,319.05859288573265,3967.9,1043.01167678833,319.05859288573265,4071.1,1043.01167678833,319.05859288573265,4173.8,1043.01167678833,319.05859288573265,4275.1,1043.01167678833,319.05859288573265,4391.4,1043.01167678833,319.05859288573265,4496.3,1043.01167678833,319.05859288573265,4597.9,1043.01167678833,319.05859288573265,4700.9,1043.01167678833,319.05859288573265,4801.7,1043.01167678833,319.05859288573265,4912.4]","[1512,1512,1000,0.1,511.9,""smooth"",""up"",""up"",""good_move"",3964.8,2451.2,2060.6,1513.6,390.6,""oops"",""up"",""left"",""good_move"",6880.8,2914.8,2520.3,3966,394.5,""oops"",""left"",""right"",""bad_move"",10306.2,3424.6,3052.4,6881.6,372.2,""smooth"",""up"",""up"",""good_move"",13256.9,2950.3,2545,10306.6,405.3,""oops"",""left"",""right"",""bad_move"",15756.5,2499.3,2136.4,13257.2,362.9,""smooth"",""left"",""left"",""good_move"",18632.1,2874.9,2529,15757.2,345.9,""while_blue"",""left"",""right"",""bad_move"",21056.9,2424.5,2030.3,18632.4,394.2,""smooth"",""left"",""left"",""good_move"",24024.9,2967.4,2571.3,21057.5,396.1,""smooth"",""left"",""left"",""good_move"",27630.1,3604.6,3255,24025.5,349.6,""oops"",""left"",""right"",""bad_move""]","",""
"81507","","<div style=""width:500px;"">
  <p>What determined the result of this run?</p>
  </div>","17","html-slider-response","30","501472","0.0-5.0-1.4","136","1","2025-07-21 09:29:06","1f75c3e559b7213887762d5229550c2b","71.138.89.249","Mozilla/5.0 (Windows NT 10.0; Win64; x64) AppleWebKit/537.36 (KHTML, like Gecko) Chrome/138.0.0.0 Safari/537.36","WebKit","Chrome","138.0.0.0","Windows","10.0","https://app.prolific.com/","en-US,en;q=0.9","5f0a7dec44c42c19a6c9f6d9","686e379bc37a29ffa5cdc956","687e071c6d799f84edacabd5","1","1","5f0a7dec44c42c19a6c9f6d9","1","1","2025-07-21T09:37:26.610Z","","","","","","","","","","","AttribQ","","50","","","","","","","","","","","","","","","","","","","","","","","","","","","","",""
"3973","","<div style=""width:500px;"">
  <p>How much control did you have over the ball?</p>
  </div>","25","html-slider-response","31","505447","0.0-5.0-2.4","136","1","2025-07-21 09:29:06","1f75c3e559b7213887762d5229550c2b","71.138.89.249","Mozilla/5.0 (Windows NT 10.0; Win64; x64) AppleWebKit/537.36 (KHTML, like Gecko) Chrome/138.0.0.0 Safari/537.36","WebKit","Chrome","138.0.0.0","Windows","10.0","https://app.prolific.com/","en-US,en;q=0.9","5f0a7dec44c42c19a6c9f6d9","686e379bc37a29ffa5cdc956","687e071c6d799f84edacabd5","1","1","5f0a7dec44c42c19a6c9f6d9","1","1","2025-07-21T09:37:30.584Z","","","","","","","","","","","ControlQ","","50","","","","","","","","","","","","","","","","","","","","","","","","","","","","",""
"2601","","<div style=""width:500px;"">
  <p>How would you describe your current emotional state?</p>
  </div>","85","html-slider-response","32","508049","0.0-5.0-3.4","136","1","2025-07-21 09:29:06","1f75c3e559b7213887762d5229550c2b","71.138.89.249","Mozilla/5.0 (Windows NT 10.0; Win64; x64) AppleWebKit/537.36 (KHTML, like Gecko) Chrome/138.0.0.0 Safari/537.36","WebKit","Chrome","138.0.0.0","Windows","10.0","https://app.prolific.com/","en-US,en;q=0.9","5f0a7dec44c42c19a6c9f6d9","686e379bc37a29ffa5cdc956","687e071c6d799f84edacabd5","1","1","5f0a7dec44c42c19a6c9f6d9","1","1","2025-07-21T09:37:33.187Z","","","","","","","","","","","StressQ","","50","","","","","","","","","","","","","","","","","","","","","","","","","","","","",""
"2257","","<div style=""width:500px;"">
  <p>What best describes how you currently feel?</p>
  </div>","69","html-slider-response","33","510308","0.0-5.0-4.4","136","1","2025-07-21 09:29:06","1f75c3e559b7213887762d5229550c2b","71.138.89.249","Mozilla/5.0 (Windows NT 10.0; Win64; x64) AppleWebKit/537.36 (KHTML, like Gecko) Chrome/138.0.0.0 Safari/537.36","WebKit","Chrome","138.0.0.0","Windows","10.0","https://app.prolific.com/","en-US,en;q=0.9","5f0a7dec44c42c19a6c9f6d9","686e379bc37a29ffa5cdc956","687e071c6d799f84edacabd5","1","1","5f0a7dec44c42c19a6c9f6d9","1","1","2025-07-21T09:37:35.445Z","","","","","","","","","","","MotivationQ","","50","","","","","","","","","","","","","","","","","","","","","","","","","","","","",""
"","","","","ctl-task-cpt","34","536004","0.0-5.0-0.5","136","1","2025-07-21 09:29:06","1f75c3e559b7213887762d5229550c2b","71.138.89.249","Mozilla/5.0 (Windows NT 10.0; Win64; x64) AppleWebKit/537.36 (KHTML, like Gecko) Chrome/138.0.0.0 Safari/537.36","WebKit","Chrome","138.0.0.0","Windows","10.0","https://app.prolific.com/","en-US,en;q=0.9","5f0a7dec44c42c19a6c9f6d9","686e379bc37a29ffa5cdc956","687e071c6d799f84edacabd5","1","1","5f0a7dec44c42c19a6c9f6d9","1","1","2025-07-21T09:38:01.141Z","","","","","","","","","","","","","","win-only","1","g1:NE,g2:SW","0.5","6","0","512661.4","935.6","5936.6","22681.6","1","4","4","6","1","1","1","1","0","0.007575757575757576","5001","3000","1925","[""up"",""right""]","{""num_key_presses"":4,""num_perfect"":4,""num_errors"":0,""num_randdir"":0,""num_randdir_good_moves"":0,""num_whilered"":0,""num_whileblue"":0,""num_blue"":2,""num_good_moves"":4}","[408.0898017883301,407.65234288573265,1.2,408.0898017883301,407.65234288573265,109.6,408.0898017883301,407.65234288573265,215.5,408.0898017883301,407.65234288573265,316,408.0898017883301,407.65234288573265,416.5,408.0898017883301,407.65234288573265,529.2,408.0898017883301,407.65234288573265,630.6,408.0898017883301,407.65234288573265,744.7,408.0898017883301,407.65234288573265,845,408.0898017883301,407.65234288573265,947.2,408.0898017883301,407.65234288573265,1047.3,408.0898017883301,407.65234288573265,1150.3,408.0898017883301,407.65234288573265,1261.6,408.0898017883301,407.65234288573265,1363.5,408.0898017883301,407.65234288573265,1464.6,408.0898017883301,407.65234288573265,1566.1,408.0898017883301,407.65234288573265,1666.8,408.0898017883301,407.65234288573265,1777.8,408.0898017883301,407.65234288573265,1884.2,408.0898017883301,407.65234288573265,2002.9,408.0898017883301,407.65234288573265,2106,408.0898017883301,407.65234288573265,2206.9,408.0898017883301,407.65234288573265,2311.2,408.0898017883301,407.65234288573265,2411.4,408.0898017883301,407.65234288573265,2515.5,408.0898017883301,407.65234288573265,2627.1,408.0898017883301,407.65234288573265,2729.7,408.0898017883301,407.65234288573265,2835.1,408.0898017883301,407.65234288573265,2945.1,408.0898017883301,407.65234288573265,3048.9,408.0898017883301,407.65234288573265,3149.7,408.0898017883301,407.65234288573265,3250.2,1144.73042678833,432.26171788573265,3350.9,1234.96480178833,437.18359288573265,3455.8,1234.96480178833,437.18359288573265,3557,1226.76167678833,437.18359288573265,3664.5,1072.54292678833,417.49609288573265,3765,1047.93355178833,415.85546788573265,3872.8,1047.93355178833,415.85546788573265,3976.3,1047.93355178833,414.21484288573265,4078.8,1047.93355178833,414.21484288573265,4181.2,1047.93355178833,414.21484288573265,4288,1047.93355178833,414.21484288573265,4400.2,1047.93355178833,414.21484288573265,4514,1047.93355178833,414.21484288573265,4615,1047.93355178833,414.21484288573265,4716.2,1047.93355178833,414.21484288573265,4816.2,1047.93355178833,414.21484288573265,4921.8]","[1375.9,1375.9,1000,0,375.9,""smooth"",""up"",""up"",""good_move"",4049.4,2671.9,2286.3,1377.6,385.5,""smooth"",""right"",""right"",""good_move"",10031.3,5981.4,2271.4,7377.2,382.7,""smooth"",""up"",""up"",""good_move"",16610.1,6578.6,3186.6,13099.2,324.3,""smooth"",""right"",""right"",""good_move""]","",""
"4384","","<div style=""width:500px;"">
  <p>What determined the result of this run?</p>
  </div>","86","html-slider-response","35","540391","0.0-5.0-1.5","136","1","2025-07-21 09:29:06","1f75c3e559b7213887762d5229550c2b","71.138.89.249","Mozilla/5.0 (Windows NT 10.0; Win64; x64) AppleWebKit/537.36 (KHTML, like Gecko) Chrome/138.0.0.0 Safari/537.36","WebKit","Chrome","138.0.0.0","Windows","10.0","https://app.prolific.com/","en-US,en;q=0.9","5f0a7dec44c42c19a6c9f6d9","686e379bc37a29ffa5cdc956","687e071c6d799f84edacabd5","1","1","5f0a7dec44c42c19a6c9f6d9","1","1","2025-07-21T09:38:05.528Z","","","","","","","","","","","AttribQ","","50","","","","","","","","","","","","","","","","","","","","","","","","","","","","",""
"3443","","<div style=""width:500px;"">
  <p>How much control did you have over the ball?</p>
  </div>","91","html-slider-response","36","543836","0.0-5.0-2.5","136","1","2025-07-21 09:29:06","1f75c3e559b7213887762d5229550c2b","71.138.89.249","Mozilla/5.0 (Windows NT 10.0; Win64; x64) AppleWebKit/537.36 (KHTML, like Gecko) Chrome/138.0.0.0 Safari/537.36","WebKit","Chrome","138.0.0.0","Windows","10.0","https://app.prolific.com/","en-US,en;q=0.9","5f0a7dec44c42c19a6c9f6d9","686e379bc37a29ffa5cdc956","687e071c6d799f84edacabd5","1","1","5f0a7dec44c42c19a6c9f6d9","1","1","2025-07-21T09:38:08.973Z","","","","","","","","","","","ControlQ","","50","","","","","","","","","","","","","","","","","","","","","","","","","","","","",""
"3421","","<div style=""width:500px;"">
  <p>How would you describe your current emotional state?</p>
  </div>","29","html-slider-response","37","547258","0.0-5.0-3.5","136","1","2025-07-21 09:29:06","1f75c3e559b7213887762d5229550c2b","71.138.89.249","Mozilla/5.0 (Windows NT 10.0; Win64; x64) AppleWebKit/537.36 (KHTML, like Gecko) Chrome/138.0.0.0 Safari/537.36","WebKit","Chrome","138.0.0.0","Windows","10.0","https://app.prolific.com/","en-US,en;q=0.9","5f0a7dec44c42c19a6c9f6d9","686e379bc37a29ffa5cdc956","687e071c6d799f84edacabd5","1","1","5f0a7dec44c42c19a6c9f6d9","1","1","2025-07-21T09:38:12.396Z","","","","","","","","","","","StressQ","","50","","","","","","","","","","","","","","","","","","","","","","","","","","","","",""
"3181","","<div style=""width:500px;"">
  <p>What best describes how you currently feel?</p>
  </div>","85","html-slider-response","38","550441","0.0-5.0-4.5","136","1","2025-07-21 09:29:06","1f75c3e559b7213887762d5229550c2b","71.138.89.249","Mozilla/5.0 (Windows NT 10.0; Win64; x64) AppleWebKit/537.36 (KHTML, like Gecko) Chrome/138.0.0.0 Safari/537.36","WebKit","Chrome","138.0.0.0","Windows","10.0","https://app.prolific.com/","en-US,en;q=0.9","5f0a7dec44c42c19a6c9f6d9","686e379bc37a29ffa5cdc956","687e071c6d799f84edacabd5","1","1","5f0a7dec44c42c19a6c9f6d9","1","1","2025-07-21T09:38:15.579Z","","","","","","","","","","","MotivationQ","","50","","","","","","","","","","","","","","","","","","","","","","","","","","","","",""
"","","","","ctl-task-cpt","39","600812","0.0-5.0-0.6","136","1","2025-07-21 09:29:06","1f75c3e559b7213887762d5229550c2b","71.138.89.249","Mozilla/5.0 (Windows NT 10.0; Win64; x64) AppleWebKit/537.36 (KHTML, like Gecko) Chrome/138.0.0.0 Safari/537.36","WebKit","Chrome","138.0.0.0","Windows","10.0","https://app.prolific.com/","en-US,en;q=0.9","5f0a7dec44c42c19a6c9f6d9","686e379bc37a29ffa5cdc956","687e071c6d799f84edacabd5","1","1","5f0a7dec44c42c19a6c9f6d9","1","1","2025-07-21T09:39:05.949Z","","","","","","","","","","","","","","win-only","0","g1:NW,g2:SE","0.4","7","0","552793.3","1359.3","6364.6","47348.1","1","4","8","6","2","-8","-8","0","1","0","5005.3","3000","-2180","[""down"",""right""]","{""num_key_presses"":8,""num_perfect"":4,""num_errors"":0,""num_randdir"":4,""num_randdir_good_moves"":1,""num_whilered"":0,""num_whileblue"":0,""num_blue"":5,""num_good_moves"":5}","[427.7773017883301,415.85546788573265,0.4,426.1366767883301,415.85546788573265,109.6,426.1366767883301,415.85546788573265,211.6,435.9804267883301,415.85546788573265,327.5,522.9335517883301,414.21484288573265,433.5,526.2148017883301,415.85546788573265,533.9,526.2148017883301,415.85546788573265,637.9,526.2148017883301,415.85546788573265,738.7,526.2148017883301,415.85546788573265,841.4,526.2148017883301,415.85546788573265,947.3,526.2148017883301,415.85546788573265,1047.5,526.2148017883301,415.85546788573265,1155.4,526.2148017883301,415.85546788573265,1255.8,526.2148017883301,415.85546788573265,1357.8,526.2148017883301,415.85546788573265,1458,529.4960517883301,414.21484288573265,1562.2,529.4960517883301,414.21484288573265,1666.5,529.4960517883301,414.21484288573265,1768.1,529.4960517883301,414.21484288573265,1877.7,529.4960517883301,414.21484288573265,1977.8,529.4960517883301,414.21484288573265,2079.5,529.4960517883301,414.21484288573265,2193.1,529.4960517883301,414.21484288573265,2298.8,529.4960517883301,414.21484288573265,2401,529.4960517883301,414.21484288573265,2511.1,529.4960517883301,414.21484288573265,2611.6,529.4960517883301,404.37109288573265,2712,529.4960517883301,394.52734288573265,2812.8,693.5585517883301,345.30859288573265,2929.1,791.9960517883301,335.46484288573265,3032,823.1679267883301,325.62109288573265,3133.6,885.5116767883301,320.69921788573265,3235.3,892.0741767883301,319.05859288573265,3336.3,892.0741767883301,319.05859288573265,3436.7,892.0741767883301,319.05859288573265,3543.1,892.0741767883301,319.05859288573265,3643.9,892.0741767883301,319.05859288573265,3747.2,892.0741767883301,319.05859288573265,3853.8,892.0741767883301,319.05859288573265,3954.2,892.0741767883301,319.05859288573265,4055.4,892.0741767883301,319.05859288573265,4159.5,892.0741767883301,319.05859288573265,4261.6,926.5273017883301,314.13671788573265,4366,949.4960517883301,310.85546788573265,4466.9,949.4960517883301,312.49609288573265,4568.9,949.4960517883301,312.49609288573265,4672.4,949.4960517883301,312.49609288573265,4773.7,949.4960517883301,312.49609288573265,4877.6,949.4960517883301,312.49609288573265,4977.7]","[1351.9,1351.9,1000,0,351.9,""smooth"",""right"",""right"",""good_move"",3993.5,2641.1,2183.5,1352.4,457.6,""oops"",""right"",""down"",""good_move"",7208.8,3213.6,2807.7,3995.2,405.9,""oops"",""down"",""left"",""bad_move"",12110.9,4897.4,2050,9695.7,365.2,""smooth"",""down"",""down"",""good_move"",24686.4,12573.9,2634.8,21622.6,429.1,""smooth"",""down"",""down"",""good_move"",28039.8,3352.5,2837.3,24687.3,515.2,""smooth"",""right"",""right"",""good_move"",31411.7,3371.2,2995.4,28040.5,375.8,""oops"",""right"",""left"",""bad_move"",38014,6601.4,1642.8,35904,467.2,""oops"",""right"",""left"",""bad_move""]","",""
"6597","","<div style=""width:500px;"">
  <p>What determined the result of this run?</p>
  </div>","8","html-slider-response","40","607410","0.0-5.0-1.6","136","1","2025-07-21 09:29:06","1f75c3e559b7213887762d5229550c2b","71.138.89.249","Mozilla/5.0 (Windows NT 10.0; Win64; x64) AppleWebKit/537.36 (KHTML, like Gecko) Chrome/138.0.0.0 Safari/537.36","WebKit","Chrome","138.0.0.0","Windows","10.0","https://app.prolific.com/","en-US,en;q=0.9","5f0a7dec44c42c19a6c9f6d9","686e379bc37a29ffa5cdc956","687e071c6d799f84edacabd5","1","1","5f0a7dec44c42c19a6c9f6d9","1","1","2025-07-21T09:39:12.548Z","","","","","","","","","","","AttribQ","","50","","","","","","","","","","","","","","","","","","","","","","","","","","","","",""
"3635","","<div style=""width:500px;"">
  <p>How much control did you have over the ball?</p>
  </div>","10","html-slider-response","41","611047","0.0-5.0-2.6","136","1","2025-07-21 09:29:06","1f75c3e559b7213887762d5229550c2b","71.138.89.249","Mozilla/5.0 (Windows NT 10.0; Win64; x64) AppleWebKit/537.36 (KHTML, like Gecko) Chrome/138.0.0.0 Safari/537.36","WebKit","Chrome","138.0.0.0","Windows","10.0","https://app.prolific.com/","en-US,en;q=0.9","5f0a7dec44c42c19a6c9f6d9","686e379bc37a29ffa5cdc956","687e071c6d799f84edacabd5","1","1","5f0a7dec44c42c19a6c9f6d9","1","1","2025-07-21T09:39:16.185Z","","","","","","","","","","","ControlQ","","50","","","","","","","","","","","","","","","","","","","","","","","","","","","","",""
"2756","","<div style=""width:500px;"">
  <p>How would you describe your current emotional state?</p>
  </div>","86","html-slider-response","42","613807","0.0-5.0-3.6","136","1","2025-07-21 09:29:06","1f75c3e559b7213887762d5229550c2b","71.138.89.249","Mozilla/5.0 (Windows NT 10.0; Win64; x64) AppleWebKit/537.36 (KHTML, like Gecko) Chrome/138.0.0.0 Safari/537.36","WebKit","Chrome","138.0.0.0","Windows","10.0","https://app.prolific.com/","en-US,en;q=0.9","5f0a7dec44c42c19a6c9f6d9","686e379bc37a29ffa5cdc956","687e071c6d799f84edacabd5","1","1","5f0a7dec44c42c19a6c9f6d9","1","1","2025-07-21T09:39:18.944Z","","","","","","","","","","","StressQ","","50","","","","","","","","","","","","","","","","","","","","","","","","","","","","",""
"2661","","<div style=""width:500px;"">
  <p>What best describes how you currently feel?</p>
  </div>","55","html-slider-response","43","616472","0.0-5.0-4.6","136","1","2025-07-21 09:29:06","1f75c3e559b7213887762d5229550c2b","71.138.89.249","Mozilla/5.0 (Windows NT 10.0; Win64; x64) AppleWebKit/537.36 (KHTML, like Gecko) Chrome/138.0.0.0 Safari/537.36","WebKit","Chrome","138.0.0.0","Windows","10.0","https://app.prolific.com/","en-US,en;q=0.9","5f0a7dec44c42c19a6c9f6d9","686e379bc37a29ffa5cdc956","687e071c6d799f84edacabd5","1","1","5f0a7dec44c42c19a6c9f6d9","1","1","2025-07-21T09:39:21.609Z","","","","","","","","","","","MotivationQ","","50","","","","","","","","","","","","","","","","","","","","","","","","","","","","",""
"","","","","ctl-task-cpt","44","625534","0.0-5.0-0.7","136","1","2025-07-21 09:29:06","1f75c3e559b7213887762d5229550c2b","71.138.89.249","Mozilla/5.0 (Windows NT 10.0; Win64; x64) AppleWebKit/537.36 (KHTML, like Gecko) Chrome/138.0.0.0 Safari/537.36","WebKit","Chrome","138.0.0.0","Windows","10.0","https://app.prolific.com/","en-US,en;q=0.9","5f0a7dec44c42c19a6c9f6d9","686e379bc37a29ffa5cdc956","687e071c6d799f84edacabd5","1","1","5f0a7dec44c42c19a6c9f6d9","1","1","2025-07-21T09:39:30.671Z","","","","","","","","","","","","","","win-only","0","g1:NW,g2:SE","0.3","8","0","618831","1017.9","-9999","6023.8","1","4","4","6","-9999","-4","-4","0","0","0","1179.9","3000","3000","[]","{""num_key_presses"":0,""num_perfect"":0,""num_errors"":0,""num_randdir"":0,""num_randdir_good_moves"":0,""num_whilered"":0,""num_whileblue"":0,""num_blue"":0,""num_good_moves"":0}","[413.0116767883301,420.77734288573265,0.1,413.0116767883301,420.77734288573265,100.9,893.7148017883301,515.9335928857327,208.4,992.1523017883301,512.6523428857327,316.7,992.1523017883301,511.01171788573265,417.6,992.1523017883301,511.01171788573265,518.7,992.1523017883301,511.01171788573265,631.3,992.1523017883301,511.01171788573265,736.5,992.1523017883301,511.01171788573265,849.7,992.1523017883301,511.01171788573265,956.2,992.1523017883301,511.01171788573265,1060.1,992.1523017883301,511.01171788573265,1166.2,997.0741767883301,514.2929678857327,1271.2,997.0741767883301,514.2929678857327,1379.6,997.0741767883301,514.2929678857327,1479.9,997.0741767883301,514.2929678857327,1585,997.0741767883301,514.2929678857327,1689.2,997.0741767883301,514.2929678857327,1803.5,997.0741767883301,514.2929678857327,1906.6,997.0741767883301,514.2929678857327,2008.7,997.0741767883301,514.2929678857327,2112.7,997.0741767883301,514.2929678857327,2221.7,997.0741767883301,514.2929678857327,2324.3,997.0741767883301,514.2929678857327,2427,997.0741767883301,514.2929678857327,2531.6,997.0741767883301,514.2929678857327,2638.2,997.0741767883301,514.2929678857327,2745.2,997.0741767883301,514.2929678857327,2848.8,997.0741767883301,514.2929678857327,2953.4,997.0741767883301,514.2929678857327,3058.8,997.0741767883301,514.2929678857327,3166,997.0741767883301,514.2929678857327,3272.5,997.0741767883301,514.2929678857327,3381.3,997.0741767883301,514.2929678857327,3486.9,997.0741767883301,514.2929678857327,3593.9,997.0741767883301,514.2929678857327,3698.6,997.0741767883301,514.2929678857327,3798.7,997.0741767883301,514.2929678857327,3905.5,997.0741767883301,514.2929678857327,4013.1,997.0741767883301,514.2929678857327,4122,997.0741767883301,514.2929678857327,4225.4,997.0741767883301,514.2929678857327,4333.7,997.0741767883301,514.2929678857327,4439.8,997.0741767883301,514.2929678857327,4545.1,997.0741767883301,514.2929678857327,4646.7,997.0741767883301,514.2929678857327,4749.4,997.0741767883301,514.2929678857327,4850.2,997.0741767883301,514.2929678857327,4959.3]","[]","",""
"5182","","<div style=""width:500px;"">
  <p>What determined the result of this run?</p>
  </div>","18","html-slider-response","45","630721","0.0-5.0-1.7","136","1","2025-07-21 09:29:06","1f75c3e559b7213887762d5229550c2b","71.138.89.249","Mozilla/5.0 (Windows NT 10.0; Win64; x64) AppleWebKit/537.36 (KHTML, like Gecko) Chrome/138.0.0.0 Safari/537.36","WebKit","Chrome","138.0.0.0","Windows","10.0","https://app.prolific.com/","en-US,en;q=0.9","5f0a7dec44c42c19a6c9f6d9","686e379bc37a29ffa5cdc956","687e071c6d799f84edacabd5","1","1","5f0a7dec44c42c19a6c9f6d9","1","1","2025-07-21T09:39:35.859Z","","","","","","","","","","","AttribQ","","50","","","","","","","","","","","","","","","","","","","","","","","","","","","","",""
"3347","","<div style=""width:500px;"">
  <p>How much control did you have over the ball?</p>
  </div>","13","html-slider-response","46","634072","0.0-5.0-2.7","136","1","2025-07-21 09:29:06","1f75c3e559b7213887762d5229550c2b","71.138.89.249","Mozilla/5.0 (Windows NT 10.0; Win64; x64) AppleWebKit/537.36 (KHTML, like Gecko) Chrome/138.0.0.0 Safari/537.36","WebKit","Chrome","138.0.0.0","Windows","10.0","https://app.prolific.com/","en-US,en;q=0.9","5f0a7dec44c42c19a6c9f6d9","686e379bc37a29ffa5cdc956","687e071c6d799f84edacabd5","1","1","5f0a7dec44c42c19a6c9f6d9","1","1","2025-07-21T09:39:39.210Z","","","","","","","","","","","ControlQ","","50","","","","","","","","","","","","","","","","","","","","","","","","","","","","",""
"2740","","<div style=""width:500px;"">
  <p>How would you describe your current emotional state?</p>
  </div>","80","html-slider-response","47","636819","0.0-5.0-3.7","136","1","2025-07-21 09:29:06","1f75c3e559b7213887762d5229550c2b","71.138.89.249","Mozilla/5.0 (Windows NT 10.0; Win64; x64) AppleWebKit/537.36 (KHTML, like Gecko) Chrome/138.0.0.0 Safari/537.36","WebKit","Chrome","138.0.0.0","Windows","10.0","https://app.prolific.com/","en-US,en;q=0.9","5f0a7dec44c42c19a6c9f6d9","686e379bc37a29ffa5cdc956","687e071c6d799f84edacabd5","1","1","5f0a7dec44c42c19a6c9f6d9","1","1","2025-07-21T09:39:41.957Z","","","","","","","","","","","StressQ","","50","","","","","","","","","","","","","","","","","","","","","","","","","","","","",""
"2422","","<div style=""width:500px;"">
  <p>What best describes how you currently feel?</p>
  </div>","66","html-slider-response","48","639244","0.0-5.0-4.7","136","1","2025-07-21 09:29:06","1f75c3e559b7213887762d5229550c2b","71.138.89.249","Mozilla/5.0 (Windows NT 10.0; Win64; x64) AppleWebKit/537.36 (KHTML, like Gecko) Chrome/138.0.0.0 Safari/537.36","WebKit","Chrome","138.0.0.0","Windows","10.0","https://app.prolific.com/","en-US,en;q=0.9","5f0a7dec44c42c19a6c9f6d9","686e379bc37a29ffa5cdc956","687e071c6d799f84edacabd5","1","1","5f0a7dec44c42c19a6c9f6d9","1","1","2025-07-21T09:39:44.381Z","","","","","","","","","","","MotivationQ","","50","","","","","","","","","","","","","","","","","","","","","","","","","","","","",""
"","","","","ctl-task-cpt","49","697251","0.0-5.0-0.8","136","1","2025-07-21 09:29:06","1f75c3e559b7213887762d5229550c2b","71.138.89.249","Mozilla/5.0 (Windows NT 10.0; Win64; x64) AppleWebKit/537.36 (KHTML, like Gecko) Chrome/138.0.0.0 Safari/537.36","WebKit","Chrome","138.0.0.0","Windows","10.0","https://app.prolific.com/","en-US,en;q=0.9","5f0a7dec44c42c19a6c9f6d9","686e379bc37a29ffa5cdc956","687e071c6d799f84edacabd5","1","1","5f0a7dec44c42c19a6c9f6d9","1","1","2025-07-21T09:40:42.388Z","","","","","","","","","","","","","","win-only","2","g1:SE,g2:NW","0.2","9","0","641596.3","852.4","5853.7","54986.3","1","4","4","6","2","-4","-4","0","0","0","5001.3","3000","-1885","[""left"",""up""]","{""num_key_presses"":10,""num_perfect"":2,""num_errors"":0,""num_randdir"":8,""num_randdir_good_moves"":1,""num_whilered"":0,""num_whileblue"":0,""num_blue"":4,""num_good_moves"":3}","[421.2148017883301,414.21484288573265,0.4,421.2148017883301,414.21484288573265,113.5,522.9335517883301,414.21484288573265,214.7,813.3241767883301,414.21484288573265,316.5,928.1679267883301,409.29296788573265,417.2,944.5741767883301,404.37109288573265,530.6,960.9804267883301,404.37109288573265,636.9,962.6210517883301,404.37109288573265,749.8,962.6210517883301,404.37109288573265,849.9,962.6210517883301,404.37109288573265,959.4,962.6210517883301,404.37109288573265,1064.5,962.6210517883301,404.37109288573265,1164.5,962.6210517883301,404.37109288573265,1264.9,962.6210517883301,404.37109288573265,1378.9,962.6210517883301,404.37109288573265,1481.3,962.6210517883301,404.37109288573265,1594.5,962.6210517883301,404.37109288573265,1698.6,962.6210517883301,404.37109288573265,1798.9,962.6210517883301,404.37109288573265,1899.2,962.6210517883301,404.37109288573265,1999.3,962.6210517883301,404.37109288573265,2103.5,962.6210517883301,404.37109288573265,2219.2,962.6210517883301,404.37109288573265,2324.5,962.6210517883301,404.37109288573265,2427.9,962.6210517883301,404.37109288573265,2529.9,962.6210517883301,404.37109288573265,2633.4,962.6210517883301,404.37109288573265,2734.5,962.6210517883301,404.37109288573265,2838.8,962.6210517883301,404.37109288573265,2940.2,962.6210517883301,404.37109288573265,3044.9,962.6210517883301,404.37109288573265,3146.4,962.6210517883301,404.37109288573265,3248.4,962.6210517883301,404.37109288573265,3353.8,962.6210517883301,404.37109288573265,3461.3,962.6210517883301,404.37109288573265,3566.9,962.6210517883301,404.37109288573265,3670.4,962.6210517883301,404.37109288573265,3779,962.6210517883301,404.37109288573265,3879.9,962.6210517883301,404.37109288573265,3980.1,962.6210517883301,404.37109288573265,4084.1,962.6210517883301,404.37109288573265,4188.6,962.6210517883301,404.37109288573265,4291.8,962.6210517883301,404.37109288573265,4403.3,962.6210517883301,404.37109288573265,4514.8,962.6210517883301,404.37109288573265,4618.8,962.6210517883301,404.37109288573265,4721.8,962.6210517883301,404.37109288573265,4823,962.6210517883301,404.37109288573265,4928.8]","[5134.7,5134.8,2766.8,2010.6,357.4,""oops"",""up"",""down"",""bad_move"",12237.1,7100.4,3085.1,8721.8,430.2,""oops"",""left"",""down"",""bad_move"",15703.4,3466,2957.1,12237.5,508.8,""smooth"",""left"",""left"",""good_move"",19594.3,3889.1,3497.3,15705.3,391.8,""oops"",""left"",""right"",""bad_move"",22815.8,3220.8,2814.4,19595,406.4,""smooth"",""up"",""up"",""good_move"",25941.5,3124.9,2703.9,22816.7,421,""oops"",""up"",""right"",""bad_move"",29074.4,3130.9,2653.7,25943.5,477.2,""oops"",""up"",""down"",""bad_move"",35209.6,6134.4,2109.5,32647,453.2,""oops"",""left"",""right"",""bad_move"",38519.7,3309.5,2871,35210.2,438.5,""oops"",""up"",""left"",""good_move"",41688.9,3168.4,2590.7,38520.5,577.7,""oops"",""up"",""right"",""bad_move""]","",""
"4500","","<div style=""width:500px;"">
  <p>What determined the result of this run?</p>
  </div>","17","html-slider-response","50","701754","0.0-5.0-1.8","136","1","2025-07-21 09:29:06","1f75c3e559b7213887762d5229550c2b","71.138.89.249","Mozilla/5.0 (Windows NT 10.0; Win64; x64) AppleWebKit/537.36 (KHTML, like Gecko) Chrome/138.0.0.0 Safari/537.36","WebKit","Chrome","138.0.0.0","Windows","10.0","https://app.prolific.com/","en-US,en;q=0.9","5f0a7dec44c42c19a6c9f6d9","686e379bc37a29ffa5cdc956","687e071c6d799f84edacabd5","1","1","5f0a7dec44c42c19a6c9f6d9","1","1","2025-07-21T09:40:46.893Z","","","","","","","","","","","AttribQ","","50","","","","","","","","","","","","","","","","","","","","","","","","","","","","",""
"2330","","<div style=""width:500px;"">
  <p>How much control did you have over the ball?</p>
  </div>","5","html-slider-response","51","704092","0.0-5.0-2.8","136","1","2025-07-21 09:29:06","1f75c3e559b7213887762d5229550c2b","71.138.89.249","Mozilla/5.0 (Windows NT 10.0; Win64; x64) AppleWebKit/537.36 (KHTML, like Gecko) Chrome/138.0.0.0 Safari/537.36","WebKit","Chrome","138.0.0.0","Windows","10.0","https://app.prolific.com/","en-US,en;q=0.9","5f0a7dec44c42c19a6c9f6d9","686e379bc37a29ffa5cdc956","687e071c6d799f84edacabd5","1","1","5f0a7dec44c42c19a6c9f6d9","1","1","2025-07-21T09:40:49.229Z","","","","","","","","","","","ControlQ","","50","","","","","","","","","","","","","","","","","","","","","","","","","","","","",""
"3157","","<div style=""width:500px;"">
  <p>How would you describe your current emotional state?</p>
  </div>","87","html-slider-response","52","707254","0.0-5.0-3.8","136","1","2025-07-21 09:29:06","1f75c3e559b7213887762d5229550c2b","71.138.89.249","Mozilla/5.0 (Windows NT 10.0; Win64; x64) AppleWebKit/537.36 (KHTML, like Gecko) Chrome/138.0.0.0 Safari/537.36","WebKit","Chrome","138.0.0.0","Windows","10.0","https://app.prolific.com/","en-US,en;q=0.9","5f0a7dec44c42c19a6c9f6d9","686e379bc37a29ffa5cdc956","687e071c6d799f84edacabd5","1","1","5f0a7dec44c42c19a6c9f6d9","1","1","2025-07-21T09:40:52.391Z","","","","","","","","","","","StressQ","","50","","","","","","","","","","","","","","","","","","","","","","","","","","","","",""
"2766","","<div style=""width:500px;"">
  <p>What best describes how you currently feel?</p>
  </div>","37","html-slider-response","53","710023","0.0-5.0-4.8","136","1","2025-07-21 09:29:06","1f75c3e559b7213887762d5229550c2b","71.138.89.249","Mozilla/5.0 (Windows NT 10.0; Win64; x64) AppleWebKit/537.36 (KHTML, like Gecko) Chrome/138.0.0.0 Safari/537.36","WebKit","Chrome","138.0.0.0","Windows","10.0","https://app.prolific.com/","en-US,en;q=0.9","5f0a7dec44c42c19a6c9f6d9","686e379bc37a29ffa5cdc956","687e071c6d799f84edacabd5","1","1","5f0a7dec44c42c19a6c9f6d9","1","1","2025-07-21T09:40:55.161Z","","","","","","","","","","","MotivationQ","","50","","","","","","","","","","","","","","","","","","","","","","","","","","","","",""
"","","","","ctl-task-cpt","54","735463","0.0-5.0-0.9","136","1","2025-07-21 09:29:06","1f75c3e559b7213887762d5229550c2b","71.138.89.249","Mozilla/5.0 (Windows NT 10.0; Win64; x64) AppleWebKit/537.36 (KHTML, like Gecko) Chrome/138.0.0.0 Safari/537.36","WebKit","Chrome","138.0.0.0","Windows","10.0","https://app.prolific.com/","en-US,en;q=0.9","5f0a7dec44c42c19a6c9f6d9","686e379bc37a29ffa5cdc956","687e071c6d799f84edacabd5","1","1","5f0a7dec44c42c19a6c9f6d9","1","1","2025-07-21T09:41:20.600Z","","","","","","","","","","","","","","win-only","3","g1:SW,g2:NE","0.4","10","0","712380.4","1431.2","6432.5","22406.3","1","4","8","6","1","1","0","0","0","0","5001.3","3000","1910","[""down"",""left""]","{""num_key_presses"":5,""num_perfect"":3,""num_errors"":1,""num_randdir"":1,""num_randdir_good_moves"":1,""num_whilered"":0,""num_whileblue"":0,""num_blue"":1,""num_good_moves"":4}","[422.8554267883301,410.93359288573265,0.2,422.8554267883301,414.21484288573265,100.5,422.8554267883301,414.21484288573265,207.4,629.5741767883301,422.41796788573265,326.8,731.2929267883301,437.18359288573265,436.7,731.2929267883301,437.18359288573265,540.3,731.2929267883301,437.18359288573265,640.3,731.2929267883301,437.18359288573265,747.6,770.6679267883301,422.41796788573265,851.5,915.0429267883301,391.24609288573265,952.2,918.3241767883301,391.24609288573265,1057.7,898.6366767883301,389.60546788573265,1164.7,888.7929267883301,386.32421788573265,1266.2,867.4648017883301,386.32421788573265,1366.5,800.1991767883301,386.32421788573265,1470.8,855.9804267883301,366.63671788573265,1589.8,1084.02730178833,345.30859288573265,1691.6,1087.30855178833,348.58984288573265,1794.7,1087.30855178833,348.58984288573265,1903.5,1087.30855178833,348.58984288573265,2016.7,1087.30855178833,348.58984288573265,2123.3,1087.30855178833,348.58984288573265,2226.1,1087.30855178833,348.58984288573265,2326.8,1087.30855178833,348.58984288573265,2432.3,1087.30855178833,348.58984288573265,2535.1,1087.30855178833,348.58984288573265,2636.5,1087.30855178833,348.58984288573265,2739.5,1087.30855178833,348.58984288573265,2840.8,1087.30855178833,348.58984288573265,2949.5,1087.30855178833,348.58984288573265,3050.8,1087.30855178833,348.58984288573265,3152.9,1087.30855178833,348.58984288573265,3256.5,1087.30855178833,348.58984288573265,3356.6,1087.30855178833,348.58984288573265,3460.1,1087.30855178833,348.58984288573265,3565.1,1087.30855178833,348.58984288573265,3667.5,1087.30855178833,348.58984288573265,3771.5,1087.30855178833,348.58984288573265,3875.1,1087.30855178833,348.58984288573265,3989,1087.30855178833,348.58984288573265,4089.4,1087.30855178833,348.58984288573265,4202.2,1087.30855178833,348.58984288573265,4304.9,1087.30855178833,348.58984288573265,4404.9,1087.30855178833,348.58984288573265,4510.2,1087.30855178833,348.58984288573265,4611.1,1087.30855178833,348.58984288573265,4715.8,1087.30855178833,348.58984288573265,4826.2,1087.30855178833,348.58984288573265,4926.4]","[970.7,970.7,1000,0,-29.3,""error"",""-"",""-"",""no_move"",4748.4,3777.1,2146.6,1975.4,626.4,""oops"",""down"",""down"",""good_move"",7000.2,2251.2,1782.8,4749,468.4,""smooth"",""down"",""down"",""good_move"",13143.5,6142.8,2274.8,10401.1,467.6,""smooth"",""left"",""left"",""good_move"",15774.8,2630.9,2217.1,13143.9,413.8,""smooth"",""left"",""left"",""good_move""]","",""
"3167","","<div style=""width:500px;"">
  <p>What determined the result of this run?</p>
  </div>","91","html-slider-response","55","738633","0.0-5.0-1.9","136","1","2025-07-21 09:29:06","1f75c3e559b7213887762d5229550c2b","71.138.89.249","Mozilla/5.0 (Windows NT 10.0; Win64; x64) AppleWebKit/537.36 (KHTML, like Gecko) Chrome/138.0.0.0 Safari/537.36","WebKit","Chrome","138.0.0.0","Windows","10.0","https://app.prolific.com/","en-US,en;q=0.9","5f0a7dec44c42c19a6c9f6d9","686e379bc37a29ffa5cdc956","687e071c6d799f84edacabd5","1","1","5f0a7dec44c42c19a6c9f6d9","1","1","2025-07-21T09:41:23.770Z","","","","","","","","","","","AttribQ","","50","","","","","","","","","","","","","","","","","","","","","","","","","","","","",""
"4276","","<div style=""width:500px;"">
  <p>How much control did you have over the ball?</p>
  </div>","87","html-slider-response","56","742914","0.0-5.0-2.9","136","1","2025-07-21 09:29:06","1f75c3e559b7213887762d5229550c2b","71.138.89.249","Mozilla/5.0 (Windows NT 10.0; Win64; x64) AppleWebKit/537.36 (KHTML, like Gecko) Chrome/138.0.0.0 Safari/537.36","WebKit","Chrome","138.0.0.0","Windows","10.0","https://app.prolific.com/","en-US,en;q=0.9","5f0a7dec44c42c19a6c9f6d9","686e379bc37a29ffa5cdc956","687e071c6d799f84edacabd5","1","1","5f0a7dec44c42c19a6c9f6d9","1","1","2025-07-21T09:41:28.052Z","","","","","","","","","","","ControlQ","","50","","","","","","","","","","","","","","","","","","","","","","","","","","","","",""
"4337","","<div style=""width:500px;"">
  <p>How would you describe your current emotional state?</p>
  </div>","68","html-slider-response","57","747256","0.0-5.0-3.9","136","1","2025-07-21 09:29:06","1f75c3e559b7213887762d5229550c2b","71.138.89.249","Mozilla/5.0 (Windows NT 10.0; Win64; x64) AppleWebKit/537.36 (KHTML, like Gecko) Chrome/138.0.0.0 Safari/537.36","WebKit","Chrome","138.0.0.0","Windows","10.0","https://app.prolific.com/","en-US,en;q=0.9","5f0a7dec44c42c19a6c9f6d9","686e379bc37a29ffa5cdc956","687e071c6d799f84edacabd5","1","1","5f0a7dec44c42c19a6c9f6d9","1","1","2025-07-21T09:41:32.393Z","","","","","","","","","","","StressQ","","50","","","","","","","","","","","","","","","","","","","","","","","","","","","","",""
"2016","","<div style=""width:500px;"">
  <p>What best describes how you currently feel?</p>
  </div>","63","html-slider-response","58","749274","0.0-5.0-4.9","136","1","2025-07-21 09:29:06","1f75c3e559b7213887762d5229550c2b","71.138.89.249","Mozilla/5.0 (Windows NT 10.0; Win64; x64) AppleWebKit/537.36 (KHTML, like Gecko) Chrome/138.0.0.0 Safari/537.36","WebKit","Chrome","138.0.0.0","Windows","10.0","https://app.prolific.com/","en-US,en;q=0.9","5f0a7dec44c42c19a6c9f6d9","686e379bc37a29ffa5cdc956","687e071c6d799f84edacabd5","1","1","5f0a7dec44c42c19a6c9f6d9","1","1","2025-07-21T09:41:34.411Z","","","","","","","","","","","MotivationQ","","50","","","","","","","","","","","","","","","","","","","","","","","","","","","","",""
"","","","","ctl-task-cpt","59","795219","0.0-5.0-0.10","136","1","2025-07-21 09:29:06","1f75c3e559b7213887762d5229550c2b","71.138.89.249","Mozilla/5.0 (Windows NT 10.0; Win64; x64) AppleWebKit/537.36 (KHTML, like Gecko) Chrome/138.0.0.0 Safari/537.36","WebKit","Chrome","138.0.0.0","Windows","10.0","https://app.prolific.com/","en-US,en;q=0.9","5f0a7dec44c42c19a6c9f6d9","686e379bc37a29ffa5cdc956","687e071c6d799f84edacabd5","1","1","5f0a7dec44c42c19a6c9f6d9","1","1","2025-07-21T09:42:20.357Z","","","","","","","","","","","","","","win-only","2","g1:SE,g2:NW","0.5","11","0","751627.5","1587.3","6595.9","42910.7","1","4","4","6","2","4","4","4","0","0.030303030303030304","5008.6","3000","1005","[""left"",""up""]","{""num_key_presses"":8,""num_perfect"":5,""num_errors"":0,""num_randdir"":3,""num_randdir_good_moves"":2,""num_whilered"":0,""num_whileblue"":0,""num_blue"":4,""num_good_moves"":7}","[414.6523017883301,415.85546788573265,1.5,414.6523017883301,415.85546788573265,100.3,721.4491767883301,422.41796788573265,201.2,1151.29292678833,432.26171788573265,306.7,1170.98042678833,424.05859288573265,410.6,1144.73042678833,404.37109288573265,513.3,1120.12105178833,401.08984288573265,618.5,1082.38667678833,389.60546788573265,725,990.5116767883301,391.24609288573265,833.8,988.8710517883301,392.88671788573265,937.7,988.8710517883301,392.88671788573265,1053.2,988.8710517883301,392.88671788573265,1154.9,983.9491767883301,392.88671788573265,1255.7,969.1835517883301,394.52734288573265,1361.1,969.1835517883301,394.52734288573265,1471.3,969.1835517883301,394.52734288573265,1581,882.2304267883301,399.44921788573265,1687.6,755.9023017883301,401.08984288573265,1789.4,742.7773017883301,401.08984288573265,1894.5,742.7773017883301,402.73046788573265,1996.7,1088.94917678833,371.55859288573265,2106.3,1097.15230178833,369.91796788573265,2210.8,1097.15230178833,369.91796788573265,2312.2,1100.43355178833,369.91796788573265,2416.4,1100.43355178833,369.91796788573265,2519.8,1100.43355178833,369.91796788573265,2623.7,1100.43355178833,369.91796788573265,2726.3,1100.43355178833,369.91796788573265,2835.2,1100.43355178833,369.91796788573265,2941.9,1100.43355178833,369.91796788573265,3043.4,1100.43355178833,369.91796788573265,3148.1,1100.43355178833,369.91796788573265,3255.2,1100.43355178833,369.91796788573265,3358,1100.43355178833,369.91796788573265,3462.7,1100.43355178833,369.91796788573265,3566.7,1100.43355178833,369.91796788573265,3673.7,1100.43355178833,369.91796788573265,3779.3,1100.43355178833,369.91796788573265,3886.2,1100.43355178833,369.91796788573265,3987.6,1100.43355178833,369.91796788573265,4090,1100.43355178833,369.91796788573265,4192.3,1100.43355178833,369.91796788573265,4295.1,1100.43355178833,369.91796788573265,4403.2,1100.43355178833,369.91796788573265,4512.4,1100.43355178833,369.91796788573265,4617.8,1100.43355178833,369.91796788573265,4718.3,1100.43355178833,369.91796788573265,4823.7,1100.43355178833,369.91796788573265,4927.5]","[1405.7,1405.7,1000,0,405.7,""oops"",""up"",""right"",""bad_move"",4061.5,2654.9,1304.4,1406.6,1350.5,""smooth"",""up"",""up"",""good_move"",10747.7,6685.2,2117.6,8110.8,519.3,""smooth"",""left"",""left"",""good_move"",16998.8,6250.4,2802.4,13743.5,453,""smooth"",""up"",""up"",""good_move"",20328.1,3328.8,2950.9,16999.3,377.9,""oops"",""left"",""left"",""good_move"",26378.8,6050.3,2310.4,23669.2,399.2,""oops"",""up"",""left"",""good_move"",29482.9,3103.6,2714.3,26379.3,389.3,""smooth"",""left"",""left"",""good_move"",36051.6,6567.9,2371.6,33344.6,335.4,""smooth"",""up"",""up"",""good_move""]","",""
"3356","","<div style=""width:500px;"">
  <p>What determined the result of this run?</p>
  </div>","88","html-slider-response","60","798578","0.0-5.0-1.10","136","1","2025-07-21 09:29:06","1f75c3e559b7213887762d5229550c2b","71.138.89.249","Mozilla/5.0 (Windows NT 10.0; Win64; x64) AppleWebKit/537.36 (KHTML, like Gecko) Chrome/138.0.0.0 Safari/537.36","WebKit","Chrome","138.0.0.0","Windows","10.0","https://app.prolific.com/","en-US,en;q=0.9","5f0a7dec44c42c19a6c9f6d9","686e379bc37a29ffa5cdc956","687e071c6d799f84edacabd5","1","1","5f0a7dec44c42c19a6c9f6d9","1","1","2025-07-21T09:42:23.715Z","","","","","","","","","","","AttribQ","","50","","","","","","","","","","","","","","","","","","","","","","","","","","","","",""
"2919","","<div style=""width:500px;"">
  <p>How much control did you have over the ball?</p>
  </div>","82","html-slider-response","61","801498","0.0-5.0-2.10","136","1","2025-07-21 09:29:06","1f75c3e559b7213887762d5229550c2b","71.138.89.249","Mozilla/5.0 (Windows NT 10.0; Win64; x64) AppleWebKit/537.36 (KHTML, like Gecko) Chrome/138.0.0.0 Safari/537.36","WebKit","Chrome","138.0.0.0","Windows","10.0","https://app.prolific.com/","en-US,en;q=0.9","5f0a7dec44c42c19a6c9f6d9","686e379bc37a29ffa5cdc956","687e071c6d799f84edacabd5","1","1","5f0a7dec44c42c19a6c9f6d9","1","1","2025-07-21T09:42:26.635Z","","","","","","","","","","","ControlQ","","50","","","","","","","","","","","","","","","","","","","","","","","","","","","","",""
"2432","","<div style=""width:500px;"">
  <p>How would you describe your current emotional state?</p>
  </div>","66","html-slider-response","62","803933","0.0-5.0-3.10","136","1","2025-07-21 09:29:06","1f75c3e559b7213887762d5229550c2b","71.138.89.249","Mozilla/5.0 (Windows NT 10.0; Win64; x64) AppleWebKit/537.36 (KHTML, like Gecko) Chrome/138.0.0.0 Safari/537.36","WebKit","Chrome","138.0.0.0","Windows","10.0","https://app.prolific.com/","en-US,en;q=0.9","5f0a7dec44c42c19a6c9f6d9","686e379bc37a29ffa5cdc956","687e071c6d799f84edacabd5","1","1","5f0a7dec44c42c19a6c9f6d9","1","1","2025-07-21T09:42:29.070Z","","","","","","","","","","","StressQ","","50","","","","","","","","","","","","","","","","","","","","","","","","","","","","",""
"2087","","<div style=""width:500px;"">
  <p>What best describes how you currently feel?</p>
  </div>","71","html-slider-response","63","806024","0.0-5.0-4.10","136","1","2025-07-21 09:29:06","1f75c3e559b7213887762d5229550c2b","71.138.89.249","Mozilla/5.0 (Windows NT 10.0; Win64; x64) AppleWebKit/537.36 (KHTML, like Gecko) Chrome/138.0.0.0 Safari/537.36","WebKit","Chrome","138.0.0.0","Windows","10.0","https://app.prolific.com/","en-US,en;q=0.9","5f0a7dec44c42c19a6c9f6d9","686e379bc37a29ffa5cdc956","687e071c6d799f84edacabd5","1","1","5f0a7dec44c42c19a6c9f6d9","1","1","2025-07-21T09:42:31.161Z","","","","","","","","","","","MotivationQ","","50","","","","","","","","","","","","","","","","","","","","","","","","","","","","",""
"","","","","ctl-task-cpt","64","852377","0.0-5.0-0.11","136","1","2025-07-21 09:29:06","1f75c3e559b7213887762d5229550c2b","71.138.89.249","Mozilla/5.0 (Windows NT 10.0; Win64; x64) AppleWebKit/537.36 (KHTML, like Gecko) Chrome/138.0.0.0 Safari/537.36","WebKit","Chrome","138.0.0.0","Windows","10.0","https://app.prolific.com/","en-US,en;q=0.9","5f0a7dec44c42c19a6c9f6d9","686e379bc37a29ffa5cdc956","687e071c6d799f84edacabd5","1","1","5f0a7dec44c42c19a6c9f6d9","1","1","2025-07-21T09:43:17.514Z","","","","","","","","","","","","","","win-only","0","g1:NW,g2:SE","0.6","12","0","808376.4","1515.8","6537.7","43311.5","1","4","8","6","2","8","8","12","4","0.09090909090909091","5021.9","3000","2495","[""down"",""right""]","{""num_key_presses"":8,""num_perfect"":5,""num_errors"":0,""num_randdir"":3,""num_randdir_good_moves"":2,""num_whilered"":0,""num_whileblue"":0,""num_blue"":3,""num_good_moves"":7}","[414.6523017883301,420.77734288573265,0.2,414.6523017883301,420.77734288573265,100.4,831.3710517883301,486.40234288573265,222.8,1166.05855178833,491.32421788573265,337.1,1166.05855178833,488.04296788573265,448.9,1152.93355178833,486.40234288573265,551.4,1100.43355178833,481.48046788573265,675.9,1100.43355178833,481.48046788573265,790.6,1100.43355178833,481.48046788573265,895.4,1100.43355178833,481.48046788573265,1023.7,1100.43355178833,481.48046788573265,1129.6,1100.43355178833,481.48046788573265,1238.6,1100.43355178833,481.48046788573265,1345.4,1100.43355178833,481.48046788573265,1453.1,1100.43355178833,481.48046788573265,1559.8,1100.43355178833,481.48046788573265,1666.3,1100.43355178833,481.48046788573265,1778.8,1100.43355178833,481.48046788573265,1889.7,1100.43355178833,481.48046788573265,1998.5,1100.43355178833,481.48046788573265,2106.8,1100.43355178833,481.48046788573265,2213.7,1100.43355178833,481.48046788573265,2324.5,1100.43355178833,481.48046788573265,2441.1,1100.43355178833,481.48046788573265,2553.2,1100.43355178833,481.48046788573265,2673.5,1100.43355178833,481.48046788573265,2794.9,1100.43355178833,481.48046788573265,2916.3,1100.43355178833,481.48046788573265,3034.5,1100.43355178833,481.48046788573265,3143.1,1100.43355178833,481.48046788573265,3267.5,1100.43355178833,481.48046788573265,3388.6,1100.43355178833,481.48046788573265,3512.2,1100.43355178833,481.48046788573265,3633.1,1100.43355178833,481.48046788573265,3760.3,1100.43355178833,481.48046788573265,3878.2,1100.43355178833,481.48046788573265,3996.6,1100.43355178833,481.48046788573265,4106.5,1100.43355178833,481.48046788573265,4217.1,1100.43355178833,481.48046788573265,4339.8,1100.43355178833,481.48046788573265,4462.8,1100.43355178833,481.48046788573265,4587,1100.43355178833,481.48046788573265,4712.8,1100.43355178833,481.48046788573265,4826.9,1100.43355178833,481.48046788573265,4951.2]","[1525.8,1525.8,1000,0,525.8,""smooth"",""right"",""right"",""good_move"",4763.2,3236.4,2755.5,1526.8,480.9,""smooth"",""down"",""down"",""good_move"",11359.2,6595.4,2850,8062.3,446.9,""oops"",""right"",""right"",""good_move"",14553.6,3193.9,2748,11359.7,445.9,""smooth"",""down"",""down"",""good_move"",17880.8,3326.4,2894.1,14554.4,432.3,""oops"",""right"",""up"",""bad_move"",24047.3,6165.7,2357,17881.6,3808.7,""smooth"",""right"",""right"",""good_move"",29424.2,5376.6,2278.4,26780.2,365.6,""oops"",""down"",""down"",""good_move"",36133.4,6708.8,2398.7,33250.7,484,""smooth"",""down"",""down"",""good_move""]","",""
"8899","","<div style=""width:500px;"">
  <p>What determined the result of this run?</p>
  </div>","88","html-slider-response","65","861279","0.0-5.0-1.11","136","1","2025-07-21 09:29:06","1f75c3e559b7213887762d5229550c2b","71.138.89.249","Mozilla/5.0 (Windows NT 10.0; Win64; x64) AppleWebKit/537.36 (KHTML, like Gecko) Chrome/138.0.0.0 Safari/537.36","WebKit","Chrome","138.0.0.0","Windows","10.0","https://app.prolific.com/","en-US,en;q=0.9","5f0a7dec44c42c19a6c9f6d9","686e379bc37a29ffa5cdc956","687e071c6d799f84edacabd5","1","1","5f0a7dec44c42c19a6c9f6d9","1","1","2025-07-21T09:43:26.416Z","","","","","","","","","","","AttribQ","","50","","","","","","","","","","","","","","","","","","","","","","","","","","","","",""
"2707","","<div style=""width:500px;"">
  <p>How much control did you have over the ball?</p>
  </div>","86","html-slider-response","66","863989","0.0-5.0-2.11","136","1","2025-07-21 09:29:06","1f75c3e559b7213887762d5229550c2b","71.138.89.249","Mozilla/5.0 (Windows NT 10.0; Win64; x64) AppleWebKit/537.36 (KHTML, like Gecko) Chrome/138.0.0.0 Safari/537.36","WebKit","Chrome","138.0.0.0","Windows","10.0","https://app.prolific.com/","en-US,en;q=0.9","5f0a7dec44c42c19a6c9f6d9","686e379bc37a29ffa5cdc956","687e071c6d799f84edacabd5","1","1","5f0a7dec44c42c19a6c9f6d9","1","1","2025-07-21T09:43:29.126Z","","","","","","","","","","","ControlQ","","50","","","","","","","","","","","","","","","","","","","","","","","","","","","","",""
"3184","","<div style=""width:500px;"">
  <p>How would you describe your current emotional state?</p>
  </div>","58","html-slider-response","67","867179","0.0-5.0-3.11","136","1","2025-07-21 09:29:06","1f75c3e559b7213887762d5229550c2b","71.138.89.249","Mozilla/5.0 (Windows NT 10.0; Win64; x64) AppleWebKit/537.36 (KHTML, like Gecko) Chrome/138.0.0.0 Safari/537.36","WebKit","Chrome","138.0.0.0","Windows","10.0","https://app.prolific.com/","en-US,en;q=0.9","5f0a7dec44c42c19a6c9f6d9","686e379bc37a29ffa5cdc956","687e071c6d799f84edacabd5","1","1","5f0a7dec44c42c19a6c9f6d9","1","1","2025-07-21T09:43:32.316Z","","","","","","","","","","","StressQ","","50","","","","","","","","","","","","","","","","","","","","","","","","","","","","",""
"3338","","<div style=""width:500px;"">
  <p>What best describes how you currently feel?</p>
  </div>","64","html-slider-response","68","870522","0.0-5.0-4.11","136","1","2025-07-21 09:29:06","1f75c3e559b7213887762d5229550c2b","71.138.89.249","Mozilla/5.0 (Windows NT 10.0; Win64; x64) AppleWebKit/537.36 (KHTML, like Gecko) Chrome/138.0.0.0 Safari/537.36","WebKit","Chrome","138.0.0.0","Windows","10.0","https://app.prolific.com/","en-US,en;q=0.9","5f0a7dec44c42c19a6c9f6d9","686e379bc37a29ffa5cdc956","687e071c6d799f84edacabd5","1","1","5f0a7dec44c42c19a6c9f6d9","1","1","2025-07-21T09:43:35.659Z","","","","","","","","","","","MotivationQ","","50","","","","","","","","","","","","","","","","","","","","","","","","","","","","",""
"","","","","ctl-task-cpt","69","1024332","0.0-5.0-0.12","136","1","2025-07-21 09:29:06","1f75c3e559b7213887762d5229550c2b","71.138.89.249","Mozilla/5.0 (Windows NT 10.0; Win64; x64) AppleWebKit/537.36 (KHTML, like Gecko) Chrome/138.0.0.0 Safari/537.36","WebKit","Chrome","138.0.0.0","Windows","10.0","https://app.prolific.com/","en-US,en;q=0.9","5f0a7dec44c42c19a6c9f6d9","686e379bc37a29ffa5cdc956","687e071c6d799f84edacabd5","1","1","5f0a7dec44c42c19a6c9f6d9","1","1","2025-07-21T09:46:09.469Z","","","","","","","","","","","","","","win-only","2","g1:SE,g2:NW","0.7","13","0","872878.4","873.1","5885.8","150719.4","1","4","4","6","2","4","3","15","12","0.11363636363636363","5012.7","3000","2270","[""left"",""up""]","{""num_key_presses"":17,""num_perfect"":11,""num_errors"":1,""num_randdir"":5,""num_randdir_good_moves"":1,""num_whilered"":0,""num_whileblue"":1,""num_blue"":4,""num_good_moves"":11}","[417.9335517883301,419.13671788573265,0.2,419.5741767883301,420.77734288573265,119.1,608.2460517883301,450.30859288573265,317.6,824.8085517883301,435.54296788573265,446.1,910.1210517883301,417.49609288573265,567.5,956.0585517883301,409.29296788573265,675.6,974.1054267883301,404.37109288573265,784.2,977.3866767883301,404.37109288573265,901.2,977.3866767883301,404.37109288573265,1014,977.3866767883301,404.37109288573265,1126.5,813.3241767883301,478.19921788573265,1247.1,810.0429267883301,478.19921788573265,1353.3,810.0429267883301,478.19921788573265,1456.6,921.6054267883301,427.33984288573265,1581.6,1047.93355178833,386.32421788573265,1696.9,1047.93355178833,386.32421788573265,1810.2,1047.93355178833,386.32421788573265,1935.9,1047.93355178833,386.32421788573265,2069.7,1047.93355178833,386.32421788573265,2183.7,1047.93355178833,386.32421788573265,2290.6,1047.93355178833,386.32421788573265,2403.6,1047.93355178833,386.32421788573265,2519.1,1047.93355178833,386.32421788573265,2645.3,1047.93355178833,386.32421788573265,2751.4,1047.93355178833,386.32421788573265,2858.2,1047.93355178833,386.32421788573265,2981.6,1047.93355178833,386.32421788573265,3107.4,1047.93355178833,386.32421788573265,3218.3,1047.93355178833,386.32421788573265,3327.1,1047.93355178833,386.32421788573265,3437.4,1047.93355178833,386.32421788573265,3550.3,1047.93355178833,386.32421788573265,3670.7,1047.93355178833,386.32421788573265,3794.1,1047.93355178833,386.32421788573265,3909.4,1047.93355178833,386.32421788573265,4038.4,1047.93355178833,386.32421788573265,4155.1,1047.93355178833,386.32421788573265,4256.9,1047.93355178833,386.32421788573265,4382.1,1047.93355178833,386.32421788573265,4502,1047.93355178833,386.32421788573265,4622.4,1047.93355178833,386.32421788573265,4733.6,1047.93355178833,386.32421788573265,4851.7,1047.93355178833,386.32421788573265,4952.7]","[1507,1507,1000,0,507,""smooth"",""up"",""up"",""good_move"",11945.1,10437,10026.1,1508.1,410.9,""while_blue"",""up"",""down"",""bad_move"",14981.8,3035.9,2307.8,11945.9,728.1,""smooth"",""up"",""up"",""good_move"",32037.6,17055.5,2652.2,28827.6,557.8,""smooth"",""up"",""up"",""good_move"",42774.1,10735.6,2839.9,32038.5,7895.7,""smooth"",""up"",""up"",""good_move"",53684.5,10909.7,2727.1,42774.8,8182.7,""smooth"",""left"",""left"",""good_move"",64710.8,11024.3,2458.3,53686.5,8566,""oops"",""left"",""right"",""bad_move"",67651.9,2939.9,2173.3,64712,766.6,""oops"",""left"",""right"",""bad_move"",70421.2,2768.5,1916.4,67652.7,852.1,""smooth"",""left"",""left"",""good_move"",81832.4,11410.7,3219.7,70421.8,8190.9,""oops"",""left"",""right"",""bad_move"",85108.9,3276,2146.8,81832.9,1129.2,""smooth"",""left"",""left"",""good_move"",96501.2,11391.5,2480.9,85109.7,8910.6,""oops"",""left"",""right"",""bad_move"",99243.5,2741.7,2163.4,96501.8,578.3,""smooth"",""down"",""down"",""bad_move"",105742.6,6498.7,2495.8,102695.3,551.5,""smooth"",""left"",""left"",""good_move"",117389.5,11646.6,3063.4,105742.9,8583.2,""oops"",""left"",""up"",""good_move"",129147.4,11756.9,2592.1,117390.5,9164.8,""smooth"",""left"",""left"",""good_move"",141087.4,11939.6,2535.5,129147.8,9404.1,""smooth"",""left"",""left"",""good_move""]","",""
"4071","","<div style=""width:500px;"">
  <p>What determined the result of this run?</p>
  </div>","68","html-slider-response","70","1028410","0.0-5.0-1.12","136","1","2025-07-21 09:29:06","1f75c3e559b7213887762d5229550c2b","71.138.89.249","Mozilla/5.0 (Windows NT 10.0; Win64; x64) AppleWebKit/537.36 (KHTML, like Gecko) Chrome/138.0.0.0 Safari/537.36","WebKit","Chrome","138.0.0.0","Windows","10.0","https://app.prolific.com/","en-US,en;q=0.9","5f0a7dec44c42c19a6c9f6d9","686e379bc37a29ffa5cdc956","687e071c6d799f84edacabd5","1","1","5f0a7dec44c42c19a6c9f6d9","1","1","2025-07-21T09:46:13.547Z","","","","","","","","","","","AttribQ","","50","","","","","","","","","","","","","","","","","","","","","","","","","","","","",""
"3187","","<div style=""width:500px;"">
  <p>How much control did you have over the ball?</p>
  </div>","48","html-slider-response","71","1031602","0.0-5.0-2.12","136","1","2025-07-21 09:29:06","1f75c3e559b7213887762d5229550c2b","71.138.89.249","Mozilla/5.0 (Windows NT 10.0; Win64; x64) AppleWebKit/537.36 (KHTML, like Gecko) Chrome/138.0.0.0 Safari/537.36","WebKit","Chrome","138.0.0.0","Windows","10.0","https://app.prolific.com/","en-US,en;q=0.9","5f0a7dec44c42c19a6c9f6d9","686e379bc37a29ffa5cdc956","687e071c6d799f84edacabd5","1","1","5f0a7dec44c42c19a6c9f6d9","1","1","2025-07-21T09:46:16.739Z","","","","","","","","","","","ControlQ","","50","","","","","","","","","","","","","","","","","","","","","","","","","","","","",""
"2173","","<div style=""width:500px;"">
  <p>How would you describe your current emotional state?</p>
  </div>","73","html-slider-response","72","1033782","0.0-5.0-3.12","136","1","2025-07-21 09:29:06","1f75c3e559b7213887762d5229550c2b","71.138.89.249","Mozilla/5.0 (Windows NT 10.0; Win64; x64) AppleWebKit/537.36 (KHTML, like Gecko) Chrome/138.0.0.0 Safari/537.36","WebKit","Chrome","138.0.0.0","Windows","10.0","https://app.prolific.com/","en-US,en;q=0.9","5f0a7dec44c42c19a6c9f6d9","686e379bc37a29ffa5cdc956","687e071c6d799f84edacabd5","1","1","5f0a7dec44c42c19a6c9f6d9","1","1","2025-07-21T09:46:18.920Z","","","","","","","","","","","StressQ","","50","","","","","","","","","","","","","","","","","","","","","","","","","","","","",""
"1891","","<div style=""width:500px;"">
  <p>What best describes how you currently feel?</p>
  </div>","41","html-slider-response","73","1035685","0.0-5.0-4.12","136","1","2025-07-21 09:29:06","1f75c3e559b7213887762d5229550c2b","71.138.89.249","Mozilla/5.0 (Windows NT 10.0; Win64; x64) AppleWebKit/537.36 (KHTML, like Gecko) Chrome/138.0.0.0 Safari/537.36","WebKit","Chrome","138.0.0.0","Windows","10.0","https://app.prolific.com/","en-US,en;q=0.9","5f0a7dec44c42c19a6c9f6d9","686e379bc37a29ffa5cdc956","687e071c6d799f84edacabd5","1","1","5f0a7dec44c42c19a6c9f6d9","1","1","2025-07-21T09:46:20.822Z","","","","","","","","","","","MotivationQ","","50","","","","","","","","","","","","","","","","","","","","","","","","","","","","",""
"","","","","ctl-task-cpt","74","1147284","0.0-5.0-0.13","136","1","2025-07-21 09:29:06","1f75c3e559b7213887762d5229550c2b","71.138.89.249","Mozilla/5.0 (Windows NT 10.0; Win64; x64) AppleWebKit/537.36 (KHTML, like Gecko) Chrome/138.0.0.0 Safari/537.36","WebKit","Chrome","138.0.0.0","Windows","10.0","https://app.prolific.com/","en-US,en;q=0.9","5f0a7dec44c42c19a6c9f6d9","686e379bc37a29ffa5cdc956","687e071c6d799f84edacabd5","1","1","5f0a7dec44c42c19a6c9f6d9","1","1","2025-07-21T09:48:12.421Z","","","","","","","","","","","","","","win-only","3","g1:SW,g2:NE","0.8","14","0","1038043.8","1477.2","6494.3","108456","1","4","8","6","1","1","0","15","15","0.11363636363636363","5017.1","3000","2690","[""down"",""left""]","{""num_key_presses"":10,""num_perfect"":7,""num_errors"":1,""num_randdir"":2,""num_randdir_good_moves"":1,""num_whilered"":0,""num_whileblue"":0,""num_blue"":0,""num_good_moves"":7}","[408.0898017883301,420.77734288573265,0.6,408.0898017883301,420.77734288573265,122.9,552.4648017883301,425.69921788573265,391.7,585.2773017883301,427.33984288573265,534.3,660.7460517883301,425.69921788573265,658.8,713.2460517883301,415.85546788573265,788.2,718.1679267883301,417.49609288573265,891.6,805.1210517883301,401.08984288573265,1025.9,875.6679267883301,389.60546788573265,1142.7,1097.15230178833,350.23046788573265,1262.2,1097.15230178833,350.23046788573265,1383.5,1097.15230178833,350.23046788573265,1587.8,1097.15230178833,350.23046788573265,1700.6,1097.15230178833,350.23046788573265,1819.2,1097.15230178833,350.23046788573265,1922.4,1097.15230178833,350.23046788573265,2042,1097.15230178833,350.23046788573265,2150.9,1097.15230178833,350.23046788573265,2257.5,1097.15230178833,350.23046788573265,2367.9,1097.15230178833,350.23046788573265,2471.1,1097.15230178833,350.23046788573265,2595.2,1097.15230178833,350.23046788573265,2697,1097.15230178833,350.23046788573265,2814,1097.15230178833,350.23046788573265,2914.2,1097.15230178833,350.23046788573265,3025.7,1097.15230178833,350.23046788573265,3132.9,1097.15230178833,350.23046788573265,3253.8,1097.15230178833,350.23046788573265,3363.1,1097.15230178833,350.23046788573265,3579.2,1097.15230178833,350.23046788573265,3681,1097.15230178833,350.23046788573265,3801,1097.15230178833,350.23046788573265,3904.2,1097.15230178833,350.23046788573265,4036,1097.15230178833,350.23046788573265,4137.1,1097.15230178833,350.23046788573265,4262.7,1097.15230178833,350.23046788573265,4368.9,1097.15230178833,350.23046788573265,4475.7,1097.15230178833,350.23046788573265,4587.1,1097.15230178833,350.23046788573265,4695.7,1097.15230178833,350.23046788573265,4805.6,1097.15230178833,350.23046788573265,4910]","[493.6,493.6,1000,0,-506.4,""error"",""-"",""-"",""no_move"",4678.8,4185.1,2549.9,1557.7,571.3,""smooth"",""down"",""down"",""good_move"",8345.8,3666.5,3163.5,4679.3,503,""smooth"",""up"",""up"",""bad_move"",27853.6,19507.5,3229.5,8346.1,16278,""smooth"",""left"",""left"",""good_move"",47753.3,19898.8,2501.3,27854.5,17397.5,""oops"",""left"",""up"",""bad_move"",67456.6,19702.4,2344.5,47754.6,17357.5,""smooth"",""left"",""left"",""good_move"",87431,19974.1,2455,67456.9,17519.1,""smooth"",""down"",""down"",""good_move"",92163.1,4731.8,2546,87431.3,2185.8,""smooth"",""down"",""down"",""good_move"",96638,4473.5,3289.6,92164.5,1183.9,""oops"",""down"",""down"",""good_move"",99964.7,3326.2,2220,96638.5,1106.2,""smooth"",""down"",""down"",""good_move""]","",""
"3293","","<div style=""width:500px;"">
  <p>What determined the result of this run?</p>
  </div>","50","html-slider-response","75","1150586","0.0-5.0-1.13","136","1","2025-07-21 09:29:06","1f75c3e559b7213887762d5229550c2b","71.138.89.249","Mozilla/5.0 (Windows NT 10.0; Win64; x64) AppleWebKit/537.36 (KHTML, like Gecko) Chrome/138.0.0.0 Safari/537.36","WebKit","Chrome","138.0.0.0","Windows","10.0","https://app.prolific.com/","en-US,en;q=0.9","5f0a7dec44c42c19a6c9f6d9","686e379bc37a29ffa5cdc956","687e071c6d799f84edacabd5","1","1","5f0a7dec44c42c19a6c9f6d9","1","1","2025-07-21T09:48:15.723Z","","","","","","","","","","","AttribQ","","50","","","","","","","","","","","","","","","","","","","","","","","","","","","","",""
"2907","","<div style=""width:500px;"">
  <p>How much control did you have over the ball?</p>
  </div>","37","html-slider-response","76","1153500","0.0-5.0-2.13","136","1","2025-07-21 09:29:06","1f75c3e559b7213887762d5229550c2b","71.138.89.249","Mozilla/5.0 (Windows NT 10.0; Win64; x64) AppleWebKit/537.36 (KHTML, like Gecko) Chrome/138.0.0.0 Safari/537.36","WebKit","Chrome","138.0.0.0","Windows","10.0","https://app.prolific.com/","en-US,en;q=0.9","5f0a7dec44c42c19a6c9f6d9","686e379bc37a29ffa5cdc956","687e071c6d799f84edacabd5","1","1","5f0a7dec44c42c19a6c9f6d9","1","1","2025-07-21T09:48:18.637Z","","","","","","","","","","","ControlQ","","50","","","","","","","","","","","","","","","","","","","","","","","","","","","","",""
"2751","","<div style=""width:500px;"">
  <p>How would you describe your current emotional state?</p>
  </div>","68","html-slider-response","77","1156259","0.0-5.0-3.13","136","1","2025-07-21 09:29:06","1f75c3e559b7213887762d5229550c2b","71.138.89.249","Mozilla/5.0 (Windows NT 10.0; Win64; x64) AppleWebKit/537.36 (KHTML, like Gecko) Chrome/138.0.0.0 Safari/537.36","WebKit","Chrome","138.0.0.0","Windows","10.0","https://app.prolific.com/","en-US,en;q=0.9","5f0a7dec44c42c19a6c9f6d9","686e379bc37a29ffa5cdc956","687e071c6d799f84edacabd5","1","1","5f0a7dec44c42c19a6c9f6d9","1","1","2025-07-21T09:48:21.396Z","","","","","","","","","","","StressQ","","50","","","","","","","","","","","","","","","","","","","","","","","","","","","","",""
"5331","","<div style=""width:500px;"">
  <p>What best describes how you currently feel?</p>
