"rt","response_timestamp","stimulus","response","trial_type","trial_index","time_elapsed","internal_node_id","run_id","condition","recorded_at","source_code_version","ip","user_agent","device","browser","browser_version","platform","platform_version","referer","accept_language","PROLIFIC_PID","STUDY_ID","SESSION_ID","WEEK","BATCH","prolific_id","week","batch","realtime","success","responses","item_order","radio_event_ids","radio_event_times","key_event_times","mouse_event_times","straightlining","zigzagging","honeypot","eventType","view_history","slider_start","which_type","canvas_config","goals_layout","control_level","trial_number","tutorial_trial_number","trial_start_time","phase1_start_time","phase2_start_time","phase3_start_time","goal_1_value","goal_1_distance","goal_2_value","goal_2_distance","goal_selected","outcome","outcome_total","participant_final_score","participant_initial_score","participant_final_score_prop","goal_choice_rt","allocated_time","allocated_time_remaining","goal_direction","counts","mouse_movements","key_presses","question_order","question_id"
"2472","1753944118687","<p style='font-size:40px;line-height:1.25'><strong>Welcome to the experiment!</strong></p><p style='font-size:1.1em;line-height:1.25'>Thank you for participanting in our experiment again! You will be asked to play the Dysfunctional Ball Game again. We will briefly recap the rules before we start.</p><p style='font-size:1.1em;line-height:1.25'>Press <strong>Next</strong> to continue.</p>","0","custom-html-button-response","0","2477","0.0-0.0","305","1","2025-07-31 06:41:47","1f75c3e559b7213887762d5229550c2b","41.74.177.238","Mozilla/5.0 (Windows NT 10.0; Win64; x64) AppleWebKit/537.36 (KHTML, like Gecko) Chrome/138.0.0.0 Safari/537.36","WebKit","Chrome","138.0.0.0","Windows","10.0","https://app.prolific.com/","en-US,en;q=0.9","6122f45e2e93a3ff9a7b7a5d","6877631c9844ddd5501205fc","688b1021682c68071b226db0","3","1","6122f45e2e93a3ff9a7b7a5d","3","1","2025-07-31T06:41:58.690Z","","","","","","","","","","","","","","","","","","","","","","","","","","","","","","","","","","","","","","","","","",""
"5793","","","","fullscreen","1","9278","0.0-1.0","305","1","2025-07-31 06:41:47","1f75c3e559b7213887762d5229550c2b","41.74.177.238","Mozilla/5.0 (Windows NT 10.0; Win64; x64) AppleWebKit/537.36 (KHTML, like Gecko) Chrome/138.0.0.0 Safari/537.36","WebKit","Chrome","138.0.0.0","Windows","10.0","https://app.prolific.com/","en-US,en;q=0.9","6122f45e2e93a3ff9a7b7a5d","6877631c9844ddd5501205fc","688b1021682c68071b226db0","3","1","6122f45e2e93a3ff9a7b7a5d","3","1","","true","","","","","","","","","","","","","","","","","","","","","","","","","","","","","","","","","","","","","","","","",""
"1722","1753944127213","<p style='font-size:1.1em;line-height:1.25'>In the following, we will ask you a few questions relating to your feelings in the last 24 hours.<br></p><p style='font-size:1.1em;line-height:1.25'>Press the <strong>Next</strong> button to continue.</p>","0","custom-html-button-response","2","11001","0.0-2.0-0.0","305","1","2025-07-31 06:41:47","1f75c3e559b7213887762d5229550c2b","41.74.177.238","Mozilla/5.0 (Windows NT 10.0; Win64; x64) AppleWebKit/537.36 (KHTML, like Gecko) Chrome/138.0.0.0 Safari/537.36","WebKit","Chrome","138.0.0.0","Windows","10.0","https://app.prolific.com/","en-US,en;q=0.9","6122f45e2e93a3ff9a7b7a5d","6877631c9844ddd5501205fc","688b1021682c68071b226db0","3","1","6122f45e2e93a3ff9a7b7a5d","3","1","2025-07-31T06:42:07.214Z","","","","","","","","","","","","","","","","","","","","","","","","","","","","","","","","","","","","","","","","","",""
"59705.60000002384","","","","survey-template","3","70717","0.0-2.0-1.0","305","1","2025-07-31 06:41:47","1f75c3e559b7213887762d5229550c2b","41.74.177.238","Mozilla/5.0 (Windows NT 10.0; Win64; x64) AppleWebKit/537.36 (KHTML, like Gecko) Chrome/138.0.0.0 Safari/537.36","WebKit","Chrome","138.0.0.0","Windows","10.0","https://app.prolific.com/","en-US,en;q=0.9","6122f45e2e93a3ff9a7b7a5d","6877631c9844ddd5501205fc","688b1021682c68071b226db0","3","1","6122f45e2e93a3ff9a7b7a5d","3","1","2025-07-31T06:43:06.929Z","","{""Q01"":""3"",""Q02"":""2"",""Q03"":""2"",""Q04"":""4"",""Q05"":""4"",""Q06"":""3"",""Q07"":""3"",""Q08"":""4"",""Q09"":""3"",""Q10"":""2"",""Q11"":""4"",""Q12"":""3"",""Q13"":""5"",""Q14"":""3"",""Q15"":""4"",""Q16"":""4"",""Q17"":""4"",""Q18"":""2"",""Q19"":""4"",""Q20"":""3"",""Q21"":""3"",""Q22"":""3""}","[0,1,2,3,4,5,6,7,8,9,10,11,12,13,14,15,16,17,18,19,20,21]","[""Q01"",""Q02"",""Q03"",""Q04"",""Q05"",""Q06"",""Q07"",""Q08"",""Q09"",""Q10"",""Q11"",""Q12"",""Q13"",""Q14"",""Q15"",""Q16"",""Q17"",""Q18"",""Q19"",""Q20"",""Q21"",""Q22""]","[4275.199999988079,6179.800000011921,7776,9834.199999988079,12400.100000023842,17265.899999976158,18891.69999998808,24559.100000023842,27057.600000023842,28755.69999998808,30399.80000001192,33553.10000002384,37149.19999998808,38943.10000002384,42221.19999998808,44641,46247.10000002384,47979.19999998808,51577.30000001192,54931,56931.19999998808,57924.80000001192]","[]","[0.19999998807907104,4275.199999988079,6179.800000011921,7776,9834.199999988079,12400.100000023842,17265.899999976158,18891.69999998808,24559.100000023842,27057.600000023842,28755.69999998808,30399.80000001192,33114.5,33553.10000002384,37149.19999998808,38943.10000002384,42221.19999998808,44641,46247.10000002384,47979.19999998808,51577.30000001192,54931,56931.19999998808,57924.80000001192,59699.10000002384]","0.4090909090909091","0.38095238095238093","0","drsp","","","","","","","","","","","","","","","","","","","","","","","","","","","","","","",""
"11001.699999988079","","","","survey-template","4","81721","0.0-2.0-2.0","305","1","2025-07-31 06:41:47","1f75c3e559b7213887762d5229550c2b","41.74.177.238","Mozilla/5.0 (Windows NT 10.0; Win64; x64) AppleWebKit/537.36 (KHTML, like Gecko) Chrome/138.0.0.0 Safari/537.36","WebKit","Chrome","138.0.0.0","Windows","10.0","https://app.prolific.com/","en-US,en;q=0.9","6122f45e2e93a3ff9a7b7a5d","6877631c9844ddd5501205fc","688b1021682c68071b226db0","3","1","6122f45e2e93a3ff9a7b7a5d","3","1","2025-07-31T06:43:17.933Z","","{""Q01"":""3"",""Q02"":""3"",""Q03"":""3""}","[0,1,2]","[""Q01"",""Q02"",""Q03""]","[4029.899999976158,6973.199999988079,10245.099999964237]","[]","[4029.899999976158,6973.199999988079,10245.099999964237,11001]","0.6666666666666666","1","0","stress","","","","","","","","","","","","","","","","","","","","","","","","","","","","","","",""
"3307","","","","instructions","5","85028","0.0-3.0-0.0","305","1","2025-07-31 06:41:47","1f75c3e559b7213887762d5229550c2b","41.74.177.238","Mozilla/5.0 (Windows NT 10.0; Win64; x64) AppleWebKit/537.36 (KHTML, like Gecko) Chrome/138.0.0.0 Safari/537.36","WebKit","Chrome","138.0.0.0","Windows","10.0","https://app.prolific.com/","en-US,en;q=0.9","6122f45e2e93a3ff9a7b7a5d","6877631c9844ddd5501205fc","688b1021682c68071b226db0","3","1","6122f45e2e93a3ff9a7b7a5d","3","1","","","","","","","","","","","","","[{""page_index"":0,""viewing_time"":3307}]","","","","","","","","","","","","","","","","","","","","","","","","","","","","","",""
"5956","","<p>Before you start with this game please answer the following three questions yourself. </p>
  <p>Through this game, we measure several aspects of your cognitive performance, such as reaction times, multi-tasking capabilities </p>
  <p>and the ability to assess the situation you are in.</p>
  <p></p>
  <p><b>How good do you usually are in such tasks?</b></p>","71","html-slider-response","6","90988","0.0-4.0-0.0","305","1","2025-07-31 06:41:47","1f75c3e559b7213887762d5229550c2b","41.74.177.238","Mozilla/5.0 (Windows NT 10.0; Win64; x64) AppleWebKit/537.36 (KHTML, like Gecko) Chrome/138.0.0.0 Safari/537.36","WebKit","Chrome","138.0.0.0","Windows","10.0","https://app.prolific.com/","en-US,en;q=0.9","6122f45e2e93a3ff9a7b7a5d","6877631c9844ddd5501205fc","688b1021682c68071b226db0","3","1","6122f45e2e93a3ff9a7b7a5d","3","1","2025-07-31T06:43:27.200Z","","","","","","","","","","","PreSkillQ","","50","","","","","","","","","","","","","","","","","","","","","","","","","","","","",""
"4923","","<div style=""width:500px;"">
  <p>How well do you think you will perform in this task compared to other participants?</p>
  </div>","64","html-slider-response","7","95912","0.0-4.0-1.0","305","1","2025-07-31 06:41:47","1f75c3e559b7213887762d5229550c2b","41.74.177.238","Mozilla/5.0 (Windows NT 10.0; Win64; x64) AppleWebKit/537.36 (KHTML, like Gecko) Chrome/138.0.0.0 Safari/537.36","WebKit","Chrome","138.0.0.0","Windows","10.0","https://app.prolific.com/","en-US,en;q=0.9","6122f45e2e93a3ff9a7b7a5d","6877631c9844ddd5501205fc","688b1021682c68071b226db0","3","1","6122f45e2e93a3ff9a7b7a5d","3","1","2025-07-31T06:43:32.124Z","","","","","","","","","","","PrePerfQ","","50","","","","","","","","","","","","","","","","","","","","","","","","","","","","",""
"13586","","<div style=""width:500px;"">
  <p>What best describes how you currently feel?</p>
  </div>","62","html-slider-response","8","109499","0.0-4.0-2.0","305","1","2025-07-31 06:41:47","1f75c3e559b7213887762d5229550c2b","41.74.177.238","Mozilla/5.0 (Windows NT 10.0; Win64; x64) AppleWebKit/537.36 (KHTML, like Gecko) Chrome/138.0.0.0 Safari/537.36","WebKit","Chrome","138.0.0.0","Windows","10.0","https://app.prolific.com/","en-US,en;q=0.9","6122f45e2e93a3ff9a7b7a5d","6877631c9844ddd5501205fc","688b1021682c68071b226db0","3","1","6122f45e2e93a3ff9a7b7a5d","3","1","2025-07-31T06:43:45.712Z","","","","","","","","","","","PreMotivationQ","","50","","","","","","","","","","","","","","","","","","","","","","","","","","","","",""
"","","","","ctl-task-cpt","9","143753","0.0-5.0-0.0","305","1","2025-07-31 06:41:47","1f75c3e559b7213887762d5229550c2b","41.74.177.238","Mozilla/5.0 (Windows NT 10.0; Win64; x64) AppleWebKit/537.36 (KHTML, like Gecko) Chrome/138.0.0.0 Safari/537.36","WebKit","Chrome","138.0.0.0","Windows","10.0","https://app.prolific.com/","en-US,en;q=0.9","6122f45e2e93a3ff9a7b7a5d","6877631c9844ddd5501205fc","688b1021682c68071b226db0","3","1","6122f45e2e93a3ff9a7b7a5d","3","1","2025-07-31T06:44:19.965Z","","","","","","","","","","","","","","win-only","3","g1:SW,g2:NE","1","1","0","118825.9","1884.2","6889.4","31232.2","1","4","8","6","1","1","0","0","0","0","1310.6","3000","1550","[""down"",""left""]","{""num_key_presses"":5,""num_perfect"":4,""num_errors"":1,""num_randdir"":0,""num_randdir_good_moves"":0,""num_whilered"":0,""num_whileblue"":0,""num_blue"":3,""num_good_moves"":4}","[406.07142857142856,413.1808016640799,0.3,407.57142857142856,413.1808016640799,106.8,407.57142857142856,413.1808016640799,207.3,407.57142857142856,413.1808016640799,312.3,407.57142857142856,414.6808016640799,421.9,407.57142857142856,414.6808016640799,526.4,407.57142857142856,414.6808016640799,627.9,407.57142857142856,414.6808016640799,728.5,404.57142857142856,425.1808016640799,832.3,311.57142857142856,494.1808016640799,938.3,113.57142857142857,678.6808016640799,1042.2,77.57142857142857,749.1808016640799,1148.7,74.57142857142857,755.1808016640799,1255.7,73.07142857142857,755.1808016640799,1356.5,73.07142857142857,755.1808016640799,1457.7,73.07142857142857,755.1808016640799,1559.8,74.57142857142857,755.1808016640799,1663.3,154.07142857142856,752.1808016640799,1771.7,449.57142857142856,705.6808016640799,1877.5,647.5714285714286,647.1808016640799,1982.2,709.0714285714286,590.1808016640799,2083.3,779.5714285714286,596.1808016640799,2185.7,833.5714285714286,611.1808016640799,2290,833.5714285714286,611.1808016640799,2391.8,833.5714285714286,611.1808016640799,2492.3,833.5714285714286,611.1808016640799,2597.3,833.5714285714286,611.1808016640799,2698.6,833.5714285714286,611.1808016640799,2805.2,833.5714285714286,611.1808016640799,2906.6,833.5714285714286,611.1808016640799,3007.3,833.5714285714286,611.1808016640799,3107.4,833.5714285714286,611.1808016640799,3207.6,833.5714285714286,611.1808016640799,3311.9,833.5714285714286,611.1808016640799,3412.9,833.5714285714286,611.1808016640799,3521.2,833.5714285714286,611.1808016640799,3621.9,833.5714285714286,611.1808016640799,3722.9,833.5714285714286,611.1808016640799,3823.7,833.5714285714286,611.1808016640799,3926.4,833.5714285714286,611.1808016640799,4031.4,833.5714285714286,611.1808016640799,4132.4,833.5714285714286,611.1808016640799,4237.8,833.5714285714286,611.1808016640799,4338.3,833.5714285714286,611.1808016640799,4441.4,833.5714285714286,611.1808016640799,4542.1,833.5714285714286,611.1808016640799,4642.2,833.5714285714286,611.1808016640799,4747.3,833.5714285714286,611.1808016640799,4854.6,833.5714285714286,611.1808016640799,4954.6]","[5733.8,5733.8,3390.7,2006.4,336.7,""smooth"",""down"",""down"",""good_move"",5917,183,3345,5734,-3162,""error"",""-"",""-"",""no_move"",10798.9,4881.5,3358.7,6922.3,517.9,""smooth"",""down"",""down"",""good_move"",14100.3,3301.2,2909.9,10799.1,391.3,""smooth"",""left"",""left"",""good_move"",24238.7,10137.4,2911.5,20926.1,401.1,""smooth"",""left"",""left"",""good_move""]","",""
"3821","","<div style=""width:500px;"">
  <p>What determined the result of this run?</p>
  </div>","76","html-slider-response","10","147577","0.0-5.0-1.0","305","1","2025-07-31 06:41:47","1f75c3e559b7213887762d5229550c2b","41.74.177.238","Mozilla/5.0 (Windows NT 10.0; Win64; x64) AppleWebKit/537.36 (KHTML, like Gecko) Chrome/138.0.0.0 Safari/537.36","WebKit","Chrome","138.0.0.0","Windows","10.0","https://app.prolific.com/","en-US,en;q=0.9","6122f45e2e93a3ff9a7b7a5d","6877631c9844ddd5501205fc","688b1021682c68071b226db0","3","1","6122f45e2e93a3ff9a7b7a5d","3","1","2025-07-31T06:44:23.789Z","","","","","","","","","","","AttribQ","","50","","","","","","","","","","","","","","","","","","","","","","","","","","","","",""
"3823","","<div style=""width:500px;"">
  <p>How much control did you have over the ball?</p>
  </div>","100","html-slider-response","11","151401","0.0-5.0-2.0","305","1","2025-07-31 06:41:47","1f75c3e559b7213887762d5229550c2b","41.74.177.238","Mozilla/5.0 (Windows NT 10.0; Win64; x64) AppleWebKit/537.36 (KHTML, like Gecko) Chrome/138.0.0.0 Safari/537.36","WebKit","Chrome","138.0.0.0","Windows","10.0","https://app.prolific.com/","en-US,en;q=0.9","6122f45e2e93a3ff9a7b7a5d","6877631c9844ddd5501205fc","688b1021682c68071b226db0","3","1","6122f45e2e93a3ff9a7b7a5d","3","1","2025-07-31T06:44:27.613Z","","","","","","","","","","","ControlQ","","50","","","","","","","","","","","","","","","","","","","","","","","","","","","","",""
"5382","","<div style=""width:500px;"">
  <p>How would you describe your current emotional state?</p>
  </div>","27","html-slider-response","12","156785","0.0-5.0-3.0","305","1","2025-07-31 06:41:47","1f75c3e559b7213887762d5229550c2b","41.74.177.238","Mozilla/5.0 (Windows NT 10.0; Win64; x64) AppleWebKit/537.36 (KHTML, like Gecko) Chrome/138.0.0.0 Safari/537.36","WebKit","Chrome","138.0.0.0","Windows","10.0","https://app.prolific.com/","en-US,en;q=0.9","6122f45e2e93a3ff9a7b7a5d","6877631c9844ddd5501205fc","688b1021682c68071b226db0","3","1","6122f45e2e93a3ff9a7b7a5d","3","1","2025-07-31T06:44:32.997Z","","","","","","","","","","","StressQ","","50","","","","","","","","","","","","","","","","","","","","","","","","","","","","",""
"3278","","<div style=""width:500px;"">
  <p>What best describes how you currently feel?</p>
  </div>","72","html-slider-response","13","160065","0.0-5.0-4.0","305","1","2025-07-31 06:41:47","1f75c3e559b7213887762d5229550c2b","41.74.177.238","Mozilla/5.0 (Windows NT 10.0; Win64; x64) AppleWebKit/537.36 (KHTML, like Gecko) Chrome/138.0.0.0 Safari/537.36","WebKit","Chrome","138.0.0.0","Windows","10.0","https://app.prolific.com/","en-US,en;q=0.9","6122f45e2e93a3ff9a7b7a5d","6877631c9844ddd5501205fc","688b1021682c68071b226db0","3","1","6122f45e2e93a3ff9a7b7a5d","3","1","2025-07-31T06:44:36.277Z","","","","","","","","","","","MotivationQ","","50","","","","","","","","","","","","","","","","","","","","","","","","","","","","",""
"","","","","ctl-task-cpt","14","184865","0.0-5.0-0.1","305","1","2025-07-31 06:41:47","1f75c3e559b7213887762d5229550c2b","41.74.177.238","Mozilla/5.0 (Windows NT 10.0; Win64; x64) AppleWebKit/537.36 (KHTML, like Gecko) Chrome/138.0.0.0 Safari/537.36","WebKit","Chrome","138.0.0.0","Windows","10.0","https://app.prolific.com/","en-US,en;q=0.9","6122f45e2e93a3ff9a7b7a5d","6877631c9844ddd5501205fc","688b1021682c68071b226db0","3","1","6122f45e2e93a3ff9a7b7a5d","3","1","2025-07-31T06:45:01.077Z","","","","","","","","","","","","","","win-only","3","g1:SW,g2:NE","0.9","2","0","169379.6","1243.4","6246.4","21781.1","1","4","4","6","2","4","4","4","0","0.030303030303030304","1102.3","3000","1015","[""up"",""right""]","{""num_key_presses"":6,""num_perfect"":6,""num_errors"":0,""num_randdir"":0,""num_randdir_good_moves"":0,""num_whilered"":0,""num_whileblue"":0,""num_blue"":0,""num_good_moves"":6}","[412.07142857142856,407.1808016640799,0.4,413.57142857142856,407.1808016640799,106.7,413.57142857142856,407.1808016640799,208.2,413.57142857142856,407.1808016640799,310.5,412.07142857142856,407.1808016640799,412.4,412.07142857142856,407.1808016640799,512.8,412.07142857142856,407.1808016640799,617.9,439.07142857142856,393.6808016640799,718.2,673.0714285714286,161.18080166407992,822,697.0714285714286,117.68080166407994,922.6,725.5714285714286,107.18080166407994,1029,731.5714285714286,107.18080166407994,1133.7,731.5714285714286,107.18080166407994,1237.8,728.5714285714286,128.18080166407992,1338.7,857.5714285714286,192.68080166407992,1443.1,884.5714285714286,230.18080166407992,1547.4,884.5714285714286,230.18080166407992,1647.8,884.5714285714286,230.18080166407992,1752.6,884.5714285714286,230.18080166407992,1852.6,884.5714285714286,230.18080166407992,1953,884.5714285714286,230.18080166407992,2056.9,884.5714285714286,230.18080166407992,2157.7,884.5714285714286,230.18080166407992,2257.7,884.5714285714286,230.18080166407992,2363.9,884.5714285714286,230.18080166407992,2467.4,884.5714285714286,230.18080166407992,2567.8,884.5714285714286,230.18080166407992,2668.4,884.5714285714286,230.18080166407992,2768.6,884.5714285714286,230.18080166407992,2872.7,884.5714285714286,230.18080166407992,2973.6,884.5714285714286,230.18080166407992,3076.2,884.5714285714286,230.18080166407992,3178.2,884.5714285714286,230.18080166407992,3278.4,884.5714285714286,230.18080166407992,3384,884.5714285714286,230.18080166407992,3487.2,884.5714285714286,230.18080166407992,3587.9,884.5714285714286,230.18080166407992,3692.8,884.5714285714286,230.18080166407992,3798,884.5714285714286,230.18080166407992,3898.5,884.5714285714286,230.18080166407992,4002.5,884.5714285714286,230.18080166407992,4103.1,884.5714285714286,230.18080166407992,4208.4,884.5714285714286,230.18080166407992,4312.7,884.5714285714286,230.18080166407992,4413.1,884.5714285714286,230.18080166407992,4513.3,884.5714285714286,230.18080166407992,4617,884.5714285714286,230.18080166407992,4717.7,884.5714285714286,230.18080166407992,4818.2,884.5714285714286,230.18080166407992,4922.4]","[1393.9,1393.9,1000,0,393.9,""smooth"",""up"",""up"",""good_move"",4157,2762.9,2348.5,1394.1,414.4,""smooth"",""up"",""up"",""good_move"",6982.8,2825.7,2482.1,4157.1,343.6,""smooth"",""up"",""up"",""good_move"",9914.2,2931.1,2647.8,6983.1,283.3,""smooth"",""right"",""right"",""good_move"",12705.9,2791.2,2461.5,9914.7,329.7,""smooth"",""right"",""right"",""good_move"",15446.6,2740.5,2443.8,12706.1,296.7,""smooth"",""right"",""right"",""good_move""]","",""
"3221","","<div style=""width:500px;"">
  <p>What determined the result of this run?</p>
  </div>","94","html-slider-response","15","188088","0.0-5.0-1.1","305","1","2025-07-31 06:41:47","1f75c3e559b7213887762d5229550c2b","41.74.177.238","Mozilla/5.0 (Windows NT 10.0; Win64; x64) AppleWebKit/537.36 (KHTML, like Gecko) Chrome/138.0.0.0 Safari/537.36","WebKit","Chrome","138.0.0.0","Windows","10.0","https://app.prolific.com/","en-US,en;q=0.9","6122f45e2e93a3ff9a7b7a5d","6877631c9844ddd5501205fc","688b1021682c68071b226db0","3","1","6122f45e2e93a3ff9a7b7a5d","3","1","2025-07-31T06:45:04.301Z","","","","","","","","","","","AttribQ","","50","","","","","","","","","","","","","","","","","","","","","","","","","","","","",""
"3697","","<div style=""width:500px;"">
  <p>How much control did you have over the ball?</p>
  </div>","100","html-slider-response","16","191787","0.0-5.0-2.1","305","1","2025-07-31 06:41:47","1f75c3e559b7213887762d5229550c2b","41.74.177.238","Mozilla/5.0 (Windows NT 10.0; Win64; x64) AppleWebKit/537.36 (KHTML, like Gecko) Chrome/138.0.0.0 Safari/537.36","WebKit","Chrome","138.0.0.0","Windows","10.0","https://app.prolific.com/","en-US,en;q=0.9","6122f45e2e93a3ff9a7b7a5d","6877631c9844ddd5501205fc","688b1021682c68071b226db0","3","1","6122f45e2e93a3ff9a7b7a5d","3","1","2025-07-31T06:45:07.999Z","","","","","","","","","","","ControlQ","","50","","","","","","","","","","","","","","","","","","","","","","","","","","","","",""
"7069","","<div style=""width:500px;"">
  <p>How would you describe your current emotional state?</p>
  </div>","25","html-slider-response","17","198857","0.0-5.0-3.1","305","1","2025-07-31 06:41:47","1f75c3e559b7213887762d5229550c2b","41.74.177.238","Mozilla/5.0 (Windows NT 10.0; Win64; x64) AppleWebKit/537.36 (KHTML, like Gecko) Chrome/138.0.0.0 Safari/537.36","WebKit","Chrome","138.0.0.0","Windows","10.0","https://app.prolific.com/","en-US,en;q=0.9","6122f45e2e93a3ff9a7b7a5d","6877631c9844ddd5501205fc","688b1021682c68071b226db0","3","1","6122f45e2e93a3ff9a7b7a5d","3","1","2025-07-31T06:45:15.069Z","","","","","","","","","","","StressQ","","50","","","","","","","","","","","","","","","","","","","","","","","","","","","","",""
"3129","","<div style=""width:500px;"">
  <p>What best describes how you currently feel?</p>
  </div>","82","html-slider-response","18","201986","0.0-5.0-4.1","305","1","2025-07-31 06:41:47","1f75c3e559b7213887762d5229550c2b","41.74.177.238","Mozilla/5.0 (Windows NT 10.0; Win64; x64) AppleWebKit/537.36 (KHTML, like Gecko) Chrome/138.0.0.0 Safari/537.36","WebKit","Chrome","138.0.0.0","Windows","10.0","https://app.prolific.com/","en-US,en;q=0.9","6122f45e2e93a3ff9a7b7a5d","6877631c9844ddd5501205fc","688b1021682c68071b226db0","3","1","6122f45e2e93a3ff9a7b7a5d","3","1","2025-07-31T06:45:18.198Z","","","","","","","","","","","MotivationQ","","50","","","","","","","","","","","","","","","","","","","","","","","","","","","","",""
"","","","","ctl-task-cpt","19","228445","0.0-5.0-0.2","305","1","2025-07-31 06:41:47","1f75c3e559b7213887762d5229550c2b","41.74.177.238","Mozilla/5.0 (Windows NT 10.0; Win64; x64) AppleWebKit/537.36 (KHTML, like Gecko) Chrome/138.0.0.0 Safari/537.36","WebKit","Chrome","138.0.0.0","Windows","10.0","https://app.prolific.com/","en-US,en;q=0.9","6122f45e2e93a3ff9a7b7a5d","6877631c9844ddd5501205fc","688b1021682c68071b226db0","3","1","6122f45e2e93a3ff9a7b7a5d","3","1","2025-07-31T06:45:44.657Z","","","","","","","","","","","","","","win-only","1","g1:NE,g2:SW","0.8","3","0","211303","1919.8","6921.1","23440.4","1","4","8","6","1","1","0","4","4","0.030303030303030304","2090.1","3000","1340","[""up"",""right""]","{""num_key_presses"":6,""num_perfect"":5,""num_errors"":1,""num_randdir"":0,""num_randdir_good_moves"":0,""num_whilered"":0,""num_whileblue"":1,""num_blue"":1,""num_good_moves"":5}","[415.07142857142856,414.6808016640799,0.1,415.07142857142856,414.6808016640799,100.7,415.07142857142856,414.6808016640799,202.2,415.07142857142856,414.6808016640799,305.5,415.07142857142856,414.6808016640799,406.3,415.07142857142856,414.6808016640799,511.1,415.07142857142856,414.6808016640799,611.3,415.07142857142856,414.6808016640799,716.9,421.07142857142856,410.1808016640799,826.3,233.57142857142856,456.6808016640799,930.8,230.57142857142856,468.6808016640799,1030.9,434.57142857142856,338.1808016640799,1136.3,743.5714285714286,137.18080166407992,1240.9,737.5714285714286,107.18080166407994,1342.1,551.5714285714286,239.18080166407992,1446.1,221.57142857142856,591.6808016640799,1550.7,137.57142857142856,648.6808016640799,1652,137.57142857142856,635.1808016640799,1752.1,629.5714285714286,197.18080166407992,1855.5,776.5714285714286,105.68080166407994,1956.4,776.5714285714286,104.18080166407994,2061.7,776.5714285714286,104.18080166407994,2173,776.5714285714286,107.18080166407994,2276.6,871.0714285714286,206.18080166407992,2377.4,908.5714285714286,233.18080166407992,2481.6,908.5714285714286,233.18080166407992,2586.7,908.5714285714286,233.18080166407992,2686.7,908.5714285714286,233.18080166407992,2792.9,908.5714285714286,233.18080166407992,2895.7,908.5714285714286,233.18080166407992,2996.5,908.5714285714286,233.18080166407992,3100.6,908.5714285714286,233.18080166407992,3202.4,908.5714285714286,233.18080166407992,3305.7,908.5714285714286,233.18080166407992,3406.5,908.5714285714286,233.18080166407992,3510.8,908.5714285714286,233.18080166407992,3612.1,908.5714285714286,233.18080166407992,3716.6,908.5714285714286,233.18080166407992,3816.7,908.5714285714286,233.18080166407992,3921,908.5714285714286,233.18080166407992,4021,908.5714285714286,233.18080166407992,4123,908.5714285714286,233.18080166407992,4225.6,908.5714285714286,233.18080166407992,4326.4,908.5714285714286,233.18080166407992,4431,908.5714285714286,233.18080166407992,4532.1,908.5714285714286,233.18080166407992,4635.7,908.5714285714286,233.18080166407992,4736.1,908.5714285714286,233.18080166407992,4836.6,908.5714285714286,233.18080166407992,4940.7]","[1358.2,1358.2,1000,0,358.2,""smooth"",""up"",""up"",""good_move"",4089.8,2731.4,2402.5,1358.4,328.9,""smooth"",""up"",""up"",""good_move"",7082.1,2992.2,2685.5,4089.9,306.7,""smooth"",""right"",""right"",""good_move"",9710.1,2627.6,2316.9,7082.5,310.8,""while_blue"",""right"",""left"",""bad_move"",13133,3421.9,3079.7,9711.1,342.2,""smooth"",""right"",""right"",""good_move"",16432.8,3299.8,2913,13133.1,386.8,""smooth"",""right"",""right"",""good_move""]","",""
"3724","","<div style=""width:500px;"">
  <p>What determined the result of this run?</p>
  </div>","83","html-slider-response","20","232170","0.0-5.0-1.2","305","1","2025-07-31 06:41:47","1f75c3e559b7213887762d5229550c2b","41.74.177.238","Mozilla/5.0 (Windows NT 10.0; Win64; x64) AppleWebKit/537.36 (KHTML, like Gecko) Chrome/138.0.0.0 Safari/537.36","WebKit","Chrome","138.0.0.0","Windows","10.0","https://app.prolific.com/","en-US,en;q=0.9","6122f45e2e93a3ff9a7b7a5d","6877631c9844ddd5501205fc","688b1021682c68071b226db0","3","1","6122f45e2e93a3ff9a7b7a5d","3","1","2025-07-31T06:45:48.382Z","","","","","","","","","","","AttribQ","","50","","","","","","","","","","","","","","","","","","","","","","","","","","","","",""
"5778","","<div style=""width:500px;"">
  <p>How much control did you have over the ball?</p>
  </div>","80","html-slider-response","21","237950","0.0-5.0-2.2","305","1","2025-07-31 06:41:47","1f75c3e559b7213887762d5229550c2b","41.74.177.238","Mozilla/5.0 (Windows NT 10.0; Win64; x64) AppleWebKit/537.36 (KHTML, like Gecko) Chrome/138.0.0.0 Safari/537.36","WebKit","Chrome","138.0.0.0","Windows","10.0","https://app.prolific.com/","en-US,en;q=0.9","6122f45e2e93a3ff9a7b7a5d","6877631c9844ddd5501205fc","688b1021682c68071b226db0","3","1","6122f45e2e93a3ff9a7b7a5d","3","1","2025-07-31T06:45:54.162Z","","","","","","","","","","","ControlQ","","50","","","","","","","","","","","","","","","","","","","","","","","","","","","","",""
"3609","","<div style=""width:500px;"">
  <p>How would you describe your current emotional state?</p>
  </div>","22","html-slider-response","22","241561","0.0-5.0-3.2","305","1","2025-07-31 06:41:47","1f75c3e559b7213887762d5229550c2b","41.74.177.238","Mozilla/5.0 (Windows NT 10.0; Win64; x64) AppleWebKit/537.36 (KHTML, like Gecko) Chrome/138.0.0.0 Safari/537.36","WebKit","Chrome","138.0.0.0","Windows","10.0","https://app.prolific.com/","en-US,en;q=0.9","6122f45e2e93a3ff9a7b7a5d","6877631c9844ddd5501205fc","688b1021682c68071b226db0","3","1","6122f45e2e93a3ff9a7b7a5d","3","1","2025-07-31T06:45:57.773Z","","","","","","","","","","","StressQ","","50","","","","","","","","","","","","","","","","","","","","","","","","","","","","",""
"4317","","<div style=""width:500px;"">
  <p>What best describes how you currently feel?</p>
  </div>","79","html-slider-response","23","245879","0.0-5.0-4.2","305","1","2025-07-31 06:41:47","1f75c3e559b7213887762d5229550c2b","41.74.177.238","Mozilla/5.0 (Windows NT 10.0; Win64; x64) AppleWebKit/537.36 (KHTML, like Gecko) Chrome/138.0.0.0 Safari/537.36","WebKit","Chrome","138.0.0.0","Windows","10.0","https://app.prolific.com/","en-US,en;q=0.9","6122f45e2e93a3ff9a7b7a5d","6877631c9844ddd5501205fc","688b1021682c68071b226db0","3","1","6122f45e2e93a3ff9a7b7a5d","3","1","2025-07-31T06:46:02.091Z","","","","","","","","","","","MotivationQ","","50","","","","","","","","","","","","","","","","","","","","","","","","","","","","",""
"","","","","ctl-task-cpt","24","277601","0.0-5.0-0.3","305","1","2025-07-31 06:41:47","1f75c3e559b7213887762d5229550c2b","41.74.177.238","Mozilla/5.0 (Windows NT 10.0; Win64; x64) AppleWebKit/537.36 (KHTML, like Gecko) Chrome/138.0.0.0 Safari/537.36","WebKit","Chrome","138.0.0.0","Windows","10.0","https://app.prolific.com/","en-US,en;q=0.9","6122f45e2e93a3ff9a7b7a5d","6877631c9844ddd5501205fc","688b1021682c68071b226db0","3","1","6122f45e2e93a3ff9a7b7a5d","3","1","2025-07-31T06:46:33.813Z","","","","","","","","","","","","","","win-only","1","g1:NE,g2:SW","0.7","4","0","255194.3","2498.8","7501","28703","1","4","4","6","2","4","4","8","4","0.06060606060606061","1195.8","3000","205","[""down"",""left""]","{""num_key_presses"":8,""num_perfect"":7,""num_errors"":0,""num_randdir"":1,""num_randdir_good_moves"":0,""num_whilered"":0,""num_whileblue"":0,""num_blue"":0,""num_good_moves"":7}","[416.57142857142856,407.1808016640799,0.2,416.57142857142856,407.1808016640799,102.3,416.57142857142856,407.1808016640799,203.2,416.57142857142856,407.1808016640799,306.5,416.57142857142856,407.1808016640799,407.4,416.57142857142856,407.1808016640799,512.5,416.57142857142856,407.1808016640799,618.6,416.57142857142856,407.1808016640799,719.3,398.57142857142856,440.1808016640799,821.7,179.57142857142856,665.1808016640799,922.5,40.07142857142857,759.6808016640799,1026.9,38.57142857142857,761.1808016640799,1127.3,38.57142857142857,761.1808016640799,1231.5,38.57142857142857,761.1808016640799,1332.2,38.57142857142857,761.1808016640799,1432.3,287.57142857142856,729.6808016640799,1537,776.5714285714286,704.1808016640799,1639.7,967.0714285714286,698.1808016640799,1742.1,967.0714285714286,696.6808016640799,1842.1,967.0714285714286,696.6808016640799,1942.6,967.0714285714286,696.6808016640799,2046.8,967.0714285714286,696.6808016640799,2152.2,967.0714285714286,696.6808016640799,2252.3,967.0714285714286,696.6808016640799,2352.3,967.0714285714286,696.6808016640799,2457.5,967.0714285714286,696.6808016640799,2562.4,967.0714285714286,696.6808016640799,2667.1,967.0714285714286,696.6808016640799,2767.3,967.0714285714286,696.6808016640799,2872.1,967.0714285714286,696.6808016640799,2972.5,967.0714285714286,696.6808016640799,3073,967.0714285714286,696.6808016640799,3176.7,967.0714285714286,696.6808016640799,3276.7,967.0714285714286,696.6808016640799,3382.6,967.0714285714286,696.6808016640799,3487.3,967.0714285714286,696.6808016640799,3592.4,967.0714285714286,696.6808016640799,3697.3,967.0714285714286,696.6808016640799,3803.2,967.0714285714286,696.6808016640799,3906.4,967.0714285714286,696.6808016640799,4006.8,967.0714285714286,696.6808016640799,4107,967.0714285714286,696.6808016640799,4207.1,967.0714285714286,696.6808016640799,4312.1,967.0714285714286,696.6808016640799,4418.1,967.0714285714286,696.6808016640799,4521.7,967.0714285714286,696.6808016640799,4623.2,967.0714285714286,696.6808016640799,4732,967.0714285714286,696.6808016640799,4832.2,967.0714285714286,696.6808016640799,4937.1]","[1436.3,1436.3,1000,0,436.3,""smooth"",""down"",""down"",""good_move"",4976.3,3539.8,3175.7,1436.5,364.1,""smooth"",""down"",""down"",""good_move"",7634.5,2658,2301.7,4976.5,356.3,""smooth"",""down"",""down"",""good_move"",9810.6,2175.9,1832.2,7634.7,343.7,""smooth"",""left"",""left"",""good_move"",12571.5,2760.5,2421.6,9811,338.9,""oops"",""left"",""right"",""bad_move"",15521.8,2950.1,2566.9,12571.7,383.2,""smooth"",""left"",""left"",""good_move"",18247.9,2725.9,2390.6,15522,335.3,""smooth"",""left"",""left"",""good_move"",21109.8,2861.6,2508.9,18248.2,352.7,""smooth"",""left"",""left"",""good_move""]","",""
"3013","","<div style=""width:500px;"">
  <p>What determined the result of this run?</p>
  </div>","88","html-slider-response","25","280614","0.0-5.0-1.3","305","1","2025-07-31 06:41:47","1f75c3e559b7213887762d5229550c2b","41.74.177.238","Mozilla/5.0 (Windows NT 10.0; Win64; x64) AppleWebKit/537.36 (KHTML, like Gecko) Chrome/138.0.0.0 Safari/537.36","WebKit","Chrome","138.0.0.0","Windows","10.0","https://app.prolific.com/","en-US,en;q=0.9","6122f45e2e93a3ff9a7b7a5d","6877631c9844ddd5501205fc","688b1021682c68071b226db0","3","1","6122f45e2e93a3ff9a7b7a5d","3","1","2025-07-31T06:46:36.826Z","","","","","","","","","","","AttribQ","","50","","","","","","","","","","","","","","","","","","","","","","","","","","","","",""
"2919","","<div style=""width:500px;"">
  <p>How much control did you have over the ball?</p>
  </div>","85","html-slider-response","26","283535","0.0-5.0-2.3","305","1","2025-07-31 06:41:47","1f75c3e559b7213887762d5229550c2b","41.74.177.238","Mozilla/5.0 (Windows NT 10.0; Win64; x64) AppleWebKit/537.36 (KHTML, like Gecko) Chrome/138.0.0.0 Safari/537.36","WebKit","Chrome","138.0.0.0","Windows","10.0","https://app.prolific.com/","en-US,en;q=0.9","6122f45e2e93a3ff9a7b7a5d","6877631c9844ddd5501205fc","688b1021682c68071b226db0","3","1","6122f45e2e93a3ff9a7b7a5d","3","1","2025-07-31T06:46:39.747Z","","","","","","","","","","","ControlQ","","50","","","","","","","","","","","","","","","","","","","","","","","","","","","","",""
"2345","","<div style=""width:500px;"">
  <p>How would you describe your current emotional state?</p>
  </div>","21","html-slider-response","27","285883","0.0-5.0-3.3","305","1","2025-07-31 06:41:47","1f75c3e559b7213887762d5229550c2b","41.74.177.238","Mozilla/5.0 (Windows NT 10.0; Win64; x64) AppleWebKit/537.36 (KHTML, like Gecko) Chrome/138.0.0.0 Safari/537.36","WebKit","Chrome","138.0.0.0","Windows","10.0","https://app.prolific.com/","en-US,en;q=0.9","6122f45e2e93a3ff9a7b7a5d","6877631c9844ddd5501205fc","688b1021682c68071b226db0","3","1","6122f45e2e93a3ff9a7b7a5d","3","1","2025-07-31T06:46:42.096Z","","","","","","","","","","","StressQ","","50","","","","","","","","","","","","","","","","","","","","","","","","","","","","",""
"3281","","<div style=""width:500px;"">
  <p>What best describes how you currently feel?</p>
  </div>","89","html-slider-response","28","289166","0.0-5.0-4.3","305","1","2025-07-31 06:41:47","1f75c3e559b7213887762d5229550c2b","41.74.177.238","Mozilla/5.0 (Windows NT 10.0; Win64; x64) AppleWebKit/537.36 (KHTML, like Gecko) Chrome/138.0.0.0 Safari/537.36","WebKit","Chrome","138.0.0.0","Windows","10.0","https://app.prolific.com/","en-US,en;q=0.9","6122f45e2e93a3ff9a7b7a5d","6877631c9844ddd5501205fc","688b1021682c68071b226db0","3","1","6122f45e2e93a3ff9a7b7a5d","3","1","2025-07-31T06:46:45.378Z","","","","","","","","","","","MotivationQ","","50","","","","","","","","","","","","","","","","","","","","","","","","","","","","",""
"","","","","ctl-task-cpt","29","346984","0.0-5.0-0.4","305","1","2025-07-31 06:41:47","1f75c3e559b7213887762d5229550c2b","41.74.177.238","Mozilla/5.0 (Windows NT 10.0; Win64; x64) AppleWebKit/537.36 (KHTML, like Gecko) Chrome/138.0.0.0 Safari/537.36","WebKit","Chrome","138.0.0.0","Windows","10.0","https://app.prolific.com/","en-US,en;q=0.9","6122f45e2e93a3ff9a7b7a5d","6877631c9844ddd5501205fc","688b1021682c68071b226db0","3","1","6122f45e2e93a3ff9a7b7a5d","3","1","2025-07-31T06:47:43.196Z","","","","","","","","","","","","","","win-only","1","g1:NE,g2:SW","0.6","5","0","298481.8","1346.7","6353.1","54791.1","1","4","8","6","1","1","1","9","8","0.06818181818181818","1302.3","3000","215","[""up"",""right""]","{""num_key_presses"":8,""num_perfect"":6,""num_errors"":0,""num_randdir"":2,""num_randdir_good_moves"":0,""num_whilered"":0,""num_whileblue"":0,""num_blue"":7,""num_good_moves"":6}","[410.57142857142856,422.1808016640799,0.3,412.07142857142856,422.1808016640799,104.2,413.57142857142856,420.6808016640799,206.2,413.57142857142856,420.6808016640799,310.1,413.57142857142856,420.6808016640799,410.3,413.57142857142856,420.6808016640799,513.5,413.57142857142856,420.6808016640799,614.7,413.57142857142856,420.6808016640799,715,392.57142857142856,437.1808016640799,818.7,704.5714285714286,185.18080166407992,918.8,784.0714285714286,83.18080166407994,1019.3,761.5714285714286,75.68080166407994,1120.3,746.5714285714286,83.18080166407994,1220.3,746.5714285714286,83.18080166407994,1323.8,746.5714285714286,83.18080166407994,1424.3,781.0714285714286,137.18080166407992,1526.4,887.5714285714286,165.68080166407992,1630.4,907.0714285714286,170.18080166407992,1739.5,907.0714285714286,170.18080166407992,1840.1,907.0714285714286,170.18080166407992,1940.6,907.0714285714286,170.18080166407992,2044.2,907.0714285714286,170.18080166407992,2145,907.0714285714286,170.18080166407992,2251.4,907.0714285714286,170.18080166407992,2354.5,907.0714285714286,170.18080166407992,2459.7,907.0714285714286,170.18080166407992,2560.7,907.0714285714286,170.18080166407992,2663.8,907.0714285714286,170.18080166407992,2764.3,907.0714285714286,170.18080166407992,2864.7,907.0714285714286,170.18080166407992,2969.7,907.0714285714286,170.18080166407992,3070.3,907.0714285714286,170.18080166407992,3172,907.0714285714286,170.18080166407992,3273.6,907.0714285714286,170.18080166407992,3374.2,907.0714285714286,170.18080166407992,3479.1,907.0714285714286,170.18080166407992,3586.4,907.0714285714286,170.18080166407992,3689.6,907.0714285714286,170.18080166407992,3790.1,907.0714285714286,170.18080166407992,3893.7,907.0714285714286,170.18080166407992,3998.7,907.0714285714286,170.18080166407992,4098.7,907.0714285714286,170.18080166407992,4200,907.0714285714286,170.18080166407992,4303.5,907.0714285714286,170.18080166407992,4404.7,907.0714285714286,170.18080166407992,4508.7,907.0714285714286,170.18080166407992,4609.3,907.0714285714286,170.18080166407992,4714.2,907.0714285714286,170.18080166407992,4825.7,907.0714285714286,170.18080166407992,4931]","[12482.3,12482.3,3299.5,8753.3,429.5,""oops"",""up"",""down"",""bad_move"",19117.2,6634.3,2375.9,16288.1,453.2,""oops"",""up"",""down"",""bad_move"",25001.5,5884,1865,22699.8,436.7,""smooth"",""up"",""up"",""good_move"",28008.6,3006.7,2400.8,25001.9,605.9,""smooth"",""up"",""up"",""good_move"",35250.1,7240.7,2674.4,32185.1,390.6,""smooth"",""up"",""up"",""good_move"",38498.9,3248.5,2758.7,35250.4,489.8,""smooth"",""up"",""up"",""good_move"",40788,2288.9,1924.8,38499.2,364.1,""smooth"",""right"",""right"",""good_move"",48334.5,7546,2771.9,45133.6,429,""smooth"",""right"",""right"",""good_move""]","",""
"3620","","<div style=""width:500px;"">
  <p>What determined the result of this run?</p>
  </div>","84","html-slider-response","30","350605","0.0-5.0-1.4","305","1","2025-07-31 06:41:47","1f75c3e559b7213887762d5229550c2b","41.74.177.238","Mozilla/5.0 (Windows NT 10.0; Win64; x64) AppleWebKit/537.36 (KHTML, like Gecko) Chrome/138.0.0.0 Safari/537.36","WebKit","Chrome","138.0.0.0","Windows","10.0","https://app.prolific.com/","en-US,en;q=0.9","6122f45e2e93a3ff9a7b7a5d","6877631c9844ddd5501205fc","688b1021682c68071b226db0","3","1","6122f45e2e93a3ff9a7b7a5d","3","1","2025-07-31T06:47:46.817Z","","","","","","","","","","","AttribQ","","50","","","","","","","","","","","","","","","","","","","","","","","","","","","","",""
"3911","","<div style=""width:500px;"">
  <p>How much control did you have over the ball?</p>
  </div>","91","html-slider-response","31","354517","0.0-5.0-2.4","305","1","2025-07-31 06:41:47","1f75c3e559b7213887762d5229550c2b","41.74.177.238","Mozilla/5.0 (Windows NT 10.0; Win64; x64) AppleWebKit/537.36 (KHTML, like Gecko) Chrome/138.0.0.0 Safari/537.36","WebKit","Chrome","138.0.0.0","Windows","10.0","https://app.prolific.com/","en-US,en;q=0.9","6122f45e2e93a3ff9a7b7a5d","6877631c9844ddd5501205fc","688b1021682c68071b226db0","3","1","6122f45e2e93a3ff9a7b7a5d","3","1","2025-07-31T06:47:50.730Z","","","","","","","","","","","ControlQ","","50","","","","","","","","","","","","","","","","","","","","","","","","","","","","",""
"4511","","<div style=""width:500px;"">
  <p>How would you describe your current emotional state?</p>
  </div>","15","html-slider-response","32","359030","0.0-5.0-3.4","305","1","2025-07-31 06:41:47","1f75c3e559b7213887762d5229550c2b","41.74.177.238","Mozilla/5.0 (Windows NT 10.0; Win64; x64) AppleWebKit/537.36 (KHTML, like Gecko) Chrome/138.0.0.0 Safari/537.36","WebKit","Chrome","138.0.0.0","Windows","10.0","https://app.prolific.com/","en-US,en;q=0.9","6122f45e2e93a3ff9a7b7a5d","6877631c9844ddd5501205fc","688b1021682c68071b226db0","3","1","6122f45e2e93a3ff9a7b7a5d","3","1","2025-07-31T06:47:55.242Z","","","","","","","","","","","StressQ","","50","","","","","","","","","","","","","","","","","","","","","","","","","","","","",""
"3496","","<div style=""width:500px;"">
  <p>What best describes how you currently feel?</p>
  </div>","90","html-slider-response","33","362528","0.0-5.0-4.4","305","1","2025-07-31 06:41:47","1f75c3e559b7213887762d5229550c2b","41.74.177.238","Mozilla/5.0 (Windows NT 10.0; Win64; x64) AppleWebKit/537.36 (KHTML, like Gecko) Chrome/138.0.0.0 Safari/537.36","WebKit","Chrome","138.0.0.0","Windows","10.0","https://app.prolific.com/","en-US,en;q=0.9","6122f45e2e93a3ff9a7b7a5d","6877631c9844ddd5501205fc","688b1021682c68071b226db0","3","1","6122f45e2e93a3ff9a7b7a5d","3","1","2025-07-31T06:47:58.740Z","","","","","","","","","","","MotivationQ","","50","","","","","","","","","","","","","","","","","","","","","","","","","","","","",""
"","","","","ctl-task-cpt","34","401938","0.0-5.0-0.5","305","1","2025-07-31 06:41:47","1f75c3e559b7213887762d5229550c2b","41.74.177.238","Mozilla/5.0 (Windows NT 10.0; Win64; x64) AppleWebKit/537.36 (KHTML, like Gecko) Chrome/138.0.0.0 Safari/537.36","WebKit","Chrome","138.0.0.0","Windows","10.0","https://app.prolific.com/","en-US,en;q=0.9","6122f45e2e93a3ff9a7b7a5d","6877631c9844ddd5501205fc","688b1021682c68071b226db0","3","1","6122f45e2e93a3ff9a7b7a5d","3","1","2025-07-31T06:48:38.150Z","","","","","","","","","","","","","","win-only","0","g1:NW,g2:SE","0.5","6","0","371846.7","1176.1","6177.2","36388.6","1","4","4","6","2","-4","-4","5","9","0.03787878787878788","1175.8","3000","-2555","[""down"",""right""]","{""num_key_presses"":7,""num_perfect"":5,""num_errors"":0,""num_randdir"":2,""num_randdir_good_moves"":1,""num_whilered"":0,""num_whileblue"":0,""num_blue"":2,""num_good_moves"":6}","[418.07142857142856,414.6808016640799,0.4,419.57142857142856,416.1808016640799,100.3,419.57142857142856,416.1808016640799,211,419.57142857142856,416.1808016640799,316.3,419.57142857142856,416.1808016640799,429.3,419.57142857142856,416.1808016640799,529.6,421.07142857142856,422.1808016640799,631.2,532.0714285714286,599.1808016640799,735.2,674.5714285714286,725.1808016640799,845.8,695.5714285714286,728.1808016640799,945.8,755.5714285714286,758.1808016640799,1092.3,755.5714285714286,758.1808016640799,1197.1,755.5714285714286,758.1808016640799,1298.1,755.5714285714286,758.1808016640799,1400.5,862.0714285714286,731.1808016640799,1506.5,1025.5714285714287,677.1808016640799,1612.3,1049.5714285714287,659.1808016640799,1716.1,1049.5714285714287,659.1808016640799,1816.8,1049.5714285714287,659.1808016640799,1917.1,1049.5714285714287,659.1808016640799,2017.8,1049.5714285714287,659.1808016640799,2125.4,1049.5714285714287,659.1808016640799,2231.4,1049.5714285714287,659.1808016640799,2331.9,1049.5714285714287,659.1808016640799,2444.4,1049.5714285714287,659.1808016640799,2549.4,1049.5714285714287,659.1808016640799,2653.1,1049.5714285714287,659.1808016640799,2764.4,1049.5714285714287,659.1808016640799,2864.9,1049.5714285714287,659.1808016640799,2965.5,1049.5714285714287,659.1808016640799,3070.4,1049.5714285714287,659.1808016640799,3174.3,1049.5714285714287,659.1808016640799,3275.4,1049.5714285714287,659.1808016640799,3375.6,1049.5714285714287,659.1808016640799,3480.3,1049.5714285714287,659.1808016640799,3581.1,1049.5714285714287,659.1808016640799,3684.6,1049.5714285714287,659.1808016640799,3789.8,1049.5714285714287,659.1808016640799,3891.7,1049.5714285714287,659.1808016640799,3995.2,1049.5714285714287,659.1808016640799,4109.3,1049.5714285714287,659.1808016640799,4209.5,1049.5714285714287,659.1808016640799,4309.5,1049.5714285714287,659.1808016640799,4414.3,1049.5714285714287,659.1808016640799,4516.3,1049.5714285714287,659.1808016640799,4625.9,1049.5714285714287,659.1808016640799,4726.4,1049.5714285714287,659.1808016640799,4829.3,1049.5714285714287,659.1808016640799,4930.5]","[9554.7,9554.7,2846.7,6235.1,472.9,""smooth"",""down"",""down"",""good_move"",13026.9,3471.4,2949.9,9555.5,521.5,""smooth"",""down"",""down"",""good_move"",16256.8,3229.4,2548.3,13027.6,681,""smooth"",""down"",""down"",""good_move"",18872.4,2615,2192.4,16257.4,422.6,""oops"",""right"",""right"",""good_move"",21703.3,2830.5,2421.5,18872.8,409.1,""oops"",""right"",""left"",""bad_move"",24549.5,2845,2357.8,21704.5,487.2,""smooth"",""right"",""right"",""good_move"",27240.5,2690.5,2325.6,24550,365,""smooth"",""right"",""right"",""good_move""]","",""
"9512","","<div style=""width:500px;"">
  <p>What determined the result of this run?</p>
  </div>","86","html-slider-response","35","411451","0.0-5.0-1.5","305","1","2025-07-31 06:41:47","1f75c3e559b7213887762d5229550c2b","41.74.177.238","Mozilla/5.0 (Windows NT 10.0; Win64; x64) AppleWebKit/537.36 (KHTML, like Gecko) Chrome/138.0.0.0 Safari/537.36","WebKit","Chrome","138.0.0.0","Windows","10.0","https://app.prolific.com/","en-US,en;q=0.9","6122f45e2e93a3ff9a7b7a5d","6877631c9844ddd5501205fc","688b1021682c68071b226db0","3","1","6122f45e2e93a3ff9a7b7a5d","3","1","2025-07-31T06:48:47.663Z","","","","","","","","","","","AttribQ","","50","","","","","","","","","","","","","","","","","","","","","","","","","","","","",""
"4354","","<div style=""width:500px;"">
  <p>How much control did you have over the ball?</p>
  </div>","90","html-slider-response","36","415806","0.0-5.0-2.5","305","1","2025-07-31 06:41:47","1f75c3e559b7213887762d5229550c2b","41.74.177.238","Mozilla/5.0 (Windows NT 10.0; Win64; x64) AppleWebKit/537.36 (KHTML, like Gecko) Chrome/138.0.0.0 Safari/537.36","WebKit","Chrome","138.0.0.0","Windows","10.0","https://app.prolific.com/","en-US,en;q=0.9","6122f45e2e93a3ff9a7b7a5d","6877631c9844ddd5501205fc","688b1021682c68071b226db0","3","1","6122f45e2e93a3ff9a7b7a5d","3","1","2025-07-31T06:48:52.018Z","","","","","","","","","","","ControlQ","","50","","","","","","","","","","","","","","","","","","","","","","","","","","","","",""
"5875","","<div style=""width:500px;"">
  <p>How would you describe your current emotional state?</p>
  </div>","25","html-slider-response","37","421682","0.0-5.0-3.5","305","1","2025-07-31 06:41:47","1f75c3e559b7213887762d5229550c2b","41.74.177.238","Mozilla/5.0 (Windows NT 10.0; Win64; x64) AppleWebKit/537.36 (KHTML, like Gecko) Chrome/138.0.0.0 Safari/537.36","WebKit","Chrome","138.0.0.0","Windows","10.0","https://app.prolific.com/","en-US,en;q=0.9","6122f45e2e93a3ff9a7b7a5d","6877631c9844ddd5501205fc","688b1021682c68071b226db0","3","1","6122f45e2e93a3ff9a7b7a5d","3","1","2025-07-31T06:48:57.894Z","","","","","","","","","","","StressQ","","50","","","","","","","","","","","","","","","","","","","","","","","","","","","","",""
"5317","","<div style=""width:500px;"">
  <p>What best describes how you currently feel?</p>
  </div>","88","html-slider-response","38","427000","0.0-5.0-4.5","305","1","2025-07-31 06:41:47","1f75c3e559b7213887762d5229550c2b","41.74.177.238","Mozilla/5.0 (Windows NT 10.0; Win64; x64) AppleWebKit/537.36 (KHTML, like Gecko) Chrome/138.0.0.0 Safari/537.36","WebKit","Chrome","138.0.0.0","Windows","10.0","https://app.prolific.com/","en-US,en;q=0.9","6122f45e2e93a3ff9a7b7a5d","6877631c9844ddd5501205fc","688b1021682c68071b226db0","3","1","6122f45e2e93a3ff9a7b7a5d","3","1","2025-07-31T06:49:03.212Z","","","","","","","","","","","MotivationQ","","50","","","","","","","","","","","","","","","","","","","","","","","","","","","","",""
"","","","","ctl-task-cpt","39","462135","0.0-5.0-0.6","305","1","2025-07-31 06:41:47","1f75c3e559b7213887762d5229550c2b","41.74.177.238","Mozilla/5.0 (Windows NT 10.0; Win64; x64) AppleWebKit/537.36 (KHTML, like Gecko) Chrome/138.0.0.0 Safari/537.36","WebKit","Chrome","138.0.0.0","Windows","10.0","https://app.prolific.com/","en-US,en;q=0.9","6122f45e2e93a3ff9a7b7a5d","6877631c9844ddd5501205fc","688b1021682c68071b226db0","3","1","6122f45e2e93a3ff9a7b7a5d","3","1","2025-07-31T06:49:38.347Z","","","","","","","","","","","","","","win-only","0","g1:NW,g2:SE","0.4","7","0","436315.6","1217.5","6220.6","32116.3","1","4","8","6","1","1","1","6","5","0.045454545454545456","1107.1","3000","170","[""left"",""up""]","{""num_key_presses"":8,""num_perfect"":4,""num_errors"":0,""num_randdir"":4,""num_randdir_good_moves"":2,""num_whilered"":0,""num_whileblue"":0,""num_blue"":1,""num_good_moves"":6}","[422.57142857142856,420.6808016640799,0.2,422.57142857142856,420.6808016640799,100.2,422.57142857142856,420.6808016640799,202.6,422.57142857142856,420.6808016640799,306.1,422.57142857142856,420.6808016640799,407.9,422.57142857142856,420.6808016640799,511.1,413.57142857142856,416.1808016640799,613.5,256.07142857142856,260.1808016640799,717.7,73.07142857142857,143.18080166407992,819.8,56.57142857142857,125.18080166407994,931.6,59.57142857142857,119.18080166407994,1035.1,59.57142857142857,116.18080166407994,1138.3,59.57142857142857,116.18080166407994,1238.2,32.57142857142857,150.68080166407992,1338.6,-327.42857142857144,326.1808016640799,1448.8,-339.42857142857144,389.1808016640799,1554,-337.92857142857144,389.1808016640799,1655,-333.42857142857144,390.6808016640799,1764.6,-333.42857142857144,390.6808016640799,1868.7,-333.42857142857144,390.6808016640799,1973.2,-333.42857142857144,390.6808016640799,2087.2,-333.42857142857144,390.6808016640799,2187.9,-333.42857142857144,390.6808016640799,2288.3,-333.42857142857144,390.6808016640799,2390.3,-333.42857142857144,390.6808016640799,2495.8,-333.42857142857144,390.6808016640799,2605.6,-333.42857142857144,390.6808016640799,2709,-333.42857142857144,390.6808016640799,2811.6,-333.42857142857144,390.6808016640799,2913.3,-333.42857142857144,390.6808016640799,3020,-333.42857142857144,390.6808016640799,3123.1,-333.42857142857144,390.6808016640799,3230.4,-333.42857142857144,390.6808016640799,3331.8,-333.42857142857144,390.6808016640799,3433.4,-333.42857142857144,390.6808016640799,3533.4,-333.42857142857144,390.6808016640799,3638.7,-333.42857142857144,390.6808016640799,3746.3,-333.42857142857144,390.6808016640799,3848.6,-333.42857142857144,390.6808016640799,3948.8,-333.42857142857144,390.6808016640799,4053.3,-333.42857142857144,390.6808016640799,4158.5,-333.42857142857144,390.6808016640799,4263.7,-333.42857142857144,390.6808016640799,4368.5,-333.42857142857144,390.6808016640799,4468.8,-333.42857142857144,390.6808016640799,4568.8,-333.42857142857144,390.6808016640799,4676.2,-333.42857142857144,390.6808016640799,4781.5,-333.42857142857144,390.6808016640799,4884.1,-333.42857142857144,390.6808016640799,4996.8]","[5790.9,5790.9,3158.1,2009.8,623,""smooth"",""up"",""up"",""good_move"",8211.1,2419.9,1974.1,5791.3,445.8,""oops"",""up"",""down"",""bad_move"",10643.2,2431.7,1888.3,8211.5,543.4,""oops"",""up"",""down"",""bad_move"",14112.4,3469.1,3111,10643.3,358.1,""smooth"",""up"",""up"",""good_move"",17344.2,3231.5,2866.7,14112.7,364.8,""oops"",""up"",""left"",""good_move"",19858.4,2513.7,2129.8,17344.7,383.9,""oops"",""up"",""up"",""good_move"",23094,3235.4,2841.4,19858.6,394,""smooth"",""up"",""up"",""good_move"",25784.2,2690,2358.6,23094.2,331.4,""smooth"",""left"",""left"",""good_move""]","",""
"2387","","<div style=""width:500px;"">
  <p>What determined the result of this run?</p>
  </div>","85","html-slider-response","40","464522","0.0-5.0-1.6","305","1","2025-07-31 06:41:47","1f75c3e559b7213887762d5229550c2b","41.74.177.238","Mozilla/5.0 (Windows NT 10.0; Win64; x64) AppleWebKit/537.36 (KHTML, like Gecko) Chrome/138.0.0.0 Safari/537.36","WebKit","Chrome","138.0.0.0","Windows","10.0","https://app.prolific.com/","en-US,en;q=0.9","6122f45e2e93a3ff9a7b7a5d","6877631c9844ddd5501205fc","688b1021682c68071b226db0","3","1","6122f45e2e93a3ff9a7b7a5d","3","1","2025-07-31T06:49:40.734Z","","","","","","","","","","","AttribQ","","50","","","","","","","","","","","","","","","","","","","","","","","","","","","","",""
"3772","","<div style=""width:500px;"">
  <p>How much control did you have over the ball?</p>
  </div>","73","html-slider-response","41","468295","0.0-5.0-2.6","305","1","2025-07-31 06:41:47","1f75c3e559b7213887762d5229550c2b","41.74.177.238","Mozilla/5.0 (Windows NT 10.0; Win64; x64) AppleWebKit/537.36 (KHTML, like Gecko) Chrome/138.0.0.0 Safari/537.36","WebKit","Chrome","138.0.0.0","Windows","10.0","https://app.prolific.com/","en-US,en;q=0.9","6122f45e2e93a3ff9a7b7a5d","6877631c9844ddd5501205fc","688b1021682c68071b226db0","3","1","6122f45e2e93a3ff9a7b7a5d","3","1","2025-07-31T06:49:44.507Z","","","","","","","","","","","ControlQ","","50","","","","","","","","","","","","","","","","","","","","","","","","","","","","",""
"18335","","<div style=""width:500px;"">
  <p>How would you describe your current emotional state?</p>
  </div>","20","html-slider-response","42","486631","0.0-5.0-3.6","305","1","2025-07-31 06:41:47","1f75c3e559b7213887762d5229550c2b","41.74.177.238","Mozilla/5.0 (Windows NT 10.0; Win64; x64) AppleWebKit/537.36 (KHTML, like Gecko) Chrome/138.0.0.0 Safari/537.36","WebKit","Chrome","138.0.0.0","Windows","10.0","https://app.prolific.com/","en-US,en;q=0.9","6122f45e2e93a3ff9a7b7a5d","6877631c9844ddd5501205fc","688b1021682c68071b226db0","3","1","6122f45e2e93a3ff9a7b7a5d","3","1","2025-07-31T06:50:02.843Z","","","","","","","","","","","StressQ","","50","","","","","","","","","","","","","","","","","","","","","","","","","","","","",""
"3009","","<div style=""width:500px;"">
  <p>What best describes how you currently feel?</p>
  </div>","82","html-slider-response","43","489641","0.0-5.0-4.6","305","1","2025-07-31 06:41:47","1f75c3e559b7213887762d5229550c2b","41.74.177.238","Mozilla/5.0 (Windows NT 10.0; Win64; x64) AppleWebKit/537.36 (KHTML, like Gecko) Chrome/138.0.0.0 Safari/537.36","WebKit","Chrome","138.0.0.0","Windows","10.0","https://app.prolific.com/","en-US,en;q=0.9","6122f45e2e93a3ff9a7b7a5d","6877631c9844ddd5501205fc","688b1021682c68071b226db0","3","1","6122f45e2e93a3ff9a7b7a5d","3","1","2025-07-31T06:50:05.854Z","","","","","","","","","","","MotivationQ","","50","","","","","","","","","","","","","","","","","","","","","","","","","","","","",""
"","","","","ctl-task-cpt","44","530015","0.0-5.0-0.7","305","1","2025-07-31 06:41:47","1f75c3e559b7213887762d5229550c2b","41.74.177.238","Mozilla/5.0 (Windows NT 10.0; Win64; x64) AppleWebKit/537.36 (KHTML, like Gecko) Chrome/138.0.0.0 Safari/537.36","WebKit","Chrome","138.0.0.0","Windows","10.0","https://app.prolific.com/","en-US,en;q=0.9","6122f45e2e93a3ff9a7b7a5d","6877631c9844ddd5501205fc","688b1021682c68071b226db0","3","1","6122f45e2e93a3ff9a7b7a5d","3","1","2025-07-31T06:50:46.227Z","","","","","","","","","","","","","","win-only","1","g1:NE,g2:SW","0.3","8","0","498957.9","1334.3","6338","37355.3","1","4","4","6","1","-1","-1","5","6","0.03787878787878788","1572.5","3000","-2725","[""up"",""right""]","{""num_key_presses"":7,""num_perfect"":1,""num_errors"":0,""num_randdir"":6,""num_randdir_good_moves"":2,""num_whilered"":0,""num_whileblue"":0,""num_blue"":2,""num_good_moves"":3}","[418.07142857142856,410.1808016640799,0.1,418.07142857142856,410.1808016640799,101.7,418.07142857142856,410.1808016640799,207.2,419.57142857142856,410.1808016640799,307.2,419.57142857142856,410.1808016640799,411.2,416.57142857142856,416.1808016640799,520.4,416.57142857142856,416.1808016640799,620.9,356.57142857142856,509.1808016640799,721.2,179.57142857142856,701.1808016640799,821.5,154.07142857142856,716.1808016640799,922.9,131.57142857142856,720.6808016640799,1026.8,134.57142857142856,722.1808016640799,1136,631.0714285714286,275.1808016640799,1237.3,725.5714285714286,116.18080166407994,1338.2,716.5714285714286,111.68080166407994,1441.3,716.5714285714286,104.18080166407994,1541.6,716.5714285714286,104.18080166407994,1650,716.5714285714286,104.18080166407994,1750.2,775.0714285714286,143.18080166407992,1857,1049.5714285714287,269.1808016640799,1960.9,1073.5714285714287,282.6808016640799,2061.1,1073.5714285714287,282.6808016640799,2162,1073.5714285714287,282.6808016640799,2277.6,1073.5714285714287,282.6808016640799,2387.3,1073.5714285714287,282.6808016640799,2488.3,1073.5714285714287,282.6808016640799,2591.4,1073.5714285714287,282.6808016640799,2696.8,1073.5714285714287,282.6808016640799,2803.9,1073.5714285714287,282.6808016640799,2904,1073.5714285714287,282.6808016640799,3006.2,1073.5714285714287,282.6808016640799,3111.3,1073.5714285714287,282.6808016640799,3211.9,1073.5714285714287,282.6808016640799,3321.4,1073.5714285714287,282.6808016640799,3426.1,1073.5714285714287,282.6808016640799,3526.3,1073.5714285714287,282.6808016640799,3626.4,1073.5714285714287,282.6808016640799,3731.9,1073.5714285714287,282.6808016640799,3836.9,1073.5714285714287,282.6808016640799,3941.8,1073.5714285714287,282.6808016640799,4042.6,1073.5714285714287,282.6808016640799,4149.2,1073.5714285714287,282.6808016640799,4258,1073.5714285714287,282.6808016640799,4362.6,1073.5714285714287,282.6808016640799,4464.3,1073.5714285714287,282.6808016640799,4577.1,1073.5714285714287,282.6808016640799,4683.7,1073.5714285714287,282.6808016640799,4786.9,1073.5714285714287,282.6808016640799,4891,1073.5714285714287,282.6808016640799,4991.2]","[5077.3,5077.3,2577.7,2007.5,492.1,""oops"",""up"",""left"",""bad_move"",7648.5,2570.5,2072.9,5078,497.6,""oops"",""up"",""right"",""good_move"",15655.8,8006.8,3346.3,11892.9,416.6,""oops"",""up"",""left"",""bad_move"",19352.9,3696.9,3307.7,15656,389.2,""oops"",""up"",""right"",""good_move"",22227.3,2874.2,2332.6,19353.1,541.6,""smooth"",""up"",""up"",""good_move"",25086,2858.3,2301.7,22227.7,556.6,""oops"",""up"",""left"",""bad_move"",28248.2,3162,2768.7,25086.2,393.3,""oops"",""up"",""down"",""bad_move""]","",""
"6569","","<div style=""width:500px;"">
  <p>What determined the result of this run?</p>
  </div>","88","html-slider-response","45","536584","0.0-5.0-1.7","305","1","2025-07-31 06:41:47","1f75c3e559b7213887762d5229550c2b","41.74.177.238","Mozilla/5.0 (Windows NT 10.0; Win64; x64) AppleWebKit/537.36 (KHTML, like Gecko) Chrome/138.0.0.0 Safari/537.36","WebKit","Chrome","138.0.0.0","Windows","10.0","https://app.prolific.com/","en-US,en;q=0.9","6122f45e2e93a3ff9a7b7a5d","6877631c9844ddd5501205fc","688b1021682c68071b226db0","3","1","6122f45e2e93a3ff9a7b7a5d","3","1","2025-07-31T06:50:52.796Z","","","","","","","","","","","AttribQ","","50","","","","","","","","","","","","","","","","","","","","","","","","","","","","",""
"4309","","<div style=""width:500px;"">
  <p>How much control did you have over the ball?</p>
  </div>","88","html-slider-response","46","540894","0.0-5.0-2.7","305","1","2025-07-31 06:41:47","1f75c3e559b7213887762d5229550c2b","41.74.177.238","Mozilla/5.0 (Windows NT 10.0; Win64; x64) AppleWebKit/537.36 (KHTML, like Gecko) Chrome/138.0.0.0 Safari/537.36","WebKit","Chrome","138.0.0.0","Windows","10.0","https://app.prolific.com/","en-US,en;q=0.9","6122f45e2e93a3ff9a7b7a5d","6877631c9844ddd5501205fc","688b1021682c68071b226db0","3","1","6122f45e2e93a3ff9a7b7a5d","3","1","2025-07-31T06:50:57.106Z","","","","","","","","","","","ControlQ","","50","","","","","","","","","","","","","","","","","","","","","","","","","","","","",""
"3522","","<div style=""width:500px;"">
  <p>How would you describe your current emotional state?</p>
  </div>","18","html-slider-response","47","544416","0.0-5.0-3.7","305","1","2025-07-31 06:41:47","1f75c3e559b7213887762d5229550c2b","41.74.177.238","Mozilla/5.0 (Windows NT 10.0; Win64; x64) AppleWebKit/537.36 (KHTML, like Gecko) Chrome/138.0.0.0 Safari/537.36","WebKit","Chrome","138.0.0.0","Windows","10.0","https://app.prolific.com/","en-US,en;q=0.9","6122f45e2e93a3ff9a7b7a5d","6877631c9844ddd5501205fc","688b1021682c68071b226db0","3","1","6122f45e2e93a3ff9a7b7a5d","3","1","2025-07-31T06:51:00.628Z","","","","","","","","","","","StressQ","","50","","","","","","","","","","","","","","","","","","","","","","","","","","","","",""
"4405","","<div style=""width:500px;"">
  <p>What best describes how you currently feel?</p>
  </div>","81","html-slider-response","48","548823","0.0-5.0-4.7","305","1","2025-07-31 06:41:47","1f75c3e559b7213887762d5229550c2b","41.74.177.238","Mozilla/5.0 (Windows NT 10.0; Win64; x64) AppleWebKit/537.36 (KHTML, like Gecko) Chrome/138.0.0.0 Safari/537.36","WebKit","Chrome","138.0.0.0","Windows","10.0","https://app.prolific.com/","en-US,en;q=0.9","6122f45e2e93a3ff9a7b7a5d","6877631c9844ddd5501205fc","688b1021682c68071b226db0","3","1","6122f45e2e93a3ff9a7b7a5d","3","1","2025-07-31T06:51:05.036Z","","","","","","","","","","","MotivationQ","","50","","","","","","","","","","","","","","","","","","","","","","","","","","","","",""
"","","","","ctl-task-cpt","49","603650","0.0-5.0-0.8","305","1","2025-07-31 06:41:47","1f75c3e559b7213887762d5229550c2b","41.74.177.238","Mozilla/5.0 (Windows NT 10.0; Win64; x64) AppleWebKit/537.36 (KHTML, like Gecko) Chrome/138.0.0.0 Safari/537.36","WebKit","Chrome","138.0.0.0","Windows","10.0","https://app.prolific.com/","en-US,en;q=0.9","6122f45e2e93a3ff9a7b7a5d","6877631c9844ddd5501205fc","688b1021682c68071b226db0","3","1","6122f45e2e93a3ff9a7b7a5d","3","1","2025-07-31T06:51:59.862Z","","","","","","","","","","","","","","win-only","0","g1:NW,g2:SE","0.2","9","0","558144.6","1822.2","6823.9","51800.5","1","4","4","6","1","-1","-2","3","5","0.022727272727272728","1861","3000","-2360","[""left"",""up""]","{""num_key_presses"":8,""num_perfect"":1,""num_errors"":1,""num_randdir"":6,""num_randdir_good_moves"":3,""num_whilered"":0,""num_whileblue"":0,""num_blue"":6,""num_good_moves"":4}","[413.57142857142856,413.1808016640799,0.3,413.57142857142856,413.1808016640799,113.3,413.57142857142856,413.1808016640799,213.6,413.57142857142856,416.1808016640799,314.7,410.57142857142856,425.1808016640799,419.5,409.07142857142856,428.1808016640799,525.2,431.57142857142856,462.6808016640799,629.5,422.57142857142856,462.6808016640799,733,416.57142857142856,461.1808016640799,833.6,368.57142857142856,413.1808016640799,945.7,311.57142857142856,356.1808016640799,1045.9,304.07142857142856,347.1808016640799,1148.4,373.07142857142856,425.1808016640799,1248.8,392.57142857142856,434.1808016640799,1353.3,265.07142857142856,330.6808016640799,1454.6,61.07142857142857,125.18080166407994,1562.7,65.57142857142857,119.18080166407994,1662.8,70.07142857142857,117.68080166407994,1765.1,71.57142857142857,117.68080166407994,1868.7,71.57142857142857,117.68080166407994,1969.3,52.07142857142857,164.18080166407992,2078.4,-52.92857142857143,287.1808016640799,2178.8,-124.92857142857143,410.1808016640799,2282,-129.42857142857144,443.1808016640799,2384.1,-129.42857142857144,440.1808016640799,2484.2,-121.92857142857143,438.6808016640799,2585.3,-121.92857142857143,438.6808016640799,2689.6,-121.92857142857143,438.6808016640799,2793.6,-121.92857142857143,438.6808016640799,2893.6,-121.92857142857143,438.6808016640799,3000.9,-121.92857142857143,438.6808016640799,3114.7,-121.92857142857143,438.6808016640799,3215.2,-121.92857142857143,438.6808016640799,3318.7,-121.92857142857143,438.6808016640799,3418.7,-121.92857142857143,438.6808016640799,3520.5,-121.92857142857143,438.6808016640799,3628.3,-121.92857142857143,438.6808016640799,3728.4,-121.92857142857143,438.6808016640799,3828.8,-121.92857142857143,438.6808016640799,3934.3,-121.92857142857143,438.6808016640799,4034.3,-121.92857142857143,438.6808016640799,4145.7,-121.92857142857143,438.6808016640799,4248.3,-121.92857142857143,438.6808016640799,4348.3,-121.92857142857143,438.6808016640799,4449.2,-121.92857142857143,438.6808016640799,4561.9,-121.92857142857143,438.6808016640799,4661.9,-121.92857142857143,438.6808016640799,4763.1,-121.92857142857143,438.6808016640799,4863.3,-121.92857142857143,438.6808016640799,4969.1]","[591,591,1000,0,-409,""error"",""-"",""-"",""no_move"",5158.5,4567.4,2947.8,1592.9,617.8,""oops"",""up"",""up"",""good_move"",8161.1,3002.2,2037.5,5158.9,964.7,""oops"",""up"",""right"",""bad_move"",10519.1,2357.7,1825.2,8161.4,532.5,""oops"",""up"",""down"",""bad_move"",17440.4,6921.1,2857.7,14124.6,458.1,""smooth"",""left"",""left"",""good_move"",23607.6,6166.6,2327.1,20782.4,498.1,""oops"",""left"",""down"",""bad_move"",26271,2663.2,2129.8,23607.8,533.5,""oops"",""left"",""up"",""good_move"",42683.8,16411.7,2820,39417.5,446.3,""oops"",""up"",""up"",""good_move""]","",""
"4246","","<div style=""width:500px;"">
  <p>What determined the result of this run?</p>
  </div>","82","html-slider-response","50","607897","0.0-5.0-1.8","305","1","2025-07-31 06:41:47","1f75c3e559b7213887762d5229550c2b","41.74.177.238","Mozilla/5.0 (Windows NT 10.0; Win64; x64) AppleWebKit/537.36 (KHTML, like Gecko) Chrome/138.0.0.0 Safari/537.36","WebKit","Chrome","138.0.0.0","Windows","10.0","https://app.prolific.com/","en-US,en;q=0.9","6122f45e2e93a3ff9a7b7a5d","6877631c9844ddd5501205fc","688b1021682c68071b226db0","3","1","6122f45e2e93a3ff9a7b7a5d","3","1","2025-07-31T06:52:04.109Z","","","","","","","","","","","AttribQ","","50","","","","","","","","","","","","","","","","","","","","","","","","","","","","",""
"8240","","<div style=""width:500px;"">
  <p>How much control did you have over the ball?</p>
  </div>","89","html-slider-response","51","616138","0.0-5.0-2.8","305","1","2025-07-31 06:41:47","1f75c3e559b7213887762d5229550c2b","41.74.177.238","Mozilla/5.0 (Windows NT 10.0; Win64; x64) AppleWebKit/537.36 (KHTML, like Gecko) Chrome/138.0.0.0 Safari/537.36","WebKit","Chrome","138.0.0.0","Windows","10.0","https://app.prolific.com/","en-US,en;q=0.9","6122f45e2e93a3ff9a7b7a5d","6877631c9844ddd5501205fc","688b1021682c68071b226db0","3","1","6122f45e2e93a3ff9a7b7a5d","3","1","2025-07-31T06:52:12.350Z","","","","","","","","","","","ControlQ","","50","","","","","","","","","","","","","","","","","","","","","","","","","","","","",""
"3288","","<div style=""width:500px;"">
  <p>How would you describe your current emotional state?</p>
  </div>","17","html-slider-response","52","619428","0.0-5.0-3.8","305","1","2025-07-31 06:41:47","1f75c3e559b7213887762d5229550c2b","41.74.177.238","Mozilla/5.0 (Windows NT 10.0; Win64; x64) AppleWebKit/537.36 (KHTML, like Gecko) Chrome/138.0.0.0 Safari/537.36","WebKit","Chrome","138.0.0.0","Windows","10.0","https://app.prolific.com/","en-US,en;q=0.9","6122f45e2e93a3ff9a7b7a5d","6877631c9844ddd5501205fc","688b1021682c68071b226db0","3","1","6122f45e2e93a3ff9a7b7a5d","3","1","2025-07-31T06:52:15.640Z","","","","","","","","","","","StressQ","","50","","","","","","","","","","","","","","","","","","","","","","","","","","","","",""
"5768","","<div style=""width:500px;"">
  <p>What best describes how you currently feel?</p>
  </div>","80","html-slider-response","53","625197","0.0-5.0-4.8","305","1","2025-07-31 06:41:47","1f75c3e559b7213887762d5229550c2b","41.74.177.238","Mozilla/5.0 (Windows NT 10.0; Win64; x64) AppleWebKit/537.36 (KHTML, like Gecko) Chrome/138.0.0.0 Safari/537.36","WebKit","Chrome","138.0.0.0","Windows","10.0","https://app.prolific.com/","en-US,en;q=0.9","6122f45e2e93a3ff9a7b7a5d","6877631c9844ddd5501205fc","688b1021682c68071b226db0","3","1","6122f45e2e93a3ff9a7b7a5d","3","1","2025-07-31T06:52:21.409Z","","","","","","","","","","","MotivationQ","","50","","","","","","","","","","","","","","","","","","","","","","","","","","","","",""
"","","","","ctl-task-cpt","54","672617","0.0-5.0-0.9","305","1","2025-07-31 06:41:47","1f75c3e559b7213887762d5229550c2b","41.74.177.238","Mozilla/5.0 (Windows NT 10.0; Win64; x64) AppleWebKit/537.36 (KHTML, like Gecko) Chrome/138.0.0.0 Safari/537.36","WebKit","Chrome","138.0.0.0","Windows","10.0","https://app.prolific.com/","en-US,en;q=0.9","6122f45e2e93a3ff9a7b7a5d","6877631c9844ddd5501205fc","688b1021682c68071b226db0","3","1","6122f45e2e93a3ff9a7b7a5d","3","1","2025-07-31T06:53:08.829Z","","","","","","","","","","","","","","win-only","2","g1:SE,g2:NW","0.4","10","0","634515.5","1629.3","6631.5","44395.6","1","4","8","6","1","-1","-1","2","3","0.015151515151515152","1220.6","3000","-2305","[""down"",""right""]","{""num_key_presses"":7,""num_perfect"":4,""num_errors"":0,""num_randdir"":3,""num_randdir_good_moves"":1,""num_whilered"":0,""num_whileblue"":0,""num_blue"":4,""num_good_moves"":5}","[404.57142857142856,410.1808016640799,0.2,404.57142857142856,410.1808016640799,102.6,404.57142857142856,410.1808016640799,203.8,404.57142857142856,410.1808016640799,306.1,404.57142857142856,410.1808016640799,418.3,419.57142857142856,440.1808016640799,521.5,446.57142857142856,461.1808016640799,622,437.57142857142856,461.1808016640799,722.1,473.57142857142856,528.6808016640799,823.7,670.0714285714286,770.1808016640799,924.2,691.0714285714286,788.1808016640799,1028.7,733.0714285714286,786.6808016640799,1137.9,746.5714285714286,786.6808016640799,1252.2,746.5714285714286,788.1808016640799,1354.2,746.5714285714286,788.1808016640799,1456.9,847.0714285714286,663.6808016640799,1557.1,959.5714285714286,518.1808016640799,1657.5,1055.5714285714287,482.1808016640799,1758.2,1073.5714285714287,482.1808016640799,1871.8,1112.5714285714287,510.6808016640799,1987.4,1117.0714285714287,512.1808016640799,2103.1,1117.0714285714287,512.1808016640799,2203.4,1117.0714285714287,512.1808016640799,2307.7,1117.0714285714287,512.1808016640799,2408.1,1117.0714285714287,512.1808016640799,2511.2,1117.0714285714287,512.1808016640799,2612.1,1117.0714285714287,512.1808016640799,2712.8,1117.0714285714287,512.1808016640799,2815.9,1117.0714285714287,512.1808016640799,2928.3,1117.0714285714287,512.1808016640799,3038.8,1117.0714285714287,512.1808016640799,3139.7,1117.0714285714287,512.1808016640799,3252.9,1117.0714285714287,512.1808016640799,3356.3,1117.0714285714287,512.1808016640799,3456.5,1117.0714285714287,512.1808016640799,3559.4,1117.0714285714287,512.1808016640799,3664.8,1117.0714285714287,512.1808016640799,3773.7,1117.0714285714287,512.1808016640799,3878,1117.0714285714287,512.1808016640799,3978.5,1117.0714285714287,512.1808016640799,4085.5,1117.0714285714287,512.1808016640799,4187.1,1117.0714285714287,512.1808016640799,4288.4,1117.0714285714287,512.1808016640799,4400.9,1117.0714285714287,512.1808016640799,4502,1117.0714285714287,512.1808016640799,4607.2,1117.0714285714287,512.1808016640799,4714.1,1117.0714285714287,512.1808016640799,4816.4,1117.0714285714287,512.1808016640799,4917.9]","[4844.4,4844.4,2452.7,2001.6,390.1,""smooth"",""down"",""down"",""good_move"",15165.1,10319.8,2525.2,12183.9,456,""smooth"",""down"",""down"",""good_move"",17732.3,2566.8,2111.4,15165.5,455.4,""oops"",""right"",""up"",""bad_move"",21168.3,3435.7,3045.9,17732.7,389.8,""oops"",""right"",""left"",""bad_move"",24164,2994.9,2369.7,21169.1,625.2,""smooth"",""down"",""down"",""good_move"",31291.5,7127.1,3308.5,27505.1,477.9,""oops"",""right"",""right"",""good_move"",34746.1,3454.2,2735.9,31291.9,718.3,""smooth"",""right"",""right"",""good_move""]","",""
"2567","","<div style=""width:500px;"">
  <p>What determined the result of this run?</p>
  </div>","84","html-slider-response","55","675184","0.0-5.0-1.9","305","1","2025-07-31 06:41:47","1f75c3e559b7213887762d5229550c2b","41.74.177.238","Mozilla/5.0 (Windows NT 10.0; Win64; x64) AppleWebKit/537.36 (KHTML, like Gecko) Chrome/138.0.0.0 Safari/537.36","WebKit","Chrome","138.0.0.0","Windows","10.0","https://app.prolific.com/","en-US,en;q=0.9","6122f45e2e93a3ff9a7b7a5d","6877631c9844ddd5501205fc","688b1021682c68071b226db0","3","1","6122f45e2e93a3ff9a7b7a5d","3","1","2025-07-31T06:53:11.397Z","","","","","","","","","","","AttribQ","","50","","","","","","","","","","","","","","","","","","","","","","","","","","","","",""
"3266","","<div style=""width:500px;"">
  <p>How much control did you have over the ball?</p>
  </div>","72","html-slider-response","56","678452","0.0-5.0-2.9","305","1","2025-07-31 06:41:47","1f75c3e559b7213887762d5229550c2b","41.74.177.238","Mozilla/5.0 (Windows NT 10.0; Win64; x64) AppleWebKit/537.36 (KHTML, like Gecko) Chrome/138.0.0.0 Safari/537.36","WebKit","Chrome","138.0.0.0","Windows","10.0","https://app.prolific.com/","en-US,en;q=0.9","6122f45e2e93a3ff9a7b7a5d","6877631c9844ddd5501205fc","688b1021682c68071b226db0","3","1","6122f45e2e93a3ff9a7b7a5d","3","1","2025-07-31T06:53:14.664Z","","","","","","","","","","","ControlQ","","50","","","","","","","","","","","","","","","","","","","","","","","","","","","","",""
"2189","","<div style=""width:500px;"">
  <p>How would you describe your current emotional state?</p>
  </div>","17","html-slider-response","57","680641","0.0-5.0-3.9","305","1","2025-07-31 06:41:47","1f75c3e559b7213887762d5229550c2b","41.74.177.238","Mozilla/5.0 (Windows NT 10.0; Win64; x64) AppleWebKit/537.36 (KHTML, like Gecko) Chrome/138.0.0.0 Safari/537.36","WebKit","Chrome","138.0.0.0","Windows","10.0","https://app.prolific.com/","en-US,en;q=0.9","6122f45e2e93a3ff9a7b7a5d","6877631c9844ddd5501205fc","688b1021682c68071b226db0","3","1","6122f45e2e93a3ff9a7b7a5d","3","1","2025-07-31T06:53:16.853Z","","","","","","","","","","","StressQ","","50","","","","","","","","","","","","","","","","","","","","","","","","","","","","",""
"2819","","<div style=""width:500px;"">
  <p>What best describes how you currently feel?</p>
  </div>","78","html-slider-response","58","683461","0.0-5.0-4.9","305","1","2025-07-31 06:41:47","1f75c3e559b7213887762d5229550c2b","41.74.177.238","Mozilla/5.0 (Windows NT 10.0; Win64; x64) AppleWebKit/537.36 (KHTML, like Gecko) Chrome/138.0.0.0 Safari/537.36","WebKit","Chrome","138.0.0.0","Windows","10.0","https://app.prolific.com/","en-US,en;q=0.9","6122f45e2e93a3ff9a7b7a5d","6877631c9844ddd5501205fc","688b1021682c68071b226db0","3","1","6122f45e2e93a3ff9a7b7a5d","3","1","2025-07-31T06:53:19.673Z","","","","","","","","","","","MotivationQ","","50","","","","","","","","","","","","","","","","","","","","","","","","","","","","",""
"","","","","ctl-task-cpt","59","739935","0.0-5.0-0.10","305","1","2025-07-31 06:41:47","1f75c3e559b7213887762d5229550c2b","41.74.177.238","Mozilla/5.0 (Windows NT 10.0; Win64; x64) AppleWebKit/537.36 (KHTML, like Gecko) Chrome/138.0.0.0 Safari/537.36","WebKit","Chrome","138.0.0.0","Windows","10.0","https://app.prolific.com/","en-US,en;q=0.9","6122f45e2e93a3ff9a7b7a5d","6877631c9844ddd5501205fc","688b1021682c68071b226db0","3","1","6122f45e2e93a3ff9a7b7a5d","3","1","2025-07-31T06:54:16.148Z","","","","","","","","","","","","","","win-only","3","g1:SW,g2:NE","0.5","11","0","692777.6","1111.1","6111.9","53451.2","1","4","8","6","2","-8","-8","0","2","0","1079","3000","-1345","[""up"",""right""]","{""num_key_presses"":11,""num_perfect"":5,""num_errors"":0,""num_randdir"":6,""num_randdir_good_moves"":2,""num_whilered"":0,""num_whileblue"":0,""num_blue"":5,""num_good_moves"":7}","[407.57142857142856,417.6808016640799,0.3,407.57142857142856,417.6808016640799,100.8,407.57142857142856,417.6808016640799,205.5,407.57142857142856,417.6808016640799,305.7,407.57142857142856,417.6808016640799,409.3,407.57142857142856,417.6808016640799,510.5,506.57142857142856,362.1808016640799,610.6,673.0714285714286,188.18080166407992,714.3,703.0714285714286,155.18080166407992,814.3,730.0714285714286,119.18080166407994,922.6,737.5714285714286,102.68080166407994,1024.8,737.5714285714286,102.68080166407994,1125.1,736.0714285714286,102.68080166407994,1230.1,797.5714285714286,131.18080166407992,1336.5,941.5714285714286,158.18080166407992,1439.3,953.5714285714286,173.18080166407992,1540.5,953.5714285714286,173.18080166407992,1640.7,953.5714285714286,173.18080166407992,1745.8,953.5714285714286,173.18080166407992,1850.3,953.5714285714286,173.18080166407992,1954.2,953.5714285714286,173.18080166407992,2055.9,953.5714285714286,173.18080166407992,2156,953.5714285714286,173.18080166407992,2259.8,953.5714285714286,173.18080166407992,2359.9,953.5714285714286,173.18080166407992,2460.6,953.5714285714286,173.18080166407992,2565.7,953.5714285714286,173.18080166407992,2666.1,953.5714285714286,173.18080166407992,2773,953.5714285714286,173.18080166407992,2874.4,953.5714285714286,173.18080166407992,2976.6,953.5714285714286,173.18080166407992,3078.5,953.5714285714286,173.18080166407992,3179.3,953.5714285714286,173.18080166407992,3284.8,953.5714285714286,173.18080166407992,3387.8,953.5714285714286,173.18080166407992,3490.8,953.5714285714286,173.18080166407992,3593.1,953.5714285714286,173.18080166407992,3695.5,953.5714285714286,173.18080166407992,3801.5,953.5714285714286,173.18080166407992,3909.6,953.5714285714286,173.18080166407992,4009.6,953.5714285714286,173.18080166407992,4119.9,953.5714285714286,173.18080166407992,4226.3,953.5714285714286,173.18080166407992,4326.3,953.5714285714286,173.18080166407992,4426.3,953.5714285714286,173.18080166407992,4529.5,953.5714285714286,173.18080166407992,4630.2,953.5714285714286,173.18080166407992,4739.3,953.5714285714286,173.18080166407992,4845.9,953.5714285714286,173.18080166407992,4962.3]","[1426.6,1426.6,1000,0,426.6,""oops"",""up"",""left"",""bad_move"",3761.4,2334.4,1878,1427,456.5,""oops"",""up"",""down"",""bad_move"",6402.5,2640.7,2264.9,3761.8,375.8,""smooth"",""up"",""up"",""good_move"",18502.3,12099.4,2316.5,15725.6,460.3,""smooth"",""up"",""up"",""good_move"",21154.5,2651.9,2197.3,18502.6,454.6,""smooth"",""up"",""up"",""good_move"",27077,5922.4,2736.8,23888.4,451.8,""smooth"",""up"",""up"",""good_move"",30116.7,3039.5,2664,27077.2,375.5,""smooth"",""right"",""right"",""good_move"",33588.8,3471.6,3066.8,30117.2,404.8,""oops"",""right"",""right"",""good_move"",36655.9,3066.9,2698.4,33589,368.5,""oops"",""right"",""down"",""bad_move"",39735.2,3079,2736.9,36656.2,342.1,""oops"",""right"",""right"",""good_move"",42253.6,2517.9,2226.1,39735.7,291.8,""oops"",""up"",""down"",""bad_move""]","",""
"4184","","<div style=""width:500px;"">
  <p>What determined the result of this run?</p>
  </div>","84","html-slider-response","60","744124","0.0-5.0-1.10","305","1","2025-07-31 06:41:47","1f75c3e559b7213887762d5229550c2b","41.74.177.238","Mozilla/5.0 (Windows NT 10.0; Win64; x64) AppleWebKit/537.36 (KHTML, like Gecko) Chrome/138.0.0.0 Safari/537.36","WebKit","Chrome","138.0.0.0","Windows","10.0","https://app.prolific.com/","en-US,en;q=0.9","6122f45e2e93a3ff9a7b7a5d","6877631c9844ddd5501205fc","688b1021682c68071b226db0","3","1","6122f45e2e93a3ff9a7b7a5d","3","1","2025-07-31T06:54:20.336Z","","","","","","","","","","","AttribQ","","50","","","","","","","","","","","","","","","","","","","","","","","","","","","","",""
"4503","","<div style=""width:500px;"">
  <p>How much control did you have over the ball?</p>
  </div>","22","html-slider-response","61","748628","0.0-5.0-2.10","305","1","2025-07-31 06:41:47","1f75c3e559b7213887762d5229550c2b","41.74.177.238","Mozilla/5.0 (Windows NT 10.0; Win64; x64) AppleWebKit/537.36 (KHTML, like Gecko) Chrome/138.0.0.0 Safari/537.36","WebKit","Chrome","138.0.0.0","Windows","10.0","https://app.prolific.com/","en-US,en;q=0.9","6122f45e2e93a3ff9a7b7a5d","6877631c9844ddd5501205fc","688b1021682c68071b226db0","3","1","6122f45e2e93a3ff9a7b7a5d","3","1","2025-07-31T06:54:24.840Z","","","","","","","","","","","ControlQ","","50","","","","","","","","","","","","","","","","","","","","","","","","","","","","",""
"2939","","<div style=""width:500px;"">
  <p>How would you describe your current emotional state?</p>
  </div>","17","html-slider-response","62","751568","0.0-5.0-3.10","305","1","2025-07-31 06:41:47","1f75c3e559b7213887762d5229550c2b","41.74.177.238","Mozilla/5.0 (Windows NT 10.0; Win64; x64) AppleWebKit/537.36 (KHTML, like Gecko) Chrome/138.0.0.0 Safari/537.36","WebKit","Chrome","138.0.0.0","Windows","10.0","https://app.prolific.com/","en-US,en;q=0.9","6122f45e2e93a3ff9a7b7a5d","6877631c9844ddd5501205fc","688b1021682c68071b226db0","3","1","6122f45e2e93a3ff9a7b7a5d","3","1","2025-07-31T06:54:27.780Z","","","","","","","","","","","StressQ","","50","","","","","","","","","","","","","","","","","","","","","","","","","","","","",""
"2797","","<div style=""width:500px;"">
  <p>What best describes how you currently feel?</p>
  </div>","82","html-slider-response","63","754368","0.0-5.0-4.10","305","1","2025-07-31 06:41:47","1f75c3e559b7213887762d5229550c2b","41.74.177.238","Mozilla/5.0 (Windows NT 10.0; Win64; x64) AppleWebKit/537.36 (KHTML, like Gecko) Chrome/138.0.0.0 Safari/537.36","WebKit","Chrome","138.0.0.0","Windows","10.0","https://app.prolific.com/","en-US,en;q=0.9","6122f45e2e93a3ff9a7b7a5d","6877631c9844ddd5501205fc","688b1021682c68071b226db0","3","1","6122f45e2e93a3ff9a7b7a5d","3","1","2025-07-31T06:54:30.580Z","","","","","","","","","","","MotivationQ","","50","","","","","","","","","","","","","","","","","","","","","","","","","","","","",""
"","","","","ctl-task-cpt","64","774865","0.0-5.0-0.11","305","1","2025-07-31 06:41:47","1f75c3e559b7213887762d5229550c2b","41.74.177.238","Mozilla/5.0 (Windows NT 10.0; Win64; x64) AppleWebKit/537.36 (KHTML, like Gecko) Chrome/138.0.0.0 Safari/537.36","WebKit","Chrome","138.0.0.0","Windows","10.0","https://app.prolific.com/","en-US,en;q=0.9","6122f45e2e93a3ff9a7b7a5d","6877631c9844ddd5501205fc","688b1021682c68071b226db0","3","1","6122f45e2e93a3ff9a7b7a5d","3","1","2025-07-31T06:54:51.077Z","","","","","","","","","","","","","","win-only","0","g1:NW,g2:SE","0.6","12","0","763687","1696.8","6701.1","17473.4","1","4","4","6","1","1","1","1","0","0.007575757575757576","1508","3000","1500","[""left"",""up""]","{""num_key_presses"":4,""num_perfect"":2,""num_errors"":0,""num_randdir"":2,""num_randdir_good_moves"":2,""num_whilered"":0,""num_whileblue"":0,""num_blue"":0,""num_good_moves"":4}","[421.07142857142856,413.1808016640799,0.3,422.57142857142856,413.1808016640799,106.5,422.57142857142856,413.1808016640799,216.5,422.57142857142856,413.1808016640799,322,422.57142857142856,422.1808016640799,427,440.57142857142856,503.1808016640799,528.4,634.0714285714286,681.6808016640799,630.8,731.5714285714286,750.6808016640799,737.4,746.5714285714286,755.1808016640799,842,749.5714285714286,758.1808016640799,947.4,502.07142857142856,503.1808016640799,1049.6,112.07142857142857,164.18080166407992,1153.1,122.57142857142857,155.18080166407992,1269.5,125.57142857142857,125.18080166407994,1376.8,109.07142857142857,105.68080166407994,1482.2,109.07142857142857,105.68080166407994,1586.6,109.07142857142857,105.68080166407994,1698.7,-177.42857142857144,246.68080166407992,1801.7,-312.42857142857144,270.6808016640799,1910.2,-312.42857142857144,270.6808016640799,2014.9,-312.42857142857144,270.6808016640799,2125.4,-312.42857142857144,270.6808016640799,2232.4,-312.42857142857144,270.6808016640799,2336.8,-312.42857142857144,270.6808016640799,2444.5,-312.42857142857144,270.6808016640799,2545.6,-312.42857142857144,270.6808016640799,2647.6,-312.42857142857144,270.6808016640799,2749.6,-312.42857142857144,270.6808016640799,2850.5,-312.42857142857144,270.6808016640799,2962.5,-312.42857142857144,270.6808016640799,3068.2,-312.42857142857144,270.6808016640799,3169.1,-312.42857142857144,270.6808016640799,3270.1,-312.42857142857144,270.6808016640799,3376.9,-312.42857142857144,270.6808016640799,3482.3,-312.42857142857144,270.6808016640799,3590.2,-312.42857142857144,270.6808016640799,3697.8,-312.42857142857144,270.6808016640799,3798.3,-312.42857142857144,270.6808016640799,3899.7,-312.42857142857144,270.6808016640799,4009.8,-312.42857142857144,270.6808016640799,4109.9,-312.42857142857144,270.6808016640799,4215.2,-312.42857142857144,270.6808016640799,4320.7,-312.42857142857144,270.6808016640799,4423.4,-312.42857142857144,270.6808016640799,4528.2,-312.42857142857144,270.6808016640799,4629.5,-312.42857142857144,270.6808016640799,4745.3,-312.42857142857144,270.6808016640799,4845.9,-312.42857142857144,270.6808016640799,4949.1]","[1488.2,1488.2,1000,0,488.2,""oops"",""up"",""left"",""good_move"",4022.8,2534.2,1672.8,1488.6,861.4,""oops"",""up"",""up"",""good_move"",7387.9,3364.8,2890.3,4023.1,474.5,""smooth"",""up"",""up"",""good_move"",10640.9,3252.7,2840.5,7388.3,412.1,""smooth"",""left"",""left"",""good_move""]","",""
"7669","","<div style=""width:500px;"">
  <p>What determined the result of this run?</p>
  </div>","79","html-slider-response","65","782536","0.0-5.0-1.11","305","1","2025-07-31 06:41:47","1f75c3e559b7213887762d5229550c2b","41.74.177.238","Mozilla/5.0 (Windows NT 10.0; Win64; x64) AppleWebKit/537.36 (KHTML, like Gecko) Chrome/138.0.0.0 Safari/537.36","WebKit","Chrome","138.0.0.0","Windows","10.0","https://app.prolific.com/","en-US,en;q=0.9","6122f45e2e93a3ff9a7b7a5d","6877631c9844ddd5501205fc","688b1021682c68071b226db0","3","1","6122f45e2e93a3ff9a7b7a5d","3","1","2025-07-31T06:54:58.748Z","","","","","","","","","","","AttribQ","","50","","","","","","","","","","","","","","","","","","","","","","","","","","","","",""
"14226","","<div style=""width:500px;"">
  <p>How much control did you have over the ball?</p>
  </div>","83","html-slider-response","66","796764","0.0-5.0-2.11","305","1","2025-07-31 06:41:47","1f75c3e559b7213887762d5229550c2b","41.74.177.238","Mozilla/5.0 (Windows NT 10.0; Win64; x64) AppleWebKit/537.36 (KHTML, like Gecko) Chrome/138.0.0.0 Safari/537.36","WebKit","Chrome","138.0.0.0","Windows","10.0","https://app.prolific.com/","en-US,en;q=0.9","6122f45e2e93a3ff9a7b7a5d","6877631c9844ddd5501205fc","688b1021682c68071b226db0","3","1","6122f45e2e93a3ff9a7b7a5d","3","1","2025-07-31T06:55:12.977Z","","","","","","","","","","","ControlQ","","50","","","","","","","","","","","","","","","","","","","","","","","","","","","","",""
"3327","","<div style=""width:500px;"">
  <p>How would you describe your current emotional state?</p>
  </div>","17","html-slider-response","67","800093","0.0-5.0-3.11","305","1","2025-07-31 06:41:47","1f75c3e559b7213887762d5229550c2b","41.74.177.238","Mozilla/5.0 (Windows NT 10.0; Win64; x64) AppleWebKit/537.36 (KHTML, like Gecko) Chrome/138.0.0.0 Safari/537.36","WebKit","Chrome","138.0.0.0","Windows","10.0","https://app.prolific.com/","en-US,en;q=0.9","6122f45e2e93a3ff9a7b7a5d","6877631c9844ddd5501205fc","688b1021682c68071b226db0","3","1","6122f45e2e93a3ff9a7b7a5d","3","1","2025-07-31T06:55:16.306Z","","","","","","","","","","","StressQ","","50","","","","","","","","","","","","","","","","","","","","","","","","","","","","",""
"3246","","<div style=""width:500px;"">
  <p>What best describes how you currently feel?</p>
  </div>","84","html-slider-response","68","803341","0.0-5.0-4.11","305","1","2025-07-31 06:41:47","1f75c3e559b7213887762d5229550c2b","41.74.177.238","Mozilla/5.0 (Windows NT 10.0; Win64; x64) AppleWebKit/537.36 (KHTML, like Gecko) Chrome/138.0.0.0 Safari/537.36","WebKit","Chrome","138.0.0.0","Windows","10.0","https://app.prolific.com/","en-US,en;q=0.9","6122f45e2e93a3ff9a7b7a5d","6877631c9844ddd5501205fc","688b1021682c68071b226db0","3","1","6122f45e2e93a3ff9a7b7a5d","3","1","2025-07-31T06:55:19.553Z","","","","","","","","","","","MotivationQ","","50","","","","","","","","","","","","","","","","","","","","","","","","","","","","",""
"","","","","ctl-task-cpt","69","853362","0.0-5.0-0.12","305","1","2025-07-31 06:41:47","1f75c3e559b7213887762d5229550c2b","41.74.177.238","Mozilla/5.0 (Windows NT 10.0; Win64; x64) AppleWebKit/537.36 (KHTML, like Gecko) Chrome/138.0.0.0 Safari/537.36","WebKit","Chrome","138.0.0.0","Windows","10.0","https://app.prolific.com/","en-US,en;q=0.9","6122f45e2e93a3ff9a7b7a5d","6877631c9844ddd5501205fc","688b1021682c68071b226db0","3","1","6122f45e2e93a3ff9a7b7a5d","3","1","2025-07-31T06:56:09.574Z","","","","","","","","","","","","","","win-only","0","g1:NW,g2:SE","0.7","13","0","812658.6","1686.3","6702.1","46997.9","1","4","8","6","2","8","8","9","1","0.06818181818181818","2209.8","3000","1165","[""down"",""right""]","{""num_key_presses"":6,""num_perfect"":6,""num_errors"":0,""num_randdir"":0,""num_randdir_good_moves"":0,""num_whilered"":0,""num_whileblue"":0,""num_blue"":7,""num_good_moves"":6}","[410.57142857142856,416.1808016640799,0.1,413.57142857142856,419.1808016640799,100.4,413.57142857142856,419.1808016640799,201.9,413.57142857142856,419.1808016640799,305.2,413.57142857142856,419.1808016640799,417.7,413.57142857142856,419.1808016640799,522.2,413.57142857142856,419.1808016640799,633.8,413.57142857142856,419.1808016640799,743.8,413.57142857142856,419.1808016640799,850.2,410.57142857142856,416.1808016640799,954.8,245.57142857142856,329.1808016640799,1067.1,227.57142857142856,317.1808016640799,1168.4,125.57142857142857,150.68080166407992,1269.4,122.57142857142857,126.68080166407994,1370.6,152.57142857142856,197.18080166407992,1485.3,464.57142857142856,701.1808016640799,1586.1,518.5714285714286,776.1808016640799,1702.1,559.0714285714286,719.1808016640799,1816.8,664.0714285714286,699.6808016640799,1919.7,728.5714285714286,713.1808016640799,2020.5,745.0714285714286,725.1808016640799,2135.6,743.5714285714286,723.6808016640799,2235.6,743.5714285714286,723.6808016640799,2343,743.5714285714286,723.6808016640799,2444.8,850.0714285714286,720.6808016640799,2547.2,1019.5714285714286,729.6808016640799,2653,1019.5714285714286,728.1808016640799,2767.7,1019.5714285714286,728.1808016640799,2870.8,1019.5714285714286,728.1808016640799,2970.9,1019.5714285714286,728.1808016640799,3077.2,1019.5714285714286,728.1808016640799,3178.6,1019.5714285714286,728.1808016640799,3282.5,1019.5714285714286,728.1808016640799,3385.3,1019.5714285714286,728.1808016640799,3489.9,1019.5714285714286,728.1808016640799,3593.3,1019.5714285714286,728.1808016640799,3700.5,1019.5714285714286,728.1808016640799,3801.8,1019.5714285714286,728.1808016640799,3905.2,1019.5714285714286,728.1808016640799,4005.4,1019.5714285714286,728.1808016640799,4111,1019.5714285714286,728.1808016640799,4214,1019.5714285714286,728.1808016640799,4319.1,1019.5714285714286,728.1808016640799,4421.1,1019.5714285714286,728.1808016640799,4529.5,1019.5714285714286,728.1808016640799,4632.5,1019.5714285714286,728.1808016640799,4735,1019.5714285714286,728.1808016640799,4849.5,1019.5714285714286,728.1808016640799,4949.9]","[8746.9,8746.9,2395.8,5903.5,447.6,""smooth"",""down"",""down"",""good_move"",11896.9,3149.7,2695.7,8747.2,454,""smooth"",""down"",""down"",""good_move"",17597.4,5700.4,1847.6,15274.2,475.6,""smooth"",""down"",""down"",""good_move"",20870.9,3273.4,2712.7,17597.5,560.7,""smooth"",""right"",""right"",""good_move"",27008.1,6136.7,2463.6,23899.1,645.4,""smooth"",""right"",""right"",""good_move"",39975.9,12967.6,2981.7,36599.4,394.8,""smooth"",""right"",""right"",""good_move""]","",""
"3204","","<div style=""width:500px;"">
  <p>What determined the result of this run?</p>
  </div>","100","html-slider-response","70","856570","0.0-5.0-1.12","305","1","2025-07-31 06:41:47","1f75c3e559b7213887762d5229550c2b","41.74.177.238","Mozilla/5.0 (Windows NT 10.0; Win64; x64) AppleWebKit/537.36 (KHTML, like Gecko) Chrome/138.0.0.0 Safari/537.36","WebKit","Chrome","138.0.0.0","Windows","10.0","https://app.prolific.com/","en-US,en;q=0.9","6122f45e2e93a3ff9a7b7a5d","6877631c9844ddd5501205fc","688b1021682c68071b226db0","3","1","6122f45e2e93a3ff9a7b7a5d","3","1","2025-07-31T06:56:12.782Z","","","","","","","","","","","AttribQ","","50","","","","","","","","","","","","","","","","","","","","","","","","","","","","",""
"2780","","<div style=""width:500px;"">
  <p>How much control did you have over the ball?</p>
  </div>","100","html-slider-response","71","859351","0.0-5.0-2.12","305","1","2025-07-31 06:41:47","1f75c3e559b7213887762d5229550c2b","41.74.177.238","Mozilla/5.0 (Windows NT 10.0; Win64; x64) AppleWebKit/537.36 (KHTML, like Gecko) Chrome/138.0.0.0 Safari/537.36","WebKit","Chrome","138.0.0.0","Windows","10.0","https://app.prolific.com/","en-US,en;q=0.9","6122f45e2e93a3ff9a7b7a5d","6877631c9844ddd5501205fc","688b1021682c68071b226db0","3","1","6122f45e2e93a3ff9a7b7a5d","3","1","2025-07-31T06:56:15.563Z","","","","","","","","","","","ControlQ","","50","","","","","","","","","","","","","","","","","","","","","","","","","","","","",""
"3463","","<div style=""width:500px;"">
  <p>How would you describe your current emotional state?</p>
  </div>","18","html-slider-response","72","862816","0.0-5.0-3.12","305","1","2025-07-31 06:41:47","1f75c3e559b7213887762d5229550c2b","41.74.177.238","Mozilla/5.0 (Windows NT 10.0; Win64; x64) AppleWebKit/537.36 (KHTML, like Gecko) Chrome/138.0.0.0 Safari/537.36","WebKit","Chrome","138.0.0.0","Windows","10.0","https://app.prolific.com/","en-US,en;q=0.9","6122f45e2e93a3ff9a7b7a5d","6877631c9844ddd5501205fc","688b1021682c68071b226db0","3","1","6122f45e2e93a3ff9a7b7a5d","3","1","2025-07-31T06:56:19.028Z","","","","","","","","","","","StressQ","","50","","","","","","","","","","","","","","","","","","","","","","","","","","","","",""
"3631","","<div style=""width:500px;"">
  <p>What best describes how you currently feel?</p>
  </div>","85","html-slider-response","73","866448","0.0-5.0-4.12","305","1","2025-07-31 06:41:47","1f75c3e559b7213887762d5229550c2b","41.74.177.238","Mozilla/5.0 (Windows NT 10.0; Win64; x64) AppleWebKit/537.36 (KHTML, like Gecko) Chrome/138.0.0.0 Safari/537.36","WebKit","Chrome","138.0.0.0","Windows","10.0","https://app.prolific.com/","en-US,en;q=0.9","6122f45e2e93a3ff9a7b7a5d","6877631c9844ddd5501205fc","688b1021682c68071b226db0","3","1","6122f45e2e93a3ff9a7b7a5d","3","1","2025-07-31T06:56:22.661Z","","","","","","","","","","","MotivationQ","","50","","","","","","","","","","","","","","","","","","","","","","","","","","","","",""
"","","","","ctl-task-cpt","74","902077","0.0-5.0-0.13","305","1","2025-07-31 06:41:47","1f75c3e559b7213887762d5229550c2b","41.74.177.238","Mozilla/5.0 (Windows NT 10.0; Win64; x64) AppleWebKit/537.36 (KHTML, like Gecko) Chrome/138.0.0.0 Safari/537.36","WebKit","Chrome","138.0.0.0","Windows","10.0","https://app.prolific.com/","en-US,en;q=0.9","6122f45e2e93a3ff9a7b7a5d","6877631c9844ddd5501205fc","688b1021682c68071b226db0","3","1","6122f45e2e93a3ff9a7b7a5d","3","1","2025-07-31T06:56:58.289Z","","","","","","","","","","","","","","win-only","3","g1:SW,g2:NE","0.8","14","0","875766.4","1494.6","6500.2","32592.1","1","4","4","6","1","1","1","10","9","0.07575757575757576","1126.3","3000","2460","[""down"",""left""]","{""num_key_presses"":6,""num_perfect"":5,""num_errors"":0,""num_randdir"":1,""num_randdir_good_moves"":0,""num_whilered"":0,""num_whileblue"":0,""num_blue"":1,""num_good_moves"":5}","[416.57142857142856,417.6808016640799,0.1,416.57142857142856,417.6808016640799,105.4,416.57142857142856,417.6808016640799,210.2,416.57142857142856,417.6808016640799,330.5,416.57142857142856,417.6808016640799,441.4,416.57142857142856,417.6808016640799,552.3,416.57142857142856,417.6808016640799,662.2,323.57142857142856,546.6808016640799,763.7,14.57142857142857,783.6808016640799,882.5,14.57142857142857,789.6808016640799,995.5,14.57142857142857,789.6808016640799,1098.5,14.57142857142857,791.1808016640799,1208.8,11.57142857142857,788.1808016640799,1319.2,-184.92857142857144,689.1808016640799,1435.2,-306.42857142857144,677.1808016640799,1546.8,-307.92857142857144,677.1808016640799,1663.5,-307.92857142857144,677.1808016640799,1772.3,-307.92857142857144,677.1808016640799,1886.6,-307.92857142857144,677.1808016640799,1988.3,-307.92857142857144,677.1808016640799,2090.7,-307.92857142857144,677.1808016640799,2197.1,-307.92857142857144,677.1808016640799,2305.5,-307.92857142857144,677.1808016640799,2407.9,-307.92857142857144,677.1808016640799,2510.9,-307.92857142857144,677.1808016640799,2624,-307.92857142857144,677.1808016640799,2745.1,-307.92857142857144,677.1808016640799,2845.3,-307.92857142857144,677.1808016640799,2961.2,-307.92857142857144,677.1808016640799,3069.7,-307.92857142857144,677.1808016640799,3211.7,-307.92857142857144,677.1808016640799,3323.7,-307.92857142857144,677.1808016640799,3425.8,-307.92857142857144,677.1808016640799,3531.1,-307.92857142857144,677.1808016640799,3642.4,-307.92857142857144,677.1808016640799,3743.8,-307.92857142857144,677.1808016640799,3845.9,-307.92857142857144,677.1808016640799,3962.7,-307.92857142857144,677.1808016640799,4079.1,-307.92857142857144,677.1808016640799,4195.5,-307.92857142857144,677.1808016640799,4298.5,-307.92857142857144,677.1808016640799,4400,-307.92857142857144,677.1808016640799,4513.7,-307.92857142857144,677.1808016640799,4628.1,-307.92857142857144,677.1808016640799,4749.9,-307.92857142857144,677.1808016640799,4866,-307.92857142857144,677.1808016640799,4978.7]","[1557.3,1557.3,1000,0,557.4,""smooth"",""down"",""down"",""good_move"",4599.2,3041.6,2593.2,1557.6,448.4,""smooth"",""down"",""down"",""good_move"",7939.1,3339.6,2895.7,4599.5,443.9,""oops"",""left"",""up"",""bad_move"",12476.7,4537.3,2627.6,7939.5,1909.6,""smooth"",""left"",""left"",""good_move"",20934.6,8457.6,2893.2,17541.4,500,""smooth"",""left"",""left"",""good_move"",25606.7,4671.9,2750.6,20934.9,1921.2,""smooth"",""down"",""down"",""good_move""]","",""
"3049","","<div style=""width:500px;"">
  <p>What determined the result of this run?</p>
  </div>","84","html-slider-response","75","905128","0.0-5.0-1.13","305","1","2025-07-31 06:41:47","1f75c3e559b7213887762d5229550c2b","41.74.177.238","Mozilla/5.0 (Windows NT 10.0; Win64; x64) AppleWebKit/537.36 (KHTML, like Gecko) Chrome/138.0.0.0 Safari/537.36","WebKit","Chrome","138.0.0.0","Windows","10.0","https://app.prolific.com/","en-US,en;q=0.9","6122f45e2e93a3ff9a7b7a5d","6877631c9844ddd5501205fc","688b1021682c68071b226db0","3","1","6122f45e2e93a3ff9a7b7a5d","3","1","2025-07-31T06:57:01.340Z","","","","","","","","","","","AttribQ","","50","","","","","","","","","","","","","","","","","","","","","","","","","","","","",""
"3514","","<div style=""width:500px;"">
  <p>How much control did you have over the ball?</p>
  </div>","94","html-slider-response","76","908645","0.0-5.0-2.13","305","1","2025-07-31 06:41:47","1f75c3e559b7213887762d5229550c2b","41.74.177.238","Mozilla/5.0 (Windows NT 10.0; Win64; x64) AppleWebKit/537.36 (KHTML, like Gecko) Chrome/138.0.0.0 Safari/537.36","WebKit","Chrome","138.0.0.0","Windows","10.0","https://app.prolific.com/","en-US,en;q=0.9","6122f45e2e93a3ff9a7b7a5d","6877631c9844ddd5501205fc","688b1021682c68071b226db0","3","1","6122f45e2e93a3ff9a7b7a5d","3","1","2025-07-31T06:57:04.857Z","","","","","","","","","","","ControlQ","","50","","","","","","","","","","","","","","","","","","","","","","","","","","","","",""
"3685","","<div style=""width:500px;"">
  <p>How would you describe your current emotional state?</p>
  </div>","20","html-slider-response","77","912334","0.0-5.0-3.13","305","1","2025-07-31 06:41:47","1f75c3e559b7213887762d5229550c2b","41.74.177.238","Mozilla/5.0 (Windows NT 10.0; Win64; x64) AppleWebKit/537.36 (KHTML, like Gecko) Chrome/138.0.0.0 Safari/537.36","WebKit","Chrome","138.0.0.0","Windows","10.0","https://app.prolific.com/","en-US,en;q=0.9","6122f45e2e93a3ff9a7b7a5d","6877631c9844ddd5501205fc","688b1021682c68071b226db0","3","1","6122f45e2e93a3ff9a7b7a5d","3","1","2025-07-31T06:57:08.546Z","","","","","","","","","","","StressQ","","50","","","","","","","","","","","","","","","","","","","","","","","","","","","","",""
"3561","","<div style=""width:500px;"">
  <p>What best describes how you currently feel?</p>
