"rt","response_timestamp","stimulus","response","trial_type","trial_index","time_elapsed","internal_node_id","run_id","condition","recorded_at","source_code_version","ip","user_agent","device","browser","browser_version","platform","platform_version","referer","accept_language","PROLIFIC_PID","STUDY_ID","SESSION_ID","WEEK","BATCH","prolific_id","week","batch","realtime","success","responses","item_order","radio_event_ids","radio_event_times","key_event_times","mouse_event_times","straightlining","zigzagging","honeypot","eventType","view_history","slider_start","which_type","canvas_config","goals_layout","control_level","trial_number","tutorial_trial_number","trial_start_time","phase1_start_time","phase2_start_time","phase3_start_time","goal_1_value","goal_1_distance","goal_2_value","goal_2_distance","goal_selected","outcome","outcome_total","participant_final_score","participant_initial_score","participant_final_score_prop","goal_choice_rt","allocated_time","allocated_time_remaining","goal_direction","counts","mouse_movements","key_presses","question_order","question_id"
"19401","1752654016932","<p style='font-size:40px;line-height:1.25'><strong>Welcome to the experiment!</strong></p><p style='font-size:1.1em;line-height:1.25'>Thank you for participanting in our experiment again! You will be asked to play the Dysfunctional Ball Game again. We will briefly recap the rules before we start.</p><p style='font-size:1.1em;line-height:1.25'>Press <strong>Next</strong> to continue.</p>","0","custom-html-button-response","0","19405","0.0-0.0","48","1","2025-07-16 08:19:54","1f75c3e559b7213887762d5229550c2b","165.165.122.131","Mozilla/5.0 (Windows NT 10.0; Win64; x64) AppleWebKit/537.36 (KHTML, like Gecko) Chrome/138.0.0.0 Safari/537.36","WebKit","Chrome","138.0.0.0","Windows","10.0","https://app.prolific.com/","en-GB,en-US;q=0.9,en;q=0.8","6736f4a8fe83ffce0936bdc4","686e379bc37a29ffa5cdc956","6877600eec8b868de7962f94","1","1","6736f4a8fe83ffce0936bdc4","1","1","2025-07-16T08:20:16.934Z","","","","","","","","","","","","","","","","","","","","","","","","","","","","","","","","","","","","","","","","","",""
"37407","","","","fullscreen","1","57831","0.0-1.0","48","1","2025-07-16 08:19:54","1f75c3e559b7213887762d5229550c2b","165.165.122.131","Mozilla/5.0 (Windows NT 10.0; Win64; x64) AppleWebKit/537.36 (KHTML, like Gecko) Chrome/138.0.0.0 Safari/537.36","WebKit","Chrome","138.0.0.0","Windows","10.0","https://app.prolific.com/","en-GB,en-US;q=0.9,en;q=0.8","6736f4a8fe83ffce0936bdc4","686e379bc37a29ffa5cdc956","6877600eec8b868de7962f94","1","1","6736f4a8fe83ffce0936bdc4","1","1","","true","","","","","","","","","","","","","","","","","","","","","","","","","","","","","","","","","","","","","","","","",""
"14882","1752654070248","<p style='font-size:1.1em;line-height:1.25'>In the following, we will ask you a few questions relating to your feelings in the last 24 hours.<br></p><p style='font-size:1.1em;line-height:1.25'>Press the <strong>Next</strong> button to continue.</p>","0","custom-html-button-response","2","72720","0.0-2.0-0.0","48","1","2025-07-16 08:19:54","1f75c3e559b7213887762d5229550c2b","165.165.122.131","Mozilla/5.0 (Windows NT 10.0; Win64; x64) AppleWebKit/537.36 (KHTML, like Gecko) Chrome/138.0.0.0 Safari/537.36","WebKit","Chrome","138.0.0.0","Windows","10.0","https://app.prolific.com/","en-GB,en-US;q=0.9,en;q=0.8","6736f4a8fe83ffce0936bdc4","686e379bc37a29ffa5cdc956","6877600eec8b868de7962f94","1","1","6736f4a8fe83ffce0936bdc4","1","1","2025-07-16T08:21:10.249Z","","","","","","","","","","","","","","","","","","","","","","","","","","","","","","","","","","","","","","","","","",""
"130042.19999998808","","","","survey-template","3","202775","0.0-2.0-1.0","48","1","2025-07-16 08:19:54","1f75c3e559b7213887762d5229550c2b","165.165.122.131","Mozilla/5.0 (Windows NT 10.0; Win64; x64) AppleWebKit/537.36 (KHTML, like Gecko) Chrome/138.0.0.0 Safari/537.36","WebKit","Chrome","138.0.0.0","Windows","10.0","https://app.prolific.com/","en-GB,en-US;q=0.9,en;q=0.8","6736f4a8fe83ffce0936bdc4","686e379bc37a29ffa5cdc956","6877600eec8b868de7962f94","1","1","6736f4a8fe83ffce0936bdc4","1","1","2025-07-16T08:23:20.304Z","","{""Q01"":""0"",""Q02"":""0"",""Q03"":""0"",""Q04"":""1"",""Q05"":""1"",""Q06"":""0"",""Q07"":""2"",""Q08"":""0"",""Q09"":""1"",""Q10"":""0"",""Q11"":""1"",""Q12"":""2"",""Q13"":""5"",""Q14"":""3"",""Q15"":""0"",""Q16"":""0"",""Q17"":""1"",""Q18"":""0"",""Q19"":""0"",""Q20"":""1"",""Q21"":""0"",""Q22"":""0""}","[0,1,2,3,4,5,6,7,8,9,10,11,12,13,14,15,16,17,18,19,20,21]","[""Q01"",""Q02"",""Q03"",""Q04"",""Q05"",""Q06"",""Q07"",""Q08"",""Q09"",""Q10"",""Q11"",""Q12"",""Q13"",""Q14"",""Q15"",""Q16"",""Q17"",""Q18"",""Q19"",""Q20"",""Q21"",""Q22""]","[9677.90000000596,10601.90000000596,12653.5,15073.90000000596,19566.09999999404,22890.59999999404,24379.5,26930.40000000596,29959.19999998808,33085.90000000596,56814.40000000596,62370.30000001192,65810.30000001192,71066.19999998808,73677.30000001192,103988,108145.90000000596,109298,112917.80000001192,117774.80000001192,125722.69999998808,128022.69999998808]","[]","[0.09999999403953552,8628,9677.90000000596,10601.90000000596,12653.5,15073.90000000596,19566.09999999404,22890.59999999404,24379.5,26930.40000000596,29289.40000000596,29959.19999998808,33085.90000000596,56814.40000000596,62370.30000001192,65810.30000001192,68768.19999998808,71066.19999998808,72763.80000001192,73677.30000001192,74448.09999999404,103988,108145.90000000596,109298,112917.80000001192,117774.80000001192,125722.69999998808,127317,128022.69999998808,130029.19999998808]","0.5454545454545454","0.47619047619047616","0","drsp","","","","","","","","","","","","","","","","","","","","","","","","","","","","","","",""
"23075","","","","survey-template","4","225856","0.0-2.0-2.0","48","1","2025-07-16 08:19:54","1f75c3e559b7213887762d5229550c2b","165.165.122.131","Mozilla/5.0 (Windows NT 10.0; Win64; x64) AppleWebKit/537.36 (KHTML, like Gecko) Chrome/138.0.0.0 Safari/537.36","WebKit","Chrome","138.0.0.0","Windows","10.0","https://app.prolific.com/","en-GB,en-US;q=0.9,en;q=0.8","6736f4a8fe83ffce0936bdc4","686e379bc37a29ffa5cdc956","6877600eec8b868de7962f94","1","1","6736f4a8fe83ffce0936bdc4","1","1","2025-07-16T08:23:43.385Z","","{""Q01"":""1"",""Q02"":""2"",""Q03"":""1""}","[0,1,2]","[""Q01"",""Q02"",""Q03""]","[2619.7999999821186,6395.5,20334.79999998212]","[]","[2619.7999999821186,6395.5,20334.79999998212,23072.899999976158]","0.6666666666666666","0","0","stress","","","","","","","","","","","","","","","","","","","","","","","","","","","","","","",""
"8167","","","","instructions","5","234025","0.0-3.0-0.0","48","1","2025-07-16 08:19:54","1f75c3e559b7213887762d5229550c2b","165.165.122.131","Mozilla/5.0 (Windows NT 10.0; Win64; x64) AppleWebKit/537.36 (KHTML, like Gecko) Chrome/138.0.0.0 Safari/537.36","WebKit","Chrome","138.0.0.0","Windows","10.0","https://app.prolific.com/","en-GB,en-US;q=0.9,en;q=0.8","6736f4a8fe83ffce0936bdc4","686e379bc37a29ffa5cdc956","6877600eec8b868de7962f94","1","1","6736f4a8fe83ffce0936bdc4","1","1","","","","","","","","","","","","","[{""page_index"":0,""viewing_time"":8166}]","","","","","","","","","","","","","","","","","","","","","","","","","","","","","",""
"6479","","<p>Before you start with this game please answer the following three questions yourself. </p>
  <p>Through this game, we measure several aspects of your cognitive performance, such as reaction times, multi-tasking capabilities </p>
  <p>and the ability to assess the situation you are in.</p>
  <p></p>
  <p><b>How good do you usually are in such tasks?</b></p>","93","html-slider-response","6","240511","0.0-4.0-0.0","48","1","2025-07-16 08:19:54","1f75c3e559b7213887762d5229550c2b","165.165.122.131","Mozilla/5.0 (Windows NT 10.0; Win64; x64) AppleWebKit/537.36 (KHTML, like Gecko) Chrome/138.0.0.0 Safari/537.36","WebKit","Chrome","138.0.0.0","Windows","10.0","https://app.prolific.com/","en-GB,en-US;q=0.9,en;q=0.8","6736f4a8fe83ffce0936bdc4","686e379bc37a29ffa5cdc956","6877600eec8b868de7962f94","1","1","6736f4a8fe83ffce0936bdc4","1","1","2025-07-16T08:23:58.041Z","","","","","","","","","","","PreSkillQ","","50","","","","","","","","","","","","","","","","","","","","","","","","","","","","",""
"5938","","<div style=""width:500px;"">
  <p>How well do you think you will perform in this task compared to other participants?</p>
  </div>","93","html-slider-response","7","246452","0.0-4.0-1.0","48","1","2025-07-16 08:19:54","1f75c3e559b7213887762d5229550c2b","165.165.122.131","Mozilla/5.0 (Windows NT 10.0; Win64; x64) AppleWebKit/537.36 (KHTML, like Gecko) Chrome/138.0.0.0 Safari/537.36","WebKit","Chrome","138.0.0.0","Windows","10.0","https://app.prolific.com/","en-GB,en-US;q=0.9,en;q=0.8","6736f4a8fe83ffce0936bdc4","686e379bc37a29ffa5cdc956","6877600eec8b868de7962f94","1","1","6736f4a8fe83ffce0936bdc4","1","1","2025-07-16T08:24:03.981Z","","","","","","","","","","","PrePerfQ","","50","","","","","","","","","","","","","","","","","","","","","","","","","","","","",""
"3563","","<div style=""width:500px;"">
  <p>What best describes how you currently feel?</p>
  </div>","50","html-slider-response","8","250017","0.0-4.0-2.0","48","1","2025-07-16 08:19:54","1f75c3e559b7213887762d5229550c2b","165.165.122.131","Mozilla/5.0 (Windows NT 10.0; Win64; x64) AppleWebKit/537.36 (KHTML, like Gecko) Chrome/138.0.0.0 Safari/537.36","WebKit","Chrome","138.0.0.0","Windows","10.0","https://app.prolific.com/","en-GB,en-US;q=0.9,en;q=0.8","6736f4a8fe83ffce0936bdc4","686e379bc37a29ffa5cdc956","6877600eec8b868de7962f94","1","1","6736f4a8fe83ffce0936bdc4","1","1","2025-07-16T08:24:07.546Z","","","","","","","","","","","PreMotivationQ","","50","","","","","","","","","","","","","","","","","","","","","","","","","","","","",""
"","","","","ctl-task-cpt","9","278495","0.0-5.0-0.0","48","1","2025-07-16 08:19:54","1f75c3e559b7213887762d5229550c2b","165.165.122.131","Mozilla/5.0 (Windows NT 10.0; Win64; x64) AppleWebKit/537.36 (KHTML, like Gecko) Chrome/138.0.0.0 Safari/537.36","WebKit","Chrome","138.0.0.0","Windows","10.0","https://app.prolific.com/","en-GB,en-US;q=0.9,en;q=0.8","6736f4a8fe83ffce0936bdc4","686e379bc37a29ffa5cdc956","6877600eec8b868de7962f94","1","1","6736f4a8fe83ffce0936bdc4","1","1","2025-07-16T08:24:36.025Z","","","","","","","","","","","","","","win-only","0","g1:NW,g2:SE","1","1","0","253827.1","2362.5","7364.6","25456","1","4","8","6","2","8","7","7","0","0.05303030303030303","2373.7","3000","1655","[""down"",""right""]","{""num_key_presses"":6,""num_perfect"":5,""num_errors"":1,""num_randdir"":0,""num_randdir_good_moves"":0,""num_whilered"":0,""num_whileblue"":1,""num_blue"":2,""num_good_moves"":6}","[416.5714133126395,420.32142761775424,3.6,416.5714133126395,420.32142761775424,104.6,416.5714133126395,420.32142761775424,206.3,416.5714133126395,420.32142761775424,308.9,416.5714133126395,420.32142761775424,413.5,416.5714133126395,420.32142761775424,514.3,412.8214133126395,435.32142761775424,620.4,415.3214133126395,440.32142761775424,724.5,415.3214133126395,440.32142761775424,829.7,476.5714133126395,501.57142761775424,929.9,607.8214133126395,672.8214276177542,1038.2,617.8214133126395,682.8214276177542,1143.4,679.0714133126395,721.5714276177542,1244.1,696.5714133126395,731.5714276177542,1345.5,700.3214133126395,731.5714276177542,1455,700.3214133126395,731.5714276177542,1555.5,700.3214133126395,731.5714276177542,1659.1,700.3214133126395,731.5714276177542,1763.2,700.3214133126395,731.5714276177542,1864.1,700.3214133126395,730.3214276177542,1975,700.3214133126395,730.3214276177542,2078.6,700.3214133126395,730.3214276177542,2179.2,700.3214133126395,730.3214276177542,2280,700.3214133126395,730.3214276177542,2386.8,700.3214133126395,730.3214276177542,2488,695.3214133126395,721.5714276177542,2588.9,694.0714133126395,717.8214276177542,2693.6,694.0714133126395,717.8214276177542,2793.6,697.8214133126395,710.3214276177542,2893.7,909.0714133126395,717.8214276177542,3000.5,1085.3214133126396,759.0714276177542,3104.8,1097.8214133126396,765.3214276177542,3206.5,1111.5714133126396,776.5714276177542,3309.5,1120.3214133126396,771.5714276177542,3414,1120.3214133126396,771.5714276177542,3519.2,1120.3214133126396,771.5714276177542,3619.5,1120.3214133126396,771.5714276177542,3723.9,1120.3214133126396,771.5714276177542,3824.2,1120.3214133126396,771.5714276177542,3929.1,1120.3214133126396,771.5714276177542,4029.5,1120.3214133126396,771.5714276177542,4136.2,1120.3214133126396,771.5714276177542,4239.9,1120.3214133126396,771.5714276177542,4343.1,1120.3214133126396,771.5714276177542,4443.7,1120.3214133126396,771.5714276177542,4543.9,1120.3214133126396,771.5714276177542,4651.1,1120.3214133126396,771.5714276177542,4754.5,1120.3214133126396,771.5714276177542,4855,1120.3214133126396,771.5714276177542,4958.7]","[1486.1,1486,1000,0.1,486,""smooth"",""down"",""down"",""good_move"",3795.6,2293.6,1924.9,1502,368.7,""smooth"",""down"",""down"",""good_move"",6488.1,2671.8,2382,3816.4,289.7,""smooth"",""down"",""down"",""good_move"",9256,2755.1,2356.6,6501,398.5,""smooth"",""right"",""right"",""good_move"",12521,3211.4,2891.1,9309.7,320.2,""while_blue"",""right"",""right"",""good_move"",17987.6,5462.7,2119.7,15521,346.9,""smooth"",""right"",""right"",""good_move""]","",""
"3754","","<div style=""width:500px;"">
  <p>What determined the result of this run?</p>
  </div>","81","html-slider-response","10","282252","0.0-5.0-1.0","48","1","2025-07-16 08:19:54","1f75c3e559b7213887762d5229550c2b","165.165.122.131","Mozilla/5.0 (Windows NT 10.0; Win64; x64) AppleWebKit/537.36 (KHTML, like Gecko) Chrome/138.0.0.0 Safari/537.36","WebKit","Chrome","138.0.0.0","Windows","10.0","https://app.prolific.com/","en-GB,en-US;q=0.9,en;q=0.8","6736f4a8fe83ffce0936bdc4","686e379bc37a29ffa5cdc956","6877600eec8b868de7962f94","1","1","6736f4a8fe83ffce0936bdc4","1","1","2025-07-16T08:24:39.781Z","","","","","","","","","","","AttribQ","","50","","","","","","","","","","","","","","","","","","","","","","","","","","","","",""
"4372","","<div style=""width:500px;"">
  <p>How much control did you have over the ball?</p>
  </div>","100","html-slider-response","11","286626","0.0-5.0-2.0","48","1","2025-07-16 08:19:54","1f75c3e559b7213887762d5229550c2b","165.165.122.131","Mozilla/5.0 (Windows NT 10.0; Win64; x64) AppleWebKit/537.36 (KHTML, like Gecko) Chrome/138.0.0.0 Safari/537.36","WebKit","Chrome","138.0.0.0","Windows","10.0","https://app.prolific.com/","en-GB,en-US;q=0.9,en;q=0.8","6736f4a8fe83ffce0936bdc4","686e379bc37a29ffa5cdc956","6877600eec8b868de7962f94","1","1","6736f4a8fe83ffce0936bdc4","1","1","2025-07-16T08:24:44.155Z","","","","","","","","","","","ControlQ","","50","","","","","","","","","","","","","","","","","","","","","","","","","","","","",""
"7624","","<div style=""width:500px;"">
  <p>How would you describe your current emotional state?</p>
  </div>","0","html-slider-response","12","294253","0.0-5.0-3.0","48","1","2025-07-16 08:19:54","1f75c3e559b7213887762d5229550c2b","165.165.122.131","Mozilla/5.0 (Windows NT 10.0; Win64; x64) AppleWebKit/537.36 (KHTML, like Gecko) Chrome/138.0.0.0 Safari/537.36","WebKit","Chrome","138.0.0.0","Windows","10.0","https://app.prolific.com/","en-GB,en-US;q=0.9,en;q=0.8","6736f4a8fe83ffce0936bdc4","686e379bc37a29ffa5cdc956","6877600eec8b868de7962f94","1","1","6736f4a8fe83ffce0936bdc4","1","1","2025-07-16T08:24:51.782Z","","","","","","","","","","","StressQ","","50","","","","","","","","","","","","","","","","","","","","","","","","","","","","",""
"52077","","<div style=""width:500px;"">
  <p>What best describes how you currently feel?</p>
  </div>","50","html-slider-response","13","346333","0.0-5.0-4.0","48","1","2025-07-16 08:19:54","1f75c3e559b7213887762d5229550c2b","165.165.122.131","Mozilla/5.0 (Windows NT 10.0; Win64; x64) AppleWebKit/537.36 (KHTML, like Gecko) Chrome/138.0.0.0 Safari/537.36","WebKit","Chrome","138.0.0.0","Windows","10.0","https://app.prolific.com/","en-GB,en-US;q=0.9,en;q=0.8","6736f4a8fe83ffce0936bdc4","686e379bc37a29ffa5cdc956","6877600eec8b868de7962f94","1","1","6736f4a8fe83ffce0936bdc4","1","1","2025-07-16T08:25:43.862Z","","","","","","","","","","","MotivationQ","","50","","","","","","","","","","","","","","","","","","","","","","","","","","","","",""
"","","","","ctl-task-cpt","14","389278","0.0-5.0-0.1","48","1","2025-07-16 08:19:54","1f75c3e559b7213887762d5229550c2b","165.165.122.131","Mozilla/5.0 (Windows NT 10.0; Win64; x64) AppleWebKit/537.36 (KHTML, like Gecko) Chrome/138.0.0.0 Safari/537.36","WebKit","Chrome","138.0.0.0","Windows","10.0","https://app.prolific.com/","en-GB,en-US;q=0.9,en;q=0.8","6736f4a8fe83ffce0936bdc4","686e379bc37a29ffa5cdc956","6877600eec8b868de7962f94","1","1","6736f4a8fe83ffce0936bdc4","1","1","2025-07-16T08:26:26.807Z","","","","","","","","","","","","","","win-only","1","g1:NE,g2:SW","0.9","2","0","350135.3","6701.2","11702.5","39921","1","4","4","6","2","-4","-5","2","7","0.015151515151515152","1870","3000","-2360","[""down"",""left""]","{""num_key_presses"":8,""num_perfect"":6,""num_errors"":1,""num_randdir"":1,""num_randdir_good_moves"":0,""num_whilered"":0,""num_whileblue"":1,""num_blue"":2,""num_good_moves"":6}","[411.5714133126395,426.57142761775424,0.9,411.5714133126395,426.57142761775424,105.5,411.5714133126395,426.57142761775424,211.7,411.5714133126395,426.57142761775424,315.5,411.5714133126395,426.57142761775424,415.8,411.5714133126395,426.57142761775424,521.6,411.5714133126395,426.57142761775424,627.7,361.5714133126395,536.5714276177542,729.9,211.5714133126395,601.5714276177542,834.7,26.571413312639507,657.8214276177542,937.8,25.321413312639507,660.3214276177542,1044,25.321413312639507,690.3214276177542,1154.1,27.821413312639507,706.5714276177542,1256.1,40.32141331263951,726.5714276177542,1362.8,40.32141331263951,726.5714276177542,1463.2,46.57141331263951,731.5714276177542,1565,62.82141331263951,747.8214276177542,1666,65.3214133126395,749.0714276177542,1772.7,69.0714133126395,749.0714276177542,1878.6,69.0714133126395,749.0714276177542,1978.7,65.3214133126395,731.5714276177542,2080.2,65.3214133126395,729.0714276177542,2180.5,67.8214133126395,720.3214276177542,2288.9,67.8214133126395,720.3214276177542,2389.9,67.8214133126395,720.3214276177542,2493.4,67.8214133126395,720.3214276177542,2596.8,67.8214133126395,720.3214276177542,2700.2,67.8214133126395,720.3214276177542,2803.7,67.8214133126395,720.3214276177542,2905.4,67.8214133126395,720.3214276177542,3006.3,67.8214133126395,720.3214276177542,3109.9,67.8214133126395,720.3214276177542,3211.2,67.8214133126395,720.3214276177542,3315.3,67.8214133126395,720.3214276177542,3428.5,67.8214133126395,720.3214276177542,3530,67.8214133126395,720.3214276177542,3635.4,67.8214133126395,720.3214276177542,3739.3,67.8214133126395,720.3214276177542,3844.9,67.8214133126395,720.3214276177542,3944.9,67.8214133126395,720.3214276177542,4046,67.8214133126395,720.3214276177542,4155.2,67.8214133126395,720.3214276177542,4255.9,67.8214133126395,720.3214276177542,4359.6,67.8214133126395,720.3214276177542,4459.7,67.8214133126395,720.3214276177542,4570.3,67.8214133126395,720.3214276177542,4682.6,67.8214133126395,720.3214276177542,4784.3,67.8214133126395,720.3214276177542,4885.3,67.8214133126395,720.3214276177542,4985.3]","[1518.3,1518.3,1000,0,518.3,""smooth"",""down"",""down"",""good_move"",4897.9,3378.3,2952.2,1519.6,426.2,""smooth"",""down"",""down"",""good_move"",7901.2,2999.8,2590.1,4901.4,409.8,""oops"",""down"",""up"",""bad_move"",10104.5,2201.4,1851.4,7903.1,350,""smooth"",""left"",""left"",""good_move"",12661.8,2552.9,2168,10108.9,385,""smooth"",""down"",""down"",""good_move"",19038.6,6369.4,2620.1,16067.8,350.7,""while_blue"",""left"",""up"",""bad_move"",22568,3521,2917.3,19047,603.7,""smooth"",""left"",""left"",""good_move"",25460.1,2891.3,1776.1,22568.8,1115.2,""smooth"",""down"",""down"",""good_move""]","",""
"5541","","<div style=""width:500px;"">
  <p>What determined the result of this run?</p>
  </div>","100","html-slider-response","15","394837","0.0-5.0-1.1","48","1","2025-07-16 08:19:54","1f75c3e559b7213887762d5229550c2b","165.165.122.131","Mozilla/5.0 (Windows NT 10.0; Win64; x64) AppleWebKit/537.36 (KHTML, like Gecko) Chrome/138.0.0.0 Safari/537.36","WebKit","Chrome","138.0.0.0","Windows","10.0","https://app.prolific.com/","en-GB,en-US;q=0.9,en;q=0.8","6736f4a8fe83ffce0936bdc4","686e379bc37a29ffa5cdc956","6877600eec8b868de7962f94","1","1","6736f4a8fe83ffce0936bdc4","1","1","2025-07-16T08:26:32.366Z","","","","","","","","","","","AttribQ","","50","","","","","","","","","","","","","","","","","","","","","","","","","","","","",""
"6064","","<div style=""width:500px;"">
  <p>How much control did you have over the ball?</p>
  </div>","33","html-slider-response","16","400927","0.0-5.0-2.1","48","1","2025-07-16 08:19:54","1f75c3e559b7213887762d5229550c2b","165.165.122.131","Mozilla/5.0 (Windows NT 10.0; Win64; x64) AppleWebKit/537.36 (KHTML, like Gecko) Chrome/138.0.0.0 Safari/537.36","WebKit","Chrome","138.0.0.0","Windows","10.0","https://app.prolific.com/","en-GB,en-US;q=0.9,en;q=0.8","6736f4a8fe83ffce0936bdc4","686e379bc37a29ffa5cdc956","6877600eec8b868de7962f94","1","1","6736f4a8fe83ffce0936bdc4","1","1","2025-07-16T08:26:38.456Z","","","","","","","","","","","ControlQ","","50","","","","","","","","","","","","","","","","","","","","","","","","","","","","",""
"3543","","<div style=""width:500px;"">
  <p>How would you describe your current emotional state?</p>
  </div>","50","html-slider-response","17","404472","0.0-5.0-3.1","48","1","2025-07-16 08:19:54","1f75c3e559b7213887762d5229550c2b","165.165.122.131","Mozilla/5.0 (Windows NT 10.0; Win64; x64) AppleWebKit/537.36 (KHTML, like Gecko) Chrome/138.0.0.0 Safari/537.36","WebKit","Chrome","138.0.0.0","Windows","10.0","https://app.prolific.com/","en-GB,en-US;q=0.9,en;q=0.8","6736f4a8fe83ffce0936bdc4","686e379bc37a29ffa5cdc956","6877600eec8b868de7962f94","1","1","6736f4a8fe83ffce0936bdc4","1","1","2025-07-16T08:26:42.001Z","","","","","","","","","","","StressQ","","50","","","","","","","","","","","","","","","","","","","","","","","","","","","","",""
"2934","","<div style=""width:500px;"">
  <p>What best describes how you currently feel?</p>
  </div>","50","html-slider-response","18","407408","0.0-5.0-4.1","48","1","2025-07-16 08:19:54","1f75c3e559b7213887762d5229550c2b","165.165.122.131","Mozilla/5.0 (Windows NT 10.0; Win64; x64) AppleWebKit/537.36 (KHTML, like Gecko) Chrome/138.0.0.0 Safari/537.36","WebKit","Chrome","138.0.0.0","Windows","10.0","https://app.prolific.com/","en-GB,en-US;q=0.9,en;q=0.8","6736f4a8fe83ffce0936bdc4","686e379bc37a29ffa5cdc956","6877600eec8b868de7962f94","1","1","6736f4a8fe83ffce0936bdc4","1","1","2025-07-16T08:26:44.937Z","","","","","","","","","","","MotivationQ","","50","","","","","","","","","","","","","","","","","","","","","","","","","","","","",""
"","","","","ctl-task-cpt","19","445876","0.0-5.0-0.2","48","1","2025-07-16 08:19:54","1f75c3e559b7213887762d5229550c2b","165.165.122.131","Mozilla/5.0 (Windows NT 10.0; Win64; x64) AppleWebKit/537.36 (KHTML, like Gecko) Chrome/138.0.0.0 Safari/537.36","WebKit","Chrome","138.0.0.0","Windows","10.0","https://app.prolific.com/","en-GB,en-US;q=0.9,en;q=0.8","6736f4a8fe83ffce0936bdc4","686e379bc37a29ffa5cdc956","6877600eec8b868de7962f94","1","1","6736f4a8fe83ffce0936bdc4","1","1","2025-07-16T08:27:23.405Z","","","","","","","","","","","","","","win-only","3","g1:SW,g2:NE","0.8","3","0","411210.1","1122.4","6127.1","35451.5","1","4","4","6","2","4","3","5","2","0.03787878787878788","3705.5","3000","860","[""up"",""right""]","{""num_key_presses"":8,""num_perfect"":6,""num_errors"":1,""num_randdir"":1,""num_randdir_good_moves"":0,""num_whilered"":0,""num_whileblue"":1,""num_blue"":3,""num_good_moves"":7}","[419.0714133126395,416.57142761775424,0.8,419.0714133126395,416.57142761775424,103.1,419.0714133126395,416.57142761775424,203.2,419.0714133126395,416.57142761775424,312.2,419.0714133126395,416.57142761775424,416.9,401.5714133126395,464.07142761775424,526.8,432.8214133126395,432.82142761775424,628.6,472.8214133126395,374.07142761775424,729.1,487.8214133126395,341.57142761775424,836.4,504.0714133126395,280.32142761775424,938.7,425.3214133126395,369.07142761775424,1039,335.3214133126395,510.32142761775424,1139.8,247.8214133126395,606.5714276177542,1244.2,189.0714133126395,670.3214276177542,1344.2,149.0714133126395,717.8214276177542,1454.1,125.3214133126395,746.5714276177542,1556.7,115.3214133126395,756.5714276177542,1656.9,115.3214133126395,756.5714276177542,1759.3,115.3214133126395,756.5714276177542,1865.9,115.3214133126395,756.5714276177542,1976.1,115.3214133126395,756.5714276177542,2078,115.3214133126395,756.5714276177542,2179.2,115.3214133126395,755.3214276177542,2285.4,121.5714133126395,744.0714276177542,2388.8,121.5714133126395,742.8214276177542,2493.5,146.5714133126395,722.8214276177542,2594.1,382.8214133126395,537.8214276177542,2702.4,636.5714133126395,301.57142761775424,2807.4,656.5714133126395,277.82142761775424,2907.6,675.3214133126395,260.32142761775424,3008.7,697.8214133126395,236.57142761775424,3113.3,726.5714133126395,199.07142761775424,3215.7,726.5714133126395,199.07142761775424,3318.9,727.8214133126395,177.82142761775424,3424.7,776.5714133126395,61.57142761775425,3525.3,791.5714133126395,19.071427617754253,3628.3,796.5714133126395,12.821427617754253,3737.2,796.5714133126395,12.821427617754253,3840.1,796.5714133126395,12.821427617754253,3941.7,796.5714133126395,12.821427617754253,4043.3,794.0714133126395,27.821427617754253,4144.1,872.8214133126395,184.07142761775424,4244.3,1137.8214133126396,316.57142761775424,4345.5,1181.5714133126396,324.07142761775424,4454,1181.5714133126396,324.07142761775424,4554,1181.5714133126396,324.07142761775424,4661.5,1181.5714133126396,324.07142761775424,4763.4,1181.5714133126396,324.07142761775424,4865.3,1181.5714133126396,324.07142761775424,4966.7]","[1334.6,1334.6,1000,0,334.6,""smooth"",""up"",""up"",""good_move"",3854.6,2518.8,2163.4,1335.8,355.4,""smooth"",""up"",""up"",""good_move"",7276.3,3419.3,3086.6,3857,332.7,""smooth"",""up"",""up"",""good_move"",10498.1,3217.8,2908.7,7280.3,309.1,""while_blue"",""right"",""right"",""good_move"",20340.7,9841.8,1621.5,18354.5,364.7,""oops"",""right"",""down"",""bad_move"",23548.9,3207.4,2713.5,20341.5,493.9,""smooth"",""right"",""right"",""good_move"",26760.4,3205.7,2701.5,23554.7,504.2,""smooth"",""right"",""right"",""good_move"",29204.8,2439,2011.9,26765.8,427.1,""smooth"",""up"",""up"",""good_move""]","",""
"14734","","<div style=""width:500px;"">
  <p>What determined the result of this run?</p>
  </div>","100","html-slider-response","20","460612","0.0-5.0-1.2","48","1","2025-07-16 08:19:54","1f75c3e559b7213887762d5229550c2b","165.165.122.131","Mozilla/5.0 (Windows NT 10.0; Win64; x64) AppleWebKit/537.36 (KHTML, like Gecko) Chrome/138.0.0.0 Safari/537.36","WebKit","Chrome","138.0.0.0","Windows","10.0","https://app.prolific.com/","en-GB,en-US;q=0.9,en;q=0.8","6736f4a8fe83ffce0936bdc4","686e379bc37a29ffa5cdc956","6877600eec8b868de7962f94","1","1","6736f4a8fe83ffce0936bdc4","1","1","2025-07-16T08:27:38.141Z","","","","","","","","","","","AttribQ","","50","","","","","","","","","","","","","","","","","","","","","","","","","","","","",""
"4605","","<div style=""width:500px;"">
  <p>How much control did you have over the ball?</p>
  </div>","71","html-slider-response","21","465221","0.0-5.0-2.2","48","1","2025-07-16 08:19:54","1f75c3e559b7213887762d5229550c2b","165.165.122.131","Mozilla/5.0 (Windows NT 10.0; Win64; x64) AppleWebKit/537.36 (KHTML, like Gecko) Chrome/138.0.0.0 Safari/537.36","WebKit","Chrome","138.0.0.0","Windows","10.0","https://app.prolific.com/","en-GB,en-US;q=0.9,en;q=0.8","6736f4a8fe83ffce0936bdc4","686e379bc37a29ffa5cdc956","6877600eec8b868de7962f94","1","1","6736f4a8fe83ffce0936bdc4","1","1","2025-07-16T08:27:42.751Z","","","","","","","","","","","ControlQ","","50","","","","","","","","","","","","","","","","","","","","","","","","","","","","",""
"4374","","<div style=""width:500px;"">
  <p>How would you describe your current emotional state?</p>
  </div>","33","html-slider-response","22","469598","0.0-5.0-3.2","48","1","2025-07-16 08:19:54","1f75c3e559b7213887762d5229550c2b","165.165.122.131","Mozilla/5.0 (Windows NT 10.0; Win64; x64) AppleWebKit/537.36 (KHTML, like Gecko) Chrome/138.0.0.0 Safari/537.36","WebKit","Chrome","138.0.0.0","Windows","10.0","https://app.prolific.com/","en-GB,en-US;q=0.9,en;q=0.8","6736f4a8fe83ffce0936bdc4","686e379bc37a29ffa5cdc956","6877600eec8b868de7962f94","1","1","6736f4a8fe83ffce0936bdc4","1","1","2025-07-16T08:27:47.128Z","","","","","","","","","","","StressQ","","50","","","","","","","","","","","","","","","","","","","","","","","","","","","","",""
"4003","","<div style=""width:500px;"">
  <p>What best describes how you currently feel?</p>
  </div>","50","html-slider-response","23","473604","0.0-5.0-4.2","48","1","2025-07-16 08:19:54","1f75c3e559b7213887762d5229550c2b","165.165.122.131","Mozilla/5.0 (Windows NT 10.0; Win64; x64) AppleWebKit/537.36 (KHTML, like Gecko) Chrome/138.0.0.0 Safari/537.36","WebKit","Chrome","138.0.0.0","Windows","10.0","https://app.prolific.com/","en-GB,en-US;q=0.9,en;q=0.8","6736f4a8fe83ffce0936bdc4","686e379bc37a29ffa5cdc956","6877600eec8b868de7962f94","1","1","6736f4a8fe83ffce0936bdc4","1","1","2025-07-16T08:27:51.133Z","","","","","","","","","","","MotivationQ","","50","","","","","","","","","","","","","","","","","","","","","","","","","","","","",""
"","","","","ctl-task-cpt","24","508142","0.0-5.0-0.3","48","1","2025-07-16 08:19:54","1f75c3e559b7213887762d5229550c2b","165.165.122.131","Mozilla/5.0 (Windows NT 10.0; Win64; x64) AppleWebKit/537.36 (KHTML, like Gecko) Chrome/138.0.0.0 Safari/537.36","WebKit","Chrome","138.0.0.0","Windows","10.0","https://app.prolific.com/","en-GB,en-US;q=0.9,en;q=0.8","6736f4a8fe83ffce0936bdc4","686e379bc37a29ffa5cdc956","6877600eec8b868de7962f94","1","1","6736f4a8fe83ffce0936bdc4","1","1","2025-07-16T08:28:25.671Z","","","","","","","","","","","","","","win-only","0","g1:NW,g2:SE","0.7","4","0","477406.3","5488.8","10498.4","31517.4","1","4","8","6","2","8","8","13","5","0.09848484848484848","1953.4","3000","1260","[""down"",""right""]","{""num_key_presses"":6,""num_perfect"":4,""num_errors"":0,""num_randdir"":2,""num_randdir_good_moves"":2,""num_whilered"":0,""num_whileblue"":0,""num_blue"":1,""num_good_moves"":6}","[404.0714133126395,412.82142761775424,0.6,404.0714133126395,412.82142761775424,115.5,401.5714133126395,411.57142761775424,217.2,401.5714133126395,411.57142761775424,318.8,401.5714133126395,407.82142761775424,425.8,401.5714133126395,406.57142761775424,529.7,667.8214133126395,960.3214276177542,632.1,684.0714133126395,960.3214276177542,739,861.5714133126395,960.3214276177542,856.7,877.8214133126395,841.5714276177542,969.7,875.3214133126395,756.5714276177542,1073.3,871.5714133126395,746.5714276177542,1173.4,849.0714133126395,749.0714276177542,1293.4,837.8214133126395,752.8214276177542,1393.7,837.8214133126395,752.8214276177542,1494,829.0714133126395,754.0714276177542,1595.3,816.5714133126395,756.5714276177542,1705.2,814.0714133126395,756.5714276177542,1819.9,814.0714133126395,756.5714276177542,1934.3,812.8214133126395,756.5714276177542,2046.7,812.8214133126395,756.5714276177542,2151.7,812.8214133126395,756.5714276177542,2253.4,812.8214133126395,756.5714276177542,2354.9,812.8214133126395,756.5714276177542,2454.9,812.8214133126395,756.5714276177542,2570.2,812.8214133126395,756.5714276177542,2685,812.8214133126395,756.5714276177542,2787.1,812.8214133126395,756.5714276177542,2887.8,812.8214133126395,756.5714276177542,3003.8,812.8214133126395,756.5714276177542,3113.9,812.8214133126395,756.5714276177542,3218.5,812.8214133126395,756.5714276177542,3326.3,811.5714133126395,756.5714276177542,3428.6,804.0714133126395,757.8214276177542,3529.6,802.8214133126395,757.8214276177542,3634,801.5714133126395,757.8214276177542,3736.1,801.5714133126395,757.8214276177542,3843.2,736.5714133126395,762.8214276177542,3947.9,300.3214133126395,779.0714276177542,4052.1,-543.4285866873605,781.5714276177542,4152.7,-543.4285866873605,671.5714276177542,4253.1,-534.6785866873605,682.8214276177542,4367.8,-543.4285866873605,721.5714276177542,4484.7,-543.4285866873605,721.5714276177542,4592.2,-543.4285866873605,721.5714276177542,4706.9,-543.4285866873605,721.5714276177542,4816.8,-543.4285866873605,721.5714276177542,4919.8]","[1449.1,1449.1,1000,0,449.1,""smooth"",""down"",""down"",""good_move"",4348.8,2898.7,2523.3,1450.1,375.4,""smooth"",""down"",""down"",""good_move"",7268.8,2917.9,2536.7,4350.9,381.2,""oops"",""right"",""down"",""good_move"",11715.9,4445.5,3883.4,7270.4,562.1,""smooth"",""right"",""right"",""good_move"",18204.5,6484.9,2313.4,15469.2,421.9,""oops"",""right"",""right"",""good_move"",20872.3,2666.8,2125.7,18205.5,541.1,""smooth"",""right"",""right"",""good_move""]","",""
"9602","","<div style=""width:500px;"">
  <p>What determined the result of this run?</p>
  </div>","100","html-slider-response","25","517748","0.0-5.0-1.3","48","1","2025-07-16 08:19:54","1f75c3e559b7213887762d5229550c2b","165.165.122.131","Mozilla/5.0 (Windows NT 10.0; Win64; x64) AppleWebKit/537.36 (KHTML, like Gecko) Chrome/138.0.0.0 Safari/537.36","WebKit","Chrome","138.0.0.0","Windows","10.0","https://app.prolific.com/","en-GB,en-US;q=0.9,en;q=0.8","6736f4a8fe83ffce0936bdc4","686e379bc37a29ffa5cdc956","6877600eec8b868de7962f94","1","1","6736f4a8fe83ffce0936bdc4","1","1","2025-07-16T08:28:35.277Z","","","","","","","","","","","AttribQ","","50","","","","","","","","","","","","","","","","","","","","","","","","","","","","",""
"11161","","<div style=""width:500px;"">
  <p>How much control did you have over the ball?</p>
  </div>","100","html-slider-response","26","528912","0.0-5.0-2.3","48","1","2025-07-16 08:19:54","1f75c3e559b7213887762d5229550c2b","165.165.122.131","Mozilla/5.0 (Windows NT 10.0; Win64; x64) AppleWebKit/537.36 (KHTML, like Gecko) Chrome/138.0.0.0 Safari/537.36","WebKit","Chrome","138.0.0.0","Windows","10.0","https://app.prolific.com/","en-GB,en-US;q=0.9,en;q=0.8","6736f4a8fe83ffce0936bdc4","686e379bc37a29ffa5cdc956","6877600eec8b868de7962f94","1","1","6736f4a8fe83ffce0936bdc4","1","1","2025-07-16T08:28:46.441Z","","","","","","","","","","","ControlQ","","50","","","","","","","","","","","","","","","","","","","","","","","","","","","","",""
"6766","","<div style=""width:500px;"">
  <p>How would you describe your current emotional state?</p>
  </div>","0","html-slider-response","27","535680","0.0-5.0-3.3","48","1","2025-07-16 08:19:54","1f75c3e559b7213887762d5229550c2b","165.165.122.131","Mozilla/5.0 (Windows NT 10.0; Win64; x64) AppleWebKit/537.36 (KHTML, like Gecko) Chrome/138.0.0.0 Safari/537.36","WebKit","Chrome","138.0.0.0","Windows","10.0","https://app.prolific.com/","en-GB,en-US;q=0.9,en;q=0.8","6736f4a8fe83ffce0936bdc4","686e379bc37a29ffa5cdc956","6877600eec8b868de7962f94","1","1","6736f4a8fe83ffce0936bdc4","1","1","2025-07-16T08:28:53.209Z","","","","","","","","","","","StressQ","","50","","","","","","","","","","","","","","","","","","","","","","","","","","","","",""
"6521","","<div style=""width:500px;"">
  <p>What best describes how you currently feel?</p>
  </div>","50","html-slider-response","28","542204","0.0-5.0-4.3","48","1","2025-07-16 08:19:54","1f75c3e559b7213887762d5229550c2b","165.165.122.131","Mozilla/5.0 (Windows NT 10.0; Win64; x64) AppleWebKit/537.36 (KHTML, like Gecko) Chrome/138.0.0.0 Safari/537.36","WebKit","Chrome","138.0.0.0","Windows","10.0","https://app.prolific.com/","en-GB,en-US;q=0.9,en;q=0.8","6736f4a8fe83ffce0936bdc4","686e379bc37a29ffa5cdc956","6877600eec8b868de7962f94","1","1","6736f4a8fe83ffce0936bdc4","1","1","2025-07-16T08:28:59.733Z","","","","","","","","","","","MotivationQ","","50","","","","","","","","","","","","","","","","","","","","","","","","","","","","",""
"","","","","ctl-task-cpt","29","587744","0.0-5.0-0.4","48","1","2025-07-16 08:19:54","1f75c3e559b7213887762d5229550c2b","165.165.122.131","Mozilla/5.0 (Windows NT 10.0; Win64; x64) AppleWebKit/537.36 (KHTML, like Gecko) Chrome/138.0.0.0 Safari/537.36","WebKit","Chrome","138.0.0.0","Windows","10.0","https://app.prolific.com/","en-GB,en-US;q=0.9,en;q=0.8","6736f4a8fe83ffce0936bdc4","686e379bc37a29ffa5cdc956","6877600eec8b868de7962f94","1","1","6736f4a8fe83ffce0936bdc4","1","1","2025-07-16T08:29:45.273Z","","","","","","","","","","","","","","win-only","1","g1:NE,g2:SW","0.6","5","0","546009.4","1655.2","6658.3","42501","1","4","4","6","2","4","4","17","13","0.12878787878787878","1287","3000","1015","[""down"",""left""]","{""num_key_presses"":8,""num_perfect"":5,""num_errors"":0,""num_randdir"":3,""num_randdir_good_moves"":2,""num_whilered"":0,""num_whileblue"":0,""num_blue"":4,""num_good_moves"":7}","[426.5714133126395,419.07142761775424,1.7,426.5714133126395,419.07142761775424,101.4,426.5714133126395,419.07142761775424,202.1,426.5714133126395,419.07142761775424,303.1,414.0714133126395,430.32142761775424,409.2,342.8214133126395,520.3214276177542,515.8,226.5714133126395,635.3214276177542,624,171.5714133126395,697.8214276177542,726.9,166.5714133126395,717.8214276177542,844.4,141.5714133126395,734.0714276177542,954.1,106.5714133126395,751.5714276177542,1057.5,99.0714133126395,755.3214276177542,1164.1,91.5714133126395,757.8214276177542,1266.2,91.5714133126395,757.8214276177542,1383.9,84.0714133126395,747.8214276177542,1493.5,84.0714133126395,747.8214276177542,1598.6,120.3214133126395,741.5714276177542,1702.8,799.0714133126395,806.5714276177542,1825,937.8214133126395,860.3214276177542,1932.2,937.8214133126395,860.3214276177542,2046,937.8214133126395,860.3214276177542,2147.7,937.8214133126395,860.3214276177542,2251.6,937.8214133126395,860.3214276177542,2353.3,937.8214133126395,860.3214276177542,2462.4,937.8214133126395,860.3214276177542,2566.2,937.8214133126395,860.3214276177542,2677,937.8214133126395,860.3214276177542,2778,937.8214133126395,860.3214276177542,2884,937.8214133126395,860.3214276177542,2985.1,937.8214133126395,860.3214276177542,3102.1,937.8214133126395,860.3214276177542,3204,937.8214133126395,860.3214276177542,3315.4,937.8214133126395,860.3214276177542,3432.1,937.8214133126395,860.3214276177542,3541.7,937.8214133126395,860.3214276177542,3652.7,937.8214133126395,860.3214276177542,3774,937.8214133126395,860.3214276177542,3874.5,937.8214133126395,860.3214276177542,3985.4,937.8214133126395,860.3214276177542,4100.9,937.8214133126395,860.3214276177542,4204,937.8214133126395,860.3214276177542,4311.3,937.8214133126395,860.3214276177542,4423.2,937.8214133126395,860.3214276177542,4523.6,937.8214133126395,860.3214276177542,4643.2,937.8214133126395,860.3214276177542,4746,937.8214133126395,860.3214276177542,4851.4,937.8214133126395,860.3214276177542,4976.8]","[7863.9,7863.9,2681.5,4824.9,357.5,""smooth"",""down"",""down"",""good_move"",13991.3,6126.3,2031.5,11435.6,524.2,""oops"",""down"",""down"",""good_move"",17825,3832,3474.5,13993.1,357.4,""oops"",""left"",""down"",""good_move"",20952.4,3123.4,2783.4,17829,340,""smooth"",""left"",""left"",""good_move"",24210.5,3256.6,2895.4,20953.9,361.2,""smooth"",""left"",""left"",""good_move"",27859.4,3646.8,3302.5,24212.7,344.3,""oops"",""left"",""right"",""bad_move"",33637.1,5775.6,2680.6,30475.9,480.6,""smooth"",""left"",""left"",""good_move"",35705.9,2064.7,1238.4,33641.2,826.3,""smooth"",""left"",""left"",""good_move""]","",""
"23999","","<div style=""width:500px;"">
  <p>What determined the result of this run?</p>
  </div>","100","html-slider-response","30","611749","0.0-5.0-1.4","48","1","2025-07-16 08:19:54","1f75c3e559b7213887762d5229550c2b","165.165.122.131","Mozilla/5.0 (Windows NT 10.0; Win64; x64) AppleWebKit/537.36 (KHTML, like Gecko) Chrome/138.0.0.0 Safari/537.36","WebKit","Chrome","138.0.0.0","Windows","10.0","https://app.prolific.com/","en-GB,en-US;q=0.9,en;q=0.8","6736f4a8fe83ffce0936bdc4","686e379bc37a29ffa5cdc956","6877600eec8b868de7962f94","1","1","6736f4a8fe83ffce0936bdc4","1","1","2025-07-16T08:30:09.278Z","","","","","","","","","","","AttribQ","","50","","","","","","","","","","","","","","","","","","","","","","","","","","","","",""
"11676","","<div style=""width:500px;"">
  <p>How much control did you have over the ball?</p>
  </div>","100","html-slider-response","31","623431","0.0-5.0-2.4","48","1","2025-07-16 08:19:54","1f75c3e559b7213887762d5229550c2b","165.165.122.131","Mozilla/5.0 (Windows NT 10.0; Win64; x64) AppleWebKit/537.36 (KHTML, like Gecko) Chrome/138.0.0.0 Safari/537.36","WebKit","Chrome","138.0.0.0","Windows","10.0","https://app.prolific.com/","en-GB,en-US;q=0.9,en;q=0.8","6736f4a8fe83ffce0936bdc4","686e379bc37a29ffa5cdc956","6877600eec8b868de7962f94","1","1","6736f4a8fe83ffce0936bdc4","1","1","2025-07-16T08:30:20.960Z","","","","","","","","","","","ControlQ","","50","","","","","","","","","","","","","","","","","","","","","","","","","","","","",""
"19266","","<div style=""width:500px;"">
  <p>How would you describe your current emotional state?</p>
  </div>","21","html-slider-response","32","642702","0.0-5.0-3.4","48","1","2025-07-16 08:19:54","1f75c3e559b7213887762d5229550c2b","165.165.122.131","Mozilla/5.0 (Windows NT 10.0; Win64; x64) AppleWebKit/537.36 (KHTML, like Gecko) Chrome/138.0.0.0 Safari/537.36","WebKit","Chrome","138.0.0.0","Windows","10.0","https://app.prolific.com/","en-GB,en-US;q=0.9,en;q=0.8","6736f4a8fe83ffce0936bdc4","686e379bc37a29ffa5cdc956","6877600eec8b868de7962f94","1","1","6736f4a8fe83ffce0936bdc4","1","1","2025-07-16T08:30:40.231Z","","","","","","","","","","","StressQ","","50","","","","","","","","","","","","","","","","","","","","","","","","","","","","",""
"7327","","<div style=""width:500px;"">
  <p>What best describes how you currently feel?</p>
  </div>","71","html-slider-response","33","650032","0.0-5.0-4.4","48","1","2025-07-16 08:19:54","1f75c3e559b7213887762d5229550c2b","165.165.122.131","Mozilla/5.0 (Windows NT 10.0; Win64; x64) AppleWebKit/537.36 (KHTML, like Gecko) Chrome/138.0.0.0 Safari/537.36","WebKit","Chrome","138.0.0.0","Windows","10.0","https://app.prolific.com/","en-GB,en-US;q=0.9,en;q=0.8","6736f4a8fe83ffce0936bdc4","686e379bc37a29ffa5cdc956","6877600eec8b868de7962f94","1","1","6736f4a8fe83ffce0936bdc4","1","1","2025-07-16T08:30:47.562Z","","","","","","","","","","","MotivationQ","","50","","","","","","","","","","","","","","","","","","","","","","","","","","","","",""
"","","","","ctl-task-cpt","34","750916","0.0-5.0-0.5","48","1","2025-07-16 08:19:54","1f75c3e559b7213887762d5229550c2b","165.165.122.131","Mozilla/5.0 (Windows NT 10.0; Win64; x64) AppleWebKit/537.36 (KHTML, like Gecko) Chrome/138.0.0.0 Safari/537.36","WebKit","Chrome","138.0.0.0","Windows","10.0","https://app.prolific.com/","en-GB,en-US;q=0.9,en;q=0.8","6736f4a8fe83ffce0936bdc4","686e379bc37a29ffa5cdc956","6877600eec8b868de7962f94","1","1","6736f4a8fe83ffce0936bdc4","1","1","2025-07-16T08:32:28.445Z","","","","","","","","","","","","","","win-only","0","g1:NW,g2:SE","0.5","6","0","653836.3","53765.6","58771.3","97858.1","1","4","8","6","2","-8","-9","8","17","0.06060606060606061","1530.4","3000","-1920","[""down"",""right""]","{""num_key_presses"":12,""num_perfect"":6,""num_errors"":1,""num_randdir"":5,""num_randdir_good_moves"":1,""num_whilered"":0,""num_whileblue"":1,""num_blue"":2,""num_good_moves"":8}","[429.0714133126395,415.32142761775424,1.3,429.0714133126395,415.32142761775424,100.6,429.0714133126395,415.32142761775424,217.9,429.0714133126395,415.32142761775424,321.8,429.0714133126395,415.32142761775424,430.6,429.0714133126395,415.32142761775424,537,429.0714133126395,415.32142761775424,642.2,431.5714133126395,422.82142761775424,742.7,561.5714133126395,562.8214276177542,854.5,654.0714133126395,670.3214276177542,959.3,705.3214133126395,732.8214276177542,1078.6,719.0714133126395,764.0714276177542,1182.9,719.0714133126395,765.3214276177542,1287.8,719.0714133126395,765.3214276177542,1389.3,719.0714133126395,765.3214276177542,1500.9,719.0714133126395,765.3214276177542,1605.5,719.0714133126395,765.3214276177542,1706.5,719.0714133126395,766.5714276177542,1815.5,719.0714133126395,766.5714276177542,1919.3,719.0714133126395,766.5714276177542,2024.8,720.3214133126395,765.3214276177542,2125.3,720.3214133126395,762.8214276177542,2234.2,720.3214133126395,761.5714276177542,2349.1,721.5714133126395,761.5714276177542,2449.1,721.5714133126395,760.3214276177542,2554.8,721.5714133126395,760.3214276177542,2663.3,721.5714133126395,760.3214276177542,2765.3,721.5714133126395,760.3214276177542,2883.7,721.5714133126395,760.3214276177542,2996.9,721.5714133126395,760.3214276177542,3098.6,721.5714133126395,760.3214276177542,3202.2,721.5714133126395,760.3214276177542,3318.9,721.5714133126395,760.3214276177542,3421.1,721.5714133126395,760.3214276177542,3523.9,721.5714133126395,760.3214276177542,3628.1,721.5714133126395,760.3214276177542,3734.6,721.5714133126395,760.3214276177542,3837.3,721.5714133126395,760.3214276177542,3948.8,721.5714133126395,760.3214276177542,4065.5,721.5714133126395,760.3214276177542,4169.5,721.5714133126395,760.3214276177542,4281.2,721.5714133126395,759.0714276177542,4383.7,721.5714133126395,757.8214276177542,4488.9,721.5714133126395,757.8214276177542,4591.2,721.5714133126395,757.8214276177542,4691.9,721.5714133126395,757.8214276177542,4796.2,721.5714133126395,757.8214276177542,4898,721.5714133126395,757.8214276177542,4998.8]","[2030.8,2030.8,1000,0,1030.8,""smooth"",""down"",""down"",""good_move"",8167.4,6123.2,2737.7,5046.7,383.1,""oops"",""down"",""left"",""bad_move"",11008.3,2839.3,2465.5,8169,373.8,""oops"",""right"",""up"",""bad_move"",13828,2814.7,2483.3,11013.4,331.3,""smooth"",""down"",""down"",""good_move"",16668.2,2838.9,2458,13829.3,380.9,""smooth"",""down"",""down"",""good_move"",19250.2,2567.8,2179.2,16682.4,388.6,""oops"",""down"",""left"",""bad_move"",22853.9,3586.5,3233,19267.4,353.5,""smooth"",""down"",""down"",""good_move"",25337.8,2482,2140.5,22855.8,341.5,""while_blue"",""right"",""right"",""good_move"",28332.6,2993.6,2614.9,25339.1,378.7,""smooth"",""right"",""right"",""good_move"",30954,2615.1,2217.5,28338.9,397.6,""oops"",""right"",""right"",""good_move"",34068.3,3112.7,2757.2,30955.6,355.5,""oops"",""right"",""up"",""bad_move"",36859.3,2788.7,1910.7,34070.6,878,""smooth"",""right"",""right"",""good_move""]","",""
"10383","","<div style=""width:500px;"">
  <p>What determined the result of this run?</p>
  </div>","100","html-slider-response","35","761303","0.0-5.0-1.5","48","1","2025-07-16 08:19:54","1f75c3e559b7213887762d5229550c2b","165.165.122.131","Mozilla/5.0 (Windows NT 10.0; Win64; x64) AppleWebKit/537.36 (KHTML, like Gecko) Chrome/138.0.0.0 Safari/537.36","WebKit","Chrome","138.0.0.0","Windows","10.0","https://app.prolific.com/","en-GB,en-US;q=0.9,en;q=0.8","6736f4a8fe83ffce0936bdc4","686e379bc37a29ffa5cdc956","6877600eec8b868de7962f94","1","1","6736f4a8fe83ffce0936bdc4","1","1","2025-07-16T08:32:38.832Z","","","","","","","","","","","AttribQ","","50","","","","","","","","","","","","","","","","","","","","","","","","","","","","",""
"7656","","<div style=""width:500px;"">
  <p>How much control did you have over the ball?</p>
  </div>","21","html-slider-response","36","768962","0.0-5.0-2.5","48","1","2025-07-16 08:19:54","1f75c3e559b7213887762d5229550c2b","165.165.122.131","Mozilla/5.0 (Windows NT 10.0; Win64; x64) AppleWebKit/537.36 (KHTML, like Gecko) Chrome/138.0.0.0 Safari/537.36","WebKit","Chrome","138.0.0.0","Windows","10.0","https://app.prolific.com/","en-GB,en-US;q=0.9,en;q=0.8","6736f4a8fe83ffce0936bdc4","686e379bc37a29ffa5cdc956","6877600eec8b868de7962f94","1","1","6736f4a8fe83ffce0936bdc4","1","1","2025-07-16T08:32:46.491Z","","","","","","","","","","","ControlQ","","50","","","","","","","","","","","","","","","","","","","","","","","","","","","","",""
"10852","","<div style=""width:500px;"">
  <p>How would you describe your current emotional state?</p>
  </div>","50","html-slider-response","37","779817","0.0-5.0-3.5","48","1","2025-07-16 08:19:54","1f75c3e559b7213887762d5229550c2b","165.165.122.131","Mozilla/5.0 (Windows NT 10.0; Win64; x64) AppleWebKit/537.36 (KHTML, like Gecko) Chrome/138.0.0.0 Safari/537.36","WebKit","Chrome","138.0.0.0","Windows","10.0","https://app.prolific.com/","en-GB,en-US;q=0.9,en;q=0.8","6736f4a8fe83ffce0936bdc4","686e379bc37a29ffa5cdc956","6877600eec8b868de7962f94","1","1","6736f4a8fe83ffce0936bdc4","1","1","2025-07-16T08:32:57.346Z","","","","","","","","","","","StressQ","","50","","","","","","","","","","","","","","","","","","","","","","","","","","","","",""
"8303","","<div style=""width:500px;"">
  <p>What best describes how you currently feel?</p>
  </div>","100","html-slider-response","38","788124","0.0-5.0-4.5","48","1","2025-07-16 08:19:54","1f75c3e559b7213887762d5229550c2b","165.165.122.131","Mozilla/5.0 (Windows NT 10.0; Win64; x64) AppleWebKit/537.36 (KHTML, like Gecko) Chrome/138.0.0.0 Safari/537.36","WebKit","Chrome","138.0.0.0","Windows","10.0","https://app.prolific.com/","en-GB,en-US;q=0.9,en;q=0.8","6736f4a8fe83ffce0936bdc4","686e379bc37a29ffa5cdc956","6877600eec8b868de7962f94","1","1","6736f4a8fe83ffce0936bdc4","1","1","2025-07-16T08:33:05.654Z","","","","","","","","","","","MotivationQ","","50","","","","","","","","","","","","","","","","","","","","","","","","","","","","",""
"","","","","ctl-task-cpt","39","851050","0.0-5.0-0.6","48","1","2025-07-16 08:19:54","1f75c3e559b7213887762d5229550c2b","165.165.122.131","Mozilla/5.0 (Windows NT 10.0; Win64; x64) AppleWebKit/537.36 (KHTML, like Gecko) Chrome/138.0.0.0 Safari/537.36","WebKit","Chrome","138.0.0.0","Windows","10.0","https://app.prolific.com/","en-GB,en-US;q=0.9,en;q=0.8","6736f4a8fe83ffce0936bdc4","686e379bc37a29ffa5cdc956","6877600eec8b868de7962f94","1","1","6736f4a8fe83ffce0936bdc4","1","1","2025-07-16T08:34:08.579Z","","","","","","","","","","","","","","win-only","1","g1:NE,g2:SW","0.4","7","0","791930.3","28236.4","33252.2","59903.7","1","4","8","6","1","1","1","9","8","0.06818181818181818","1676","3000","1900","[""up"",""right""]","{""num_key_presses"":6,""num_perfect"":4,""num_errors"":0,""num_randdir"":2,""num_randdir_good_moves"":1,""num_whilered"":0,""num_whileblue"":0,""num_blue"":3,""num_good_moves"":5}","[422.8214133126395,416.57142761775424,0.8,422.8214133126395,416.57142761775424,106,422.8214133126395,416.57142761775424,217.2,422.8214133126395,416.57142761775424,317.4,422.8214133126395,416.57142761775424,422.8,310.3214133126395,550.3214276177542,531.8,277.8214133126395,579.0714276177542,647.1,262.8214133126395,591.5714276177542,749.5,236.5714133126395,609.0714276177542,866,200.3214133126395,632.8214276177542,980.7,196.5714133126395,635.3214276177542,1082.5,495.3214133126395,416.57142761775424,1183.5,617.8214133126395,314.07142761775424,1286.8,781.5714133126395,121.57142761775425,1402.2,797.8214133126395,91.57142761775425,1509.7,797.8214133126395,91.57142761775425,1616,797.8214133126395,94.07142761775425,1720.3,797.8214133126395,94.07142761775425,1829.7,796.5714133126395,94.07142761775425,1945.3,796.5714133126395,94.07142761775425,2055.4,796.5714133126395,92.82142761775425,2167.8,796.5714133126395,92.82142761775425,2275.2,796.5714133126395,92.82142761775425,2384.7,796.5714133126395,92.82142761775425,2491.2,796.5714133126395,92.82142761775425,2597.3,796.5714133126395,92.82142761775425,2700,796.5714133126395,92.82142761775425,2813.1,796.5714133126395,92.82142761775425,2930.6,796.5714133126395,92.82142761775425,3031.4,796.5714133126395,92.82142761775425,3141.2,796.5714133126395,92.82142761775425,3251.1,796.5714133126395,92.82142761775425,3371.8,796.5714133126395,92.82142761775425,3491.3,796.5714133126395,92.82142761775425,3600.5,796.5714133126395,92.82142761775425,3711.2,796.5714133126395,92.82142761775425,3821,796.5714133126395,92.82142761775425,3923.4,796.5714133126395,92.82142761775425,4033.4,796.5714133126395,92.82142761775425,4139.3,796.5714133126395,92.82142761775425,4240,796.5714133126395,92.82142761775425,4356.8,796.5714133126395,92.82142761775425,4471.1,796.5714133126395,92.82142761775425,4577.1,796.5714133126395,92.82142761775425,4688,796.5714133126395,92.82142761775425,4793.5,796.5714133126395,92.82142761775425,4903.9]","[1435,1435,1000,0,435,""smooth"",""up"",""up"",""good_move"",8883.9,7442.3,3279.9,5216.7,387.3,""smooth"",""up"",""up"",""good_move"",15760.3,6875.3,2629.8,12719.1,411.4,""smooth"",""right"",""right"",""good_move"",21319.5,5555.4,2114.2,18826.2,379.1,""oops"",""right"",""left"",""bad_move"",23944.9,2621,2200.8,21323.9,420.2,""oops"",""right"",""right"",""good_move"",26492.3,2541.9,2141,23950.4,400.9,""smooth"",""right"",""right"",""good_move""]","",""
"8883","","<div style=""width:500px;"">
  <p>What determined the result of this run?</p>
  </div>","100","html-slider-response","40","859937","0.0-5.0-1.6","48","1","2025-07-16 08:19:54","1f75c3e559b7213887762d5229550c2b","165.165.122.131","Mozilla/5.0 (Windows NT 10.0; Win64; x64) AppleWebKit/537.36 (KHTML, like Gecko) Chrome/138.0.0.0 Safari/537.36","WebKit","Chrome","138.0.0.0","Windows","10.0","https://app.prolific.com/","en-GB,en-US;q=0.9,en;q=0.8","6736f4a8fe83ffce0936bdc4","686e379bc37a29ffa5cdc956","6877600eec8b868de7962f94","1","1","6736f4a8fe83ffce0936bdc4","1","1","2025-07-16T08:34:17.466Z","","","","","","","","","","","AttribQ","","50","","","","","","","","","","","","","","","","","","","","","","","","","","","","",""
"6589","","<div style=""width:500px;"">
  <p>How much control did you have over the ball?</p>
  </div>","82","html-slider-response","41","866535","0.0-5.0-2.6","48","1","2025-07-16 08:19:54","1f75c3e559b7213887762d5229550c2b","165.165.122.131","Mozilla/5.0 (Windows NT 10.0; Win64; x64) AppleWebKit/537.36 (KHTML, like Gecko) Chrome/138.0.0.0 Safari/537.36","WebKit","Chrome","138.0.0.0","Windows","10.0","https://app.prolific.com/","en-GB,en-US;q=0.9,en;q=0.8","6736f4a8fe83ffce0936bdc4","686e379bc37a29ffa5cdc956","6877600eec8b868de7962f94","1","1","6736f4a8fe83ffce0936bdc4","1","1","2025-07-16T08:34:24.064Z","","","","","","","","","","","ControlQ","","50","","","","","","","","","","","","","","","","","","","","","","","","","","","","",""
"8754","","<div style=""width:500px;"">
  <p>How would you describe your current emotional state?</p>
  </div>","20","html-slider-response","42","875294","0.0-5.0-3.6","48","1","2025-07-16 08:19:54","1f75c3e559b7213887762d5229550c2b","165.165.122.131","Mozilla/5.0 (Windows NT 10.0; Win64; x64) AppleWebKit/537.36 (KHTML, like Gecko) Chrome/138.0.0.0 Safari/537.36","WebKit","Chrome","138.0.0.0","Windows","10.0","https://app.prolific.com/","en-GB,en-US;q=0.9,en;q=0.8","6736f4a8fe83ffce0936bdc4","686e379bc37a29ffa5cdc956","6877600eec8b868de7962f94","1","1","6736f4a8fe83ffce0936bdc4","1","1","2025-07-16T08:34:32.823Z","","","","","","","","","","","StressQ","","50","","","","","","","","","","","","","","","","","","","","","","","","","","","","",""
"13567","","<div style=""width:500px;"">
  <p>What best describes how you currently feel?</p>
  </div>","50","html-slider-response","43","888864","0.0-5.0-4.6","48","1","2025-07-16 08:19:54","1f75c3e559b7213887762d5229550c2b","165.165.122.131","Mozilla/5.0 (Windows NT 10.0; Win64; x64) AppleWebKit/537.36 (KHTML, like Gecko) Chrome/138.0.0.0 Safari/537.36","WebKit","Chrome","138.0.0.0","Windows","10.0","https://app.prolific.com/","en-GB,en-US;q=0.9,en;q=0.8","6736f4a8fe83ffce0936bdc4","686e379bc37a29ffa5cdc956","6877600eec8b868de7962f94","1","1","6736f4a8fe83ffce0936bdc4","1","1","2025-07-16T08:34:46.393Z","","","","","","","","","","","MotivationQ","","50","","","","","","","","","","","","","","","","","","","","","","","","","","","","",""
"","","","","ctl-task-cpt","44","964254","0.0-5.0-0.7","48","1","2025-07-16 08:19:54","1f75c3e559b7213887762d5229550c2b","165.165.122.131","Mozilla/5.0 (Windows NT 10.0; Win64; x64) AppleWebKit/537.36 (KHTML, like Gecko) Chrome/138.0.0.0 Safari/537.36","WebKit","Chrome","138.0.0.0","Windows","10.0","https://app.prolific.com/","en-GB,en-US;q=0.9,en;q=0.8","6736f4a8fe83ffce0936bdc4","686e379bc37a29ffa5cdc956","6877600eec8b868de7962f94","1","1","6736f4a8fe83ffce0936bdc4","1","1","2025-07-16T08:36:01.783Z","","","","","","","","","","","","","","win-only","1","g1:NE,g2:SW","0.3","8","0","892667.7","8893.8","13902.9","72366.2","1","4","4","6","2","-4","-5","4","9","0.030303030303030304","1309.9","3000","-715","[""down"",""left""]","{""num_key_presses"":19,""num_perfect"":5,""num_errors"":1,""num_randdir"":13,""num_randdir_good_moves"":6,""num_whilered"":0,""num_whileblue"":0,""num_blue"":0,""num_good_moves"":11}","[419.0714133126395,412.82142761775424,4.3,419.0714133126395,412.82142761775424,105.6,419.0714133126395,412.82142761775424,207.2,419.0714133126395,412.82142761775424,308.4,419.0714133126395,412.82142761775424,420.8,414.0714133126395,446.57142761775424,523,286.5714133126395,654.0714276177542,627.8,211.5714133126395,776.5714276177542,735.9,197.8214133126395,789.0714276177542,841.6,177.8214133126395,784.0714276177542,943.4,136.5714133126395,786.5714276177542,1056,120.3214133126395,790.3214276177542,1170.7,112.8214133126395,791.5714276177542,1275.1,112.8214133126395,791.5714276177542,1381.6,112.8214133126395,789.0714276177542,1493.2,112.8214133126395,787.8214276177542,1600.3,112.8214133126395,786.5714276177542,1705.9,115.3214133126395,784.0714276177542,1808,137.8214133126395,766.5714276177542,1910.5,177.8214133126395,746.5714276177542,2022.2,436.5714133126395,734.0714276177542,2125.5,592.8214133126395,729.0714276177542,2248.4,796.5714133126395,742.8214276177542,2351.1,796.5714133126395,742.8214276177542,2471.6,796.5714133126395,742.8214276177542,2573.7,796.5714133126395,742.8214276177542,2684.4,796.5714133126395,742.8214276177542,2790.5,799.0714133126395,742.8214276177542,2896.1,801.5714133126395,742.8214276177542,3002.5,801.5714133126395,742.8214276177542,3105.6,801.5714133126395,742.8214276177542,3206.4,801.5714133126395,742.8214276177542,3308.2,801.5714133126395,742.8214276177542,3411.7,801.5714133126395,742.8214276177542,3538.9,801.5714133126395,742.8214276177542,3644.2,801.5714133126395,742.8214276177542,3750.2,801.5714133126395,742.8214276177542,3852.6,801.5714133126395,742.8214276177542,3954.5,801.5714133126395,742.8214276177542,4061.3,801.5714133126395,742.8214276177542,4168.8,801.5714133126395,742.8214276177542,4274.8,801.5714133126395,742.8214276177542,4378.1,801.5714133126395,742.8214276177542,4487.8,801.5714133126395,742.8214276177542,4594.8,801.5714133126395,742.8214276177542,4708.7,801.5714133126395,742.8214276177542,4818.1,801.5714133126395,742.8214276177542,4920.3]","[1461.3,1461.3,1000,0,461.3,""oops"",""down"",""left"",""good_move"",4956.7,3492.4,3125.4,1464.3,367,""oops"",""down"",""up"",""bad_move"",7882.7,2908.6,2553.2,4974.1,355.5,""smooth"",""left"",""left"",""good_move"",10610.5,2724.4,2396.4,7886.1,328,""oops"",""down"",""left"",""good_move"",13645.8,3032.3,2620.9,10613.5,411.4,""smooth"",""down"",""down"",""good_move"",16701.4,3050.9,2711.8,13650.5,339.1,""smooth"",""down"",""down"",""good_move"",19731.5,3025.4,2674.1,16706.1,351.4,""oops"",""down"",""down"",""good_move"",22709.9,2976.1,2661.8,19734,314.3,""oops"",""down"",""up"",""bad_move"",26301.3,3586.9,3248,22714.4,338.9,""oops"",""down"",""right"",""bad_move"",28954,2650.7,1984.9,26303.3,665.8,""oops"",""down"",""down"",""good_move"",31648.8,2685.6,2368.2,28963.2,317.4,""oops"",""down"",""up"",""bad_move"",34536.6,2885.5,2442.4,31651.1,443.1,""oops"",""down"",""down"",""good_move"",37596.2,3055,2708.8,34541.2,346.2,""oops"",""left"",""down"",""good_move"",40335.1,2735.4,2831.3,37599.7,-95.9,""error"",""-"",""-"",""no_move"",44082.6,3745.2,2347.5,41350.4,384.8,""oops"",""left"",""right"",""bad_move"",47596.9,3509.9,3128.9,44087,381,""oops"",""right"",""up"",""bad_move"",50171.7,2570.6,2135.9,47601.2,434.6,""oops"",""left"",""up"",""bad_move"",52918.6,2745.1,1996.3,50173.5,748.8,""smooth"",""left"",""left"",""good_move"",55646.7,2721.6,2380.8,52925.1,340.8,""smooth"",""down"",""down"",""good_move""]","",""
"3488","","<div style=""width:500px;"">
  <p>What determined the result of this run?</p>
  </div>","91","html-slider-response","45","967756","0.0-5.0-1.7","48","1","2025-07-16 08:19:54","1f75c3e559b7213887762d5229550c2b","165.165.122.131","Mozilla/5.0 (Windows NT 10.0; Win64; x64) AppleWebKit/537.36 (KHTML, like Gecko) Chrome/138.0.0.0 Safari/537.36","WebKit","Chrome","138.0.0.0","Windows","10.0","https://app.prolific.com/","en-GB,en-US;q=0.9,en;q=0.8","6736f4a8fe83ffce0936bdc4","686e379bc37a29ffa5cdc956","6877600eec8b868de7962f94","1","1","6736f4a8fe83ffce0936bdc4","1","1","2025-07-16T08:36:05.285Z","","","","","","","","","","","AttribQ","","50","","","","","","","","","","","","","","","","","","","","","","","","","","","","",""
"3048","","<div style=""width:500px;"">
  <p>How much control did you have over the ball?</p>
  </div>","12","html-slider-response","46","970809","0.0-5.0-2.7","48","1","2025-07-16 08:19:54","1f75c3e559b7213887762d5229550c2b","165.165.122.131","Mozilla/5.0 (Windows NT 10.0; Win64; x64) AppleWebKit/537.36 (KHTML, like Gecko) Chrome/138.0.0.0 Safari/537.36","WebKit","Chrome","138.0.0.0","Windows","10.0","https://app.prolific.com/","en-GB,en-US;q=0.9,en;q=0.8","6736f4a8fe83ffce0936bdc4","686e379bc37a29ffa5cdc956","6877600eec8b868de7962f94","1","1","6736f4a8fe83ffce0936bdc4","1","1","2025-07-16T08:36:08.338Z","","","","","","","","","","","ControlQ","","50","","","","","","","","","","","","","","","","","","","","","","","","","","","","",""
"4142","","<div style=""width:500px;"">
  <p>How would you describe your current emotional state?</p>
  </div>","50","html-slider-response","47","974956","0.0-5.0-3.7","48","1","2025-07-16 08:19:54","1f75c3e559b7213887762d5229550c2b","165.165.122.131","Mozilla/5.0 (Windows NT 10.0; Win64; x64) AppleWebKit/537.36 (KHTML, like Gecko) Chrome/138.0.0.0 Safari/537.36","WebKit","Chrome","138.0.0.0","Windows","10.0","https://app.prolific.com/","en-GB,en-US;q=0.9,en;q=0.8","6736f4a8fe83ffce0936bdc4","686e379bc37a29ffa5cdc956","6877600eec8b868de7962f94","1","1","6736f4a8fe83ffce0936bdc4","1","1","2025-07-16T08:36:12.485Z","","","","","","","","","","","StressQ","","50","","","","","","","","","","","","","","","","","","","","","","","","","","","","",""
"6209","","<div style=""width:500px;"">
  <p>What best describes how you currently feel?</p>
  </div>","50","html-slider-response","48","981169","0.0-5.0-4.7","48","1","2025-07-16 08:19:54","1f75c3e559b7213887762d5229550c2b","165.165.122.131","Mozilla/5.0 (Windows NT 10.0; Win64; x64) AppleWebKit/537.36 (KHTML, like Gecko) Chrome/138.0.0.0 Safari/537.36","WebKit","Chrome","138.0.0.0","Windows","10.0","https://app.prolific.com/","en-GB,en-US;q=0.9,en;q=0.8","6736f4a8fe83ffce0936bdc4","686e379bc37a29ffa5cdc956","6877600eec8b868de7962f94","1","1","6736f4a8fe83ffce0936bdc4","1","1","2025-07-16T08:36:18.699Z","","","","","","","","","","","MotivationQ","","50","","","","","","","","","","","","","","","","","","","","","","","","","","","","",""
"","","","","ctl-task-cpt","49","1067761","0.0-5.0-0.8","48","1","2025-07-16 08:19:54","1f75c3e559b7213887762d5229550c2b","165.165.122.131","Mozilla/5.0 (Windows NT 10.0; Win64; x64) AppleWebKit/537.36 (KHTML, like Gecko) Chrome/138.0.0.0 Safari/537.36","WebKit","Chrome","138.0.0.0","Windows","10.0","https://app.prolific.com/","en-GB,en-US;q=0.9,en;q=0.8","6736f4a8fe83ffce0936bdc4","686e379bc37a29ffa5cdc956","6877600eec8b868de7962f94","1","1","6736f4a8fe83ffce0936bdc4","1","1","2025-07-16T08:37:45.290Z","","","","","","","","","","","","","","win-only","1","g1:NE,g2:SW","0.2","9","0","984974.6","24451.8","29461.7","83557","1","4","8","6","2","8","7","11","4","0.08333333333333333","1173.3","3000","1285","[""down"",""left""]","{""num_key_presses"":13,""num_perfect"":4,""num_errors"":1,""num_randdir"":8,""num_randdir_good_moves"":5,""num_whilered"":0,""num_whileblue"":0,""num_blue"":4,""num_good_moves"":9}","[415.3214133126395,410.32142761775424,0.8,415.3214133126395,410.32142761775424,106.5,415.3214133126395,410.32142761775424,217.7,415.3214133126395,410.32142761775424,339,451.5714133126395,427.82142761775424,444.4,420.3214133126395,444.07142761775424,549.1,322.8214133126395,514.0714276177542,661,165.3214133126395,686.5714276177542,780,140.3214133126395,727.8214276177542,888.6,120.3214133126395,757.8214276177542,989.8,97.8214133126395,766.5714276177542,1101.5,97.8214133126395,766.5714276177542,1208.6,97.8214133126395,766.5714276177542,1311.3,97.8214133126395,764.0714276177542,1415.7,101.5714133126395,757.8214276177542,1529.9,109.0714133126395,752.8214276177542,1635.3,131.5714133126395,745.3214276177542,1747.5,206.5714133126395,730.3214276177542,1854.7,350.3214133126395,686.5714276177542,1963.6,407.8214133126395,656.5714276177542,2089.3,447.8214133126395,630.3214276177542,2200.3,481.5714133126395,614.0714276177542,2311.9,490.3214133126395,610.3214276177542,2411.9,490.3214133126395,610.3214276177542,2516.6,490.3214133126395,610.3214276177542,2623.3,490.3214133126395,610.3214276177542,2726.7,490.3214133126395,610.3214276177542,2846.3,490.3214133126395,610.3214276177542,2956.4,490.3214133126395,610.3214276177542,3063.3,490.3214133126395,610.3214276177542,3173,490.3214133126395,610.3214276177542,3273.1,490.3214133126395,610.3214276177542,3373.4,490.3214133126395,610.3214276177542,3479.9,490.3214133126395,610.3214276177542,3589.7,490.3214133126395,610.3214276177542,3699.9,490.3214133126395,610.3214276177542,3814.9,490.3214133126395,610.3214276177542,3922.2,490.3214133126395,610.3214276177542,4035.2,490.3214133126395,610.3214276177542,4146.3,490.3214133126395,610.3214276177542,4263.4,490.3214133126395,610.3214276177542,4380.3,490.3214133126395,610.3214276177542,4483.3,490.3214133126395,610.3214276177542,4584.2,490.3214133126395,610.3214276177542,4691.8,490.3214133126395,610.3214276177542,4798.7,490.3214133126395,610.3214276177542,4902.8]","[1916.7,1916.7,1000,0.1,916.7,""oops"",""down"",""right"",""bad_move"",8650.2,6725.8,3251.2,5048.8,350.3,""oops"",""down"",""down"",""good_move"",11680.6,3026.2,2546.5,8654.6,479.6,""smooth"",""down"",""down"",""good_move"",18493.7,6808.5,3087.7,15007.1,399,""smooth"",""down"",""down"",""good_move"",24436,5937.5,2418,21298.2,719.8,""oops"",""left"",""up"",""bad_move"",33011,8546.9,2597.3,29941.7,472,""oops"",""left"",""left"",""good_move"",36601.1,3582.1,2974.6,33019,607.5,""oops"",""left"",""left"",""good_move"",39652.9,3045.2,2654.8,36607.8,390.4,""oops"",""left"",""left"",""good_move"",42694.8,3037.5,2347.1,39657.3,690.4,""oops"",""left"",""down"",""good_move"",45030.8,2330.3,1987.5,42700.6,342.8,""oops"",""left"",""up"",""bad_move"",47347.1,2310.7,2827.1,45036.4,-516.4,""error"",""-"",""-"",""no_move"",50993.9,3642.2,2230.4,48366.9,396.6,""smooth"",""left"",""left"",""good_move"",53860.5,2863.3,2514.7,50997.2,348.6,""smooth"",""down"",""down"",""good_move""]","",""
"3709","","<div style=""width:500px;"">
  <p>What determined the result of this run?</p>
  </div>","100","html-slider-response","50","1071472","0.0-5.0-1.8","48","1","2025-07-16 08:19:54","1f75c3e559b7213887762d5229550c2b","165.165.122.131","Mozilla/5.0 (Windows NT 10.0; Win64; x64) AppleWebKit/537.36 (KHTML, like Gecko) Chrome/138.0.0.0 Safari/537.36","WebKit","Chrome","138.0.0.0","Windows","10.0","https://app.prolific.com/","en-GB,en-US;q=0.9,en;q=0.8","6736f4a8fe83ffce0936bdc4","686e379bc37a29ffa5cdc956","6877600eec8b868de7962f94","1","1","6736f4a8fe83ffce0936bdc4","1","1","2025-07-16T08:37:49.002Z","","","","","","","","","","","AttribQ","","50","","","","","","","","","","","","","","","","","","","","","","","","","","","","",""
"12902","","<div style=""width:500px;"">
  <p>How much control did you have over the ball?</p>
  </div>","100","html-slider-response","51","1084379","0.0-5.0-2.8","48","1","2025-07-16 08:19:54","1f75c3e559b7213887762d5229550c2b","165.165.122.131","Mozilla/5.0 (Windows NT 10.0; Win64; x64) AppleWebKit/537.36 (KHTML, like Gecko) Chrome/138.0.0.0 Safari/537.36","WebKit","Chrome","138.0.0.0","Windows","10.0","https://app.prolific.com/","en-GB,en-US;q=0.9,en;q=0.8","6736f4a8fe83ffce0936bdc4","686e379bc37a29ffa5cdc956","6877600eec8b868de7962f94","1","1","6736f4a8fe83ffce0936bdc4","1","1","2025-07-16T08:38:01.908Z","","","","","","","","","","","ControlQ","","50","","","","","","","","","","","","","","","","","","","","","","","","","","","","",""
"7255","","<div style=""width:500px;"">
  <p>How would you describe your current emotional state?</p>
  </div>","24","html-slider-response","52","1091639","0.0-5.0-3.8","48","1","2025-07-16 08:19:54","1f75c3e559b7213887762d5229550c2b","165.165.122.131","Mozilla/5.0 (Windows NT 10.0; Win64; x64) AppleWebKit/537.36 (KHTML, like Gecko) Chrome/138.0.0.0 Safari/537.36","WebKit","Chrome","138.0.0.0","Windows","10.0","https://app.prolific.com/","en-GB,en-US;q=0.9,en;q=0.8","6736f4a8fe83ffce0936bdc4","686e379bc37a29ffa5cdc956","6877600eec8b868de7962f94","1","1","6736f4a8fe83ffce0936bdc4","1","1","2025-07-16T08:38:09.168Z","","","","","","","","","","","StressQ","","50","","","","","","","","","","","","","","","","","","","","","","","","","","","","",""
"11752","","<div style=""width:500px;"">
  <p>What best describes how you currently feel?</p>
  </div>","66","html-slider-response","53","1103396","0.0-5.0-4.8","48","1","2025-07-16 08:19:54","1f75c3e559b7213887762d5229550c2b","165.165.122.131","Mozilla/5.0 (Windows NT 10.0; Win64; x64) AppleWebKit/537.36 (KHTML, like Gecko) Chrome/138.0.0.0 Safari/537.36","WebKit","Chrome","138.0.0.0","Windows","10.0","https://app.prolific.com/","en-GB,en-US;q=0.9,en;q=0.8","6736f4a8fe83ffce0936bdc4","686e379bc37a29ffa5cdc956","6877600eec8b868de7962f94","1","1","6736f4a8fe83ffce0936bdc4","1","1","2025-07-16T08:38:20.925Z","","","","","","","","","","","MotivationQ","","50","","","","","","","","","","","","","","","","","","","","","","","","","","","","",""
"","","","","ctl-task-cpt","54","1162470","0.0-5.0-0.9","48","1","2025-07-16 08:19:54","1f75c3e559b7213887762d5229550c2b","165.165.122.131","Mozilla/5.0 (Windows NT 10.0; Win64; x64) AppleWebKit/537.36 (KHTML, like Gecko) Chrome/138.0.0.0 Safari/537.36","WebKit","Chrome","138.0.0.0","Windows","10.0","https://app.prolific.com/","en-GB,en-US;q=0.9,en;q=0.8","6736f4a8fe83ffce0936bdc4","686e379bc37a29ffa5cdc956","6877600eec8b868de7962f94","1","1","6736f4a8fe83ffce0936bdc4","1","1","2025-07-16T08:39:19.999Z","","","","","","","","","","","","","","win-only","3","g1:SW,g2:NE","0.4","10","0","1107204.3","19662.4","24681.8","56035.7","1","4","4","6","2","4","4","15","11","0.11363636363636363","1728.1","3000","2335","[""up"",""right""]","{""num_key_presses"":6,""num_perfect"":3,""num_errors"":0,""num_randdir"":3,""num_randdir_good_moves"":3,""num_whilered"":0,""num_whileblue"":0,""num_blue"":0,""num_good_moves"":6}","[417.8214133126395,417.82142761775424,1,417.8214133126395,417.82142761775424,138,417.8214133126395,417.82142761775424,265.3,417.8214133126395,417.82142761775424,370.3,234.0714133126395,466.57142761775424,481.5,276.5714133126395,475.32142761775424,598.4,789.0714133126395,271.57142761775424,710.1,935.3214133126395,136.57142761775424,833.9,957.8214133126395,92.82142761775425,949.8,902.8214133126395,62.82142761775425,1050.7,880.3214133126395,61.57142761775425,1154.8,855.3214133126395,69.07142761775425,1254.9,832.8214133126395,76.57142761775425,1361,825.3214133126395,76.57142761775425,1491.4,819.0714133126395,77.82142761775425,1594.8,805.3214133126395,79.07142761775425,1699.7,806.5714133126395,77.82142761775425,1828.7,806.5714133126395,75.32142761775425,1947.7,806.5714133126395,72.82142761775425,2068.7,806.5714133126395,72.82142761775425,2189,806.5714133126395,72.82142761775425,2316.3,806.5714133126395,72.82142761775425,2426.3,807.8214133126395,72.82142761775425,2531.1,807.8214133126395,72.82142761775425,2655.3,807.8214133126395,72.82142761775425,2784.3,807.8214133126395,72.82142761775425,2887.9,807.8214133126395,72.82142761775425,3059.8,807.8214133126395,72.82142761775425,3183.4,807.8214133126395,72.82142761775425,3306.8,807.8214133126395,72.82142761775425,3434.3,807.8214133126395,72.82142761775425,3566.1,807.8214133126395,72.82142761775425,3686.8,807.8214133126395,72.82142761775425,3812.8,807.8214133126395,72.82142761775425,3937.5,807.8214133126395,72.82142761775425,4065.1,807.8214133126395,72.82142761775425,4186.7,807.8214133126395,72.82142761775425,4308.2,807.8214133126395,72.82142761775425,4430.7,807.8214133126395,72.82142761775425,4559.9,807.8214133126395,72.82142761775425,4678.9,807.8214133126395,72.82142761775425,4807.2,807.8214133126395,72.82142761775425,4927]","[1443.6,1443.6,1000,0,443.6,""smooth"",""up"",""up"",""good_move"",7617.2,6170,2571.1,1447.2,3598.9,""smooth"",""up"",""up"",""good_move"",15476.6,7854.5,2884.9,7622.2,4969.6,""oops"",""up"",""up"",""good_move"",23622.7,8140,3169.3,15482.8,4970.7,""smooth"",""right"",""right"",""good_move"",28010.2,4384.6,2598.5,23625.7,1786,""oops"",""right"",""right"",""good_move"",31124.4,3110.3,2707,28014.2,403.3,""oops"",""right"",""right"",""good_move""]","",""
"11206","","<div style=""width:500px;"">
  <p>What determined the result of this run?</p>
  </div>","100","html-slider-response","55","1173681","0.0-5.0-1.9","48","1","2025-07-16 08:19:54","1f75c3e559b7213887762d5229550c2b","165.165.122.131","Mozilla/5.0 (Windows NT 10.0; Win64; x64) AppleWebKit/537.36 (KHTML, like Gecko) Chrome/138.0.0.0 Safari/537.36","WebKit","Chrome","138.0.0.0","Windows","10.0","https://app.prolific.com/","en-GB,en-US;q=0.9,en;q=0.8","6736f4a8fe83ffce0936bdc4","686e379bc37a29ffa5cdc956","6877600eec8b868de7962f94","1","1","6736f4a8fe83ffce0936bdc4","1","1","2025-07-16T08:39:31.210Z","","","","","","","","","","","AttribQ","","50","","","","","","","","","","","","","","","","","","","","","","","","","","","","",""
"6414","","<div style=""width:500px;"">
  <p>How much control did you have over the ball?</p>
  </div>","100","html-slider-response","56","1180100","0.0-5.0-2.9","48","1","2025-07-16 08:19:54","1f75c3e559b7213887762d5229550c2b","165.165.122.131","Mozilla/5.0 (Windows NT 10.0; Win64; x64) AppleWebKit/537.36 (KHTML, like Gecko) Chrome/138.0.0.0 Safari/537.36","WebKit","Chrome","138.0.0.0","Windows","10.0","https://app.prolific.com/","en-GB,en-US;q=0.9,en;q=0.8","6736f4a8fe83ffce0936bdc4","686e379bc37a29ffa5cdc956","6877600eec8b868de7962f94","1","1","6736f4a8fe83ffce0936bdc4","1","1","2025-07-16T08:39:37.629Z","","","","","","","","","","","ControlQ","","50","","","","","","","","","","","","","","","","","","","","","","","","","","","","",""
"6366","","<div style=""width:500px;"">
  <p>How would you describe your current emotional state?</p>
  </div>","17","html-slider-response","57","1186471","0.0-5.0-3.9","48","1","2025-07-16 08:19:54","1f75c3e559b7213887762d5229550c2b","165.165.122.131","Mozilla/5.0 (Windows NT 10.0; Win64; x64) AppleWebKit/537.36 (KHTML, like Gecko) Chrome/138.0.0.0 Safari/537.36","WebKit","Chrome","138.0.0.0","Windows","10.0","https://app.prolific.com/","en-GB,en-US;q=0.9,en;q=0.8","6736f4a8fe83ffce0936bdc4","686e379bc37a29ffa5cdc956","6877600eec8b868de7962f94","1","1","6736f4a8fe83ffce0936bdc4","1","1","2025-07-16T08:39:44.000Z","","","","","","","","","","","StressQ","","50","","","","","","","","","","","","","","","","","","","","","","","","","","","","",""
"6302","","<div style=""width:500px;"">
  <p>What best describes how you currently feel?</p>
  </div>","50","html-slider-response","58","1192782","0.0-5.0-4.9","48","1","2025-07-16 08:19:54","1f75c3e559b7213887762d5229550c2b","165.165.122.131","Mozilla/5.0 (Windows NT 10.0; Win64; x64) AppleWebKit/537.36 (KHTML, like Gecko) Chrome/138.0.0.0 Safari/537.36","WebKit","Chrome","138.0.0.0","Windows","10.0","https://app.prolific.com/","en-GB,en-US;q=0.9,en;q=0.8","6736f4a8fe83ffce0936bdc4","686e379bc37a29ffa5cdc956","6877600eec8b868de7962f94","1","1","6736f4a8fe83ffce0936bdc4","1","1","2025-07-16T08:39:50.311Z","","","","","","","","","","","MotivationQ","","50","","","","","","","","","","","","","","","","","","","","","","","","","","","","",""
"","","","","ctl-task-cpt","59","1257467","0.0-5.0-0.10","48","1","2025-07-16 08:19:54","1f75c3e559b7213887762d5229550c2b","165.165.122.131","Mozilla/5.0 (Windows NT 10.0; Win64; x64) AppleWebKit/537.36 (KHTML, like Gecko) Chrome/138.0.0.0 Safari/537.36","WebKit","Chrome","138.0.0.0","Windows","10.0","https://app.prolific.com/","en-GB,en-US;q=0.9,en;q=0.8","6736f4a8fe83ffce0936bdc4","686e379bc37a29ffa5cdc956","6877600eec8b868de7962f94","1","1","6736f4a8fe83ffce0936bdc4","1","1","2025-07-16T08:40:54.996Z","","","","","","","","","","","","","","win-only","0","g1:NW,g2:SE","0.5","11","0","1196587","20244.9","25258","61648.4","1","4","4","6","2","4","4","19","15","0.14393939393939395","2650.5","3000","1745","[""down"",""right""]","{""num_key_presses"":10,""num_perfect"":5,""num_errors"":0,""num_randdir"":5,""num_randdir_good_moves"":3,""num_whilered"":0,""num_whileblue"":0,""num_blue"":2,""num_good_moves"":8}","[415.3214133126395,406.57142761775424,4.6,415.3214133126395,406.57142761775424,117.3,415.3214133126395,406.57142761775424,220.9,415.3214133126395,406.57142761775424,329,466.5714133126395,396.57142761775424,439.8,466.5714133126395,396.57142761775424,543,466.5714133126395,396.57142761775424,656.2,466.5714133126395,396.57142761775424,762.9,466.5714133126395,396.57142761775424,879.3,466.5714133126395,396.57142761775424,997,466.5714133126395,396.57142761775424,1115.3,466.5714133126395,396.57142761775424,1221,466.5714133126395,396.57142761775424,1323.3,466.5714133126395,396.57142761775424,1424.5,466.5714133126395,396.57142761775424,1530.6,460.3214133126395,391.57142761775424,1647.2,476.5714133126395,484.07142761775424,1756.3,506.5714133126395,566.5714276177542,1856.8,656.5714133126395,685.3214276177542,1980.9,706.5714133126395,730.3214276177542,2094.5,735.3214133126395,806.5714276177542,2213.6,770.3214133126395,857.8214276177542,2316.5,771.5714133126395,856.5714276177542,2417.4,772.8214133126395,820.3214276177542,2534.3,771.5714133126395,782.8214276177542,2644.5,771.5714133126395,785.3214276177542,2751.8,766.5714133126395,779.0714276177542,2866,766.5714133126395,780.3214276177542,2974.7,766.5714133126395,780.3214276177542,3081,766.5714133126395,780.3214276177542,3188.2,766.5714133126395,780.3214276177542,3295.2,766.5714133126395,780.3214276177542,3399.1,766.5714133126395,780.3214276177542,3505.4,766.5714133126395,780.3214276177542,3622,766.5714133126395,780.3214276177542,3722.4,766.5714133126395,780.3214276177542,3841.3,766.5714133126395,780.3214276177542,3953,766.5714133126395,780.3214276177542,4053.2,766.5714133126395,780.3214276177542,4162.3,766.5714133126395,780.3214276177542,4266.8,766.5714133126395,780.3214276177542,4367.6,766.5714133126395,780.3214276177542,4472,766.5714133126395,780.3214276177542,4580.7,766.5714133126395,780.3214276177542,4680.9,766.5714133126395,780.3214276177542,4785.9,766.5714133126395,780.3214276177542,4901.4]","[1449.4,1449.4,1000,0,449.4,""smooth"",""down"",""down"",""good_move"",4585.2,3124.2,2734,1461,390.2,""oops"",""down"",""down"",""good_move"",8004.3,3412.9,3000.2,4591.4,412.7,""oops"",""right"",""right"",""good_move"",9994.8,1985.5,1614,8009.3,371.5,""oops"",""right"",""left"",""bad_move"",13277.1,3277.5,2507.8,9999.6,769.7,""smooth"",""down"",""down"",""good_move"",16132.9,2849.5,2488.1,13283.5,361.4,""oops"",""right"",""right"",""good_move"",19460.6,3321.3,2810.3,16139.4,511,""oops"",""right"",""left"",""bad_move"",26522.1,7055,1974.5,24067.2,480.4,""smooth"",""right"",""right"",""good_move"",33019.1,6493.6,2791.1,29808.1,420,""smooth"",""right"",""right"",""good_move"",36103.8,3082.9,2653.9,33020.9,429,""smooth"",""right"",""right"",""good_move""]","",""
"14032","","<div style=""width:500px;"">
  <p>What determined the result of this run?</p>
  </div>","100","html-slider-response","60","1271501","0.0-5.0-1.10","48","1","2025-07-16 08:19:54","1f75c3e559b7213887762d5229550c2b","165.165.122.131","Mozilla/5.0 (Windows NT 10.0; Win64; x64) AppleWebKit/537.36 (KHTML, like Gecko) Chrome/138.0.0.0 Safari/537.36","WebKit","Chrome","138.0.0.0","Windows","10.0","https://app.prolific.com/","en-GB,en-US;q=0.9,en;q=0.8","6736f4a8fe83ffce0936bdc4","686e379bc37a29ffa5cdc956","6877600eec8b868de7962f94","1","1","6736f4a8fe83ffce0936bdc4","1","1","2025-07-16T08:41:09.031Z","","","","","","","","","","","AttribQ","","50","","","","","","","","","","","","","","","","","","","","","","","","","","","","",""
"6289","","<div style=""width:500px;"">
  <p>How much control did you have over the ball?</p>
  </div>","83","html-slider-response","61","1277799","0.0-5.0-2.10","48","1","2025-07-16 08:19:54","1f75c3e559b7213887762d5229550c2b","165.165.122.131","Mozilla/5.0 (Windows NT 10.0; Win64; x64) AppleWebKit/537.36 (KHTML, like Gecko) Chrome/138.0.0.0 Safari/537.36","WebKit","Chrome","138.0.0.0","Windows","10.0","https://app.prolific.com/","en-GB,en-US;q=0.9,en;q=0.8","6736f4a8fe83ffce0936bdc4","686e379bc37a29ffa5cdc956","6877600eec8b868de7962f94","1","1","6736f4a8fe83ffce0936bdc4","1","1","2025-07-16T08:41:15.328Z","","","","","","","","","","","ControlQ","","50","","","","","","","","","","","","","","","","","","","","","","","","","","","","",""
"4849","","<div style=""width:500px;"">
  <p>How would you describe your current emotional state?</p>
  </div>","18","html-slider-response","62","1282652","0.0-5.0-3.10","48","1","2025-07-16 08:19:54","1f75c3e559b7213887762d5229550c2b","165.165.122.131","Mozilla/5.0 (Windows NT 10.0; Win64; x64) AppleWebKit/537.36 (KHTML, like Gecko) Chrome/138.0.0.0 Safari/537.36","WebKit","Chrome","138.0.0.0","Windows","10.0","https://app.prolific.com/","en-GB,en-US;q=0.9,en;q=0.8","6736f4a8fe83ffce0936bdc4","686e379bc37a29ffa5cdc956","6877600eec8b868de7962f94","1","1","6736f4a8fe83ffce0936bdc4","1","1","2025-07-16T08:41:20.181Z","","","","","","","","","","","StressQ","","50","","","","","","","","","","","","","","","","","","","","","","","","","","","","",""
"16245","","<div style=""width:500px;"">
  <p>What best describes how you currently feel?</p>
  </div>","50","html-slider-response","63","1298902","0.0-5.0-4.10","48","1","2025-07-16 08:19:54","1f75c3e559b7213887762d5229550c2b","165.165.122.131","Mozilla/5.0 (Windows NT 10.0; Win64; x64) AppleWebKit/537.36 (KHTML, like Gecko) Chrome/138.0.0.0 Safari/537.36","WebKit","Chrome","138.0.0.0","Windows","10.0","https://app.prolific.com/","en-GB,en-US;q=0.9,en;q=0.8","6736f4a8fe83ffce0936bdc4","686e379bc37a29ffa5cdc956","6877600eec8b868de7962f94","1","1","6736f4a8fe83ffce0936bdc4","1","1","2025-07-16T08:41:36.431Z","","","","","","","","","","","MotivationQ","","50","","","","","","","","","","","","","","","","","","","","","","","","","","","","",""
"","","","","ctl-task-cpt","64","1361345","0.0-5.0-0.11","48","1","2025-07-16 08:19:54","1f75c3e559b7213887762d5229550c2b","165.165.122.131","Mozilla/5.0 (Windows NT 10.0; Win64; x64) AppleWebKit/537.36 (KHTML, like Gecko) Chrome/138.0.0.0 Safari/537.36","WebKit","Chrome","138.0.0.0","Windows","10.0","https://app.prolific.com/","en-GB,en-US;q=0.9,en;q=0.8","6736f4a8fe83ffce0936bdc4","686e379bc37a29ffa5cdc956","6877600eec8b868de7962f94","1","1","6736f4a8fe83ffce0936bdc4","1","1","2025-07-16T08:42:38.874Z","","","","","","","","","","","","","","win-only","1","g1:NE,g2:SW","0.6","12","0","1302708","2407.3","7420","59388.5","1","4","8","6","2","8","8","27","19","0.20454545454545456","1286.8","3000","2150","[""down"",""left""]","{""num_key_presses"":10,""num_perfect"":6,""num_errors"":0,""num_randdir"":4,""num_randdir_good_moves"":2,""num_whilered"":0,""num_whileblue"":0,""num_blue"":2,""num_good_moves"":8}","[426.5714133126395,412.82142761775424,1.3,426.5714133126395,412.82142761775424,109.5,426.5714133126395,412.82142761775424,210.2,441.5714133126395,434.07142761775424,321.4,445.3214133126395,436.57142761775424,435.3,365.3214133126395,541.5714276177542,553,204.0714133126395,759.0714276177542,665.8,156.5714133126395,776.5714276177542,776.6,124.0714133126395,777.8214276177542,879.7,97.8214133126395,765.3214276177542,987.9,96.5714133126395,761.5714276177542,1096.2,96.5714133126395,761.5714276177542,1209.7,96.5714133126395,761.5714276177542,1310.3,96.5714133126395,761.5714276177542,1426.9,96.5714133126395,756.5714276177542,1544,96.5714133126395,755.3214276177542,1655.9,97.8214133126395,749.0714276177542,1762.7,134.0714133126395,730.3214276177542,1877.6,206.5714133126395,736.5714276177542,1993,239.0714133126395,734.0714276177542,2105.7,244.0714133126395,732.8214276177542,2208.6,244.0714133126395,732.8214276177542,2337.9,244.0714133126395,732.8214276177542,2448.1,244.0714133126395,732.8214276177542,2559.4,244.0714133126395,732.8214276177542,2661.7,244.0714133126395,732.8214276177542,2778.4,244.0714133126395,731.5714276177542,2878.6,244.0714133126395,731.5714276177542,3006.2,244.0714133126395,731.5714276177542,3108.4,244.0714133126395,731.5714276177542,3227.3,244.0714133126395,731.5714276177542,3338.2,244.0714133126395,731.5714276177542,3446.4,244.0714133126395,731.5714276177542,3570.7,244.0714133126395,731.5714276177542,3671.3,244.0714133126395,731.5714276177542,3788.6,244.0714133126395,731.5714276177542,3902.2,244.0714133126395,731.5714276177542,4009.7,244.0714133126395,731.5714276177542,4118.2,244.0714133126395,731.5714276177542,4223.4,244.0714133126395,731.5714276177542,4335.1,244.0714133126395,731.5714276177542,4437.4,244.0714133126395,731.5714276177542,4540.1,244.0714133126395,731.5714276177542,4643.4,244.0714133126395,731.5714276177542,4743.8,244.0714133126395,731.5714276177542,4857.9,244.0714133126395,731.5714276177542,4960.6]","[1427.3,1427.3,1000,0,427.3,""smooth"",""down"",""down"",""good_move"",4277.7,2848.3,2457,1429.4,391.3,""oops"",""down"",""up"",""bad_move"",8476,4193.1,2601.5,4282.9,1591.6,""smooth"",""left"",""left"",""good_move"",13175.9,4697.6,3097.5,8478.3,1600.1,""smooth"",""down"",""down"",""good_move"",20243.4,7063.4,3347.5,16413.8,482.1,""smooth"",""left"",""left"",""good_move"",27541.8,7296.2,1347.2,25716.5,478.1,""oops"",""down"",""down"",""good_move"",31128.3,3584.4,2445.7,27543.9,1138.7,""oops"",""down"",""up"",""bad_move"",40535,9401.4,2742.3,31133.6,6659.1,""smooth"",""down"",""down"",""good_move"",44193,3634.8,3148.1,40558.2,486.7,""oops"",""left"",""left"",""good_move"",51105.4,6910.1,2178.5,44195.3,4731.6,""smooth"",""down"",""down"",""good_move""]","",""
"6608","","<div style=""width:500px;"">
  <p>What determined the result of this run?</p>
  </div>","100","html-slider-response","65","1367957","0.0-5.0-1.11","48","1","2025-07-16 08:19:54","1f75c3e559b7213887762d5229550c2b","165.165.122.131","Mozilla/5.0 (Windows NT 10.0; Win64; x64) AppleWebKit/537.36 (KHTML, like Gecko) Chrome/138.0.0.0 Safari/537.36","WebKit","Chrome","138.0.0.0","Windows","10.0","https://app.prolific.com/","en-GB,en-US;q=0.9,en;q=0.8","6736f4a8fe83ffce0936bdc4","686e379bc37a29ffa5cdc956","6877600eec8b868de7962f94","1","1","6736f4a8fe83ffce0936bdc4","1","1","2025-07-16T08:42:45.486Z","","","","","","","","","","","AttribQ","","50","","","","","","","","","","","","","","","","","","","","","","","","","","","","",""
"4910","","<div style=""width:500px;"">
  <p>How much control did you have over the ball?</p>
  </div>","35","html-slider-response","66","1372871","0.0-5.0-2.11","48","1","2025-07-16 08:19:54","1f75c3e559b7213887762d5229550c2b","165.165.122.131","Mozilla/5.0 (Windows NT 10.0; Win64; x64) AppleWebKit/537.36 (KHTML, like Gecko) Chrome/138.0.0.0 Safari/537.36","WebKit","Chrome","138.0.0.0","Windows","10.0","https://app.prolific.com/","en-GB,en-US;q=0.9,en;q=0.8","6736f4a8fe83ffce0936bdc4","686e379bc37a29ffa5cdc956","6877600eec8b868de7962f94","1","1","6736f4a8fe83ffce0936bdc4","1","1","2025-07-16T08:42:50.402Z","","","","","","","","","","","ControlQ","","50","","","","","","","","","","","","","","","","","","","","","","","","","","","","",""
"8529","","<div style=""width:500px;"">
  <p>How would you describe your current emotional state?</p>
  </div>","25","html-slider-response","67","1381404","0.0-5.0-3.11","48","1","2025-07-16 08:19:54","1f75c3e559b7213887762d5229550c2b","165.165.122.131","Mozilla/5.0 (Windows NT 10.0; Win64; x64) AppleWebKit/537.36 (KHTML, like Gecko) Chrome/138.0.0.0 Safari/537.36","WebKit","Chrome","138.0.0.0","Windows","10.0","https://app.prolific.com/","en-GB,en-US;q=0.9,en;q=0.8","6736f4a8fe83ffce0936bdc4","686e379bc37a29ffa5cdc956","6877600eec8b868de7962f94","1","1","6736f4a8fe83ffce0936bdc4","1","1","2025-07-16T08:42:58.934Z","","","","","","","","","","","StressQ","","50","","","","","","","","","","","","","","","","","","","","","","","","","","","","",""
"10231","","<div style=""width:500px;"">
  <p>What best describes how you currently feel?</p>
  </div>","50","html-slider-response","68","1391640","0.0-5.0-4.11","48","1","2025-07-16 08:19:54","1f75c3e559b7213887762d5229550c2b","165.165.122.131","Mozilla/5.0 (Windows NT 10.0; Win64; x64) AppleWebKit/537.36 (KHTML, like Gecko) Chrome/138.0.0.0 Safari/537.36","WebKit","Chrome","138.0.0.0","Windows","10.0","https://app.prolific.com/","en-GB,en-US;q=0.9,en;q=0.8","6736f4a8fe83ffce0936bdc4","686e379bc37a29ffa5cdc956","6877600eec8b868de7962f94","1","1","6736f4a8fe83ffce0936bdc4","1","1","2025-07-16T08:43:09.169Z","","","","","","","","","","","MotivationQ","","50","","","","","","","","","","","","","","","","","","","","","","","","","","","","",""
"","","","","ctl-task-cpt","69","1440693","0.0-5.0-0.12","48","1","2025-07-16 08:19:54","1f75c3e559b7213887762d5229550c2b","165.165.122.131","Mozilla/5.0 (Windows NT 10.0; Win64; x64) AppleWebKit/537.36 (KHTML, like Gecko) Chrome/138.0.0.0 Safari/537.36","WebKit","Chrome","138.0.0.0","Windows","10.0","https://app.prolific.com/","en-GB,en-US;q=0.9,en;q=0.8","6736f4a8fe83ffce0936bdc4","686e379bc37a29ffa5cdc956","6877600eec8b868de7962f94","1","1","6736f4a8fe83ffce0936bdc4","1","1","2025-07-16T08:43:58.222Z","","","","","","","","","","","","","","win-only","1","g1:NE,g2:SW","0.7","13","0","1395445.5","10344.1","15348.3","45979.1","1","4","8","6","2","8","8","35","27","0.26515151515151514","1312.6","3000","2665","[""down"",""left""]","{""num_key_presses"":6,""num_perfect"":5,""num_errors"":0,""num_randdir"":1,""num_randdir_good_moves"":1,""num_whilered"":0,""num_whileblue"":0,""num_blue"":1,""num_good_moves"":6}","[406.5714133126395,409.07142761775424,0.8,406.5714133126395,409.07142761775424,113.4,409.0714133126395,407.82142761775424,221.8,409.0714133126395,407.82142761775424,330.8,411.5714133126395,414.07142761775424,468.6,389.0714133126395,471.57142761775424,585.2,171.5714133126395,602.8214276177542,698.2,107.8214133126395,660.3214276177542,820.4,101.5714133126395,697.8214276177542,943.5,115.3214133126395,750.3214276177542,1054,116.5714133126395,761.5714276177542,1165.9,114.0714133126395,769.0714276177542,1272.5,112.8214133126395,770.3214276177542,1388,111.5714133126395,770.3214276177542,1509.3,110.3214133126395,770.3214276177542,1629.8,109.0714133126395,766.5714276177542,1737.5,110.3214133126395,761.5714276177542,1842.8,116.5714133126395,750.3214276177542,1958.3,119.0714133126395,742.8214276177542,2074.4,121.5714133126395,737.8214276177542,2183.8,124.0714133126395,731.5714276177542,2287.2,125.3214133126395,727.8214276177542,2396.2,129.0714133126395,722.8214276177542,2510.3,131.5714133126395,719.0714276177542,2613,132.8214133126395,716.5714276177542,2714.4,134.0714133126395,712.8214276177542,2822.3,140.3214133126395,694.0714276177542,2935.6,226.5714133126395,671.5714276177542,3046.2,226.5714133126395,671.5714276177542,3150,226.5714133126395,671.5714276177542,3259.9,217.8214133126395,-72.17857238224575,3374.5,217.8214133126395,-72.17857238224575,3516.8,217.8214133126395,-72.17857238224575,3650.7,217.8214133126395,-72.17857238224575,3751,217.8214133126395,-72.17857238224575,3862,217.8214133126395,-72.17857238224575,3965.1,217.8214133126395,-72.17857238224575,4103.9,217.8214133126395,-72.17857238224575,4214.8,217.8214133126395,-72.17857238224575,4315.3,217.8214133126395,-72.17857238224575,4428.6,217.8214133126395,-72.17857238224575,4534.6,217.8214133126395,-72.17857238224575,4647.8,217.8214133126395,-72.17857238224575,4763.6,217.8214133126395,-72.17857238224575,4900.9]","[1412.5,1412.5,1000,0,412.5,""smooth"",""down"",""down"",""good_move"",4863.4,3448.4,2809.6,1415,638.8,""smooth"",""down"",""down"",""good_move"",11670.9,6790.9,2586.5,8578.2,506.3,""smooth"",""left"",""left"",""good_move"",19002.5,7330.4,2560.4,11672.1,4770,""oops"",""left"",""left"",""good_move"",26447.2,7442.9,2856.2,19004.4,4586.6,""smooth"",""down"",""down"",""good_move"",29837,3388.1,2627,26449,761.2,""smooth"",""left"",""left"",""good_move""]","",""
"14520","","<div style=""width:500px;"">
  <p>What determined the result of this run?</p>
  </div>","100","html-slider-response","70","1455217","0.0-5.0-1.12","48","1","2025-07-16 08:19:54","1f75c3e559b7213887762d5229550c2b","165.165.122.131","Mozilla/5.0 (Windows NT 10.0; Win64; x64) AppleWebKit/537.36 (KHTML, like Gecko) Chrome/138.0.0.0 Safari/537.36","WebKit","Chrome","138.0.0.0","Windows","10.0","https://app.prolific.com/","en-GB,en-US;q=0.9,en;q=0.8","6736f4a8fe83ffce0936bdc4","686e379bc37a29ffa5cdc956","6877600eec8b868de7962f94","1","1","6736f4a8fe83ffce0936bdc4","1","1","2025-07-16T08:44:12.746Z","","","","","","","","","","","AttribQ","","50","","","","","","","","","","","","","","","","","","","","","","","","","","","","",""
"11904","","<div style=""width:500px;"">
  <p>How much control did you have over the ball?</p>
  </div>","85","html-slider-response","71","1467130","0.0-5.0-2.12","48","1","2025-07-16 08:19:54","1f75c3e559b7213887762d5229550c2b","165.165.122.131","Mozilla/5.0 (Windows NT 10.0; Win64; x64) AppleWebKit/537.36 (KHTML, like Gecko) Chrome/138.0.0.0 Safari/537.36","WebKit","Chrome","138.0.0.0","Windows","10.0","https://app.prolific.com/","en-GB,en-US;q=0.9,en;q=0.8","6736f4a8fe83ffce0936bdc4","686e379bc37a29ffa5cdc956","6877600eec8b868de7962f94","1","1","6736f4a8fe83ffce0936bdc4","1","1","2025-07-16T08:44:24.659Z","","","","","","","","","","","ControlQ","","50","","","","","","","","","","","","","","","","","","","","","","","","","","","","",""
"5919","","<div style=""width:500px;"">
  <p>How would you describe your current emotional state?</p>
  </div>","50","html-slider-response","72","1473052","0.0-5.0-3.12","48","1","2025-07-16 08:19:54","1f75c3e559b7213887762d5229550c2b","165.165.122.131","Mozilla/5.0 (Windows NT 10.0; Win64; x64) AppleWebKit/537.36 (KHTML, like Gecko) Chrome/138.0.0.0 Safari/537.36","WebKit","Chrome","138.0.0.0","Windows","10.0","https://app.prolific.com/","en-GB,en-US;q=0.9,en;q=0.8","6736f4a8fe83ffce0936bdc4","686e379bc37a29ffa5cdc956","6877600eec8b868de7962f94","1","1","6736f4a8fe83ffce0936bdc4","1","1","2025-07-16T08:44:30.582Z","","","","","","","","","","","StressQ","","50","","","","","","","","","","","","","","","","","","","","","","","","","","","","",""
"5272","","<div style=""width:500px;"">
  <p>What best describes how you currently feel?</p>
  </div>","50","html-slider-response","73","1478329","0.0-5.0-4.12","48","1","2025-07-16 08:19:54","1f75c3e559b7213887762d5229550c2b","165.165.122.131","Mozilla/5.0 (Windows NT 10.0; Win64; x64) AppleWebKit/537.36 (KHTML, like Gecko) Chrome/138.0.0.0 Safari/537.36","WebKit","Chrome","138.0.0.0","Windows","10.0","https://app.prolific.com/","en-GB,en-US;q=0.9,en;q=0.8","6736f4a8fe83ffce0936bdc4","686e379bc37a29ffa5cdc956","6877600eec8b868de7962f94","1","1","6736f4a8fe83ffce0936bdc4","1","1","2025-07-16T08:44:35.859Z","","","","","","","","","","","MotivationQ","","50","","","","","","","","","","","","","","","","","","","","","","","","","","","","",""
"","","","","ctl-task-cpt","74","1531650","0.0-5.0-0.13","48","1","2025-07-16 08:19:54","1f75c3e559b7213887762d5229550c2b","165.165.122.131","Mozilla/5.0 (Windows NT 10.0; Win64; x64) AppleWebKit/537.36 (KHTML, like Gecko) Chrome/138.0.0.0 Safari/537.36","WebKit","Chrome","138.0.0.0","Windows","10.0","https://app.prolific.com/","en-GB,en-US;q=0.9,en;q=0.8","6736f4a8fe83ffce0936bdc4","686e379bc37a29ffa5cdc956","6877600eec8b868de7962f94","1","1","6736f4a8fe83ffce0936bdc4","1","1","2025-07-16T08:45:29.179Z","","","","","","","","","","","","","","win-only","2","g1:SE,g2:NW","0.8","14","0","1482136.8","13441.9","18444.9","50279.1","1","4","4","6","2","4","4","39","35","0.29545454545454547","2514.5","3000","2305","[""left"",""up""]","{""num_key_presses"":6,""num_perfect"":6,""num_errors"":0,""num_randdir"":0,""num_randdir_good_moves"":0,""num_whilered"":0,""num_whileblue"":0,""num_blue"":2,""num_good_moves"":6}","[406.5714133126395,412.82142761775424,2.1,406.5714133126395,412.82142761775424,163.9,406.5714133126395,412.82142761775424,392.4,536.5714133126395,796.5714276177542,671.2,544.0714133126395,777.8214276177542,783,525.3214133126395,321.57142761775424,902,391.5714133126395,45.32142761775425,1026.1,375.3214133126395,19.071427617754253,1138,375.3214133126395,19.071427617754253,1250.8,330.3214133126395,-18.428572382245747,1366.3,287.8214133126395,-33.42857238224575,1486.1,260.3214133126395,-13.428572382245747,1589.7,206.5714133126395,-3.428572382245747,1690.7,172.8214133126395,-0.928572382245747,1816.8,131.5714133126395,1.571427617754253,1957.4,105.3214133126395,1.571427617754253,2079.5,27.821413312639507,19.071427617754253,2188.8,31.571413312639507,31.571427617754253,2293.2,32.82141331263951,36.57142761775425,2408,32.82141331263951,39.07142761775425,2526.2,32.82141331263951,39.07142761775425,2649.6,36.57141331263951,40.32142761775425,2757.5,62.82141331263951,61.57142761775425,2865.6,91.5714133126395,86.57142761775425,2982.1,91.5714133126395,86.57142761775425,3096.2,95.3214133126395,87.82142761775425,3215.3,100.3214133126395,90.32142761775425,3326.6,100.3214133126395,90.32142761775425,3451.6,100.3214133126395,90.32142761775425,3557,100.3214133126395,90.32142761775425,3673.2,100.3214133126395,90.32142761775425,3784.4,100.3214133126395,90.32142761775425,3898.4,100.3214133126395,90.32142761775425,3998.9,100.3214133126395,90.32142761775425,4105.9,100.3214133126395,90.32142761775425,4219.2,100.3214133126395,90.32142761775425,4322.4,100.3214133126395,90.32142761775425,4439.7,100.3214133126395,90.32142761775425,4547.7,100.3214133126395,90.32142761775425,4665.2,100.3214133126395,90.32142761775425,4765.5,100.3214133126395,90.32142761775425,4882.9]","[1455.4,1455.4,1000,0,455.4,""smooth"",""up"",""up"",""good_move"",6597,5135,2060.4,1462,3074.6,""smooth"",""up"",""up"",""good_move"",16722.4,10119.7,3134.6,12910.7,677.1,""smooth"",""left"",""left"",""good_move"",20151.2,3426.9,2209.4,16724.4,1217.4,""smooth"",""up"",""up"",""good_move"",27108,6951.3,2201.8,24417,489.2,""smooth"",""left"",""left"",""good_move"",31342.4,4225.2,1931.7,27117.2,2293.5,""smooth"",""left"",""left"",""good_move""]","",""
"6985","","<div style=""width:500px;"">
  <p>What determined the result of this run?</p>
  </div>","100","html-slider-response","75","1538641","0.0-5.0-1.13","48","1","2025-07-16 08:19:54","1f75c3e559b7213887762d5229550c2b","165.165.122.131","Mozilla/5.0 (Windows NT 10.0; Win64; x64) AppleWebKit/537.36 (KHTML, like Gecko) Chrome/138.0.0.0 Safari/537.36","WebKit","Chrome","138.0.0.0","Windows","10.0","https://app.prolific.com/","en-GB,en-US;q=0.9,en;q=0.8","6736f4a8fe83ffce0936bdc4","686e379bc37a29ffa5cdc956","6877600eec8b868de7962f94","1","1","6736f4a8fe83ffce0936bdc4","1","1","2025-07-16T08:45:36.170Z","","","","","","","","","","","AttribQ","","50","","","","","","","","","","","","","","","","","","","","","","","","","","","","",""
"9606","","<div style=""width:500px;"">
  <p>How much control did you have over the ball?</p>
