"rt","response_timestamp","stimulus","response","trial_type","trial_index","time_elapsed","internal_node_id","run_id","condition","recorded_at","source_code_version","ip","user_agent","device","browser","browser_version","platform","platform_version","referer","accept_language","PROLIFIC_PID","STUDY_ID","SESSION_ID","WEEK","BATCH","prolific_id","week","batch","realtime","success","responses","item_order","radio_event_ids","radio_event_times","key_event_times","mouse_event_times","straightlining","zigzagging","honeypot","eventType","view_history","slider_start","which_type","canvas_config","goals_layout","control_level","trial_number","tutorial_trial_number","trial_start_time","phase1_start_time","phase2_start_time","phase3_start_time","goal_1_value","goal_1_distance","goal_2_value","goal_2_distance","goal_selected","outcome","outcome_total","participant_final_score","participant_initial_score","participant_final_score_prop","goal_choice_rt","allocated_time","allocated_time_remaining","goal_direction","counts","mouse_movements","key_presses","question_order","question_id"
"30055","1753252285262","<p style='font-size:40px;line-height:1.25'><strong>Welcome to the experiment!</strong></p><p style='font-size:1.1em;line-height:1.25'>Thank you for participanting in our experiment again! You will be asked to play the Dysfunctional Ball Game again. We will briefly recap the rules before we start.</p><p style='font-size:1.1em;line-height:1.25'>Press <strong>Next</strong> to continue.</p>","0","custom-html-button-response","0","30059","0.0-0.0","144","1","2025-07-23 06:30:53","1f75c3e559b7213887762d5229550c2b","102.222.12.73","Mozilla/5.0 (Windows NT 10.0; Win64; x64) AppleWebKit/537.36 (KHTML, like Gecko) Chrome/138.0.0.0 Safari/537.36","WebKit","Chrome","138.0.0.0","Windows","10.0","https://app.prolific.com/","en-ZA,en-GB;q=0.9,en-US;q=0.8,en;q=0.7,en-GB-oxendict;q=0.6","605b838b80f022835fc293fb","683db9eb0562dbf637994deb","6880818e6b58325e5ebb7cf2","2","1","605b838b80f022835fc293fb","2","1","2025-07-23T06:31:25.264Z","","","","","","","","","","","","","","","","","","","","","","","","","","","","","","","","","","","","","","","","","",""
"16194","","","","fullscreen","1","47267","0.0-1.0","144","1","2025-07-23 06:30:53","1f75c3e559b7213887762d5229550c2b","102.222.12.73","Mozilla/5.0 (Windows NT 10.0; Win64; x64) AppleWebKit/537.36 (KHTML, like Gecko) Chrome/138.0.0.0 Safari/537.36","WebKit","Chrome","138.0.0.0","Windows","10.0","https://app.prolific.com/","en-ZA,en-GB;q=0.9,en-US;q=0.8,en;q=0.7,en-GB-oxendict;q=0.6","605b838b80f022835fc293fb","683db9eb0562dbf637994deb","6880818e6b58325e5ebb7cf2","2","1","605b838b80f022835fc293fb","2","1","","true","","","","","","","","","","","","","","","","","","","","","","","","","","","","","","","","","","","","","","","","",""
"6391","1753252308865","<p style='font-size:1.1em;line-height:1.25'>In the following, we will ask you a few questions relating to your feelings in the last 24 hours.<br></p><p style='font-size:1.1em;line-height:1.25'>Press the <strong>Next</strong> button to continue.</p>","0","custom-html-button-response","2","53661","0.0-2.0-0.0","144","1","2025-07-23 06:30:53","1f75c3e559b7213887762d5229550c2b","102.222.12.73","Mozilla/5.0 (Windows NT 10.0; Win64; x64) AppleWebKit/537.36 (KHTML, like Gecko) Chrome/138.0.0.0 Safari/537.36","WebKit","Chrome","138.0.0.0","Windows","10.0","https://app.prolific.com/","en-ZA,en-GB;q=0.9,en-US;q=0.8,en;q=0.7,en-GB-oxendict;q=0.6","605b838b80f022835fc293fb","683db9eb0562dbf637994deb","6880818e6b58325e5ebb7cf2","2","1","605b838b80f022835fc293fb","2","1","2025-07-23T06:31:48.865Z","","","","","","","","","","","","","","","","","","","","","","","","","","","","","","","","","","","","","","","","","",""
"119008.09999990463","","","","survey-template","3","172680","0.0-2.0-1.0","144","1","2025-07-23 06:30:53","1f75c3e559b7213887762d5229550c2b","102.222.12.73","Mozilla/5.0 (Windows NT 10.0; Win64; x64) AppleWebKit/537.36 (KHTML, like Gecko) Chrome/138.0.0.0 Safari/537.36","WebKit","Chrome","138.0.0.0","Windows","10.0","https://app.prolific.com/","en-ZA,en-GB;q=0.9,en-US;q=0.8,en;q=0.7,en-GB-oxendict;q=0.6","605b838b80f022835fc293fb","683db9eb0562dbf637994deb","6880818e6b58325e5ebb7cf2","2","1","605b838b80f022835fc293fb","2","1","2025-07-23T06:33:47.885Z","","{""Q01"":""2"",""Q02"":""3"",""Q03"":""2"",""Q04"":""3"",""Q05"":""2"",""Q06"":""1"",""Q07"":""2"",""Q08"":""0"",""Q09"":""1"",""Q10"":""2"",""Q11"":""1"",""Q12"":""3"",""Q13"":""5"",""Q14"":""2"",""Q15"":""0"",""Q16"":""0"",""Q17"":""1"",""Q18"":""1"",""Q19"":""3"",""Q20"":""2"",""Q21"":""1"",""Q22"":""0""}","[0,1,2,3,4,5,6,7,8,9,10,11,12,13,14,15,16,17,18,19,20,21]","[""Q01"",""Q02"",""Q03"",""Q04"",""Q05"",""Q06"",""Q07"",""Q09"",""Q08"",""Q10"",""Q11"",""Q12"",""Q13"",""Q14"",""Q16"",""Q17"",""Q18"",""Q19"",""Q20"",""Q21"",""Q22"",""Q15""]","[5652.699999809265,9396.599999904633,11630.799999952316,13599.699999809265,16347.399999856949,19896,25277.89999985695,29845,35196.09999990463,42192.5,44256.699999809265,48296.799999952316,50622,55171.799999952316,65536,67118.59999990463,69845.89999985695,79581.5,84197.79999995232,89590.79999995232,95649.09999990463,115518.39999985695]","[]","[0.6999998092651367,2654.5999999046326,5652.699999809265,9396.599999904633,11630.799999952316,13599.699999809265,16347.399999856949,19896,23427.39999985695,25277.89999985695,26844.5,29845,35196.09999990463,42192.5,44256.699999809265,48296.799999952316,50622,55171.799999952316,61669.59999990463,65536,67118.59999990463,69845.89999985695,76617,79581.5,84197.79999995232,89590.79999995232,93595.39999985695,95649.09999990463,97110.89999985695,115518.39999985695,119002.09999990463]","0.3181818181818182","0.6190476190476191","0","drsp","","","","","","","","","","","","","","","","","","","","","","","","","","","","","","",""
"18169.099999904633","","","","survey-template","4","190853","0.0-2.0-2.0","144","1","2025-07-23 06:30:53","1f75c3e559b7213887762d5229550c2b","102.222.12.73","Mozilla/5.0 (Windows NT 10.0; Win64; x64) AppleWebKit/537.36 (KHTML, like Gecko) Chrome/138.0.0.0 Safari/537.36","WebKit","Chrome","138.0.0.0","Windows","10.0","https://app.prolific.com/","en-ZA,en-GB;q=0.9,en-US;q=0.8,en;q=0.7,en-GB-oxendict;q=0.6","605b838b80f022835fc293fb","683db9eb0562dbf637994deb","6880818e6b58325e5ebb7cf2","2","1","605b838b80f022835fc293fb","2","1","2025-07-23T06:34:06.057Z","","{""Q01"":""2"",""Q02"":""5"",""Q03"":""1""}","[0,1,2]","[""Q01"",""Q02"",""Q03"",""Q01""]","[6576.700000047684,9853,13454.400000095367,16668.700000047684]","[]","[6576.700000047684,9853,13454.400000095367,14802.599999904633,16668.700000047684,18168]","0.3333333333333333","0.5","0","stress","","","","","","","","","","","","","","","","","","","","","","","","","","","","","","",""
"20093","","","","instructions","5","210947","0.0-3.0-0.0","144","1","2025-07-23 06:30:53","1f75c3e559b7213887762d5229550c2b","102.222.12.73","Mozilla/5.0 (Windows NT 10.0; Win64; x64) AppleWebKit/537.36 (KHTML, like Gecko) Chrome/138.0.0.0 Safari/537.36","WebKit","Chrome","138.0.0.0","Windows","10.0","https://app.prolific.com/","en-ZA,en-GB;q=0.9,en-US;q=0.8,en;q=0.7,en-GB-oxendict;q=0.6","605b838b80f022835fc293fb","683db9eb0562dbf637994deb","6880818e6b58325e5ebb7cf2","2","1","605b838b80f022835fc293fb","2","1","","","","","","","","","","","","","[{""page_index"":0,""viewing_time"":20092}]","","","","","","","","","","","","","","","","","","","","","","","","","","","","","",""
"14708","","<p>Before you start with this game please answer the following three questions yourself. </p>
  <p>Through this game, we measure several aspects of your cognitive performance, such as reaction times, multi-tasking capabilities </p>
  <p>and the ability to assess the situation you are in.</p>
  <p></p>
  <p><b>How good do you usually are in such tasks?</b></p>","77","html-slider-response","6","225660","0.0-4.0-0.0","144","1","2025-07-23 06:30:53","1f75c3e559b7213887762d5229550c2b","102.222.12.73","Mozilla/5.0 (Windows NT 10.0; Win64; x64) AppleWebKit/537.36 (KHTML, like Gecko) Chrome/138.0.0.0 Safari/537.36","WebKit","Chrome","138.0.0.0","Windows","10.0","https://app.prolific.com/","en-ZA,en-GB;q=0.9,en-US;q=0.8,en;q=0.7,en-GB-oxendict;q=0.6","605b838b80f022835fc293fb","683db9eb0562dbf637994deb","6880818e6b58325e5ebb7cf2","2","1","605b838b80f022835fc293fb","2","1","2025-07-23T06:34:40.864Z","","","","","","","","","","","PreSkillQ","","50","","","","","","","","","","","","","","","","","","","","","","","","","","","","",""
"5665","","<div style=""width:500px;"">
  <p>How well do you think you will perform in this task compared to other participants?</p>
  </div>","72","html-slider-response","7","231327","0.0-4.0-1.0","144","1","2025-07-23 06:30:53","1f75c3e559b7213887762d5229550c2b","102.222.12.73","Mozilla/5.0 (Windows NT 10.0; Win64; x64) AppleWebKit/537.36 (KHTML, like Gecko) Chrome/138.0.0.0 Safari/537.36","WebKit","Chrome","138.0.0.0","Windows","10.0","https://app.prolific.com/","en-ZA,en-GB;q=0.9,en-US;q=0.8,en;q=0.7,en-GB-oxendict;q=0.6","605b838b80f022835fc293fb","683db9eb0562dbf637994deb","6880818e6b58325e5ebb7cf2","2","1","605b838b80f022835fc293fb","2","1","2025-07-23T06:34:46.531Z","","","","","","","","","","","PrePerfQ","","50","","","","","","","","","","","","","","","","","","","","","","","","","","","","",""
"7670","","<div style=""width:500px;"">
  <p>What best describes how you currently feel?</p>
  </div>","99","html-slider-response","8","238998","0.0-4.0-2.0","144","1","2025-07-23 06:30:53","1f75c3e559b7213887762d5229550c2b","102.222.12.73","Mozilla/5.0 (Windows NT 10.0; Win64; x64) AppleWebKit/537.36 (KHTML, like Gecko) Chrome/138.0.0.0 Safari/537.36","WebKit","Chrome","138.0.0.0","Windows","10.0","https://app.prolific.com/","en-ZA,en-GB;q=0.9,en-US;q=0.8,en;q=0.7,en-GB-oxendict;q=0.6","605b838b80f022835fc293fb","683db9eb0562dbf637994deb","6880818e6b58325e5ebb7cf2","2","1","605b838b80f022835fc293fb","2","1","2025-07-23T06:34:54.203Z","","","","","","","","","","","PreMotivationQ","","50","","","","","","","","","","","","","","","","","","","","","","","","","","","","",""
"","","","","ctl-task-cpt","9","270708","0.0-5.0-0.0","144","1","2025-07-23 06:30:53","1f75c3e559b7213887762d5229550c2b","102.222.12.73","Mozilla/5.0 (Windows NT 10.0; Win64; x64) AppleWebKit/537.36 (KHTML, like Gecko) Chrome/138.0.0.0 Safari/537.36","WebKit","Chrome","138.0.0.0","Windows","10.0","https://app.prolific.com/","en-ZA,en-GB;q=0.9,en-US;q=0.8,en;q=0.7,en-GB-oxendict;q=0.6","605b838b80f022835fc293fb","683db9eb0562dbf637994deb","6880818e6b58325e5ebb7cf2","2","1","605b838b80f022835fc293fb","2","1","2025-07-23T06:35:25.912Z","","","","","","","","","","","","","","win-only","0","g1:NW,g2:SE","1","1","0","241997.1","2247","7251","28704.7","1","4","8","6","2","8","7","7","0","0.05303030303030303","1420.5","3000","290","[""down"",""right""]","{""num_key_presses"":8,""num_perfect"":7,""num_errors"":1,""num_randdir"":0,""num_randdir_good_moves"":0,""num_whilered"":0,""num_whileblue"":1,""num_blue"":1,""num_good_moves"":7}","[416.5714133126395,417.82142761775424,0.5,416.5714133126395,417.82142761775424,104.8,416.5714133126395,417.82142761775424,205,416.5714133126395,417.82142761775424,312.6,416.5714133126395,417.82142761775424,415.4,416.5714133126395,417.82142761775424,519.2,416.5714133126395,417.82142761775424,627.1,416.5714133126395,417.82142761775424,729.5,664.0714133126395,715.3214276177542,833.2,744.0714133126395,819.0714276177542,935.5,744.0714133126395,815.3214276177542,1037.2,739.0714133126395,810.3214276177542,1137.9,739.0714133126395,810.3214276177542,1239,739.0714133126395,810.3214276177542,1343.8,739.0714133126395,810.3214276177542,1446,739.0714133126395,810.3214276177542,1549.4,739.0714133126395,810.3214276177542,1650,739.0714133126395,810.3214276177542,1751.6,739.0714133126395,810.3214276177542,1852.1,571.5714133126395,646.5714276177542,1954.3,451.5714133126395,460.32142761775424,2055.8,427.8214133126395,366.57142761775424,2160.8,431.5714133126395,366.57142761775424,2262.1,436.5714133126395,391.57142761775424,2368.5,426.5714133126395,401.57142761775424,2469.7,424.0714133126395,402.82142761775424,2574.4,424.0714133126395,402.82142761775424,2676.9,424.0714133126395,402.82142761775424,2779.7,424.0714133126395,402.82142761775424,2880.1,424.0714133126395,402.82142761775424,2983.7,424.0714133126395,402.82142761775424,3084.1,424.0714133126395,402.82142761775424,3184.5,424.0714133126395,402.82142761775424,3289.2,424.0714133126395,402.82142761775424,3392.2,424.0714133126395,402.82142761775424,3495.5,424.0714133126395,402.82142761775424,3599.9,424.0714133126395,402.82142761775424,3721.7,424.0714133126395,402.82142761775424,3825.7,424.0714133126395,402.82142761775424,3928.2,424.0714133126395,402.82142761775424,4029.3,424.0714133126395,402.82142761775424,4135.1,424.0714133126395,402.82142761775424,4239.3,424.0714133126395,402.82142761775424,4339.5,424.0714133126395,402.82142761775424,4440.5,424.0714133126395,402.82142761775424,4544.8,424.0714133126395,402.82142761775424,4648.6,424.0714133126395,402.82142761775424,4748.9,424.0714133126395,402.82142761775424,4849.3,424.0714133126395,402.82142761775424,4953]","[1405.1,1405.1,1000,0,405.1,""smooth"",""right"",""right"",""good_move"",3826.4,2420.7,1996.4,1405.8,424.2,""smooth"",""right"",""right"",""good_move"",6845.8,3019.2,2663.6,3826.6,355.6,""smooth"",""right"",""right"",""good_move"",9740.7,2894.6,2593.4,6846.1,301.2,""while_blue"",""down"",""left"",""bad_move"",12776.1,3034.9,2607.3,9741.2,427.6,""smooth"",""down"",""down"",""good_move"",15522.2,2745.7,2361.4,12776.5,384.3,""smooth"",""down"",""down"",""good_move"",18555.9,3033.2,2607.9,15522.7,425.3,""smooth"",""down"",""down"",""good_move"",21359.3,2803.1,2484.7,18556.2,318.4,""smooth"",""right"",""right"",""good_move""]","",""
"5523","","<div style=""width:500px;"">
  <p>What determined the result of this run?</p>
  </div>","100","html-slider-response","10","276233","0.0-5.0-1.0","144","1","2025-07-23 06:30:53","1f75c3e559b7213887762d5229550c2b","102.222.12.73","Mozilla/5.0 (Windows NT 10.0; Win64; x64) AppleWebKit/537.36 (KHTML, like Gecko) Chrome/138.0.0.0 Safari/537.36","WebKit","Chrome","138.0.0.0","Windows","10.0","https://app.prolific.com/","en-ZA,en-GB;q=0.9,en-US;q=0.8,en;q=0.7,en-GB-oxendict;q=0.6","605b838b80f022835fc293fb","683db9eb0562dbf637994deb","6880818e6b58325e5ebb7cf2","2","1","605b838b80f022835fc293fb","2","1","2025-07-23T06:35:31.437Z","","","","","","","","","","","AttribQ","","50","","","","","","","","","","","","","","","","","","","","","","","","","","","","",""
"3906","","<div style=""width:500px;"">
  <p>How much control did you have over the ball?</p>
  </div>","80","html-slider-response","11","280141","0.0-5.0-2.0","144","1","2025-07-23 06:30:53","1f75c3e559b7213887762d5229550c2b","102.222.12.73","Mozilla/5.0 (Windows NT 10.0; Win64; x64) AppleWebKit/537.36 (KHTML, like Gecko) Chrome/138.0.0.0 Safari/537.36","WebKit","Chrome","138.0.0.0","Windows","10.0","https://app.prolific.com/","en-ZA,en-GB;q=0.9,en-US;q=0.8,en;q=0.7,en-GB-oxendict;q=0.6","605b838b80f022835fc293fb","683db9eb0562dbf637994deb","6880818e6b58325e5ebb7cf2","2","1","605b838b80f022835fc293fb","2","1","2025-07-23T06:35:35.345Z","","","","","","","","","","","ControlQ","","50","","","","","","","","","","","","","","","","","","","","","","","","","","","","",""
"4283","","<div style=""width:500px;"">
  <p>How would you describe your current emotional state?</p>
  </div>","8","html-slider-response","12","284426","0.0-5.0-3.0","144","1","2025-07-23 06:30:53","1f75c3e559b7213887762d5229550c2b","102.222.12.73","Mozilla/5.0 (Windows NT 10.0; Win64; x64) AppleWebKit/537.36 (KHTML, like Gecko) Chrome/138.0.0.0 Safari/537.36","WebKit","Chrome","138.0.0.0","Windows","10.0","https://app.prolific.com/","en-ZA,en-GB;q=0.9,en-US;q=0.8,en;q=0.7,en-GB-oxendict;q=0.6","605b838b80f022835fc293fb","683db9eb0562dbf637994deb","6880818e6b58325e5ebb7cf2","2","1","605b838b80f022835fc293fb","2","1","2025-07-23T06:35:39.630Z","","","","","","","","","","","StressQ","","50","","","","","","","","","","","","","","","","","","","","","","","","","","","","",""
"6565","","<div style=""width:500px;"">
  <p>What best describes how you currently feel?</p>
  </div>","98","html-slider-response","13","290992","0.0-5.0-4.0","144","1","2025-07-23 06:30:53","1f75c3e559b7213887762d5229550c2b","102.222.12.73","Mozilla/5.0 (Windows NT 10.0; Win64; x64) AppleWebKit/537.36 (KHTML, like Gecko) Chrome/138.0.0.0 Safari/537.36","WebKit","Chrome","138.0.0.0","Windows","10.0","https://app.prolific.com/","en-ZA,en-GB;q=0.9,en-US;q=0.8,en;q=0.7,en-GB-oxendict;q=0.6","605b838b80f022835fc293fb","683db9eb0562dbf637994deb","6880818e6b58325e5ebb7cf2","2","1","605b838b80f022835fc293fb","2","1","2025-07-23T06:35:46.196Z","","","","","","","","","","","MotivationQ","","50","","","","","","","","","","","","","","","","","","","","","","","","","","","","",""
"","","","","ctl-task-cpt","14","326359","0.0-5.0-0.1","144","1","2025-07-23 06:30:53","1f75c3e559b7213887762d5229550c2b","102.222.12.73","Mozilla/5.0 (Windows NT 10.0; Win64; x64) AppleWebKit/537.36 (KHTML, like Gecko) Chrome/138.0.0.0 Safari/537.36","WebKit","Chrome","138.0.0.0","Windows","10.0","https://app.prolific.com/","en-ZA,en-GB;q=0.9,en-US;q=0.8,en;q=0.7,en-GB-oxendict;q=0.6","605b838b80f022835fc293fb","683db9eb0562dbf637994deb","6880818e6b58325e5ebb7cf2","2","1","605b838b80f022835fc293fb","2","1","2025-07-23T06:36:21.564Z","","","","","","","","","","","","","","win-only","3","g1:SW,g2:NE","0.9","2","0","293989.6","2044.8","7047.5","32357.3","1","4","4","6","2","-4","-5","2","7","0.015151515151515152","1449","3000","-2925","[""up"",""right""]","{""num_key_presses"":8,""num_perfect"":6,""num_errors"":1,""num_randdir"":1,""num_randdir_good_moves"":0,""num_whilered"":0,""num_whileblue"":1,""num_blue"":1,""num_good_moves"":6}","[416.5714133126395,419.07142761775424,0.2,416.5714133126395,419.07142761775424,101.3,416.5714133126395,419.07142761775424,210,416.5714133126395,419.07142761775424,312.4,416.5714133126395,419.07142761775424,415.9,416.5714133126395,419.07142761775424,522.1,416.5714133126395,419.07142761775424,622.1,416.5714133126395,419.07142761775424,722.5,516.5714133126395,246.57142761775424,824.4,729.0714133126395,129.07142761775424,928,741.5714133126395,126.57142761775425,1032.5,757.8214133126395,121.57142761775425,1136.2,759.0714133126395,121.57142761775425,1236.9,759.0714133126395,121.57142761775425,1342.2,759.0714133126395,121.57142761775425,1442.2,759.0714133126395,121.57142761775425,1542.4,759.0714133126395,121.57142761775425,1646.5,759.0714133126395,121.57142761775425,1752.5,759.0714133126395,121.57142761775425,1857.5,759.0714133126395,121.57142761775425,1957.9,759.0714133126395,121.57142761775425,2058.1,759.0714133126395,121.57142761775425,2161.5,759.0714133126395,121.57142761775425,2263,759.0714133126395,121.57142761775425,2363.7,759.0714133126395,121.57142761775425,2467.7,759.0714133126395,121.57142761775425,2572.7,759.0714133126395,121.57142761775425,2673,759.0714133126395,121.57142761775425,2777.1,759.0714133126395,121.57142761775425,2881.1,759.0714133126395,121.57142761775425,2981.3,759.0714133126395,121.57142761775425,3082.8,759.0714133126395,121.57142761775425,3183.1,759.0714133126395,121.57142761775425,3286.1,759.0714133126395,121.57142761775425,3386.2,759.0714133126395,121.57142761775425,3490.3,759.0714133126395,121.57142761775425,3594.3,759.0714133126395,121.57142761775425,3695,759.0714133126395,121.57142761775425,3795.5,759.0714133126395,121.57142761775425,3895.7,759.0714133126395,121.57142761775425,3995.8,759.0714133126395,121.57142761775425,4097.6,759.0714133126395,121.57142761775425,4201.1,759.0714133126395,121.57142761775425,4301.2,759.0714133126395,121.57142761775425,4407.5,759.0714133126395,121.57142761775425,4511.2,759.0714133126395,121.57142761775425,4611.4,759.0714133126395,121.57142761775425,4712.2,759.0714133126395,121.57142761775425,4815.6,759.0714133126395,121.57142761775425,4915.7]","[1509.5,1509.5,1000,0,509.5,""smooth"",""up"",""up"",""good_move"",4991.8,3481.7,3110.9,1510.1,370.9,""smooth"",""up"",""up"",""good_move"",7938.9,2945.9,2586.6,4993,359.3,""while_blue"",""up"",""left"",""bad_move"",11423.4,3483.5,3097.3,7939.9,386.2,""oops"",""right"",""down"",""bad_move"",13691,2267.1,1906,11423.9,361.1,""smooth"",""right"",""right"",""good_move"",16324.3,2632.8,2250.3,13691.5,382.5,""smooth"",""right"",""right"",""good_move"",19188,2863.4,2457.5,16324.6,405.9,""smooth"",""right"",""right"",""good_move"",22059.9,2871.6,2506.1,19188.3,365.5,""smooth"",""up"",""up"",""good_move""]","",""
"5964","","<div style=""width:500px;"">
  <p>What determined the result of this run?</p>
  </div>","95","html-slider-response","15","332326","0.0-5.0-1.1","144","1","2025-07-23 06:30:53","1f75c3e559b7213887762d5229550c2b","102.222.12.73","Mozilla/5.0 (Windows NT 10.0; Win64; x64) AppleWebKit/537.36 (KHTML, like Gecko) Chrome/138.0.0.0 Safari/537.36","WebKit","Chrome","138.0.0.0","Windows","10.0","https://app.prolific.com/","en-ZA,en-GB;q=0.9,en-US;q=0.8,en;q=0.7,en-GB-oxendict;q=0.6","605b838b80f022835fc293fb","683db9eb0562dbf637994deb","6880818e6b58325e5ebb7cf2","2","1","605b838b80f022835fc293fb","2","1","2025-07-23T06:36:27.530Z","","","","","","","","","","","AttribQ","","50","","","","","","","","","","","","","","","","","","","","","","","","","","","","",""
"5497","","<div style=""width:500px;"">
  <p>How much control did you have over the ball?</p>
  </div>","71","html-slider-response","16","337824","0.0-5.0-2.1","144","1","2025-07-23 06:30:53","1f75c3e559b7213887762d5229550c2b","102.222.12.73","Mozilla/5.0 (Windows NT 10.0; Win64; x64) AppleWebKit/537.36 (KHTML, like Gecko) Chrome/138.0.0.0 Safari/537.36","WebKit","Chrome","138.0.0.0","Windows","10.0","https://app.prolific.com/","en-ZA,en-GB;q=0.9,en-US;q=0.8,en;q=0.7,en-GB-oxendict;q=0.6","605b838b80f022835fc293fb","683db9eb0562dbf637994deb","6880818e6b58325e5ebb7cf2","2","1","605b838b80f022835fc293fb","2","1","2025-07-23T06:36:33.028Z","","","","","","","","","","","ControlQ","","50","","","","","","","","","","","","","","","","","","","","","","","","","","","","",""
"6645","","<div style=""width:500px;"">
  <p>How would you describe your current emotional state?</p>
  </div>","20","html-slider-response","17","344471","0.0-5.0-3.1","144","1","2025-07-23 06:30:53","1f75c3e559b7213887762d5229550c2b","102.222.12.73","Mozilla/5.0 (Windows NT 10.0; Win64; x64) AppleWebKit/537.36 (KHTML, like Gecko) Chrome/138.0.0.0 Safari/537.36","WebKit","Chrome","138.0.0.0","Windows","10.0","https://app.prolific.com/","en-ZA,en-GB;q=0.9,en-US;q=0.8,en;q=0.7,en-GB-oxendict;q=0.6","605b838b80f022835fc293fb","683db9eb0562dbf637994deb","6880818e6b58325e5ebb7cf2","2","1","605b838b80f022835fc293fb","2","1","2025-07-23T06:36:39.675Z","","","","","","","","","","","StressQ","","50","","","","","","","","","","","","","","","","","","","","","","","","","","","","",""
"3937","","<div style=""width:500px;"">
  <p>What best describes how you currently feel?</p>
  </div>","82","html-slider-response","18","348409","0.0-5.0-4.1","144","1","2025-07-23 06:30:53","1f75c3e559b7213887762d5229550c2b","102.222.12.73","Mozilla/5.0 (Windows NT 10.0; Win64; x64) AppleWebKit/537.36 (KHTML, like Gecko) Chrome/138.0.0.0 Safari/537.36","WebKit","Chrome","138.0.0.0","Windows","10.0","https://app.prolific.com/","en-ZA,en-GB;q=0.9,en-US;q=0.8,en;q=0.7,en-GB-oxendict;q=0.6","605b838b80f022835fc293fb","683db9eb0562dbf637994deb","6880818e6b58325e5ebb7cf2","2","1","605b838b80f022835fc293fb","2","1","2025-07-23T06:36:43.613Z","","","","","","","","","","","MotivationQ","","50","","","","","","","","","","","","","","","","","","","","","","","","","","","","",""
"","","","","ctl-task-cpt","19","378783","0.0-5.0-0.2","144","1","2025-07-23 06:30:53","1f75c3e559b7213887762d5229550c2b","102.222.12.73","Mozilla/5.0 (Windows NT 10.0; Win64; x64) AppleWebKit/537.36 (KHTML, like Gecko) Chrome/138.0.0.0 Safari/537.36","WebKit","Chrome","138.0.0.0","Windows","10.0","https://app.prolific.com/","en-ZA,en-GB;q=0.9,en-US;q=0.8,en;q=0.7,en-GB-oxendict;q=0.6","605b838b80f022835fc293fb","683db9eb0562dbf637994deb","6880818e6b58325e5ebb7cf2","2","1","605b838b80f022835fc293fb","2","1","2025-07-23T06:37:13.987Z","","","","","","","","","","","","","","win-only","2","g1:SE,g2:NW","0.8","3","0","351408","1644.9","6647.1","27356.3","1","4","4","6","2","4","4","6","2","0.045454545454545456","1833.9","3000","800","[""left"",""up""]","{""num_key_presses"":6,""num_perfect"":6,""num_errors"":0,""num_randdir"":0,""num_randdir_good_moves"":0,""num_whilered"":0,""num_whileblue"":0,""num_blue"":1,""num_good_moves"":6}","[426.5714133126395,412.82142761775424,0.2,426.5714133126395,412.82142761775424,102.9,426.5714133126395,412.82142761775424,204.4,426.5714133126395,412.82142761775424,307.8,426.5714133126395,412.82142761775424,413.2,426.5714133126395,412.82142761775424,513.4,426.5714133126395,412.82142761775424,619.5,391.5714133126395,400.32142761775424,721.3,255.3214133126395,304.07142761775424,828.4,96.5714133126395,4.071427617754253,929.1,59.07141331263951,-23.428572382245747,1029.8,49.07141331263951,-33.42857238224575,1133.4,51.57141331263951,-23.428572382245747,1236.4,67.8214133126395,26.571427617754253,1344.1,74.0714133126395,54.07142761775425,1444.2,75.3214133126395,66.57142761775425,1545.8,75.3214133126395,66.57142761775425,1648.6,75.3214133126395,66.57142761775425,1751.3,75.3214133126395,66.57142761775425,1851.4,75.3214133126395,66.57142761775425,1952.4,75.3214133126395,66.57142761775425,2058,75.3214133126395,66.57142761775425,2158.4,75.3214133126395,66.57142761775425,2263.9,75.3214133126395,66.57142761775425,2366.8,75.3214133126395,66.57142761775425,2467.1,75.3214133126395,66.57142761775425,2575.5,75.3214133126395,66.57142761775425,2682.1,75.3214133126395,66.57142761775425,2782.3,75.3214133126395,66.57142761775425,2884.7,75.3214133126395,66.57142761775425,2987.5,75.3214133126395,66.57142761775425,3088.3,75.3214133126395,66.57142761775425,3195.8,75.3214133126395,66.57142761775425,3296.6,75.3214133126395,66.57142761775425,3400.1,75.3214133126395,66.57142761775425,3504.3,75.3214133126395,66.57142761775425,3615.5,75.3214133126395,66.57142761775425,3719,75.3214133126395,66.57142761775425,3824.1,75.3214133126395,66.57142761775425,3929,75.3214133126395,66.57142761775425,4033.1,75.3214133126395,66.57142761775425,4133.2,75.3214133126395,66.57142761775425,4233.3,75.3214133126395,66.57142761775425,4333.6,75.3214133126395,66.57142761775425,4436,75.3214133126395,66.57142761775425,4543.4,75.3214133126395,66.57142761775425,4645.9,75.3214133126395,66.57142761775425,4747.7,75.3214133126395,66.57142761775425,4851.4,75.3214133126395,66.57142761775425,4951.5]","[5456.9,5456.9,3019.5,2009.8,427.6,""smooth"",""up"",""up"",""good_move"",9014.9,3557,3186.4,5457.9,370.6,""smooth"",""up"",""up"",""good_move"",11977.6,2962.3,2537.6,9015.3,424.7,""smooth"",""left"",""left"",""good_move"",14790.9,2812.5,2420.1,11978.4,392.4,""smooth"",""left"",""left"",""good_move"",17696.2,2904.3,2523.5,14791.9,380.8,""smooth"",""left"",""left"",""good_move"",20610.8,2914.3,2505.1,17696.5,409.2,""smooth"",""up"",""up"",""good_move""]","",""
"6284","","<div style=""width:500px;"">
  <p>What determined the result of this run?</p>
  </div>","100","html-slider-response","20","385068","0.0-5.0-1.2","144","1","2025-07-23 06:30:53","1f75c3e559b7213887762d5229550c2b","102.222.12.73","Mozilla/5.0 (Windows NT 10.0; Win64; x64) AppleWebKit/537.36 (KHTML, like Gecko) Chrome/138.0.0.0 Safari/537.36","WebKit","Chrome","138.0.0.0","Windows","10.0","https://app.prolific.com/","en-ZA,en-GB;q=0.9,en-US;q=0.8,en;q=0.7,en-GB-oxendict;q=0.6","605b838b80f022835fc293fb","683db9eb0562dbf637994deb","6880818e6b58325e5ebb7cf2","2","1","605b838b80f022835fc293fb","2","1","2025-07-23T06:37:20.272Z","","","","","","","","","","","AttribQ","","50","","","","","","","","","","","","","","","","","","","","","","","","","","","","",""
"4845","","<div style=""width:500px;"">
  <p>How much control did you have over the ball?</p>
  </div>","80","html-slider-response","21","389915","0.0-5.0-2.2","144","1","2025-07-23 06:30:53","1f75c3e559b7213887762d5229550c2b","102.222.12.73","Mozilla/5.0 (Windows NT 10.0; Win64; x64) AppleWebKit/537.36 (KHTML, like Gecko) Chrome/138.0.0.0 Safari/537.36","WebKit","Chrome","138.0.0.0","Windows","10.0","https://app.prolific.com/","en-ZA,en-GB;q=0.9,en-US;q=0.8,en;q=0.7,en-GB-oxendict;q=0.6","605b838b80f022835fc293fb","683db9eb0562dbf637994deb","6880818e6b58325e5ebb7cf2","2","1","605b838b80f022835fc293fb","2","1","2025-07-23T06:37:25.119Z","","","","","","","","","","","ControlQ","","50","","","","","","","","","","","","","","","","","","","","","","","","","","","","",""
"6020","","<div style=""width:500px;"">
  <p>How would you describe your current emotional state?</p>
  </div>","18","html-slider-response","22","395938","0.0-5.0-3.2","144","1","2025-07-23 06:30:53","1f75c3e559b7213887762d5229550c2b","102.222.12.73","Mozilla/5.0 (Windows NT 10.0; Win64; x64) AppleWebKit/537.36 (KHTML, like Gecko) Chrome/138.0.0.0 Safari/537.36","WebKit","Chrome","138.0.0.0","Windows","10.0","https://app.prolific.com/","en-ZA,en-GB;q=0.9,en-US;q=0.8,en;q=0.7,en-GB-oxendict;q=0.6","605b838b80f022835fc293fb","683db9eb0562dbf637994deb","6880818e6b58325e5ebb7cf2","2","1","605b838b80f022835fc293fb","2","1","2025-07-23T06:37:31.142Z","","","","","","","","","","","StressQ","","50","","","","","","","","","","","","","","","","","","","","","","","","","","","","",""
"4664","","<div style=""width:500px;"">
  <p>What best describes how you currently feel?</p>
  </div>","91","html-slider-response","23","400604","0.0-5.0-4.2","144","1","2025-07-23 06:30:53","1f75c3e559b7213887762d5229550c2b","102.222.12.73","Mozilla/5.0 (Windows NT 10.0; Win64; x64) AppleWebKit/537.36 (KHTML, like Gecko) Chrome/138.0.0.0 Safari/537.36","WebKit","Chrome","138.0.0.0","Windows","10.0","https://app.prolific.com/","en-ZA,en-GB;q=0.9,en-US;q=0.8,en;q=0.7,en-GB-oxendict;q=0.6","605b838b80f022835fc293fb","683db9eb0562dbf637994deb","6880818e6b58325e5ebb7cf2","2","1","605b838b80f022835fc293fb","2","1","2025-07-23T06:37:35.808Z","","","","","","","","","","","MotivationQ","","50","","","","","","","","","","","","","","","","","","","","","","","","","","","","",""
"","","","","ctl-task-cpt","24","427355","0.0-5.0-0.3","144","1","2025-07-23 06:30:53","1f75c3e559b7213887762d5229550c2b","102.222.12.73","Mozilla/5.0 (Windows NT 10.0; Win64; x64) AppleWebKit/537.36 (KHTML, like Gecko) Chrome/138.0.0.0 Safari/537.36","WebKit","Chrome","138.0.0.0","Windows","10.0","https://app.prolific.com/","en-ZA,en-GB;q=0.9,en-US;q=0.8,en;q=0.7,en-GB-oxendict;q=0.6","605b838b80f022835fc293fb","683db9eb0562dbf637994deb","6880818e6b58325e5ebb7cf2","2","1","605b838b80f022835fc293fb","2","1","2025-07-23T06:38:02.559Z","","","","","","","","","","","","","","win-only","1","g1:NE,g2:SW","0.7","4","0","403603","1664.8","6668.9","23731.5","1","4","8","6","2","8","8","14","6","0.10606060606060606","1454.2","3000","940","[""down"",""left""]","{""num_key_presses"":6,""num_perfect"":5,""num_errors"":0,""num_randdir"":1,""num_randdir_good_moves"":1,""num_whilered"":0,""num_whileblue"":0,""num_blue"":0,""num_good_moves"":6}","[416.5714133126395,419.07142761775424,0.5,416.5714133126395,419.07142761775424,107.5,416.5714133126395,419.07142761775424,208.3,416.5714133126395,419.07142761775424,308.5,416.5714133126395,419.07142761775424,410.9,416.5714133126395,419.07142761775424,511.7,402.8214133126395,396.57142761775424,612,346.5714133126395,382.82142761775424,721.1,156.5714133126395,754.0714276177542,825,121.5714133126395,821.5714276177542,925.6,106.5714133126395,801.5714276177542,1026.4,94.0714133126395,765.3214276177542,1134.6,94.0714133126395,765.3214276177542,1236.1,94.0714133126395,765.3214276177542,1338.3,94.0714133126395,765.3214276177542,1442.5,94.0714133126395,765.3214276177542,1549.4,94.0714133126395,765.3214276177542,1655.6,94.0714133126395,765.3214276177542,1757.6,94.0714133126395,765.3214276177542,1858.2,94.0714133126395,765.3214276177542,1964.3,94.0714133126395,765.3214276177542,2069.3,94.0714133126395,765.3214276177542,2170.1,94.0714133126395,765.3214276177542,2273.8,94.0714133126395,765.3214276177542,2379.1,94.0714133126395,765.3214276177542,2483.5,94.0714133126395,765.3214276177542,2585.4,94.0714133126395,765.3214276177542,2688.4,94.0714133126395,765.3214276177542,2788.4,94.0714133126395,765.3214276177542,2892.6,94.0714133126395,765.3214276177542,3000.5,94.0714133126395,765.3214276177542,3105.3,94.0714133126395,765.3214276177542,3206.5,94.0714133126395,765.3214276177542,3315.2,94.0714133126395,765.3214276177542,3423,94.0714133126395,765.3214276177542,3523.3,94.0714133126395,765.3214276177542,3626.3,94.0714133126395,765.3214276177542,3733.5,94.0714133126395,765.3214276177542,3835.3,94.0714133126395,765.3214276177542,3937.7,94.0714133126395,765.3214276177542,4040,94.0714133126395,765.3214276177542,4141.8,94.0714133126395,765.3214276177542,4247.5,94.0714133126395,765.3214276177542,4350.4,94.0714133126395,765.3214276177542,4454.8,94.0714133126395,765.3214276177542,4555.1,94.0714133126395,765.3214276177542,4655.8,94.0714133126395,765.3214276177542,4757.5,94.0714133126395,765.3214276177542,4863.5,94.0714133126395,765.3214276177542,4965.5]","[1451.9,1451.9,1000,0,451.9,""smooth"",""down"",""down"",""good_move"",4551.1,3098.7,2739.2,1452.4,359.5,""smooth"",""down"",""down"",""good_move"",7568.5,3017.2,2607.7,4551.3,409.5,""smooth"",""left"",""left"",""good_move"",10414.3,2845.2,2412.3,7569.1,432.9,""smooth"",""left"",""left"",""good_move"",13547.9,3133.3,2694.3,10414.6,439,""smooth"",""left"",""left"",""good_move"",16906.6,3358.4,2985.9,13548.2,372.5,""oops"",""down"",""down"",""good_move""]","",""
"7828","","<div style=""width:500px;"">
  <p>What determined the result of this run?</p>
  </div>","100","html-slider-response","25","435184","0.0-5.0-1.3","144","1","2025-07-23 06:30:53","1f75c3e559b7213887762d5229550c2b","102.222.12.73","Mozilla/5.0 (Windows NT 10.0; Win64; x64) AppleWebKit/537.36 (KHTML, like Gecko) Chrome/138.0.0.0 Safari/537.36","WebKit","Chrome","138.0.0.0","Windows","10.0","https://app.prolific.com/","en-ZA,en-GB;q=0.9,en-US;q=0.8,en;q=0.7,en-GB-oxendict;q=0.6","605b838b80f022835fc293fb","683db9eb0562dbf637994deb","6880818e6b58325e5ebb7cf2","2","1","605b838b80f022835fc293fb","2","1","2025-07-23T06:38:10.388Z","","","","","","","","","","","AttribQ","","50","","","","","","","","","","","","","","","","","","","","","","","","","","","","",""
"3735","","<div style=""width:500px;"">
  <p>How much control did you have over the ball?</p>
  </div>","91","html-slider-response","26","438922","0.0-5.0-2.3","144","1","2025-07-23 06:30:53","1f75c3e559b7213887762d5229550c2b","102.222.12.73","Mozilla/5.0 (Windows NT 10.0; Win64; x64) AppleWebKit/537.36 (KHTML, like Gecko) Chrome/138.0.0.0 Safari/537.36","WebKit","Chrome","138.0.0.0","Windows","10.0","https://app.prolific.com/","en-ZA,en-GB;q=0.9,en-US;q=0.8,en;q=0.7,en-GB-oxendict;q=0.6","605b838b80f022835fc293fb","683db9eb0562dbf637994deb","6880818e6b58325e5ebb7cf2","2","1","605b838b80f022835fc293fb","2","1","2025-07-23T06:38:14.126Z","","","","","","","","","","","ControlQ","","50","","","","","","","","","","","","","","","","","","","","","","","","","","","","",""
"3634","","<div style=""width:500px;"">
  <p>How would you describe your current emotional state?</p>
  </div>","3","html-slider-response","27","442558","0.0-5.0-3.3","144","1","2025-07-23 06:30:53","1f75c3e559b7213887762d5229550c2b","102.222.12.73","Mozilla/5.0 (Windows NT 10.0; Win64; x64) AppleWebKit/537.36 (KHTML, like Gecko) Chrome/138.0.0.0 Safari/537.36","WebKit","Chrome","138.0.0.0","Windows","10.0","https://app.prolific.com/","en-ZA,en-GB;q=0.9,en-US;q=0.8,en;q=0.7,en-GB-oxendict;q=0.6","605b838b80f022835fc293fb","683db9eb0562dbf637994deb","6880818e6b58325e5ebb7cf2","2","1","605b838b80f022835fc293fb","2","1","2025-07-23T06:38:17.762Z","","","","","","","","","","","StressQ","","50","","","","","","","","","","","","","","","","","","","","","","","","","","","","",""
"3699","","<div style=""width:500px;"">
  <p>What best describes how you currently feel?</p>
  </div>","87","html-slider-response","28","446259","0.0-5.0-4.3","144","1","2025-07-23 06:30:53","1f75c3e559b7213887762d5229550c2b","102.222.12.73","Mozilla/5.0 (Windows NT 10.0; Win64; x64) AppleWebKit/537.36 (KHTML, like Gecko) Chrome/138.0.0.0 Safari/537.36","WebKit","Chrome","138.0.0.0","Windows","10.0","https://app.prolific.com/","en-ZA,en-GB;q=0.9,en-US;q=0.8,en;q=0.7,en-GB-oxendict;q=0.6","605b838b80f022835fc293fb","683db9eb0562dbf637994deb","6880818e6b58325e5ebb7cf2","2","1","605b838b80f022835fc293fb","2","1","2025-07-23T06:38:21.463Z","","","","","","","","","","","MotivationQ","","50","","","","","","","","","","","","","","","","","","","","","","","","","","","","",""
"","","","","ctl-task-cpt","29","495573","0.0-5.0-0.4","144","1","2025-07-23 06:30:53","1f75c3e559b7213887762d5229550c2b","102.222.12.73","Mozilla/5.0 (Windows NT 10.0; Win64; x64) AppleWebKit/537.36 (KHTML, like Gecko) Chrome/138.0.0.0 Safari/537.36","WebKit","Chrome","138.0.0.0","Windows","10.0","https://app.prolific.com/","en-ZA,en-GB;q=0.9,en-US;q=0.8,en;q=0.7,en-GB-oxendict;q=0.6","605b838b80f022835fc293fb","683db9eb0562dbf637994deb","6880818e6b58325e5ebb7cf2","2","1","605b838b80f022835fc293fb","2","1","2025-07-23T06:39:10.777Z","","","","","","","","","","","","","","win-only","0","g1:NW,g2:SE","0.6","5","0","449259.3","1486.6","6491.9","46294","1","4","4","6","2","4","3","17","14","0.12878787878787878","1118.3","3000","835","[""down"",""right""]","{""num_key_presses"":14,""num_perfect"":7,""num_errors"":1,""num_randdir"":6,""num_randdir_good_moves"":3,""num_whilered"":0,""num_whileblue"":1,""num_blue"":1,""num_good_moves"":10}","[419.0714133126395,416.57142761775424,0,419.0714133126395,416.57142761775424,103.5,419.0714133126395,416.57142761775424,206.4,419.0714133126395,416.57142761775424,311.4,419.0714133126395,416.57142761775424,419.2,421.5714133126395,397.82142761775424,520.8,596.5714133126395,567.8214276177542,626.1,800.3214133126395,736.5714276177542,736.2,802.8214133126395,737.8214276177542,845.4,802.8214133126395,737.8214276177542,952.3,802.8214133126395,737.8214276177542,1059.3,802.8214133126395,737.8214276177542,1168.6,802.8214133126395,737.8214276177542,1270.5,802.8214133126395,737.8214276177542,1371.8,802.8214133126395,737.8214276177542,1482.7,802.8214133126395,737.8214276177542,1585.3,802.8214133126395,737.8214276177542,1688.4,802.8214133126395,737.8214276177542,1798.5,802.8214133126395,737.8214276177542,1903.3,802.8214133126395,737.8214276177542,2008.7,802.8214133126395,737.8214276177542,2115.3,802.8214133126395,737.8214276177542,2215.7,802.8214133126395,737.8214276177542,2323.6,802.8214133126395,737.8214276177542,2430.7,802.8214133126395,737.8214276177542,2533.7,802.8214133126395,737.8214276177542,2642.4,802.8214133126395,737.8214276177542,2750.9,802.8214133126395,737.8214276177542,2866.8,802.8214133126395,737.8214276177542,2968.4,802.8214133126395,737.8214276177542,3078.5,802.8214133126395,737.8214276177542,3183.3,802.8214133126395,737.8214276177542,3292.5,802.8214133126395,737.8214276177542,3396,802.8214133126395,737.8214276177542,3499.2,802.8214133126395,737.8214276177542,3603.9,802.8214133126395,737.8214276177542,3704,802.8214133126395,737.8214276177542,3811,802.8214133126395,737.8214276177542,3915.7,802.8214133126395,737.8214276177542,4016,802.8214133126395,737.8214276177542,4125.2,802.8214133126395,737.8214276177542,4232.3,802.8214133126395,737.8214276177542,4336.5,802.8214133126395,737.8214276177542,4445.2,802.8214133126395,737.8214276177542,4550.6,802.8214133126395,737.8214276177542,4653.5,802.8214133126395,737.8214276177542,4759.5,802.8214133126395,737.8214276177542,4862.5,802.8214133126395,737.8214276177542,4970.2]","[1252.3,1252.3,1000,0,252.3,""smooth"",""right"",""right"",""good_move"",3836.7,2583.9,2173.7,1252.8,410.2,""oops"",""right"",""up"",""bad_move"",6445.5,2608.3,2280.7,3837.2,327.6,""oops"",""down"",""down"",""good_move"",9292.5,2846.6,2482.5,6445.9,364.1,""smooth"",""down"",""down"",""good_move"",12817.4,3524.2,3138.6,9293.2,385.6,""smooth"",""down"",""down"",""good_move"",15292.8,2475,2116.3,12817.8,358.7,""while_blue"",""right"",""up"",""bad_move"",17788.2,2494.5,2074.6,15293.7,419.9,""smooth"",""down"",""down"",""good_move"",21045,3256.6,2789.7,17788.5,466.9,""oops"",""down"",""left"",""bad_move"",23727.1,2680.7,2231.9,21046.4,448.9,""smooth"",""right"",""right"",""good_move"",27495.5,3767.4,3376.1,23728.1,391.3,""oops"",""right"",""up"",""bad_move"",30813.2,3317.4,2899.9,27495.8,417.5,""smooth"",""down"",""down"",""good_move"",34098,3284.7,2924.9,30813.4,359.8,""oops"",""down"",""down"",""good_move"",36863.1,2764.8,2365.5,34098.3,399.3,""smooth"",""right"",""right"",""good_move"",39668,2804.6,2312.8,36863.4,491.8,""oops"",""right"",""right"",""good_move""]","",""
"4264","","<div style=""width:500px;"">
  <p>What determined the result of this run?</p>
  </div>","89","html-slider-response","30","499839","0.0-5.0-1.4","144","1","2025-07-23 06:30:53","1f75c3e559b7213887762d5229550c2b","102.222.12.73","Mozilla/5.0 (Windows NT 10.0; Win64; x64) AppleWebKit/537.36 (KHTML, like Gecko) Chrome/138.0.0.0 Safari/537.36","WebKit","Chrome","138.0.0.0","Windows","10.0","https://app.prolific.com/","en-ZA,en-GB;q=0.9,en-US;q=0.8,en;q=0.7,en-GB-oxendict;q=0.6","605b838b80f022835fc293fb","683db9eb0562dbf637994deb","6880818e6b58325e5ebb7cf2","2","1","605b838b80f022835fc293fb","2","1","2025-07-23T06:39:15.043Z","","","","","","","","","","","AttribQ","","50","","","","","","","","","","","","","","","","","","","","","","","","","","","","",""
"4338","","<div style=""width:500px;"">
  <p>How much control did you have over the ball?</p>
  </div>","86","html-slider-response","31","504178","0.0-5.0-2.4","144","1","2025-07-23 06:30:53","1f75c3e559b7213887762d5229550c2b","102.222.12.73","Mozilla/5.0 (Windows NT 10.0; Win64; x64) AppleWebKit/537.36 (KHTML, like Gecko) Chrome/138.0.0.0 Safari/537.36","WebKit","Chrome","138.0.0.0","Windows","10.0","https://app.prolific.com/","en-ZA,en-GB;q=0.9,en-US;q=0.8,en;q=0.7,en-GB-oxendict;q=0.6","605b838b80f022835fc293fb","683db9eb0562dbf637994deb","6880818e6b58325e5ebb7cf2","2","1","605b838b80f022835fc293fb","2","1","2025-07-23T06:39:19.383Z","","","","","","","","","","","ControlQ","","50","","","","","","","","","","","","","","","","","","","","","","","","","","","","",""
"4127","","<div style=""width:500px;"">
  <p>How would you describe your current emotional state?</p>
  </div>","19","html-slider-response","32","508307","0.0-5.0-3.4","144","1","2025-07-23 06:30:53","1f75c3e559b7213887762d5229550c2b","102.222.12.73","Mozilla/5.0 (Windows NT 10.0; Win64; x64) AppleWebKit/537.36 (KHTML, like Gecko) Chrome/138.0.0.0 Safari/537.36","WebKit","Chrome","138.0.0.0","Windows","10.0","https://app.prolific.com/","en-ZA,en-GB;q=0.9,en-US;q=0.8,en;q=0.7,en-GB-oxendict;q=0.6","605b838b80f022835fc293fb","683db9eb0562dbf637994deb","6880818e6b58325e5ebb7cf2","2","1","605b838b80f022835fc293fb","2","1","2025-07-23T06:39:23.511Z","","","","","","","","","","","StressQ","","50","","","","","","","","","","","","","","","","","","","","","","","","","","","","",""
"4182","","<div style=""width:500px;"">
  <p>What best describes how you currently feel?</p>
  </div>","79","html-slider-response","33","512492","0.0-5.0-4.4","144","1","2025-07-23 06:30:53","1f75c3e559b7213887762d5229550c2b","102.222.12.73","Mozilla/5.0 (Windows NT 10.0; Win64; x64) AppleWebKit/537.36 (KHTML, like Gecko) Chrome/138.0.0.0 Safari/537.36","WebKit","Chrome","138.0.0.0","Windows","10.0","https://app.prolific.com/","en-ZA,en-GB;q=0.9,en-US;q=0.8,en;q=0.7,en-GB-oxendict;q=0.6","605b838b80f022835fc293fb","683db9eb0562dbf637994deb","6880818e6b58325e5ebb7cf2","2","1","605b838b80f022835fc293fb","2","1","2025-07-23T06:39:27.696Z","","","","","","","","","","","MotivationQ","","50","","","","","","","","","","","","","","","","","","","","","","","","","","","","",""
"","","","","ctl-task-cpt","34","538029","0.0-5.0-0.5","144","1","2025-07-23 06:30:53","1f75c3e559b7213887762d5229550c2b","102.222.12.73","Mozilla/5.0 (Windows NT 10.0; Win64; x64) AppleWebKit/537.36 (KHTML, like Gecko) Chrome/138.0.0.0 Safari/537.36","WebKit","Chrome","138.0.0.0","Windows","10.0","https://app.prolific.com/","en-ZA,en-GB;q=0.9,en-US;q=0.8,en;q=0.7,en-GB-oxendict;q=0.6","605b838b80f022835fc293fb","683db9eb0562dbf637994deb","6880818e6b58325e5ebb7cf2","2","1","605b838b80f022835fc293fb","2","1","2025-07-23T06:39:53.233Z","","","","","","","","","","","","","","win-only","2","g1:SE,g2:NW","0.5","6","0","515491","1307.2","6318.1","22509.6","1","4","8","6","2","8","8","25","17","0.1893939393939394","1251","3000","1905","[""left"",""up""]","{""num_key_presses"":6,""num_perfect"":4,""num_errors"":0,""num_randdir"":2,""num_randdir_good_moves"":2,""num_whilered"":0,""num_whileblue"":0,""num_blue"":0,""num_good_moves"":6}","[414.0714133126395,422.82142761775424,0.3,414.0714133126395,422.82142761775424,103.8,414.0714133126395,422.82142761775424,207.1,414.0714133126395,422.82142761775424,310,414.0714133126395,422.82142761775424,415.7,349.0714133126395,326.57142761775424,524.8,139.0714133126395,156.57142761775424,632.5,121.5714133126395,131.57142761775424,738.2,119.0714133126395,127.82142761775425,849.8,109.0714133126395,121.57142761775425,953.3,102.8214133126395,115.32142761775425,1057.6,102.8214133126395,115.32142761775425,1162.7,102.8214133126395,115.32142761775425,1266.4,102.8214133126395,115.32142761775425,1370.4,102.8214133126395,115.32142761775425,1485.7,102.8214133126395,115.32142761775425,1586.2,102.8214133126395,115.32142761775425,1693,135.3214133126395,154.07142761775424,1799.2,181.5714133126395,221.57142761775424,1902.1,206.5714133126395,269.07142761775424,2004.2,206.5714133126395,269.07142761775424,2108.7,206.5714133126395,269.07142761775424,2227.3,206.5714133126395,269.07142761775424,2335.3,206.5714133126395,269.07142761775424,2442.3,206.5714133126395,269.07142761775424,2546.2,206.5714133126395,269.07142761775424,2655.3,206.5714133126395,269.07142761775424,2763.3,206.5714133126395,269.07142761775424,2872.1,206.5714133126395,269.07142761775424,2973.3,206.5714133126395,269.07142761775424,3074.2,206.5714133126395,269.07142761775424,3176.5,206.5714133126395,269.07142761775424,3282.6,206.5714133126395,269.07142761775424,3390.2,206.5714133126395,269.07142761775424,3500.4,206.5714133126395,269.07142761775424,3602.6,206.5714133126395,269.07142761775424,3714.2,206.5714133126395,269.07142761775424,3817.7,206.5714133126395,269.07142761775424,3925.2,206.5714133126395,269.07142761775424,4040.8,206.5714133126395,269.07142761775424,4147,206.5714133126395,269.07142761775424,4247.3,206.5714133126395,269.07142761775424,4349.8,206.5714133126395,269.07142761775424,4458.2,206.5714133126395,269.07142761775424,4559.4,206.5714133126395,269.07142761775424,4665.6,206.5714133126395,269.07142761775424,4768.1,206.5714133126395,269.07142761775424,4869.2,206.5714133126395,269.07142761775424,4969.2]","[1436.7,1436.7,1000,0,436.7,""smooth"",""left"",""left"",""good_move"",4444.7,3007.2,2503.1,1437.5,504.1,""smooth"",""up"",""up"",""good_move"",7043.8,2598.7,1997.8,4445.1,600.9,""oops"",""up"",""left"",""good_move"",10294.4,3250.4,2888,7044,362.4,""oops"",""up"",""left"",""good_move"",13220.5,2925.8,2467.8,10294.7,458,""smooth"",""up"",""up"",""good_move"",16034.5,2813.8,2467.7,13220.7,346.1,""smooth"",""up"",""up"",""good_move""]","",""
"3458","","<div style=""width:500px;"">
  <p>What determined the result of this run?</p>
  </div>","97","html-slider-response","35","541488","0.0-5.0-1.5","144","1","2025-07-23 06:30:53","1f75c3e559b7213887762d5229550c2b","102.222.12.73","Mozilla/5.0 (Windows NT 10.0; Win64; x64) AppleWebKit/537.36 (KHTML, like Gecko) Chrome/138.0.0.0 Safari/537.36","WebKit","Chrome","138.0.0.0","Windows","10.0","https://app.prolific.com/","en-ZA,en-GB;q=0.9,en-US;q=0.8,en;q=0.7,en-GB-oxendict;q=0.6","605b838b80f022835fc293fb","683db9eb0562dbf637994deb","6880818e6b58325e5ebb7cf2","2","1","605b838b80f022835fc293fb","2","1","2025-07-23T06:39:56.693Z","","","","","","","","","","","AttribQ","","50","","","","","","","","","","","","","","","","","","","","","","","","","","","","",""
"2914","","<div style=""width:500px;"">
  <p>How much control did you have over the ball?</p>
  </div>","86","html-slider-response","36","544405","0.0-5.0-2.5","144","1","2025-07-23 06:30:53","1f75c3e559b7213887762d5229550c2b","102.222.12.73","Mozilla/5.0 (Windows NT 10.0; Win64; x64) AppleWebKit/537.36 (KHTML, like Gecko) Chrome/138.0.0.0 Safari/537.36","WebKit","Chrome","138.0.0.0","Windows","10.0","https://app.prolific.com/","en-ZA,en-GB;q=0.9,en-US;q=0.8,en;q=0.7,en-GB-oxendict;q=0.6","605b838b80f022835fc293fb","683db9eb0562dbf637994deb","6880818e6b58325e5ebb7cf2","2","1","605b838b80f022835fc293fb","2","1","2025-07-23T06:39:59.609Z","","","","","","","","","","","ControlQ","","50","","","","","","","","","","","","","","","","","","","","","","","","","","","","",""
"5048","","<div style=""width:500px;"">
  <p>How would you describe your current emotional state?</p>
  </div>","10","html-slider-response","37","549454","0.0-5.0-3.5","144","1","2025-07-23 06:30:53","1f75c3e559b7213887762d5229550c2b","102.222.12.73","Mozilla/5.0 (Windows NT 10.0; Win64; x64) AppleWebKit/537.36 (KHTML, like Gecko) Chrome/138.0.0.0 Safari/537.36","WebKit","Chrome","138.0.0.0","Windows","10.0","https://app.prolific.com/","en-ZA,en-GB;q=0.9,en-US;q=0.8,en;q=0.7,en-GB-oxendict;q=0.6","605b838b80f022835fc293fb","683db9eb0562dbf637994deb","6880818e6b58325e5ebb7cf2","2","1","605b838b80f022835fc293fb","2","1","2025-07-23T06:40:04.659Z","","","","","","","","","","","StressQ","","50","","","","","","","","","","","","","","","","","","","","","","","","","","","","",""
"3211","","<div style=""width:500px;"">
  <p>What best describes how you currently feel?</p>
  </div>","79","html-slider-response","38","552667","0.0-5.0-4.5","144","1","2025-07-23 06:30:53","1f75c3e559b7213887762d5229550c2b","102.222.12.73","Mozilla/5.0 (Windows NT 10.0; Win64; x64) AppleWebKit/537.36 (KHTML, like Gecko) Chrome/138.0.0.0 Safari/537.36","WebKit","Chrome","138.0.0.0","Windows","10.0","https://app.prolific.com/","en-ZA,en-GB;q=0.9,en-US;q=0.8,en;q=0.7,en-GB-oxendict;q=0.6","605b838b80f022835fc293fb","683db9eb0562dbf637994deb","6880818e6b58325e5ebb7cf2","2","1","605b838b80f022835fc293fb","2","1","2025-07-23T06:40:07.871Z","","","","","","","","","","","MotivationQ","","50","","","","","","","","","","","","","","","","","","","","","","","","","","","","",""
"","","","","ctl-task-cpt","39","607355","0.0-5.0-0.6","144","1","2025-07-23 06:30:53","1f75c3e559b7213887762d5229550c2b","102.222.12.73","Mozilla/5.0 (Windows NT 10.0; Win64; x64) AppleWebKit/537.36 (KHTML, like Gecko) Chrome/138.0.0.0 Safari/537.36","WebKit","Chrome","138.0.0.0","Windows","10.0","https://app.prolific.com/","en-ZA,en-GB;q=0.9,en-US;q=0.8,en;q=0.7,en-GB-oxendict;q=0.6","605b838b80f022835fc293fb","683db9eb0562dbf637994deb","6880818e6b58325e5ebb7cf2","2","1","605b838b80f022835fc293fb","2","1","2025-07-23T06:41:02.559Z","","","","","","","","","","","","","","win-only","1","g1:NE,g2:SW","0.4","7","0","555666.3","1492.9","6494.6","51661.9","1","4","8","6","2","8","7","32","25","0.24242424242424243","1225","3000","240","[""down"",""left""]","{""num_key_presses"":15,""num_perfect"":6,""num_errors"":1,""num_randdir"":8,""num_randdir_good_moves"":4,""num_whilered"":0,""num_whileblue"":0,""num_blue"":0,""num_good_moves"":10}","[421.5714133126395,416.57142761775424,0.7,421.5714133126395,416.57142761775424,105.7,421.5714133126395,416.57142761775424,221,421.5714133126395,416.57142761775424,332.6,421.5714133126395,416.57142761775424,438.5,421.5714133126395,416.57142761775424,545.5,126.5714133126395,661.5714276177542,658,32.82141331263951,760.3214276177542,766.4,20.321413312639507,764.0714276177542,878.3,20.321413312639507,764.0714276177542,987.5,20.321413312639507,764.0714276177542,1088.1,20.321413312639507,764.0714276177542,1192.4,20.321413312639507,764.0714276177542,1304.4,20.321413312639507,764.0714276177542,1408.5,20.321413312639507,764.0714276177542,1510.3,20.321413312639507,764.0714276177542,1623.5,20.321413312639507,764.0714276177542,1726.4,20.321413312639507,764.0714276177542,1826.8,20.321413312639507,764.0714276177542,1934.9,20.321413312639507,764.0714276177542,2043,259.0714133126395,534.0714276177542,2155.8,416.5714133126395,466.57142761775424,2266,416.5714133126395,466.57142761775424,2381.2,416.5714133126395,466.57142761775424,2495.4,416.5714133126395,466.57142761775424,2611.5,416.5714133126395,466.57142761775424,2712.8,416.5714133126395,466.57142761775424,2826.9,416.5714133126395,466.57142761775424,2929.9,416.5714133126395,466.57142761775424,3037.3,416.5714133126395,466.57142761775424,3154.6,416.5714133126395,466.57142761775424,3263.1,416.5714133126395,466.57142761775424,3369.7,416.5714133126395,466.57142761775424,3472.1,416.5714133126395,466.57142761775424,3574.2,416.5714133126395,466.57142761775424,3686.2,416.5714133126395,466.57142761775424,3791,416.5714133126395,466.57142761775424,3897.6,416.5714133126395,466.57142761775424,4007.8,416.5714133126395,466.57142761775424,4120.2,416.5714133126395,466.57142761775424,4223.6,416.5714133126395,466.57142761775424,4337.6,416.5714133126395,466.57142761775424,4437.9,416.5714133126395,466.57142761775424,4554.1,416.5714133126395,466.57142761775424,4659.3,416.5714133126395,466.57142761775424,4764.9,416.5714133126395,466.57142761775424,4870.8,416.5714133126395,466.57142761775424,4986.3]","[1474.3,1474.3,1000,0,474.3,""oops"",""left"",""down"",""good_move"",4551.2,3076.1,2678.4,1475.1,397.8,""smooth"",""left"",""left"",""good_move"",7435.2,2883.5,2413.2,4551.7,470.4,""oops"",""left"",""down"",""good_move"",10400.8,2965.2,2493.4,7435.6,471.8,""smooth"",""left"",""left"",""good_move"",13749.4,3348.4,2780.1,10401,568.3,""oops"",""left"",""left"",""good_move"",16339.4,2589.8,2232.1,13749.6,357.7,""oops"",""down"",""right"",""bad_move"",18792.1,2452.2,1986.2,16339.9,466,""oops"",""left"",""up"",""bad_move"",21587.6,2795,2326.1,18792.6,468.9,""smooth"",""down"",""down"",""good_move"",24773,3185.1,2830.8,21587.9,354.3,""smooth"",""down"",""down"",""good_move"",27344.8,2571.4,2157.7,24773.4,413.7,""oops"",""left"",""up"",""bad_move"",30011.1,2666,2682.2,27345.1,-16.2,""error"",""-"",""-"",""no_move"",34798.7,4787.2,3315.8,31016.5,466.4,""oops"",""left"",""up"",""bad_move"",38044.5,3245.3,2892.8,34799.2,352.5,""smooth"",""down"",""down"",""good_move"",41737.7,3692.9,3258.2,38044.8,434.7,""smooth"",""down"",""down"",""good_move"",44944.7,3205.9,2850.9,41738.8,355,""oops"",""left"",""left"",""good_move""]","",""
"3469","","<div style=""width:500px;"">
  <p>What determined the result of this run?</p>
  </div>","88","html-slider-response","40","610825","0.0-5.0-1.6","144","1","2025-07-23 06:30:53","1f75c3e559b7213887762d5229550c2b","102.222.12.73","Mozilla/5.0 (Windows NT 10.0; Win64; x64) AppleWebKit/537.36 (KHTML, like Gecko) Chrome/138.0.0.0 Safari/537.36","WebKit","Chrome","138.0.0.0","Windows","10.0","https://app.prolific.com/","en-ZA,en-GB;q=0.9,en-US;q=0.8,en;q=0.7,en-GB-oxendict;q=0.6","605b838b80f022835fc293fb","683db9eb0562dbf637994deb","6880818e6b58325e5ebb7cf2","2","1","605b838b80f022835fc293fb","2","1","2025-07-23T06:41:06.029Z","","","","","","","","","","","AttribQ","","50","","","","","","","","","","","","","","","","","","","","","","","","","","","","",""
"3867","","<div style=""width:500px;"">
  <p>How much control did you have over the ball?</p>
  </div>","85","html-slider-response","41","614693","0.0-5.0-2.6","144","1","2025-07-23 06:30:53","1f75c3e559b7213887762d5229550c2b","102.222.12.73","Mozilla/5.0 (Windows NT 10.0; Win64; x64) AppleWebKit/537.36 (KHTML, like Gecko) Chrome/138.0.0.0 Safari/537.36","WebKit","Chrome","138.0.0.0","Windows","10.0","https://app.prolific.com/","en-ZA,en-GB;q=0.9,en-US;q=0.8,en;q=0.7,en-GB-oxendict;q=0.6","605b838b80f022835fc293fb","683db9eb0562dbf637994deb","6880818e6b58325e5ebb7cf2","2","1","605b838b80f022835fc293fb","2","1","2025-07-23T06:41:09.897Z","","","","","","","","","","","ControlQ","","50","","","","","","","","","","","","","","","","","","","","","","","","","","","","",""
"4005","","<div style=""width:500px;"">
  <p>How would you describe your current emotional state?</p>
  </div>","12","html-slider-response","42","618700","0.0-5.0-3.6","144","1","2025-07-23 06:30:53","1f75c3e559b7213887762d5229550c2b","102.222.12.73","Mozilla/5.0 (Windows NT 10.0; Win64; x64) AppleWebKit/537.36 (KHTML, like Gecko) Chrome/138.0.0.0 Safari/537.36","WebKit","Chrome","138.0.0.0","Windows","10.0","https://app.prolific.com/","en-ZA,en-GB;q=0.9,en-US;q=0.8,en;q=0.7,en-GB-oxendict;q=0.6","605b838b80f022835fc293fb","683db9eb0562dbf637994deb","6880818e6b58325e5ebb7cf2","2","1","605b838b80f022835fc293fb","2","1","2025-07-23T06:41:13.905Z","","","","","","","","","","","StressQ","","50","","","","","","","","","","","","","","","","","","","","","","","","","","","","",""
"3821","","<div style=""width:500px;"">
  <p>What best describes how you currently feel?</p>
  </div>","80","html-slider-response","43","622523","0.0-5.0-4.6","144","1","2025-07-23 06:30:53","1f75c3e559b7213887762d5229550c2b","102.222.12.73","Mozilla/5.0 (Windows NT 10.0; Win64; x64) AppleWebKit/537.36 (KHTML, like Gecko) Chrome/138.0.0.0 Safari/537.36","WebKit","Chrome","138.0.0.0","Windows","10.0","https://app.prolific.com/","en-ZA,en-GB;q=0.9,en-US;q=0.8,en;q=0.7,en-GB-oxendict;q=0.6","605b838b80f022835fc293fb","683db9eb0562dbf637994deb","6880818e6b58325e5ebb7cf2","2","1","605b838b80f022835fc293fb","2","1","2025-07-23T06:41:17.727Z","","","","","","","","","","","MotivationQ","","50","","","","","","","","","","","","","","","","","","","","","","","","","","","","",""
"","","","","ctl-task-cpt","44","687036","0.0-5.0-0.7","144","1","2025-07-23 06:30:53","1f75c3e559b7213887762d5229550c2b","102.222.12.73","Mozilla/5.0 (Windows NT 10.0; Win64; x64) AppleWebKit/537.36 (KHTML, like Gecko) Chrome/138.0.0.0 Safari/537.36","WebKit","Chrome","138.0.0.0","Windows","10.0","https://app.prolific.com/","en-ZA,en-GB;q=0.9,en-US;q=0.8,en;q=0.7,en-GB-oxendict;q=0.6","605b838b80f022835fc293fb","683db9eb0562dbf637994deb","6880818e6b58325e5ebb7cf2","2","1","605b838b80f022835fc293fb","2","1","2025-07-23T06:42:22.240Z","","","","","","","","","","","","","","win-only","3","g1:SW,g2:NE","0.3","8","0","625523","1412","6413.7","61480.1","1","4","4","6","2","-4","-5","27","32","0.20454545454545456","1547","3000","-1190","[""up"",""right""]","{""num_key_presses"":16,""num_perfect"":4,""num_errors"":1,""num_randdir"":11,""num_randdir_good_moves"":6,""num_whilered"":0,""num_whileblue"":1,""num_blue"":3,""num_good_moves"":10}","[417.8214133126395,426.57142761775424,0.3,417.8214133126395,426.57142761775424,104.9,417.8214133126395,426.57142761775424,207.8,417.8214133126395,426.57142761775424,313.3,417.8214133126395,426.57142761775424,416.5,332.8214133126395,401.57142761775424,520,256.5714133126395,401.57142761775424,622.7,426.5714133126395,51.57142761775425,752.1,732.8214133126395,-45.92857238224575,862.2,741.5714133126395,-38.42857238224575,964.2,745.3214133126395,40.32142761775425,1071,745.3214133126395,54.07142761775425,1181.1,745.3214133126395,55.32142761775425,1287.7,745.3214133126395,55.32142761775425,1398.7,745.3214133126395,55.32142761775425,1500.8,745.3214133126395,55.32142761775425,1605.6,745.3214133126395,55.32142761775425,1706.4,745.3214133126395,55.32142761775425,1813.9,745.3214133126395,55.32142761775425,1915.6,745.3214133126395,55.32142761775425,2016.1,745.3214133126395,55.32142761775425,2120.4,745.3214133126395,55.32142761775425,2231.5,745.3214133126395,55.32142761775425,2337.9,745.3214133126395,55.32142761775425,2443.8,745.3214133126395,55.32142761775425,2551.2,745.3214133126395,55.32142761775425,2655.9,745.3214133126395,55.32142761775425,2766.4,745.3214133126395,55.32142761775425,2872.4,745.3214133126395,55.32142761775425,2977.1,745.3214133126395,55.32142761775425,3080,745.3214133126395,55.32142761775425,3182.7,745.3214133126395,55.32142761775425,3288.7,745.3214133126395,55.32142761775425,3401.1,745.3214133126395,55.32142761775425,3503.5,745.3214133126395,55.32142761775425,3612.7,745.3214133126395,55.32142761775425,3723.4,745.3214133126395,55.32142761775425,3830.2,745.3214133126395,55.32142761775425,3934.9,745.3214133126395,55.32142761775425,4039.2,745.3214133126395,55.32142761775425,4144.4,745.3214133126395,55.32142761775425,4245,745.3214133126395,55.32142761775425,4345.5,745.3214133126395,55.32142761775425,4447,745.3214133126395,55.32142761775425,4549.7,745.3214133126395,55.32142761775425,4656.4,745.3214133126395,55.32142761775425,4761.1,745.3214133126395,55.32142761775425,4871.8,745.3214133126395,55.32142761775425,4976.6]","[1453.6,1453.6,1000,0,453.6,""smooth"",""up"",""up"",""good_move"",7415,5961,2327.1,4653.3,434.6,""oops"",""up"",""down"",""bad_move"",10489.6,3074.1,2641.3,7415.5,432.8,""oops"",""right"",""right"",""good_move"",13170.5,2680.3,2250,10490.2,430.3,""oops"",""right"",""right"",""good_move"",16096.1,2924.6,2453.5,13171.5,471.1,""oops"",""right"",""left"",""bad_move"",18931.8,2835.2,2427.4,16096.6,407.8,""oops"",""up"",""right"",""good_move"",22310.9,3378.8,3040,18932.1,338.8,""oops"",""up"",""right"",""good_move"",25495.7,3184.6,2784.2,22311.1,400.4,""while_blue"",""up"",""down"",""bad_move"",29164.6,3668.3,3260.7,25496.3,407.6,""smooth"",""up"",""up"",""good_move"",36098,6931.9,2900.9,32604.6,592.5,""smooth"",""up"",""up"",""good_move"",38688.2,2589.7,2049.8,36098.6,539.8,""oops"",""up"",""left"",""bad_move"",41309.9,2621.2,2024.6,38688.7,596.6,""oops"",""up"",""right"",""good_move"",43789.6,2479.4,1920.9,41310.2,558.5,""smooth"",""up"",""up"",""good_move"",46619.7,2829.8,1898.3,43789.9,931.5,""oops"",""up"",""left"",""bad_move"",49658.3,3038.4,2476.8,46620,561.5,""oops"",""up"",""up"",""good_move"",52135.9,2477.2,2101.7,49658.7,375.5,""oops"",""right"",""down"",""bad_move""]","",""
"4184","","<div style=""width:500px;"">
  <p>What determined the result of this run?</p>
  </div>","84","html-slider-response","45","691221","0.0-5.0-1.7","144","1","2025-07-23 06:30:53","1f75c3e559b7213887762d5229550c2b","102.222.12.73","Mozilla/5.0 (Windows NT 10.0; Win64; x64) AppleWebKit/537.36 (KHTML, like Gecko) Chrome/138.0.0.0 Safari/537.36","WebKit","Chrome","138.0.0.0","Windows","10.0","https://app.prolific.com/","en-ZA,en-GB;q=0.9,en-US;q=0.8,en;q=0.7,en-GB-oxendict;q=0.6","605b838b80f022835fc293fb","683db9eb0562dbf637994deb","6880818e6b58325e5ebb7cf2","2","1","605b838b80f022835fc293fb","2","1","2025-07-23T06:42:26.425Z","","","","","","","","","","","AttribQ","","50","","","","","","","","","","","","","","","","","","","","","","","","","","","","",""
"3644","","<div style=""width:500px;"">
  <p>How much control did you have over the ball?</p>
  </div>","87","html-slider-response","46","694867","0.0-5.0-2.7","144","1","2025-07-23 06:30:53","1f75c3e559b7213887762d5229550c2b","102.222.12.73","Mozilla/5.0 (Windows NT 10.0; Win64; x64) AppleWebKit/537.36 (KHTML, like Gecko) Chrome/138.0.0.0 Safari/537.36","WebKit","Chrome","138.0.0.0","Windows","10.0","https://app.prolific.com/","en-ZA,en-GB;q=0.9,en-US;q=0.8,en;q=0.7,en-GB-oxendict;q=0.6","605b838b80f022835fc293fb","683db9eb0562dbf637994deb","6880818e6b58325e5ebb7cf2","2","1","605b838b80f022835fc293fb","2","1","2025-07-23T06:42:30.071Z","","","","","","","","","","","ControlQ","","50","","","","","","","","","","","","","","","","","","","","","","","","","","","","",""
"3963","","<div style=""width:500px;"">
  <p>How would you describe your current emotional state?</p>
  </div>","39","html-slider-response","47","698831","0.0-5.0-3.7","144","1","2025-07-23 06:30:53","1f75c3e559b7213887762d5229550c2b","102.222.12.73","Mozilla/5.0 (Windows NT 10.0; Win64; x64) AppleWebKit/537.36 (KHTML, like Gecko) Chrome/138.0.0.0 Safari/537.36","WebKit","Chrome","138.0.0.0","Windows","10.0","https://app.prolific.com/","en-ZA,en-GB;q=0.9,en-US;q=0.8,en;q=0.7,en-GB-oxendict;q=0.6","605b838b80f022835fc293fb","683db9eb0562dbf637994deb","6880818e6b58325e5ebb7cf2","2","1","605b838b80f022835fc293fb","2","1","2025-07-23T06:42:34.035Z","","","","","","","","","","","StressQ","","50","","","","","","","","","","","","","","","","","","","","","","","","","","","","",""
"4816","","<div style=""width:500px;"">
  <p>What best describes how you currently feel?</p>
  </div>","81","html-slider-response","48","703649","0.0-5.0-4.7","144","1","2025-07-23 06:30:53","1f75c3e559b7213887762d5229550c2b","102.222.12.73","Mozilla/5.0 (Windows NT 10.0; Win64; x64) AppleWebKit/537.36 (KHTML, like Gecko) Chrome/138.0.0.0 Safari/537.36","WebKit","Chrome","138.0.0.0","Windows","10.0","https://app.prolific.com/","en-ZA,en-GB;q=0.9,en-US;q=0.8,en;q=0.7,en-GB-oxendict;q=0.6","605b838b80f022835fc293fb","683db9eb0562dbf637994deb","6880818e6b58325e5ebb7cf2","2","1","605b838b80f022835fc293fb","2","1","2025-07-23T06:42:38.853Z","","","","","","","","","","","MotivationQ","","50","","","","","","","","","","","","","","","","","","","","","","","","","","","","",""
"","","","","ctl-task-cpt","49","781148","0.0-5.0-0.8","144","1","2025-07-23 06:30:53","1f75c3e559b7213887762d5229550c2b","102.222.12.73","Mozilla/5.0 (Windows NT 10.0; Win64; x64) AppleWebKit/537.36 (KHTML, like Gecko) Chrome/138.0.0.0 Safari/537.36","WebKit","Chrome","138.0.0.0","Windows","10.0","https://app.prolific.com/","en-ZA,en-GB;q=0.9,en-US;q=0.8,en;q=0.7,en-GB-oxendict;q=0.6","605b838b80f022835fc293fb","683db9eb0562dbf637994deb","6880818e6b58325e5ebb7cf2","2","1","605b838b80f022835fc293fb","2","1","2025-07-23T06:43:56.352Z","","","","","","","","","","","","","","win-only","0","g1:NW,g2:SE","0.2","9","0","706648.2","1754","6755.1","74474.2","1","4","4","6","2","-4","-4","23","27","0.17424242424242425","1401.2","3000","-1000","[""down"",""right""]","{""num_key_presses"":16,""num_perfect"":3,""num_errors"":0,""num_randdir"":13,""num_randdir_good_moves"":5,""num_whilered"":0,""num_whileblue"":0,""num_blue"":5,""num_good_moves"":8}","[414.0714133126395,414.07142761775424,0.6,414.0714133126395,414.07142761775424,118.3,414.0714133126395,414.07142761775424,220.2,414.0714133126395,414.07142761775424,325.2,414.0714133126395,414.07142761775424,435.2,414.0714133126395,414.07142761775424,544.9,414.0714133126395,414.07142761775424,654.4,511.5714133126395,525.3214276177542,757.6,744.0714133126395,806.5714276177542,858.9,742.8214133126395,800.3214276177542,969.8,741.5714133126395,789.0714276177542,1071.8,741.5714133126395,789.0714276177542,1185.2,741.5714133126395,789.0714276177542,1287.8,741.5714133126395,789.0714276177542,1395.1,741.5714133126395,789.0714276177542,1502.2,741.5714133126395,789.0714276177542,1603.4,741.5714133126395,789.0714276177542,1735.6,741.5714133126395,789.0714276177542,1844.8,741.5714133126395,789.0714276177542,1953.5,741.5714133126395,789.0714276177542,2055.9,741.5714133126395,789.0714276177542,2159.9,741.5714133126395,789.0714276177542,2268.1,741.5714133126395,789.0714276177542,2374.8,741.5714133126395,789.0714276177542,2484.5,741.5714133126395,789.0714276177542,2585.5,741.5714133126395,789.0714276177542,2690.8,741.5714133126395,789.0714276177542,2802.5,741.5714133126395,789.0714276177542,2909.6,741.5714133126395,789.0714276177542,3010.1,741.5714133126395,789.0714276177542,3119.5,741.5714133126395,789.0714276177542,3219.5,741.5714133126395,789.0714276177542,3328.4,741.5714133126395,789.0714276177542,3429.5,741.5714133126395,789.0714276177542,3541.2,741.5714133126395,789.0714276177542,3645,741.5714133126395,789.0714276177542,3753,741.5714133126395,789.0714276177542,3857.4,741.5714133126395,789.0714276177542,3967.3,741.5714133126395,789.0714276177542,4072.1,741.5714133126395,789.0714276177542,4172.4,741.5714133126395,789.0714276177542,4282.3,741.5714133126395,789.0714276177542,4383.7,741.5714133126395,789.0714276177542,4494.5,741.5714133126395,789.0714276177542,4606.8,741.5714133126395,789.0714276177542,4717,741.5714133126395,789.0714276177542,4823.4,741.5714133126395,789.0714276177542,4923.9]","[5753.9,5753.9,3189.4,2022.8,541.7,""oops"",""down"",""left"",""bad_move"",8747.3,2992.9,2243.9,5754.4,749,""smooth"",""right"",""right"",""good_move"",12162.7,3415,2657.6,8747.7,757.4,""oops"",""right"",""left"",""bad_move"",15174.3,3010.9,2478.7,12163.4,532.2,""oops"",""down"",""left"",""bad_move"",18046.6,2871.7,2432.7,15174.9,439,""oops"",""down"",""right"",""good_move"",20669.5,2622.7,2194.2,18046.8,428.5,""oops"",""down"",""left"",""bad_move"",23362.2,2692.4,2243,20669.8,449.4,""oops"",""down"",""right"",""good_move"",26194.9,2831.8,2353.9,23363.1,477.9,""oops"",""down"",""right"",""good_move"",28824.2,2629,2042.4,26195.2,586.6,""smooth"",""down"",""down"",""good_move"",31737.5,2912.9,2378.4,28824.7,534.4,""oops"",""down"",""up"",""bad_move"",34512,2774.2,2378.1,31737.9,396.1,""oops"",""down"",""left"",""bad_move"",37272.5,2759.1,2207.2,34513.4,551.9,""oops"",""down"",""down"",""good_move"",48785.2,11512.4,3132.8,45079.5,572.9,""smooth"",""down"",""down"",""good_move"",51517.1,2731.6,2352.3,48785.5,379.3,""oops"",""right"",""up"",""bad_move"",58525.9,7008.5,2808.3,55259.2,458.4,""oops"",""right"",""down"",""good_move"",64957.6,6431.4,2773.3,61743.7,440.6,""oops"",""right"",""left"",""bad_move""]","",""
"3354","","<div style=""width:500px;"">
  <p>What determined the result of this run?</p>
  </div>","83","html-slider-response","50","784503","0.0-5.0-1.8","144","1","2025-07-23 06:30:53","1f75c3e559b7213887762d5229550c2b","102.222.12.73","Mozilla/5.0 (Windows NT 10.0; Win64; x64) AppleWebKit/537.36 (KHTML, like Gecko) Chrome/138.0.0.0 Safari/537.36","WebKit","Chrome","138.0.0.0","Windows","10.0","https://app.prolific.com/","en-ZA,en-GB;q=0.9,en-US;q=0.8,en;q=0.7,en-GB-oxendict;q=0.6","605b838b80f022835fc293fb","683db9eb0562dbf637994deb","6880818e6b58325e5ebb7cf2","2","1","605b838b80f022835fc293fb","2","1","2025-07-23T06:43:59.708Z","","","","","","","","","","","AttribQ","","50","","","","","","","","","","","","","","","","","","","","","","","","","","","","",""
"2747","","<div style=""width:500px;"">
  <p>How much control did you have over the ball?</p>
  </div>","83","html-slider-response","51","787252","0.0-5.0-2.8","144","1","2025-07-23 06:30:53","1f75c3e559b7213887762d5229550c2b","102.222.12.73","Mozilla/5.0 (Windows NT 10.0; Win64; x64) AppleWebKit/537.36 (KHTML, like Gecko) Chrome/138.0.0.0 Safari/537.36","WebKit","Chrome","138.0.0.0","Windows","10.0","https://app.prolific.com/","en-ZA,en-GB;q=0.9,en-US;q=0.8,en;q=0.7,en-GB-oxendict;q=0.6","605b838b80f022835fc293fb","683db9eb0562dbf637994deb","6880818e6b58325e5ebb7cf2","2","1","605b838b80f022835fc293fb","2","1","2025-07-23T06:44:02.456Z","","","","","","","","","","","ControlQ","","50","","","","","","","","","","","","","","","","","","","","","","","","","","","","",""
"3857","","<div style=""width:500px;"">
  <p>How would you describe your current emotional state?</p>
  </div>","50","html-slider-response","52","791112","0.0-5.0-3.8","144","1","2025-07-23 06:30:53","1f75c3e559b7213887762d5229550c2b","102.222.12.73","Mozilla/5.0 (Windows NT 10.0; Win64; x64) AppleWebKit/537.36 (KHTML, like Gecko) Chrome/138.0.0.0 Safari/537.36","WebKit","Chrome","138.0.0.0","Windows","10.0","https://app.prolific.com/","en-ZA,en-GB;q=0.9,en-US;q=0.8,en;q=0.7,en-GB-oxendict;q=0.6","605b838b80f022835fc293fb","683db9eb0562dbf637994deb","6880818e6b58325e5ebb7cf2","2","1","605b838b80f022835fc293fb","2","1","2025-07-23T06:44:06.316Z","","","","","","","","","","","StressQ","","50","","","","","","","","","","","","","","","","","","","","","","","","","","","","",""
"4719","","<div style=""width:500px;"">
  <p>What best describes how you currently feel?</p>
  </div>","85","html-slider-response","53","795832","0.0-5.0-4.8","144","1","2025-07-23 06:30:53","1f75c3e559b7213887762d5229550c2b","102.222.12.73","Mozilla/5.0 (Windows NT 10.0; Win64; x64) AppleWebKit/537.36 (KHTML, like Gecko) Chrome/138.0.0.0 Safari/537.36","WebKit","Chrome","138.0.0.0","Windows","10.0","https://app.prolific.com/","en-ZA,en-GB;q=0.9,en-US;q=0.8,en;q=0.7,en-GB-oxendict;q=0.6","605b838b80f022835fc293fb","683db9eb0562dbf637994deb","6880818e6b58325e5ebb7cf2","2","1","605b838b80f022835fc293fb","2","1","2025-07-23T06:44:11.037Z","","","","","","","","","","","MotivationQ","","50","","","","","","","","","","","","","","","","","","","","","","","","","","","","",""
"","","","","ctl-task-cpt","54","852086","0.0-5.0-0.9","144","1","2025-07-23 06:30:53","1f75c3e559b7213887762d5229550c2b","102.222.12.73","Mozilla/5.0 (Windows NT 10.0; Win64; x64) AppleWebKit/537.36 (KHTML, like Gecko) Chrome/138.0.0.0 Safari/537.36","WebKit","Chrome","138.0.0.0","Windows","10.0","https://app.prolific.com/","en-ZA,en-GB;q=0.9,en-US;q=0.8,en;q=0.7,en-GB-oxendict;q=0.6","605b838b80f022835fc293fb","683db9eb0562dbf637994deb","6880818e6b58325e5ebb7cf2","2","1","605b838b80f022835fc293fb","2","1","2025-07-23T06:45:07.290Z","","","","","","","","","","","","","","win-only","2","g1:SE,g2:NW","0.4","10","0","798832.7","4790.8","9795.8","53227.1","1","4","8","6","2","8","8","31","23","0.23484848484848486","1626.2","3000","1230","[""left"",""up""]","{""num_key_presses"":12,""num_perfect"":5,""num_errors"":0,""num_randdir"":7,""num_randdir_good_moves"":4,""num_whilered"":0,""num_whileblue"":0,""num_blue"":2,""num_good_moves"":9}","[415.3214133126395,414.07142761775424,0.6,415.3214133126395,414.07142761775424,113.8,415.3214133126395,414.07142761775424,226.2,415.3214133126395,414.07142761775424,332,415.3214133126395,414.07142761775424,436.2,415.3214133126395,414.07142761775424,537.3,342.8214133126395,392.82142761775424,649.8,-5.928586687360493,11.571427617754253,754.8,6.571413312639507,-52.17857238224575,859.8,52.82141331263951,-38.42857238224575,964.3,59.07141331263951,-32.17857238224575,1070.2,67.8214133126395,54.07142761775425,1180.7,81.5714133126395,85.32142761775425,1284.5,82.8214133126395,87.82142761775425,1397.3,82.8214133126395,87.82142761775425,1508,82.8214133126395,87.82142761775425,1620.5,82.8214133126395,87.82142761775425,1725.5,82.8214133126395,87.82142761775425,1835.6,82.8214133126395,87.82142761775425,1948.4,82.8214133126395,87.82142761775425,2055.3,82.8214133126395,87.82142761775425,2157.1,82.8214133126395,87.82142761775425,2259,140.3214133126395,231.57142761775424,2372.6,231.5714133126395,406.57142761775424,2487.4,245.3214133126395,430.32142761775424,2598.1,245.3214133126395,430.32142761775424,2704.9,245.3214133126395,430.32142761775424,2809.9,245.3214133126395,430.32142761775424,2920.9,245.3214133126395,430.32142761775424,3023.8,245.3214133126395,430.32142761775424,3125.7,245.3214133126395,430.32142761775424,3241,245.3214133126395,430.32142761775424,3351.6,245.3214133126395,430.32142761775424,3457.7,245.3214133126395,430.32142761775424,3568.7,245.3214133126395,430.32142761775424,3681.6,245.3214133126395,430.32142761775424,3796.1,245.3214133126395,430.32142761775424,3915,245.3214133126395,430.32142761775424,4022.6,245.3214133126395,430.32142761775424,4124.9,245.3214133126395,430.32142761775424,4231.5,245.3214133126395,430.32142761775424,4340.5,245.3214133126395,430.32142761775424,4453.1,245.3214133126395,430.32142761775424,4563.7,245.3214133126395,430.32142761775424,4669.3,245.3214133126395,430.32142761775424,4769.8,245.3214133126395,430.32142761775424,4881.3,245.3214133126395,430.32142761775424,4990.7]","[1450.9,1450.9,1000,0,450.9,""smooth"",""left"",""left"",""good_move"",5095.7,3643.5,3083.5,1452.2,560,""smooth"",""up"",""up"",""good_move"",12222.1,7125.9,2902,8836.7,483.4,""oops"",""up"",""left"",""good_move"",15133.8,2911.3,1738.2,12222.5,1173.1,""oops"",""up"",""left"",""good_move"",18624.7,3489.9,3057.6,15134.8,432.3,""smooth"",""up"",""up"",""good_move"",21774.4,3149.3,2770.4,18625.1,378.9,""oops"",""up"",""down"",""bad_move"",24626.7,2851.9,2437.9,21774.8,414,""smooth"",""up"",""up"",""good_move"",31440.1,6812.7,2689,28328.5,422.6,""oops"",""up"",""right"",""bad_move"",34043.4,2602.8,2133.1,31440.6,469.7,""oops"",""up"",""left"",""good_move"",37182.3,3138.6,2733.7,34043.7,404.9,""oops"",""up"",""down"",""bad_move"",39783.5,2600.8,2101,37182.7,499.8,""oops"",""up"",""up"",""good_move"",43158.1,3374.3,2962.3,39783.8,412,""smooth"",""up"",""up"",""good_move""]","",""
"6264","","<div style=""width:500px;"">
  <p>What determined the result of this run?</p>
  </div>","87","html-slider-response","55","858352","0.0-5.0-1.9","144","1","2025-07-23 06:30:53","1f75c3e559b7213887762d5229550c2b","102.222.12.73","Mozilla/5.0 (Windows NT 10.0; Win64; x64) AppleWebKit/537.36 (KHTML, like Gecko) Chrome/138.0.0.0 Safari/537.36","WebKit","Chrome","138.0.0.0","Windows","10.0","https://app.prolific.com/","en-ZA,en-GB;q=0.9,en-US;q=0.8,en;q=0.7,en-GB-oxendict;q=0.6","605b838b80f022835fc293fb","683db9eb0562dbf637994deb","6880818e6b58325e5ebb7cf2","2","1","605b838b80f022835fc293fb","2","1","2025-07-23T06:45:13.556Z","","","","","","","","","","","AttribQ","","50","","","","","","","","","","","","","","","","","","","","","","","","","","","","",""
"2930","","<div style=""width:500px;"">
  <p>How much control did you have over the ball?</p>
  </div>","86","html-slider-response","56","861284","0.0-5.0-2.9","144","1","2025-07-23 06:30:53","1f75c3e559b7213887762d5229550c2b","102.222.12.73","Mozilla/5.0 (Windows NT 10.0; Win64; x64) AppleWebKit/537.36 (KHTML, like Gecko) Chrome/138.0.0.0 Safari/537.36","WebKit","Chrome","138.0.0.0","Windows","10.0","https://app.prolific.com/","en-ZA,en-GB;q=0.9,en-US;q=0.8,en;q=0.7,en-GB-oxendict;q=0.6","605b838b80f022835fc293fb","683db9eb0562dbf637994deb","6880818e6b58325e5ebb7cf2","2","1","605b838b80f022835fc293fb","2","1","2025-07-23T06:45:16.488Z","","","","","","","","","","","ControlQ","","50","","","","","","","","","","","","","","","","","","","","","","","","","","","","",""
"3489","","<div style=""width:500px;"">
  <p>How would you describe your current emotional state?</p>
  </div>","37","html-slider-response","57","864775","0.0-5.0-3.9","144","1","2025-07-23 06:30:53","1f75c3e559b7213887762d5229550c2b","102.222.12.73","Mozilla/5.0 (Windows NT 10.0; Win64; x64) AppleWebKit/537.36 (KHTML, like Gecko) Chrome/138.0.0.0 Safari/537.36","WebKit","Chrome","138.0.0.0","Windows","10.0","https://app.prolific.com/","en-ZA,en-GB;q=0.9,en-US;q=0.8,en;q=0.7,en-GB-oxendict;q=0.6","605b838b80f022835fc293fb","683db9eb0562dbf637994deb","6880818e6b58325e5ebb7cf2","2","1","605b838b80f022835fc293fb","2","1","2025-07-23T06:45:19.980Z","","","","","","","","","","","StressQ","","50","","","","","","","","","","","","","","","","","","","","","","","","","","","","",""
"4252","","<div style=""width:500px;"">
  <p>What best describes how you currently feel?</p>
  </div>","86","html-slider-response","58","869029","0.0-5.0-4.9","144","1","2025-07-23 06:30:53","1f75c3e559b7213887762d5229550c2b","102.222.12.73","Mozilla/5.0 (Windows NT 10.0; Win64; x64) AppleWebKit/537.36 (KHTML, like Gecko) Chrome/138.0.0.0 Safari/537.36","WebKit","Chrome","138.0.0.0","Windows","10.0","https://app.prolific.com/","en-ZA,en-GB;q=0.9,en-US;q=0.8,en;q=0.7,en-GB-oxendict;q=0.6","605b838b80f022835fc293fb","683db9eb0562dbf637994deb","6880818e6b58325e5ebb7cf2","2","1","605b838b80f022835fc293fb","2","1","2025-07-23T06:45:24.233Z","","","","","","","","","","","MotivationQ","","50","","","","","","","","","","","","","","","","","","","","","","","","","","","","",""
"","","","","ctl-task-cpt","59","908483","0.0-5.0-0.10","144","1","2025-07-23 06:30:53","1f75c3e559b7213887762d5229550c2b","102.222.12.73","Mozilla/5.0 (Windows NT 10.0; Win64; x64) AppleWebKit/537.36 (KHTML, like Gecko) Chrome/138.0.0.0 Safari/537.36","WebKit","Chrome","138.0.0.0","Windows","10.0","https://app.prolific.com/","en-ZA,en-GB;q=0.9,en-US;q=0.8,en;q=0.7,en-GB-oxendict;q=0.6","605b838b80f022835fc293fb","683db9eb0562dbf637994deb","6880818e6b58325e5ebb7cf2","2","1","605b838b80f022835fc293fb","2","1","2025-07-23T06:46:03.687Z","","","","","","","","","","","","","","win-only","3","g1:SW,g2:NE","0.5","11","0","872029.1","1568.3","6581","36429.1","1","4","4","6","2","4","4","35","31","0.26515151515151514","1431.7","3000","1740","[""up"",""right""]","{""num_key_presses"":10,""num_perfect"":5,""num_errors"":0,""num_randdir"":5,""num_randdir_good_moves"":3,""num_whilered"":0,""num_whileblue"":0,""num_blue"":0,""num_good_moves"":8}","[416.5714133126395,419.07142761775424,0.4,416.5714133126395,419.07142761775424,113.8,416.5714133126395,419.07142761775424,223.6,416.5714133126395,419.07142761775424,327.8,416.5714133126395,419.07142761775424,442.4,416.5714133126395,419.07142761775424,542.8,416.5714133126395,419.07142761775424,656.9,491.5714133126395,261.57142761775424,775.4,676.5714133126395,111.57142761775425,887.7,730.3214133126395,91.57142761775425,999.2,736.5714133126395,91.57142761775425,1111.8,737.8214133126395,91.57142761775425,1216.9,737.8214133126395,91.57142761775425,1327.4,737.8214133126395,91.57142761775425,1442.8,737.8214133126395,91.57142761775425,1556.1,737.8214133126395,91.57142761775425,1666.9,737.8214133126395,91.57142761775425,1779.2,737.8214133126395,91.57142761775425,1894.6,609.0714133126395,269.07142761775424,2001.1,516.5714133126395,451.57142761775424,2105.8,516.5714133126395,457.82142761775424,2208.3,516.5714133126395,457.82142761775424,2321.6,516.5714133126395,457.82142761775424,2432.6,516.5714133126395,457.82142761775424,2542.5,516.5714133126395,457.82142761775424,2645.4,516.5714133126395,457.82142761775424,2750,516.5714133126395,457.82142761775424,2859.1,516.5714133126395,457.82142761775424,2970.8,516.5714133126395,457.82142761775424,3079.9,516.5714133126395,457.82142761775424,3194.4,516.5714133126395,457.82142761775424,3308.1,516.5714133126395,457.82142761775424,3409.7,516.5714133126395,457.82142761775424,3514.9,516.5714133126395,457.82142761775424,3619.2,516.5714133126395,457.82142761775424,3726.7,516.5714133126395,457.82142761775424,3830.9,516.5714133126395,457.82142761775424,3931.1,516.5714133126395,457.82142761775424,4038.1,516.5714133126395,457.82142761775424,4138.8,516.5714133126395,457.82142761775424,4249.8,516.5714133126395,457.82142761775424,4358,516.5714133126395,457.82142761775424,4469.7,516.5714133126395,457.82142761775424,4572.8,516.5714133126395,457.82142761775424,4674.1,516.5714133126395,457.82142761775424,4801.8,516.5714133126395,457.82142761775424,4906.4]","[1420.2,1420.2,1000,0,420.2,""smooth"",""up"",""up"",""good_move"",4195.8,2774.9,2122.7,1420.9,652.2,""smooth"",""up"",""up"",""good_move"",7287.3,3091.2,2179.6,4196.2,911.5,""oops"",""right"",""up"",""good_move"",10560.1,3272.3,2199.6,7288,1072.6,""oops"",""right"",""right"",""good_move"",14195,3633.7,3245.8,10561.3,388,""oops"",""right"",""left"",""bad_move"",17321.7,3126.1,2644.6,14195.6,481.6,""smooth"",""right"",""right"",""good_move"",20647.3,3324.8,2909.5,17322.5,415.3,""smooth"",""right"",""right"",""good_move"",23616.5,2968.9,2523.5,20647.6,445.4,""oops"",""right"",""down"",""bad_move"",26673.8,3056.6,2631.4,23617.2,425.2,""smooth"",""up"",""up"",""good_move"",29554.6,2880.5,2400.1,26674.1,480.4,""oops"",""right"",""right"",""good_move""]","",""
"3951","","<div style=""width:500px;"">
  <p>What determined the result of this run?</p>
  </div>","83","html-slider-response","60","912435","0.0-5.0-1.10","144","1","2025-07-23 06:30:53","1f75c3e559b7213887762d5229550c2b","102.222.12.73","Mozilla/5.0 (Windows NT 10.0; Win64; x64) AppleWebKit/537.36 (KHTML, like Gecko) Chrome/138.0.0.0 Safari/537.36","WebKit","Chrome","138.0.0.0","Windows","10.0","https://app.prolific.com/","en-ZA,en-GB;q=0.9,en-US;q=0.8,en;q=0.7,en-GB-oxendict;q=0.6","605b838b80f022835fc293fb","683db9eb0562dbf637994deb","6880818e6b58325e5ebb7cf2","2","1","605b838b80f022835fc293fb","2","1","2025-07-23T06:46:07.639Z","","","","","","","","","","","AttribQ","","50","","","","","","","","","","","","","","","","","","","","","","","","","","","","",""
"3139","","<div style=""width:500px;"">
  <p>How much control did you have over the ball?</p>
  </div>","86","html-slider-response","61","915576","0.0-5.0-2.10","144","1","2025-07-23 06:30:53","1f75c3e559b7213887762d5229550c2b","102.222.12.73","Mozilla/5.0 (Windows NT 10.0; Win64; x64) AppleWebKit/537.36 (KHTML, like Gecko) Chrome/138.0.0.0 Safari/537.36","WebKit","Chrome","138.0.0.0","Windows","10.0","https://app.prolific.com/","en-ZA,en-GB;q=0.9,en-US;q=0.8,en;q=0.7,en-GB-oxendict;q=0.6","605b838b80f022835fc293fb","683db9eb0562dbf637994deb","6880818e6b58325e5ebb7cf2","2","1","605b838b80f022835fc293fb","2","1","2025-07-23T06:46:10.780Z","","","","","","","","","","","ControlQ","","50","","","","","","","","","","","","","","","","","","","","","","","","","","","","",""
"6795","","<div style=""width:500px;"">
  <p>How would you describe your current emotional state?</p>
  </div>","25","html-slider-response","62","922373","0.0-5.0-3.10","144","1","2025-07-23 06:30:53","1f75c3e559b7213887762d5229550c2b","102.222.12.73","Mozilla/5.0 (Windows NT 10.0; Win64; x64) AppleWebKit/537.36 (KHTML, like Gecko) Chrome/138.0.0.0 Safari/537.36","WebKit","Chrome","138.0.0.0","Windows","10.0","https://app.prolific.com/","en-ZA,en-GB;q=0.9,en-US;q=0.8,en;q=0.7,en-GB-oxendict;q=0.6","605b838b80f022835fc293fb","683db9eb0562dbf637994deb","6880818e6b58325e5ebb7cf2","2","1","605b838b80f022835fc293fb","2","1","2025-07-23T06:46:17.577Z","","","","","","","","","","","StressQ","","50","","","","","","","","","","","","","","","","","","","","","","","","","","","","",""
"5270","","<div style=""width:500px;"">
  <p>What best describes how you currently feel?</p>
  </div>","74","html-slider-response","63","927645","0.0-5.0-4.10","144","1","2025-07-23 06:30:53","1f75c3e559b7213887762d5229550c2b","102.222.12.73","Mozilla/5.0 (Windows NT 10.0; Win64; x64) AppleWebKit/537.36 (KHTML, like Gecko) Chrome/138.0.0.0 Safari/537.36","WebKit","Chrome","138.0.0.0","Windows","10.0","https://app.prolific.com/","en-ZA,en-GB;q=0.9,en-US;q=0.8,en;q=0.7,en-GB-oxendict;q=0.6","605b838b80f022835fc293fb","683db9eb0562dbf637994deb","6880818e6b58325e5ebb7cf2","2","1","605b838b80f022835fc293fb","2","1","2025-07-23T06:46:22.849Z","","","","","","","","","","","MotivationQ","","50","","","","","","","","","","","","","","","","","","","","","","","","","","","","",""
"","","","","ctl-task-cpt","64","960755","0.0-5.0-0.11","144","1","2025-07-23 06:30:53","1f75c3e559b7213887762d5229550c2b","102.222.12.73","Mozilla/5.0 (Windows NT 10.0; Win64; x64) AppleWebKit/537.36 (KHTML, like Gecko) Chrome/138.0.0.0 Safari/537.36","WebKit","Chrome","138.0.0.0","Windows","10.0","https://app.prolific.com/","en-ZA,en-GB;q=0.9,en-US;q=0.8,en;q=0.7,en-GB-oxendict;q=0.6","605b838b80f022835fc293fb","683db9eb0562dbf637994deb","6880818e6b58325e5ebb7cf2","2","1","605b838b80f022835fc293fb","2","1","2025-07-23T06:46:55.959Z","","","","","","","","","","","","","","win-only","1","g1:NE,g2:SW","0.6","12","0","930644","1552.5","6566.1","30087.3","1","4","8","6","2","8","8","43","35","0.32575757575757575","1439.7","3000","2050","[""down"",""left""]","{""num_key_presses"":8,""num_perfect"":5,""num_errors"":0,""num_randdir"":3,""num_randdir_good_moves"":2,""num_whilered"":0,""num_whileblue"":0,""num_blue"":0,""num_good_moves"":7}","[427.8214133126395,414.07142761775424,0.2,427.8214133126395,414.07142761775424,115.3,427.8214133126395,414.07142761775424,230.7,427.8214133126395,414.07142761775424,349.1,427.8214133126395,414.07142761775424,459.8,427.8214133126395,414.07142761775424,562.2,427.8214133126395,414.07142761775424,665.2,230.3214133126395,506.57142761775424,765.4,77.8214133126395,786.5714276177542,875.1,76.5714133126395,791.5714276177542,982.9,85.3214133126395,776.5714276177542,1091.3,89.0714133126395,774.0714276177542,1196,89.0714133126395,774.0714276177542,1306.4,89.0714133126395,774.0714276177542,1412.4,89.0714133126395,774.0714276177542,1529.5,89.0714133126395,774.0714276177542,1638.3,89.0714133126395,774.0714276177542,1750.2,89.0714133126395,774.0714276177542,1864.8,89.0714133126395,774.0714276177542,1966.1,89.0714133126395,774.0714276177542,2066.6,89.0714133126395,774.0714276177542,2176.9,89.0714133126395,774.0714276177542,2288.7,89.0714133126395,774.0714276177542,2391.5,89.0714133126395,774.0714276177542,2501.5,89.0714133126395,774.0714276177542,2616.1,89.0714133126395,774.0714276177542,2727.3,89.0714133126395,774.0714276177542,2836,89.0714133126395,774.0714276177542,2947.6,89.0714133126395,774.0714276177542,3055.8,89.0714133126395,774.0714276177542,3169.4,89.0714133126395,774.0714276177542,3282.2,89.0714133126395,774.0714276177542,3388.6,89.0714133126395,774.0714276177542,3496.5,89.0714133126395,774.0714276177542,3612.7,89.0714133126395,774.0714276177542,3729.2,89.0714133126395,774.0714276177542,3843.3,89.0714133126395,774.0714276177542,3952.4,89.0714133126395,774.0714276177542,4053.9,89.0714133126395,774.0714276177542,4155.2,89.0714133126395,774.0714276177542,4273.5,89.0714133126395,774.0714276177542,4391.6,89.0714133126395,774.0714276177542,4500.3,89.0714133126395,774.0714276177542,4614.6,89.0714133126395,774.0714276177542,4725.6,89.0714133126395,774.0714276177542,4836.3,89.0714133126395,774.0714276177542,4946.9]","[1401.4,1401.4,1000,0,401.4,""oops"",""down"",""up"",""bad_move"",4823.4,3421.4,2774,1402,647.4,""smooth"",""left"",""left"",""good_move"",8074,3249.4,2818.3,4824.6,431.1,""smooth"",""down"",""down"",""good_move"",10928.9,2852.9,2446.2,8076,406.7,""smooth"",""down"",""down"",""good_move"",13803.3,2874,2473.5,10929.3,400.5,""smooth"",""left"",""left"",""good_move"",17120.2,3316.6,2751.3,13803.6,565.3,""oops"",""left"",""left"",""good_move"",20463.6,3343.2,2870.3,17120.4,472.9,""oops"",""down"",""down"",""good_move"",23154.8,2690.9,2264.5,20463.9,426.4,""smooth"",""down"",""down"",""good_move""]","",""
"5382","","<div style=""width:500px;"">
  <p>What determined the result of this run?</p>
  </div>","84","html-slider-response","65","966138","0.0-5.0-1.11","144","1","2025-07-23 06:30:53","1f75c3e559b7213887762d5229550c2b","102.222.12.73","Mozilla/5.0 (Windows NT 10.0; Win64; x64) AppleWebKit/537.36 (KHTML, like Gecko) Chrome/138.0.0.0 Safari/537.36","WebKit","Chrome","138.0.0.0","Windows","10.0","https://app.prolific.com/","en-ZA,en-GB;q=0.9,en-US;q=0.8,en;q=0.7,en-GB-oxendict;q=0.6","605b838b80f022835fc293fb","683db9eb0562dbf637994deb","6880818e6b58325e5ebb7cf2","2","1","605b838b80f022835fc293fb","2","1","2025-07-23T06:47:01.342Z","","","","","","","","","","","AttribQ","","50","","","","","","","","","","","","","","","","","","","","","","","","","","","","",""
"3294","","<div style=""width:500px;"">
  <p>How much control did you have over the ball?</p>
  </div>","86","html-slider-response","66","969435","0.0-5.0-2.11","144","1","2025-07-23 06:30:53","1f75c3e559b7213887762d5229550c2b","102.222.12.73","Mozilla/5.0 (Windows NT 10.0; Win64; x64) AppleWebKit/537.36 (KHTML, like Gecko) Chrome/138.0.0.0 Safari/537.36","WebKit","Chrome","138.0.0.0","Windows","10.0","https://app.prolific.com/","en-ZA,en-GB;q=0.9,en-US;q=0.8,en;q=0.7,en-GB-oxendict;q=0.6","605b838b80f022835fc293fb","683db9eb0562dbf637994deb","6880818e6b58325e5ebb7cf2","2","1","605b838b80f022835fc293fb","2","1","2025-07-23T06:47:04.639Z","","","","","","","","","","","ControlQ","","50","","","","","","","","","","","","","","","","","","","","","","","","","","","","",""
"5754","","<div style=""width:500px;"">
  <p>How would you describe your current emotional state?</p>
  </div>","21","html-slider-response","67","975190","0.0-5.0-3.11","144","1","2025-07-23 06:30:53","1f75c3e559b7213887762d5229550c2b","102.222.12.73","Mozilla/5.0 (Windows NT 10.0; Win64; x64) AppleWebKit/537.36 (KHTML, like Gecko) Chrome/138.0.0.0 Safari/537.36","WebKit","Chrome","138.0.0.0","Windows","10.0","https://app.prolific.com/","en-ZA,en-GB;q=0.9,en-US;q=0.8,en;q=0.7,en-GB-oxendict;q=0.6","605b838b80f022835fc293fb","683db9eb0562dbf637994deb","6880818e6b58325e5ebb7cf2","2","1","605b838b80f022835fc293fb","2","1","2025-07-23T06:47:10.394Z","","","","","","","","","","","StressQ","","50","","","","","","","","","","","","","","","","","","","","","","","","","","","","",""
"3629","","<div style=""width:500px;"">
  <p>What best describes how you currently feel?</p>
  </div>","81","html-slider-response","68","978821","0.0-5.0-4.11","144","1","2025-07-23 06:30:53","1f75c3e559b7213887762d5229550c2b","102.222.12.73","Mozilla/5.0 (Windows NT 10.0; Win64; x64) AppleWebKit/537.36 (KHTML, like Gecko) Chrome/138.0.0.0 Safari/537.36","WebKit","Chrome","138.0.0.0","Windows","10.0","https://app.prolific.com/","en-ZA,en-GB;q=0.9,en-US;q=0.8,en;q=0.7,en-GB-oxendict;q=0.6","605b838b80f022835fc293fb","683db9eb0562dbf637994deb","6880818e6b58325e5ebb7cf2","2","1","605b838b80f022835fc293fb","2","1","2025-07-23T06:47:14.025Z","","","","","","","","","","","MotivationQ","","50","","","","","","","","","","","","","","","","","","","","","","","","","","","","",""
"","","","","ctl-task-cpt","69","1020914","0.0-5.0-0.12","144","1","2025-07-23 06:30:53","1f75c3e559b7213887762d5229550c2b","102.222.12.73","Mozilla/5.0 (Windows NT 10.0; Win64; x64) AppleWebKit/537.36 (KHTML, like Gecko) Chrome/138.0.0.0 Safari/537.36","WebKit","Chrome","138.0.0.0","Windows","10.0","https://app.prolific.com/","en-ZA,en-GB;q=0.9,en-US;q=0.8,en;q=0.7,en-GB-oxendict;q=0.6","605b838b80f022835fc293fb","683db9eb0562dbf637994deb","6880818e6b58325e5ebb7cf2","2","1","605b838b80f022835fc293fb","2","1","2025-07-23T06:47:56.118Z","","","","","","","","","","","","","","win-only","3","g1:SW,g2:NE","0.7","13","0","981820.1","1501.4","6523.7","39065.7","1","4","4","6","2","4","4","47","43","0.3560606060606061","1490","3000","2010","[""up"",""right""]","{""num_key_presses"":8,""num_perfect"":5,""num_errors"":0,""num_randdir"":3,""num_randdir_good_moves"":2,""num_whilered"":0,""num_whileblue"":0,""num_blue"":2,""num_good_moves"":7}","[416.5714133126395,410.32142761775424,0.3,416.5714133126395,410.32142761775424,102.2,416.5714133126395,410.32142761775424,216.6,416.5714133126395,410.32142761775424,325.7,416.5714133126395,410.32142761775424,436.8,416.5714133126395,410.32142761775424,549.7,455.3214133126395,254.07142761775424,659.8,817.8214133126395,25.321427617754253,765.7,847.8214133126395,31.571427617754253,878.7,846.5714133126395,40.32142761775425,994.1,781.5714133126395,66.57142761775425,1096.3,766.5714133126395,66.57142761775425,1208.1,766.5714133126395,66.57142761775425,1309,766.5714133126395,66.57142761775425,1418.7,766.5714133126395,66.57142761775425,1529.4,766.5714133126395,66.57142761775425,1639.7,766.5714133126395,66.57142761775425,1751.6,766.5714133126395,66.57142761775425,1860.3,712.8214133126395,192.82142761775424,1966.5,696.5714133126395,296.57142761775424,2073.8,696.5714133126395,296.57142761775424,2187.1,696.5714133126395,296.57142761775424,2296.2,696.5714133126395,296.57142761775424,2409.9,696.5714133126395,296.57142761775424,2520.6,696.5714133126395,296.57142761775424,2630.5,696.5714133126395,296.57142761775424,2742.7,696.5714133126395,296.57142761775424,2845.9,696.5714133126395,296.57142761775424,2957.6,696.5714133126395,296.57142761775424,3060.1,696.5714133126395,296.57142761775424,3161,696.5714133126395,296.57142761775424,3270.2,696.5714133126395,296.57142761775424,3382.2,696.5714133126395,296.57142761775424,3490.1,696.5714133126395,296.57142761775424,3610.9,696.5714133126395,296.57142761775424,3716.6,696.5714133126395,296.57142761775424,3817.7,696.5714133126395,296.57142761775424,3934.1,696.5714133126395,296.57142761775424,4048.2,696.5714133126395,296.57142761775424,4160.7,696.5714133126395,296.57142761775424,4263.9,696.5714133126395,296.57142761775424,4373.3,696.5714133126395,296.57142761775424,4478,696.5714133126395,296.57142761775424,4596.4,696.5714133126395,296.57142761775424,4697,696.5714133126395,296.57142761775424,4797.6,696.5714133126395,296.57142761775424,4908]","[1437.1,1437.1,1000,0,437.1,""smooth"",""up"",""up"",""good_move"",5921.2,4482.9,3691.1,1438.3,791.8,""smooth"",""right"",""right"",""good_move"",9351.5,3429.8,2969.5,5921.7,460.3,""smooth"",""right"",""right"",""good_move"",12514.2,3162.3,2755.8,9351.9,406.5,""smooth"",""up"",""up"",""good_move"",22362.5,9848.1,2014,19896.7,451.8,""oops"",""up"",""right"",""good_move"",25232,2868.9,2343.9,22363.1,525,""oops"",""up"",""left"",""bad_move"",28630.7,3398.2,2693.7,25232.5,704.5,""oops"",""up"",""right"",""good_move"",32176.5,3545.6,3174.3,28630.9,371.3,""smooth"",""up"",""up"",""good_move""]","",""
"4131","","<div style=""width:500px;"">
  <p>What determined the result of this run?</p>
  </div>","78","html-slider-response","70","1025046","0.0-5.0-1.12","144","1","2025-07-23 06:30:53","1f75c3e559b7213887762d5229550c2b","102.222.12.73","Mozilla/5.0 (Windows NT 10.0; Win64; x64) AppleWebKit/537.36 (KHTML, like Gecko) Chrome/138.0.0.0 Safari/537.36","WebKit","Chrome","138.0.0.0","Windows","10.0","https://app.prolific.com/","en-ZA,en-GB;q=0.9,en-US;q=0.8,en;q=0.7,en-GB-oxendict;q=0.6","605b838b80f022835fc293fb","683db9eb0562dbf637994deb","6880818e6b58325e5ebb7cf2","2","1","605b838b80f022835fc293fb","2","1","2025-07-23T06:48:00.250Z","","","","","","","","","","","AttribQ","","50","","","","","","","","","","","","","","","","","","","","","","","","","","","","",""
"3821","","<div style=""width:500px;"">
  <p>How much control did you have over the ball?</p>
  </div>","80","html-slider-response","71","1028869","0.0-5.0-2.12","144","1","2025-07-23 06:30:53","1f75c3e559b7213887762d5229550c2b","102.222.12.73","Mozilla/5.0 (Windows NT 10.0; Win64; x64) AppleWebKit/537.36 (KHTML, like Gecko) Chrome/138.0.0.0 Safari/537.36","WebKit","Chrome","138.0.0.0","Windows","10.0","https://app.prolific.com/","en-ZA,en-GB;q=0.9,en-US;q=0.8,en;q=0.7,en-GB-oxendict;q=0.6","605b838b80f022835fc293fb","683db9eb0562dbf637994deb","6880818e6b58325e5ebb7cf2","2","1","605b838b80f022835fc293fb","2","1","2025-07-23T06:48:04.073Z","","","","","","","","","","","ControlQ","","50","","","","","","","","","","","","","","","","","","","","","","","","","","","","",""
"4018","","<div style=""width:500px;"">
  <p>How would you describe your current emotional state?</p>
  </div>","25","html-slider-response","72","1032888","0.0-5.0-3.12","144","1","2025-07-23 06:30:53","1f75c3e559b7213887762d5229550c2b","102.222.12.73","Mozilla/5.0 (Windows NT 10.0; Win64; x64) AppleWebKit/537.36 (KHTML, like Gecko) Chrome/138.0.0.0 Safari/537.36","WebKit","Chrome","138.0.0.0","Windows","10.0","https://app.prolific.com/","en-ZA,en-GB;q=0.9,en-US;q=0.8,en;q=0.7,en-GB-oxendict;q=0.6","605b838b80f022835fc293fb","683db9eb0562dbf637994deb","6880818e6b58325e5ebb7cf2","2","1","605b838b80f022835fc293fb","2","1","2025-07-23T06:48:08.092Z","","","","","","","","","","","StressQ","","50","","","","","","","","","","","","","","","","","","","","","","","","","","","","",""
"4343","","<div style=""width:500px;"">
  <p>What best describes how you currently feel?</p>
  </div>","100","html-slider-response","73","1037233","0.0-5.0-4.12","144","1","2025-07-23 06:30:53","1f75c3e559b7213887762d5229550c2b","102.222.12.73","Mozilla/5.0 (Windows NT 10.0; Win64; x64) AppleWebKit/537.36 (KHTML, like Gecko) Chrome/138.0.0.0 Safari/537.36","WebKit","Chrome","138.0.0.0","Windows","10.0","https://app.prolific.com/","en-ZA,en-GB;q=0.9,en-US;q=0.8,en;q=0.7,en-GB-oxendict;q=0.6","605b838b80f022835fc293fb","683db9eb0562dbf637994deb","6880818e6b58325e5ebb7cf2","2","1","605b838b80f022835fc293fb","2","1","2025-07-23T06:48:12.437Z","","","","","","","","","","","MotivationQ","","50","","","","","","","","","","","","","","","","","","","","","","","","","","","","",""
