"rt","response_timestamp","stimulus","response","trial_type","trial_index","time_elapsed","internal_node_id","run_id","condition","recorded_at","source_code_version","ip","user_agent","device","browser","browser_version","platform","platform_version","referer","accept_language","PROLIFIC_PID","STUDY_ID","SESSION_ID","WEEK","BATCH","prolific_id","week","batch","realtime","success","responses","item_order","radio_event_ids","radio_event_times","key_event_times","mouse_event_times","straightlining","zigzagging","honeypot","eventType","view_history","slider_start","which_type","canvas_config","goals_layout","control_level","trial_number","tutorial_trial_number","trial_start_time","phase1_start_time","phase2_start_time","phase3_start_time","goal_1_value","goal_1_distance","goal_2_value","goal_2_distance","goal_selected","outcome","outcome_total","participant_final_score","participant_initial_score","participant_final_score_prop","goal_choice_rt","allocated_time","allocated_time_remaining","goal_direction","counts","mouse_movements","key_presses","question_order","question_id"
"3230","1753289709741","<p style='font-size:40px;line-height:1.25'><strong>Welcome to the experiment!</strong></p><p style='font-size:1.1em;line-height:1.25'>Thank you for participanting in our experiment again! You will be asked to play the Dysfunctional Ball Game again. We will briefly recap the rules before we start.</p><p style='font-size:1.1em;line-height:1.25'>Press <strong>Next</strong> to continue.</p>","0","custom-html-button-response","0","3236","0.0-0.0","227","1","2025-07-23 16:55:05","1f75c3e559b7213887762d5229550c2b","94.3.17.192","Mozilla/5.0 (X11; CrOS x86_64 14541.0.0) AppleWebKit/537.36 (KHTML, like Gecko) Chrome/137.0.0.0 Safari/537.36","WebKit","Chrome","137.0.0.0","ChromeOS","14541.0.0","https://app.prolific.com/","en-GB,en-US;q=0.9,en;q=0.8","5b5f23420085cb0001872849","683dba2a8a9dda3513610c04","688113dc9d0f2df884384b27","3","0","5b5f23420085cb0001872849","3","0","2025-07-23T16:55:09.743Z","","","","","","","","","","","","","","","","","","","","","","","","","","","","","","","","","","","","","","","","","",""
"3113","","","","fullscreen","1","7382","0.0-1.0","227","1","2025-07-23 16:55:05","1f75c3e559b7213887762d5229550c2b","94.3.17.192","Mozilla/5.0 (X11; CrOS x86_64 14541.0.0) AppleWebKit/537.36 (KHTML, like Gecko) Chrome/137.0.0.0 Safari/537.36","WebKit","Chrome","137.0.0.0","ChromeOS","14541.0.0","https://app.prolific.com/","en-GB,en-US;q=0.9,en;q=0.8","5b5f23420085cb0001872849","683dba2a8a9dda3513610c04","688113dc9d0f2df884384b27","3","0","5b5f23420085cb0001872849","3","0","","true","","","","","","","","","","","","","","","","","","","","","","","","","","","","","","","","","","","","","","","","",""
"1684","1753289715573","<p style='font-size:1.1em;line-height:1.25'>In the following, we will ask you a few questions relating to your feelings in the last 24 hours.<br></p><p style='font-size:1.1em;line-height:1.25'>Press the <strong>Next</strong> button to continue.</p>","0","custom-html-button-response","2","9067","0.0-2.0-0.0","227","1","2025-07-23 16:55:05","1f75c3e559b7213887762d5229550c2b","94.3.17.192","Mozilla/5.0 (X11; CrOS x86_64 14541.0.0) AppleWebKit/537.36 (KHTML, like Gecko) Chrome/137.0.0.0 Safari/537.36","WebKit","Chrome","137.0.0.0","ChromeOS","14541.0.0","https://app.prolific.com/","en-GB,en-US;q=0.9,en;q=0.8","5b5f23420085cb0001872849","683dba2a8a9dda3513610c04","688113dc9d0f2df884384b27","3","0","5b5f23420085cb0001872849","3","0","2025-07-23T16:55:15.574Z","","","","","","","","","","","","","","","","","","","","","","","","","","","","","","","","","","","","","","","","","",""
"54134.6","","","","survey-template","3","63211","0.0-2.0-1.0","227","1","2025-07-23 16:55:05","1f75c3e559b7213887762d5229550c2b","94.3.17.192","Mozilla/5.0 (X11; CrOS x86_64 14541.0.0) AppleWebKit/537.36 (KHTML, like Gecko) Chrome/137.0.0.0 Safari/537.36","WebKit","Chrome","137.0.0.0","ChromeOS","14541.0.0","https://app.prolific.com/","en-GB,en-US;q=0.9,en;q=0.8","5b5f23420085cb0001872849","683dba2a8a9dda3513610c04","688113dc9d0f2df884384b27","3","0","5b5f23420085cb0001872849","3","0","2025-07-23T16:56:09.718Z","","{""Q01"":""1"",""Q02"":""1"",""Q03"":""0"",""Q04"":""2"",""Q05"":""0"",""Q06"":""1"",""Q07"":""1"",""Q08"":""2"",""Q09"":""1"",""Q10"":""0"",""Q11"":""1"",""Q12"":""0"",""Q13"":""5"",""Q14"":""0"",""Q15"":""0"",""Q16"":""0"",""Q17"":""0"",""Q18"":""0"",""Q19"":""3"",""Q20"":""1"",""Q21"":""1"",""Q22"":""0""}","[0,1,2,3,4,5,6,7,8,9,10,11,12,13,14,15,16,17,18,19,20,21]","[""Q01"",""Q02"",""Q03"",""Q04"",""Q05"",""Q06"",""Q07"",""Q08"",""Q09"",""Q10"",""Q11"",""Q12"",""Q13"",""Q14"",""Q15"",""Q16"",""Q17"",""Q17"",""Q17"",""Q18"",""Q19"",""Q19"",""Q19"",""Q19"",""Q20"",""Q21"",""Q22""]","[4471.299999999996,5503.5999999999985,6694.4000000000015,8656.599999999999,9792.400000000001,11683.599999999999,13284.400000000001,16518.200000000004,17907.6,19309.799999999996,23730.9,25374.500000000007,27028.299999999996,28681.799999999996,31099.9,33352.700000000004,34215.700000000004,34386.299999999996,35385.50000000001,36350.299999999996,38429.299999999996,40362.9,44417.700000000004,47382.299999999996,50616.6,51789.200000000004,53115.50000000001]","[40362.9]","[0.20000000000436557,4471.299999999996,5503.5999999999985,6694.4000000000015,8656.599999999999,9792.400000000001,11683.599999999999,13284.400000000001,16518.200000000004,17907.6,19309.799999999996,19913.9,23730.9,25374.500000000007,27028.299999999996,28681.799999999996,31099.9,32570.200000000004,33352.700000000004,34215.700000000004,34386.299999999996,35385.50000000001,36350.299999999996,38429.299999999996,41289.50000000001,44417.700000000004,47382.299999999996,50616.6,51789.200000000004,53115.50000000001,54121.1]","0.45454545454545453","0.47619047619047616","0","drsp","","","","","","","","","","","","","","","","","","","","","","","","","","","","","","",""
"10774","","","","survey-template","4","73988","0.0-2.0-2.0","227","1","2025-07-23 16:55:05","1f75c3e559b7213887762d5229550c2b","94.3.17.192","Mozilla/5.0 (X11; CrOS x86_64 14541.0.0) AppleWebKit/537.36 (KHTML, like Gecko) Chrome/137.0.0.0 Safari/537.36","WebKit","Chrome","137.0.0.0","ChromeOS","14541.0.0","https://app.prolific.com/","en-GB,en-US;q=0.9,en;q=0.8","5b5f23420085cb0001872849","683dba2a8a9dda3513610c04","688113dc9d0f2df884384b27","3","0","5b5f23420085cb0001872849","3","0","2025-07-23T16:56:20.496Z","","{""Q01"":""1"",""Q02"":""3"",""Q03"":""0""}","[0,1,2]","[""Q01"",""Q02"",""Q03""]","[2437.199999999997,7235.099999999991,9647.599999999991]","[]","[2437.199999999997,7235.099999999991,9647.599999999991,10771.899999999994]","0.3333333333333333","0.5","0","stress","","","","","","","","","","","","","","","","","","","","","","","","","","","","","","",""
"3620","","","","instructions","5","77611","0.0-3.0-0.0","227","1","2025-07-23 16:55:05","1f75c3e559b7213887762d5229550c2b","94.3.17.192","Mozilla/5.0 (X11; CrOS x86_64 14541.0.0) AppleWebKit/537.36 (KHTML, like Gecko) Chrome/137.0.0.0 Safari/537.36","WebKit","Chrome","137.0.0.0","ChromeOS","14541.0.0","https://app.prolific.com/","en-GB,en-US;q=0.9,en;q=0.8","5b5f23420085cb0001872849","683dba2a8a9dda3513610c04","688113dc9d0f2df884384b27","3","0","5b5f23420085cb0001872849","3","0","","","","","","","","","","","","","[{""page_index"":0,""viewing_time"":3619}]","","","","","","","","","","","","","","","","","","","","","","","","","","","","","",""
"3038","","<p>Before you start with this game please answer the following three questions yourself. </p>
  <p>Through this game, we measure several aspects of your cognitive performance, such as reaction times, multi-tasking capabilities </p>
  <p>and the ability to assess the situation you are in.</p>
  <p></p>
  <p><b>How good do you usually are in such tasks?</b></p>","52","html-slider-response","6","80656","0.0-4.0-0.0","227","1","2025-07-23 16:55:05","1f75c3e559b7213887762d5229550c2b","94.3.17.192","Mozilla/5.0 (X11; CrOS x86_64 14541.0.0) AppleWebKit/537.36 (KHTML, like Gecko) Chrome/137.0.0.0 Safari/537.36","WebKit","Chrome","137.0.0.0","ChromeOS","14541.0.0","https://app.prolific.com/","en-GB,en-US;q=0.9,en;q=0.8","5b5f23420085cb0001872849","683dba2a8a9dda3513610c04","688113dc9d0f2df884384b27","3","0","5b5f23420085cb0001872849","3","0","2025-07-23T16:56:27.163Z","","","","","","","","","","","PreSkillQ","","50","","","","","","","","","","","","","","","","","","","","","","","","","","","","",""
"2476","","<div style=""width:500px;"">
  <p>How well do you think you will perform in this task compared to other participants?</p>
  </div>","37","html-slider-response","7","83135","0.0-4.0-1.0","227","1","2025-07-23 16:55:05","1f75c3e559b7213887762d5229550c2b","94.3.17.192","Mozilla/5.0 (X11; CrOS x86_64 14541.0.0) AppleWebKit/537.36 (KHTML, like Gecko) Chrome/137.0.0.0 Safari/537.36","WebKit","Chrome","137.0.0.0","ChromeOS","14541.0.0","https://app.prolific.com/","en-GB,en-US;q=0.9,en;q=0.8","5b5f23420085cb0001872849","683dba2a8a9dda3513610c04","688113dc9d0f2df884384b27","3","0","5b5f23420085cb0001872849","3","0","2025-07-23T16:56:29.643Z","","","","","","","","","","","PrePerfQ","","50","","","","","","","","","","","","","","","","","","","","","","","","","","","","",""
"2877","","<div style=""width:500px;"">
  <p>What best describes how you currently feel?</p>
  </div>","31","html-slider-response","8","86016","0.0-4.0-2.0","227","1","2025-07-23 16:55:05","1f75c3e559b7213887762d5229550c2b","94.3.17.192","Mozilla/5.0 (X11; CrOS x86_64 14541.0.0) AppleWebKit/537.36 (KHTML, like Gecko) Chrome/137.0.0.0 Safari/537.36","WebKit","Chrome","137.0.0.0","ChromeOS","14541.0.0","https://app.prolific.com/","en-GB,en-US;q=0.9,en;q=0.8","5b5f23420085cb0001872849","683dba2a8a9dda3513610c04","688113dc9d0f2df884384b27","3","0","5b5f23420085cb0001872849","3","0","2025-07-23T16:56:32.523Z","","","","","","","","","","","PreMotivationQ","","50","","","","","","","","","","","","","","","","","","","","","","","","","","","","",""
"","","","","ctl-task-cpt","9","110029","0.0-5.0-0.0","227","1","2025-07-23 16:55:05","1f75c3e559b7213887762d5229550c2b","94.3.17.192","Mozilla/5.0 (X11; CrOS x86_64 14541.0.0) AppleWebKit/537.36 (KHTML, like Gecko) Chrome/137.0.0.0 Safari/537.36","WebKit","Chrome","137.0.0.0","ChromeOS","14541.0.0","https://app.prolific.com/","en-GB,en-US;q=0.9,en;q=0.8","5b5f23420085cb0001872849","683dba2a8a9dda3513610c04","688113dc9d0f2df884384b27","3","0","5b5f23420085cb0001872849","3","0","2025-07-23T16:56:56.536Z","","","","","","","","","","","","","","win-only","0","g1:NW,g2:SE","1","1","0","87924.8","1467.9","6471.9","20980.2","1","4","8","6","2","8","8","8","0","0.06060606060606061","1311.2","3000","925","[""down"",""right""]","{""num_key_presses"":6,""num_perfect"":6,""num_errors"":0,""num_randdir"":0,""num_randdir_good_moves"":0,""num_whilered"":0,""num_whileblue"":0,""num_blue"":0,""num_good_moves"":6}","[415.3214133126395,420.32142761775424,0.6,415.3214133126395,420.32142761775424,103.2,415.3214133126395,420.32142761775424,203.3,415.3214133126395,420.32142761775424,303.4,415.3214133126395,420.32142761775424,409.8,415.3214133126395,420.32142761775424,510.9,415.3214133126395,420.32142761775424,613.4,602.8214133126395,560.3214276177542,718.2,671.5714133126395,644.0714276177542,818.2,677.8214133126395,656.5714276177542,923.3,754.0714133126395,755.3214276177542,1029,756.5714133126395,757.8214276177542,1130.4,756.5714133126395,757.8214276177542,1235.4,756.5714133126395,757.8214276177542,1338.9,756.5714133126395,757.8214276177542,1440.3,756.5714133126395,757.8214276177542,1541.6,756.5714133126395,757.8214276177542,1644.3,756.5714133126395,757.8214276177542,1748.3,756.5714133126395,757.8214276177542,1848.3,756.5714133126395,757.8214276177542,1948.3,756.5714133126395,757.8214276177542,2053.1,756.5714133126395,757.8214276177542,2153.4,756.5714133126395,757.8214276177542,2258.5,756.5714133126395,757.8214276177542,2358.5,756.5714133126395,757.8214276177542,2459.6,756.5714133126395,757.8214276177542,2563,756.5714133126395,757.8214276177542,2667.9,756.5714133126395,757.8214276177542,2768,756.5714133126395,757.8214276177542,2868.1,756.5714133126395,757.8214276177542,2970,756.5714133126395,757.8214276177542,3073.2,756.5714133126395,757.8214276177542,3173.6,756.5714133126395,757.8214276177542,3274.4,756.5714133126395,757.8214276177542,3377.9,756.5714133126395,757.8214276177542,3477.9,756.5714133126395,757.8214276177542,3578.5,756.5714133126395,757.8214276177542,3683,756.5714133126395,757.8214276177542,3788,756.5714133126395,757.8214276177542,3888.3,756.5714133126395,757.8214276177542,3988.5,756.5714133126395,757.8214276177542,4088.5,756.5714133126395,757.8214276177542,4193.1,756.5714133126395,757.8214276177542,4293.7,756.5714133126395,757.8214276177542,4397.9,756.5714133126395,757.8214276177542,4498.3,756.5714133126395,757.8214276177542,4603.3,756.5714133126395,757.8214276177542,4707.8,756.5714133126395,757.8214276177542,4808.8,756.5714133126395,757.8214276177542,4920.4]","[1406.1,1406.1,1000,0,406.1,""smooth"",""down"",""down"",""good_move"",4271.9,2864.9,2494.8,1407.2,370,""smooth"",""right"",""right"",""good_move"",6862.4,2589.5,2254.7,4273,334.7,""smooth"",""down"",""down"",""good_move"",9285.5,2422.4,2102.2,6863.2,320.1,""smooth"",""right"",""right"",""good_move"",11254.4,1968.5,1623.3,9285.9,345.3,""smooth"",""right"",""right"",""good_move"",14406.9,3151.7,2767.2,11255.2,384.5,""smooth"",""down"",""down"",""good_move""]","",""
"4854","","<div style=""width:500px;"">
  <p>What determined the result of this run?</p>
  </div>","81","html-slider-response","10","114886","0.0-5.0-1.0","227","1","2025-07-23 16:55:05","1f75c3e559b7213887762d5229550c2b","94.3.17.192","Mozilla/5.0 (X11; CrOS x86_64 14541.0.0) AppleWebKit/537.36 (KHTML, like Gecko) Chrome/137.0.0.0 Safari/537.36","WebKit","Chrome","137.0.0.0","ChromeOS","14541.0.0","https://app.prolific.com/","en-GB,en-US;q=0.9,en;q=0.8","5b5f23420085cb0001872849","683dba2a8a9dda3513610c04","688113dc9d0f2df884384b27","3","0","5b5f23420085cb0001872849","3","0","2025-07-23T16:57:01.394Z","","","","","","","","","","","AttribQ","","50","","","","","","","","","","","","","","","","","","","","","","","","","","","","",""
"3077","","<div style=""width:500px;"">
  <p>How much control did you have over the ball?</p>
  </div>","96","html-slider-response","11","117967","0.0-5.0-2.0","227","1","2025-07-23 16:55:05","1f75c3e559b7213887762d5229550c2b","94.3.17.192","Mozilla/5.0 (X11; CrOS x86_64 14541.0.0) AppleWebKit/537.36 (KHTML, like Gecko) Chrome/137.0.0.0 Safari/537.36","WebKit","Chrome","137.0.0.0","ChromeOS","14541.0.0","https://app.prolific.com/","en-GB,en-US;q=0.9,en;q=0.8","5b5f23420085cb0001872849","683dba2a8a9dda3513610c04","688113dc9d0f2df884384b27","3","0","5b5f23420085cb0001872849","3","0","2025-07-23T16:57:04.474Z","","","","","","","","","","","ControlQ","","50","","","","","","","","","","","","","","","","","","","","","","","","","","","","",""
"3348","","<div style=""width:500px;"">
  <p>How would you describe your current emotional state?</p>
  </div>","16","html-slider-response","12","121318","0.0-5.0-3.0","227","1","2025-07-23 16:55:05","1f75c3e559b7213887762d5229550c2b","94.3.17.192","Mozilla/5.0 (X11; CrOS x86_64 14541.0.0) AppleWebKit/537.36 (KHTML, like Gecko) Chrome/137.0.0.0 Safari/537.36","WebKit","Chrome","137.0.0.0","ChromeOS","14541.0.0","https://app.prolific.com/","en-GB,en-US;q=0.9,en;q=0.8","5b5f23420085cb0001872849","683dba2a8a9dda3513610c04","688113dc9d0f2df884384b27","3","0","5b5f23420085cb0001872849","3","0","2025-07-23T16:57:07.825Z","","","","","","","","","","","StressQ","","50","","","","","","","","","","","","","","","","","","","","","","","","","","","","",""
"3751","","<div style=""width:500px;"">
  <p>What best describes how you currently feel?</p>
  </div>","37","html-slider-response","13","125072","0.0-5.0-4.0","227","1","2025-07-23 16:55:05","1f75c3e559b7213887762d5229550c2b","94.3.17.192","Mozilla/5.0 (X11; CrOS x86_64 14541.0.0) AppleWebKit/537.36 (KHTML, like Gecko) Chrome/137.0.0.0 Safari/537.36","WebKit","Chrome","137.0.0.0","ChromeOS","14541.0.0","https://app.prolific.com/","en-GB,en-US;q=0.9,en;q=0.8","5b5f23420085cb0001872849","683dba2a8a9dda3513610c04","688113dc9d0f2df884384b27","3","0","5b5f23420085cb0001872849","3","0","2025-07-23T16:57:11.579Z","","","","","","","","","","","MotivationQ","","50","","","","","","","","","","","","","","","","","","","","","","","","","","","","",""
"","","","","ctl-task-cpt","14","164684","0.0-5.0-0.1","227","1","2025-07-23 16:55:05","1f75c3e559b7213887762d5229550c2b","94.3.17.192","Mozilla/5.0 (X11; CrOS x86_64 14541.0.0) AppleWebKit/537.36 (KHTML, like Gecko) Chrome/137.0.0.0 Safari/537.36","WebKit","Chrome","137.0.0.0","ChromeOS","14541.0.0","https://app.prolific.com/","en-GB,en-US;q=0.9,en;q=0.8","5b5f23420085cb0001872849","683dba2a8a9dda3513610c04","688113dc9d0f2df884384b27","3","0","5b5f23420085cb0001872849","3","0","2025-07-23T16:57:51.191Z","","","","","","","","","","","","","","win-only","3","g1:SW,g2:NE","0.9","2","0","126963.1","1286.7","6291","36600.8","1","4","4","6","2","4","4","12","8","0.09090909090909091","1098.9","3000","950","[""up"",""right""]","{""num_key_presses"":6,""num_perfect"":5,""num_errors"":0,""num_randdir"":1,""num_randdir_good_moves"":1,""num_whilered"":0,""num_whileblue"":0,""num_blue"":4,""num_good_moves"":6}","[416.5714133126395,424.07142761775424,0.7,416.5714133126395,424.07142761775424,104.3,416.5714133126395,424.07142761775424,208.8,416.5714133126395,424.07142761775424,309.1,416.5714133126395,424.07142761775424,409.3,439.0714133126395,401.57142761775424,517.3,842.8214133126395,89.07142761775425,617.6,859.0714133126395,70.32142761775425,719.6,851.5714133126395,57.82142761775425,819.6,790.3214133126395,56.57142761775425,921.7,790.3214133126395,56.57142761775425,1024.7,790.3214133126395,56.57142761775425,1126.5,790.3214133126395,56.57142761775425,1234.1,790.3214133126395,56.57142761775425,1335.5,906.5714133126395,106.57142761775425,1438,1021.5714133126395,286.57142761775424,1540,1021.5714133126395,286.57142761775424,1640,1021.5714133126395,286.57142761775424,1746.2,1021.5714133126395,286.57142761775424,1849.7,1021.5714133126395,286.57142761775424,1950.5,1021.5714133126395,286.57142761775424,2054.5,1021.5714133126395,286.57142761775424,2154.5,1021.5714133126395,286.57142761775424,2259.7,1021.5714133126395,286.57142761775424,2359.7,1021.5714133126395,286.57142761775424,2459.8,1021.5714133126395,286.57142761775424,2563.9,1021.5714133126395,286.57142761775424,2664.7,1021.5714133126395,286.57142761775424,2769.2,1021.5714133126395,286.57142761775424,2874.4,1021.5714133126395,286.57142761775424,2979,1021.5714133126395,286.57142761775424,3080.5,1021.5714133126395,286.57142761775424,3183.9,1021.5714133126395,286.57142761775424,3284,1021.5714133126395,286.57142761775424,3388.8,1021.5714133126395,286.57142761775424,3489.3,1021.5714133126395,286.57142761775424,3589.4,1021.5714133126395,286.57142761775424,3694.6,1021.5714133126395,286.57142761775424,3799.5,1021.5714133126395,286.57142761775424,3901.2,1021.5714133126395,286.57142761775424,4002.7,1021.5714133126395,286.57142761775424,4104.1,1021.5714133126395,286.57142761775424,4204.5,1021.5714133126395,286.57142761775424,4309,1021.5714133126395,286.57142761775424,4409.5,1021.5714133126395,286.57142761775424,4513.8,1021.5714133126395,286.57142761775424,4614,1021.5714133126395,286.57142761775424,4717.9,1021.5714133126395,286.57142761775424,4819.6,1021.5714133126395,286.57142761775424,4923.8]","[1362,1362,1000,0,362,""smooth"",""up"",""up"",""good_move"",11558.5,10195.9,2839.6,8384.8,334.2,""smooth"",""right"",""right"",""good_move"",17651.9,6092.3,1760.1,15564.8,327,""smooth"",""up"",""up"",""good_move"",23963.8,6311.8,2091.4,21514.9,357.6,""smooth"",""right"",""right"",""good_move"",26790.8,2826.6,2461.7,23964.3,364.8,""oops"",""up"",""up"",""good_move"",30211.2,3419.9,3071.8,26791.3,348.1,""smooth"",""right"",""right"",""good_move""]","",""
"2734","","<div style=""width:500px;"">
  <p>What determined the result of this run?</p>
  </div>","84","html-slider-response","15","167419","0.0-5.0-1.1","227","1","2025-07-23 16:55:05","1f75c3e559b7213887762d5229550c2b","94.3.17.192","Mozilla/5.0 (X11; CrOS x86_64 14541.0.0) AppleWebKit/537.36 (KHTML, like Gecko) Chrome/137.0.0.0 Safari/537.36","WebKit","Chrome","137.0.0.0","ChromeOS","14541.0.0","https://app.prolific.com/","en-GB,en-US;q=0.9,en;q=0.8","5b5f23420085cb0001872849","683dba2a8a9dda3513610c04","688113dc9d0f2df884384b27","3","0","5b5f23420085cb0001872849","3","0","2025-07-23T16:57:53.927Z","","","","","","","","","","","AttribQ","","50","","","","","","","","","","","","","","","","","","","","","","","","","","","","",""
"2625","","<div style=""width:500px;"">
  <p>How much control did you have over the ball?</p>
  </div>","84","html-slider-response","16","170045","0.0-5.0-2.1","227","1","2025-07-23 16:55:05","1f75c3e559b7213887762d5229550c2b","94.3.17.192","Mozilla/5.0 (X11; CrOS x86_64 14541.0.0) AppleWebKit/537.36 (KHTML, like Gecko) Chrome/137.0.0.0 Safari/537.36","WebKit","Chrome","137.0.0.0","ChromeOS","14541.0.0","https://app.prolific.com/","en-GB,en-US;q=0.9,en;q=0.8","5b5f23420085cb0001872849","683dba2a8a9dda3513610c04","688113dc9d0f2df884384b27","3","0","5b5f23420085cb0001872849","3","0","2025-07-23T16:57:56.553Z","","","","","","","","","","","ControlQ","","50","","","","","","","","","","","","","","","","","","","","","","","","","","","","",""
"2834","","<div style=""width:500px;"">
  <p>How would you describe your current emotional state?</p>
  </div>","17","html-slider-response","17","172882","0.0-5.0-3.1","227","1","2025-07-23 16:55:05","1f75c3e559b7213887762d5229550c2b","94.3.17.192","Mozilla/5.0 (X11; CrOS x86_64 14541.0.0) AppleWebKit/537.36 (KHTML, like Gecko) Chrome/137.0.0.0 Safari/537.36","WebKit","Chrome","137.0.0.0","ChromeOS","14541.0.0","https://app.prolific.com/","en-GB,en-US;q=0.9,en;q=0.8","5b5f23420085cb0001872849","683dba2a8a9dda3513610c04","688113dc9d0f2df884384b27","3","0","5b5f23420085cb0001872849","3","0","2025-07-23T16:57:59.389Z","","","","","","","","","","","StressQ","","50","","","","","","","","","","","","","","","","","","","","","","","","","","","","",""
"2052","","<div style=""width:500px;"">
  <p>What best describes how you currently feel?</p>
  </div>","43","html-slider-response","18","174935","0.0-5.0-4.1","227","1","2025-07-23 16:55:05","1f75c3e559b7213887762d5229550c2b","94.3.17.192","Mozilla/5.0 (X11; CrOS x86_64 14541.0.0) AppleWebKit/537.36 (KHTML, like Gecko) Chrome/137.0.0.0 Safari/537.36","WebKit","Chrome","137.0.0.0","ChromeOS","14541.0.0","https://app.prolific.com/","en-GB,en-US;q=0.9,en;q=0.8","5b5f23420085cb0001872849","683dba2a8a9dda3513610c04","688113dc9d0f2df884384b27","3","0","5b5f23420085cb0001872849","3","0","2025-07-23T16:58:01.443Z","","","","","","","","","","","MotivationQ","","50","","","","","","","","","","","","","","","","","","","","","","","","","","","","",""
"","","","","ctl-task-cpt","19","211409","0.0-5.0-0.2","227","1","2025-07-23 16:55:05","1f75c3e559b7213887762d5229550c2b","94.3.17.192","Mozilla/5.0 (X11; CrOS x86_64 14541.0.0) AppleWebKit/537.36 (KHTML, like Gecko) Chrome/137.0.0.0 Safari/537.36","WebKit","Chrome","137.0.0.0","ChromeOS","14541.0.0","https://app.prolific.com/","en-GB,en-US;q=0.9,en;q=0.8","5b5f23420085cb0001872849","683dba2a8a9dda3513610c04","688113dc9d0f2df884384b27","3","0","5b5f23420085cb0001872849","3","0","2025-07-23T16:58:37.917Z","","","","","","","","","","","","","","win-only","3","g1:SW,g2:NE","0.8","3","0","176827","1062.5","6065.6","33461.2","1","4","4","6","2","4","4","16","12","0.12121212121212122","1324.4","3000","800","[""up"",""right""]","{""num_key_presses"":6,""num_perfect"":4,""num_errors"":0,""num_randdir"":2,""num_randdir_good_moves"":2,""num_whilered"":0,""num_whileblue"":0,""num_blue"":3,""num_good_moves"":6}","[416.5714133126395,414.07142761775424,0.8,416.5714133126395,414.07142761775424,105.8,416.5714133126395,414.07142761775424,208.4,416.5714133126395,414.07142761775424,313.3,416.5714133126395,414.07142761775424,415.9,416.5714133126395,414.07142761775424,517.1,416.5714133126395,414.07142761775424,618.8,464.0714133126395,374.07142761775424,722.9,836.5714133126395,81.57142761775425,822.9,850.3214133126395,54.07142761775425,927.2,851.5714133126395,41.57142761775425,1028.5,827.8214133126395,54.07142761775425,1128.9,827.8214133126395,54.07142761775425,1231.5,827.8214133126395,54.07142761775425,1333.7,827.8214133126395,54.07142761775425,1436,827.8214133126395,54.07142761775425,1539.4,880.3214133126395,77.82142761775425,1643.1,1146.5714133126396,306.57142761775424,1744,1146.5714133126396,306.57142761775424,1844.4,1146.5714133126396,306.57142761775424,1949.1,1146.5714133126396,306.57142761775424,2053.5,1146.5714133126396,306.57142761775424,2153.7,1146.5714133126396,306.57142761775424,2258.6,1146.5714133126396,306.57142761775424,2363,1146.5714133126396,306.57142761775424,2463.2,1146.5714133126396,306.57142761775424,2564.2,1146.5714133126396,306.57142761775424,2666.2,1146.5714133126396,306.57142761775424,2773.7,1146.5714133126396,306.57142761775424,2877.9,1146.5714133126396,306.57142761775424,2978.4,1146.5714133126396,306.57142761775424,3083.3,1146.5714133126396,306.57142761775424,3188,1146.5714133126396,306.57142761775424,3293.1,1146.5714133126396,306.57142761775424,3398.2,1146.5714133126396,306.57142761775424,3502.9,1146.5714133126396,306.57142761775424,3603,1146.5714133126396,306.57142761775424,3703.8,1146.5714133126396,306.57142761775424,3807.9,1146.5714133126396,306.57142761775424,3908.3,1146.5714133126396,306.57142761775424,4009.2,1146.5714133126396,306.57142761775424,4109.3,1146.5714133126396,306.57142761775424,4213.3,1146.5714133126396,306.57142761775424,4313.3,1146.5714133126396,306.57142761775424,4413.4,1146.5714133126396,306.57142761775424,4518.7,1146.5714133126396,306.57142761775424,4623.2,1146.5714133126396,306.57142761775424,4723.2,1146.5714133126396,306.57142761775424,4828,1146.5714133126396,306.57142761775424,4928.4]","[1332.7,1332.7,1000,0,332.8,""smooth"",""up"",""up"",""good_move"",8396.9,7062.5,2719.6,5354.9,322.5,""smooth"",""right"",""right"",""good_move"",11377.8,2979.9,2492.3,8398,487.5,""smooth"",""up"",""up"",""good_move"",14419,3041,2515.2,11378.1,525.8,""oops"",""right"",""right"",""good_move"",17319.4,2899.6,2577.7,14419.8,321.9,""oops"",""up"",""up"",""good_move"",27308.6,9988.8,2513.6,24449.9,345.2,""smooth"",""right"",""right"",""good_move""]","",""
"2829","","<div style=""width:500px;"">
  <p>What determined the result of this run?</p>
  </div>","83","html-slider-response","20","214242","0.0-5.0-1.2","227","1","2025-07-23 16:55:05","1f75c3e559b7213887762d5229550c2b","94.3.17.192","Mozilla/5.0 (X11; CrOS x86_64 14541.0.0) AppleWebKit/537.36 (KHTML, like Gecko) Chrome/137.0.0.0 Safari/537.36","WebKit","Chrome","137.0.0.0","ChromeOS","14541.0.0","https://app.prolific.com/","en-GB,en-US;q=0.9,en;q=0.8","5b5f23420085cb0001872849","683dba2a8a9dda3513610c04","688113dc9d0f2df884384b27","3","0","5b5f23420085cb0001872849","3","0","2025-07-23T16:58:40.749Z","","","","","","","","","","","AttribQ","","50","","","","","","","","","","","","","","","","","","","","","","","","","","","","",""
"2106","","<div style=""width:500px;"">
  <p>How much control did you have over the ball?</p>
  </div>","86","html-slider-response","21","216350","0.0-5.0-2.2","227","1","2025-07-23 16:55:05","1f75c3e559b7213887762d5229550c2b","94.3.17.192","Mozilla/5.0 (X11; CrOS x86_64 14541.0.0) AppleWebKit/537.36 (KHTML, like Gecko) Chrome/137.0.0.0 Safari/537.36","WebKit","Chrome","137.0.0.0","ChromeOS","14541.0.0","https://app.prolific.com/","en-GB,en-US;q=0.9,en;q=0.8","5b5f23420085cb0001872849","683dba2a8a9dda3513610c04","688113dc9d0f2df884384b27","3","0","5b5f23420085cb0001872849","3","0","2025-07-23T16:58:42.857Z","","","","","","","","","","","ControlQ","","50","","","","","","","","","","","","","","","","","","","","","","","","","","","","",""
"3133","","<div style=""width:500px;"">
  <p>How would you describe your current emotional state?</p>
  </div>","14","html-slider-response","22","219485","0.0-5.0-3.2","227","1","2025-07-23 16:55:05","1f75c3e559b7213887762d5229550c2b","94.3.17.192","Mozilla/5.0 (X11; CrOS x86_64 14541.0.0) AppleWebKit/537.36 (KHTML, like Gecko) Chrome/137.0.0.0 Safari/537.36","WebKit","Chrome","137.0.0.0","ChromeOS","14541.0.0","https://app.prolific.com/","en-GB,en-US;q=0.9,en;q=0.8","5b5f23420085cb0001872849","683dba2a8a9dda3513610c04","688113dc9d0f2df884384b27","3","0","5b5f23420085cb0001872849","3","0","2025-07-23T16:58:45.992Z","","","","","","","","","","","StressQ","","50","","","","","","","","","","","","","","","","","","","","","","","","","","","","",""
"2253","","<div style=""width:500px;"">
  <p>What best describes how you currently feel?</p>
  </div>","54","html-slider-response","23","221739","0.0-5.0-4.2","227","1","2025-07-23 16:55:05","1f75c3e559b7213887762d5229550c2b","94.3.17.192","Mozilla/5.0 (X11; CrOS x86_64 14541.0.0) AppleWebKit/537.36 (KHTML, like Gecko) Chrome/137.0.0.0 Safari/537.36","WebKit","Chrome","137.0.0.0","ChromeOS","14541.0.0","https://app.prolific.com/","en-GB,en-US;q=0.9,en;q=0.8","5b5f23420085cb0001872849","683dba2a8a9dda3513610c04","688113dc9d0f2df884384b27","3","0","5b5f23420085cb0001872849","3","0","2025-07-23T16:58:48.246Z","","","","","","","","","","","MotivationQ","","50","","","","","","","","","","","","","","","","","","","","","","","","","","","","",""
"","","","","ctl-task-cpt","24","249636","0.0-5.0-0.3","227","1","2025-07-23 16:55:05","1f75c3e559b7213887762d5229550c2b","94.3.17.192","Mozilla/5.0 (X11; CrOS x86_64 14541.0.0) AppleWebKit/537.36 (KHTML, like Gecko) Chrome/137.0.0.0 Safari/537.36","WebKit","Chrome","137.0.0.0","ChromeOS","14541.0.0","https://app.prolific.com/","en-GB,en-US;q=0.9,en;q=0.8","5b5f23420085cb0001872849","683dba2a8a9dda3513610c04","688113dc9d0f2df884384b27","3","0","5b5f23420085cb0001872849","3","0","2025-07-23T16:59:16.144Z","","","","","","","","","","","","","","win-only","3","g1:SW,g2:NE","0.7","4","0","223629.2","1244.7","6246.2","24880.6","1","4","8","6","2","8","8","24","16","0.18181818181818182","1078.6","3000","1110","[""up"",""right""]","{""num_key_presses"":6,""num_perfect"":4,""num_errors"":0,""num_randdir"":2,""num_randdir_good_moves"":2,""num_whilered"":0,""num_whileblue"":0,""num_blue"":1,""num_good_moves"":6}","[411.5714133126395,406.57142761775424,0.7,411.5714133126395,406.57142761775424,101,411.5714133126395,406.57142761775424,204.6,411.5714133126395,406.57142761775424,306.5,411.5714133126395,406.57142761775424,411.4,411.5714133126395,406.57142761775424,512.4,691.5714133126395,29.071427617754253,613.5,709.0714133126395,15.321427617754253,719.7,719.0714133126395,17.821427617754253,822.4,749.0714133126395,52.82142761775425,925.8,749.0714133126395,52.82142761775425,1026.2,749.0714133126395,52.82142761775425,1127.1,749.0714133126395,52.82142761775425,1230.8,749.0714133126395,52.82142761775425,1335.8,749.0714133126395,52.82142761775425,1437.6,1127.8214133126396,290.32142761775424,1546.5,1127.8214133126396,290.32142761775424,1650.6,1127.8214133126396,290.32142761775424,1753.2,1127.8214133126396,290.32142761775424,1858.7,1127.8214133126396,290.32142761775424,1963.6,1127.8214133126396,290.32142761775424,2065.9,1127.8214133126396,290.32142761775424,2166.7,1127.8214133126396,290.32142761775424,2267,1127.8214133126396,290.32142761775424,2371.6,1127.8214133126396,290.32142761775424,2472.6,1127.8214133126396,290.32142761775424,2576.8,1127.8214133126396,290.32142761775424,2679.1,1127.8214133126396,290.32142761775424,2781.1,1127.8214133126396,290.32142761775424,2885.7,1127.8214133126396,290.32142761775424,2990.7,1127.8214133126396,290.32142761775424,3090.7,1127.8214133126396,290.32142761775424,3195.6,1127.8214133126396,290.32142761775424,3296.4,1127.8214133126396,290.32142761775424,3402.9,1127.8214133126396,290.32142761775424,3504.5,1127.8214133126396,290.32142761775424,3605.4,1127.8214133126396,290.32142761775424,3710.7,1127.8214133126396,290.32142761775424,3822.6,1127.8214133126396,290.32142761775424,3929,1127.8214133126396,290.32142761775424,4032.6,1127.8214133126396,290.32142761775424,4134.2,1127.8214133126396,290.32142761775424,4235.7,1127.8214133126396,290.32142761775424,4335.9,1127.8214133126396,290.32142761775424,4440.9,1127.8214133126396,290.32142761775424,4543.8,1127.8214133126396,290.32142761775424,4648.4,1127.8214133126396,290.32142761775424,4751.1,1127.8214133126396,290.32142761775424,4853.7,1127.8214133126396,290.32142761775424,4955.2]","[1391.5,1391.5,1000,0,391.5,""smooth"",""up"",""up"",""good_move"",3728.5,2336.1,1942.8,1392.5,393.3,""smooth"",""right"",""right"",""good_move"",8824.4,5094.7,1675.5,6833.4,315.5,""oops"",""up"",""up"",""good_move"",11694.8,2869.7,2446.7,8825.1,423,""oops"",""right"",""up"",""good_move"",15203.1,3507.6,3135.1,11695.6,372.4,""smooth"",""right"",""right"",""good_move"",18527.7,3324,2948.7,15203.7,375.3,""smooth"",""right"",""right"",""good_move""]","",""
"3267","","<div style=""width:500px;"">
  <p>What determined the result of this run?</p>
  </div>","90","html-slider-response","25","252906","0.0-5.0-1.3","227","1","2025-07-23 16:55:05","1f75c3e559b7213887762d5229550c2b","94.3.17.192","Mozilla/5.0 (X11; CrOS x86_64 14541.0.0) AppleWebKit/537.36 (KHTML, like Gecko) Chrome/137.0.0.0 Safari/537.36","WebKit","Chrome","137.0.0.0","ChromeOS","14541.0.0","https://app.prolific.com/","en-GB,en-US;q=0.9,en;q=0.8","5b5f23420085cb0001872849","683dba2a8a9dda3513610c04","688113dc9d0f2df884384b27","3","0","5b5f23420085cb0001872849","3","0","2025-07-23T16:59:19.413Z","","","","","","","","","","","AttribQ","","50","","","","","","","","","","","","","","","","","","","","","","","","","","","","",""
"1634","","<div style=""width:500px;"">
  <p>How much control did you have over the ball?</p>
  </div>","86","html-slider-response","26","254542","0.0-5.0-2.3","227","1","2025-07-23 16:55:05","1f75c3e559b7213887762d5229550c2b","94.3.17.192","Mozilla/5.0 (X11; CrOS x86_64 14541.0.0) AppleWebKit/537.36 (KHTML, like Gecko) Chrome/137.0.0.0 Safari/537.36","WebKit","Chrome","137.0.0.0","ChromeOS","14541.0.0","https://app.prolific.com/","en-GB,en-US;q=0.9,en;q=0.8","5b5f23420085cb0001872849","683dba2a8a9dda3513610c04","688113dc9d0f2df884384b27","3","0","5b5f23420085cb0001872849","3","0","2025-07-23T16:59:21.049Z","","","","","","","","","","","ControlQ","","50","","","","","","","","","","","","","","","","","","","","","","","","","","","","",""
"2525","","<div style=""width:500px;"">
  <p>How would you describe your current emotional state?</p>
  </div>","10","html-slider-response","27","257068","0.0-5.0-3.3","227","1","2025-07-23 16:55:05","1f75c3e559b7213887762d5229550c2b","94.3.17.192","Mozilla/5.0 (X11; CrOS x86_64 14541.0.0) AppleWebKit/537.36 (KHTML, like Gecko) Chrome/137.0.0.0 Safari/537.36","WebKit","Chrome","137.0.0.0","ChromeOS","14541.0.0","https://app.prolific.com/","en-GB,en-US;q=0.9,en;q=0.8","5b5f23420085cb0001872849","683dba2a8a9dda3513610c04","688113dc9d0f2df884384b27","3","0","5b5f23420085cb0001872849","3","0","2025-07-23T16:59:23.575Z","","","","","","","","","","","StressQ","","50","","","","","","","","","","","","","","","","","","","","","","","","","","","","",""
"2070","","<div style=""width:500px;"">
  <p>What best describes how you currently feel?</p>
  </div>","63","html-slider-response","28","259139","0.0-5.0-4.3","227","1","2025-07-23 16:55:05","1f75c3e559b7213887762d5229550c2b","94.3.17.192","Mozilla/5.0 (X11; CrOS x86_64 14541.0.0) AppleWebKit/537.36 (KHTML, like Gecko) Chrome/137.0.0.0 Safari/537.36","WebKit","Chrome","137.0.0.0","ChromeOS","14541.0.0","https://app.prolific.com/","en-GB,en-US;q=0.9,en;q=0.8","5b5f23420085cb0001872849","683dba2a8a9dda3513610c04","688113dc9d0f2df884384b27","3","0","5b5f23420085cb0001872849","3","0","2025-07-23T16:59:25.647Z","","","","","","","","","","","MotivationQ","","50","","","","","","","","","","","","","","","","","","","","","","","","","","","","",""
"","","","","ctl-task-cpt","29","292834","0.0-5.0-0.4","227","1","2025-07-23 16:55:05","1f75c3e559b7213887762d5229550c2b","94.3.17.192","Mozilla/5.0 (X11; CrOS x86_64 14541.0.0) AppleWebKit/537.36 (KHTML, like Gecko) Chrome/137.0.0.0 Safari/537.36","WebKit","Chrome","137.0.0.0","ChromeOS","14541.0.0","https://app.prolific.com/","en-GB,en-US;q=0.9,en;q=0.8","5b5f23420085cb0001872849","683dba2a8a9dda3513610c04","688113dc9d0f2df884384b27","3","0","5b5f23420085cb0001872849","3","0","2025-07-23T16:59:59.341Z","","","","","","","","","","","","","","win-only","1","g1:NE,g2:SW","0.6","5","0","261030.3","1015.3","6016.9","30682","1","4","8","6","2","8","8","32","24","0.24242424242424243","1034.9","3000","1130","[""down"",""left""]","{""num_key_presses"":8,""num_perfect"":6,""num_errors"":0,""num_randdir"":2,""num_randdir_good_moves"":1,""num_whilered"":0,""num_whileblue"":0,""num_blue"":1,""num_good_moves"":7}","[421.5714133126395,407.82142761775424,1.7,421.5714133126395,407.82142761775424,101,421.5714133126395,407.82142761775424,201.2,421.5714133126395,407.82142761775424,301.7,421.5714133126395,407.82142761775424,410.6,421.5714133126395,407.82142761775424,516.5,100.3214133126395,699.0714276177542,618.7,79.0714133126395,730.3214276177542,725,77.8214133126395,732.8214276177542,825.4,77.8214133126395,732.8214276177542,925.7,77.8214133126395,732.8214276177542,1030.1,77.8214133126395,732.8214276177542,1130.5,77.8214133126395,732.8214276177542,1231.5,77.8214133126395,732.8214276177542,1336.2,937.8214133126395,437.82142761775424,1439.2,1160.3214133126396,500.32142761775424,1540.5,1160.3214133126396,500.32142761775424,1645.2,1160.3214133126396,500.32142761775424,1745.3,1160.3214133126396,500.32142761775424,1846,1160.3214133126396,500.32142761775424,1948.4,1160.3214133126396,500.32142761775424,2053.9,1160.3214133126396,500.32142761775424,2156.7,1160.3214133126396,500.32142761775424,2260.6,1160.3214133126396,500.32142761775424,2364.2,1160.3214133126396,500.32142761775424,2465.3,1160.3214133126396,500.32142761775424,2574.1,1160.3214133126396,500.32142761775424,2675.1,1160.3214133126396,500.32142761775424,2775.1,1160.3214133126396,500.32142761775424,2875.4,1160.3214133126396,500.32142761775424,2980.3,1160.3214133126396,500.32142761775424,3080.4,1160.3214133126396,500.32142761775424,3185.4,1160.3214133126396,500.32142761775424,3287.5,1160.3214133126396,500.32142761775424,3388.7,1160.3214133126396,500.32142761775424,3490.1,1160.3214133126396,500.32142761775424,3590.6,1160.3214133126396,500.32142761775424,3693.6,1160.3214133126396,500.32142761775424,3793.8,1160.3214133126396,500.32142761775424,3895.6,1160.3214133126396,500.32142761775424,4000.9,1160.3214133126396,500.32142761775424,4105.7,1160.3214133126396,500.32142761775424,4210,1160.3214133126396,500.32142761775424,4310,1160.3214133126396,500.32142761775424,4415.8,1160.3214133126396,500.32142761775424,4516.2,1160.3214133126396,500.32142761775424,4622.3,1160.3214133126396,500.32142761775424,4725.5,1160.3214133126396,500.32142761775424,4826,1160.3214133126396,500.32142761775424,4930.4]","[1381.9,1381.9,1000,0,381.9,""oops"",""down"",""up"",""bad_move"",4208,2824.6,2511.6,1383.4,313,""smooth"",""left"",""left"",""good_move"",7116.2,2907.7,2630.1,4208.5,277.6,""smooth"",""down"",""down"",""good_move"",10173.4,3056.3,2731.8,7117.2,324.5,""smooth"",""down"",""down"",""good_move"",12646.4,2472.2,2159.9,10174.3,312.3,""smooth"",""down"",""down"",""good_move"",19343.3,6696.3,3156.3,15835.4,351.6,""smooth"",""left"",""left"",""good_move"",22117.7,2773.1,2441.2,19344.7,331.8,""oops"",""left"",""down"",""good_move"",24523.4,2405.4,2082.9,22118,322.5,""smooth"",""left"",""left"",""good_move""]","",""
"3128","","<div style=""width:500px;"">
  <p>What determined the result of this run?</p>
  </div>","82","html-slider-response","30","295963","0.0-5.0-1.4","227","1","2025-07-23 16:55:05","1f75c3e559b7213887762d5229550c2b","94.3.17.192","Mozilla/5.0 (X11; CrOS x86_64 14541.0.0) AppleWebKit/537.36 (KHTML, like Gecko) Chrome/137.0.0.0 Safari/537.36","WebKit","Chrome","137.0.0.0","ChromeOS","14541.0.0","https://app.prolific.com/","en-GB,en-US;q=0.9,en;q=0.8","5b5f23420085cb0001872849","683dba2a8a9dda3513610c04","688113dc9d0f2df884384b27","3","0","5b5f23420085cb0001872849","3","0","2025-07-23T17:00:02.470Z","","","","","","","","","","","AttribQ","","50","","","","","","","","","","","","","","","","","","","","","","","","","","","","",""
"2060","","<div style=""width:500px;"">
  <p>How much control did you have over the ball?</p>
  </div>","77","html-slider-response","31","298025","0.0-5.0-2.4","227","1","2025-07-23 16:55:05","1f75c3e559b7213887762d5229550c2b","94.3.17.192","Mozilla/5.0 (X11; CrOS x86_64 14541.0.0) AppleWebKit/537.36 (KHTML, like Gecko) Chrome/137.0.0.0 Safari/537.36","WebKit","Chrome","137.0.0.0","ChromeOS","14541.0.0","https://app.prolific.com/","en-GB,en-US;q=0.9,en;q=0.8","5b5f23420085cb0001872849","683dba2a8a9dda3513610c04","688113dc9d0f2df884384b27","3","0","5b5f23420085cb0001872849","3","0","2025-07-23T17:00:04.532Z","","","","","","","","","","","ControlQ","","50","","","","","","","","","","","","","","","","","","","","","","","","","","","","",""
"2216","","<div style=""width:500px;"">
  <p>How would you describe your current emotional state?</p>
  </div>","16","html-slider-response","32","300242","0.0-5.0-3.4","227","1","2025-07-23 16:55:05","1f75c3e559b7213887762d5229550c2b","94.3.17.192","Mozilla/5.0 (X11; CrOS x86_64 14541.0.0) AppleWebKit/537.36 (KHTML, like Gecko) Chrome/137.0.0.0 Safari/537.36","WebKit","Chrome","137.0.0.0","ChromeOS","14541.0.0","https://app.prolific.com/","en-GB,en-US;q=0.9,en;q=0.8","5b5f23420085cb0001872849","683dba2a8a9dda3513610c04","688113dc9d0f2df884384b27","3","0","5b5f23420085cb0001872849","3","0","2025-07-23T17:00:06.749Z","","","","","","","","","","","StressQ","","50","","","","","","","","","","","","","","","","","","","","","","","","","","","","",""
"2479","","<div style=""width:500px;"">
  <p>What best describes how you currently feel?</p>
  </div>","62","html-slider-response","33","302722","0.0-5.0-4.4","227","1","2025-07-23 16:55:05","1f75c3e559b7213887762d5229550c2b","94.3.17.192","Mozilla/5.0 (X11; CrOS x86_64 14541.0.0) AppleWebKit/537.36 (KHTML, like Gecko) Chrome/137.0.0.0 Safari/537.36","WebKit","Chrome","137.0.0.0","ChromeOS","14541.0.0","https://app.prolific.com/","en-GB,en-US;q=0.9,en;q=0.8","5b5f23420085cb0001872849","683dba2a8a9dda3513610c04","688113dc9d0f2df884384b27","3","0","5b5f23420085cb0001872849","3","0","2025-07-23T17:00:09.229Z","","","","","","","","","","","MotivationQ","","50","","","","","","","","","","","","","","","","","","","","","","","","","","","","",""
"","","","","ctl-task-cpt","34","357700","0.0-5.0-0.5","227","1","2025-07-23 16:55:05","1f75c3e559b7213887762d5229550c2b","94.3.17.192","Mozilla/5.0 (X11; CrOS x86_64 14541.0.0) AppleWebKit/537.36 (KHTML, like Gecko) Chrome/137.0.0.0 Safari/537.36","WebKit","Chrome","137.0.0.0","ChromeOS","14541.0.0","https://app.prolific.com/","en-GB,en-US;q=0.9,en;q=0.8","5b5f23420085cb0001872849","683dba2a8a9dda3513610c04","688113dc9d0f2df884384b27","3","0","5b5f23420085cb0001872849","3","0","2025-07-23T17:01:04.207Z","","","","","","","","","","","","","","win-only","3","g1:SW,g2:NE","0.5","6","0","304612.8","1053.5","6055.7","51960.6","1","4","4","6","2","4","4","36","32","0.2727272727272727","1070.7","3000","560","[""up"",""right""]","{""num_key_presses"":10,""num_perfect"":5,""num_errors"":0,""num_randdir"":5,""num_randdir_good_moves"":3,""num_whilered"":0,""num_whileblue"":0,""num_blue"":6,""num_good_moves"":8}","[424.0714133126395,410.32142761775424,0.6,424.0714133126395,410.32142761775424,103.1,424.0714133126395,410.32142761775424,207.1,424.0714133126395,410.32142761775424,307.8,424.0714133126395,410.32142761775424,416.3,424.0714133126395,410.32142761775424,517.5,424.0714133126395,410.32142761775424,623.5,746.5714133126395,112.82142761775425,724.2,757.8214133126395,105.32142761775425,827,760.3214133126395,104.07142761775425,927,760.3214133126395,104.07142761775425,1032.1,760.3214133126395,104.07142761775425,1132.1,760.3214133126395,104.07142761775425,1236.9,760.3214133126395,104.07142761775425,1341,892.8214133126395,195.32142761775424,1445.4,969.0714133126395,281.57142761775424,1546.9,969.0714133126395,281.57142761775424,1655.9,969.0714133126395,281.57142761775424,1759.2,969.0714133126395,281.57142761775424,1862.3,969.0714133126395,281.57142761775424,1967.2,969.0714133126395,281.57142761775424,2073,969.0714133126395,281.57142761775424,2174.3,969.0714133126395,281.57142761775424,2280.7,969.0714133126395,281.57142761775424,2381.9,969.0714133126395,281.57142761775424,2481.9,969.0714133126395,281.57142761775424,2586,969.0714133126395,281.57142761775424,2686.9,969.0714133126395,281.57142761775424,2788.9,969.0714133126395,281.57142761775424,2892.1,969.0714133126395,281.57142761775424,2994.9,969.0714133126395,281.57142761775424,3096.1,969.0714133126395,281.57142761775424,3201.9,969.0714133126395,281.57142761775424,3306.9,969.0714133126395,281.57142761775424,3408.8,969.0714133126395,281.57142761775424,3509.3,969.0714133126395,281.57142761775424,3612,969.0714133126395,281.57142761775424,3716.9,969.0714133126395,281.57142761775424,3817.3,969.0714133126395,281.57142761775424,3922,969.0714133126395,281.57142761775424,4022.1,969.0714133126395,281.57142761775424,4127.1,969.0714133126395,281.57142761775424,4232.4,969.0714133126395,281.57142761775424,4337.3,969.0714133126395,281.57142761775424,4439.7,969.0714133126395,281.57142761775424,4550.6,969.0714133126395,281.57142761775424,4652.2,969.0714133126395,281.57142761775424,4757.6,969.0714133126395,281.57142761775424,4858.2,969.0714133126395,281.57142761775424,4961.9]","[1314.4,1314.4,1000,0,314.4,""smooth"",""up"",""up"",""good_move"",4015.5,2700.7,2414.9,1314.8,285.8,""oops"",""right"",""right"",""good_move"",14697.3,10681.4,2768.8,11619.7,308.8,""oops"",""up"",""down"",""bad_move"",20763.4,6065,2254.4,18167.1,342,""oops"",""up"",""left"",""bad_move"",23375.8,2611.2,2283.8,20764.6,327.4,""smooth"",""up"",""up"",""good_move"",26185.3,2808.5,2501.4,23376.8,307.1,""smooth"",""up"",""up"",""good_move"",31742.6,5556.3,2673,28735,334.7,""oops"",""right"",""right"",""good_move"",37428.6,5684.8,2553.9,34556.3,318.4,""smooth"",""right"",""right"",""good_move"",39512.7,2083.7,1604.1,37429,479.6,""oops"",""up"",""up"",""good_move"",45788.2,6274.4,2682.7,42808.3,297.3,""smooth"",""right"",""right"",""good_move""]","",""
"3362","","<div style=""width:500px;"">
  <p>What determined the result of this run?</p>
  </div>","85","html-slider-response","35","361064","0.0-5.0-1.5","227","1","2025-07-23 16:55:05","1f75c3e559b7213887762d5229550c2b","94.3.17.192","Mozilla/5.0 (X11; CrOS x86_64 14541.0.0) AppleWebKit/537.36 (KHTML, like Gecko) Chrome/137.0.0.0 Safari/537.36","WebKit","Chrome","137.0.0.0","ChromeOS","14541.0.0","https://app.prolific.com/","en-GB,en-US;q=0.9,en;q=0.8","5b5f23420085cb0001872849","683dba2a8a9dda3513610c04","688113dc9d0f2df884384b27","3","0","5b5f23420085cb0001872849","3","0","2025-07-23T17:01:07.571Z","","","","","","","","","","","AttribQ","","50","","","","","","","","","","","","","","","","","","","","","","","","","","","","",""
"2261","","<div style=""width:500px;"">
  <p>How much control did you have over the ball?</p>
  </div>","76","html-slider-response","36","363326","0.0-5.0-2.5","227","1","2025-07-23 16:55:05","1f75c3e559b7213887762d5229550c2b","94.3.17.192","Mozilla/5.0 (X11; CrOS x86_64 14541.0.0) AppleWebKit/537.36 (KHTML, like Gecko) Chrome/137.0.0.0 Safari/537.36","WebKit","Chrome","137.0.0.0","ChromeOS","14541.0.0","https://app.prolific.com/","en-GB,en-US;q=0.9,en;q=0.8","5b5f23420085cb0001872849","683dba2a8a9dda3513610c04","688113dc9d0f2df884384b27","3","0","5b5f23420085cb0001872849","3","0","2025-07-23T17:01:09.833Z","","","","","","","","","","","ControlQ","","50","","","","","","","","","","","","","","","","","","","","","","","","","","","","",""
"2652","","<div style=""width:500px;"">
  <p>How would you describe your current emotional state?</p>
  </div>","16","html-slider-response","37","365979","0.0-5.0-3.5","227","1","2025-07-23 16:55:05","1f75c3e559b7213887762d5229550c2b","94.3.17.192","Mozilla/5.0 (X11; CrOS x86_64 14541.0.0) AppleWebKit/537.36 (KHTML, like Gecko) Chrome/137.0.0.0 Safari/537.36","WebKit","Chrome","137.0.0.0","ChromeOS","14541.0.0","https://app.prolific.com/","en-GB,en-US;q=0.9,en;q=0.8","5b5f23420085cb0001872849","683dba2a8a9dda3513610c04","688113dc9d0f2df884384b27","3","0","5b5f23420085cb0001872849","3","0","2025-07-23T17:01:12.486Z","","","","","","","","","","","StressQ","","50","","","","","","","","","","","","","","","","","","","","","","","","","","","","",""
"2044","","<div style=""width:500px;"">
  <p>What best describes how you currently feel?</p>
  </div>","67","html-slider-response","38","368024","0.0-5.0-4.5","227","1","2025-07-23 16:55:05","1f75c3e559b7213887762d5229550c2b","94.3.17.192","Mozilla/5.0 (X11; CrOS x86_64 14541.0.0) AppleWebKit/537.36 (KHTML, like Gecko) Chrome/137.0.0.0 Safari/537.36","WebKit","Chrome","137.0.0.0","ChromeOS","14541.0.0","https://app.prolific.com/","en-GB,en-US;q=0.9,en;q=0.8","5b5f23420085cb0001872849","683dba2a8a9dda3513610c04","688113dc9d0f2df884384b27","3","0","5b5f23420085cb0001872849","3","0","2025-07-23T17:01:14.531Z","","","","","","","","","","","MotivationQ","","50","","","","","","","","","","","","","","","","","","","","","","","","","","","","",""
"","","","","ctl-task-cpt","39","420591","0.0-5.0-0.6","227","1","2025-07-23 16:55:05","1f75c3e559b7213887762d5229550c2b","94.3.17.192","Mozilla/5.0 (X11; CrOS x86_64 14541.0.0) AppleWebKit/537.36 (KHTML, like Gecko) Chrome/137.0.0.0 Safari/537.36","WebKit","Chrome","137.0.0.0","ChromeOS","14541.0.0","https://app.prolific.com/","en-GB,en-US;q=0.9,en;q=0.8","5b5f23420085cb0001872849","683dba2a8a9dda3513610c04","688113dc9d0f2df884384b27","3","0","5b5f23420085cb0001872849","3","0","2025-07-23T17:02:07.098Z","","","","","","","","","","","","","","win-only","1","g1:NE,g2:SW","0.4","7","0","369914.1","1269.5","6270.7","49556.2","1","4","8","6","2","-8","-9","27","36","0.20454545454545456","1473.3","3000","-2555","[""down"",""left""]","{""num_key_presses"":12,""num_perfect"":4,""num_errors"":1,""num_randdir"":7,""num_randdir_good_moves"":3,""num_whilered"":0,""num_whileblue"":1,""num_blue"":3,""num_good_moves"":8}","[421.5714133126395,424.07142761775424,0.4,421.5714133126395,424.07142761775424,102.3,421.5714133126395,424.07142761775424,211.9,421.5714133126395,424.07142761775424,320.5,421.5714133126395,424.07142761775424,424.7,421.5714133126395,424.07142761775424,525.8,219.0714133126395,607.8214276177542,625.9,86.5714133126395,737.8214276177542,726.1,31.571413312639507,836.5714276177542,831.7,31.571413312639507,836.5714276177542,936.1,31.571413312639507,836.5714276177542,1036.1,31.571413312639507,836.5714276177542,1138.3,37.82141331263951,804.0714276177542,1240.9,39.07141331263951,802.8214276177542,1343.2,39.07141331263951,802.8214276177542,1447.2,39.07141331263951,802.8214276177542,1548.3,39.07141331263951,802.8214276177542,1648.6,39.07141331263951,802.8214276177542,1752.5,706.5714133126395,567.8214276177542,1854.2,1134.0714133126396,575.3214276177542,1955.9,1151.5714133126396,601.5714276177542,2056.5,1151.5714133126396,601.5714276177542,2161,1151.5714133126396,601.5714276177542,2267.8,1151.5714133126396,601.5714276177542,2367.9,1151.5714133126396,601.5714276177542,2469,1151.5714133126396,601.5714276177542,2571.2,1151.5714133126396,601.5714276177542,2675.9,1151.5714133126396,601.5714276177542,2779.2,1151.5714133126396,601.5714276177542,2881.8,1151.5714133126396,601.5714276177542,2985.8,1151.5714133126396,601.5714276177542,3086.3,1151.5714133126396,601.5714276177542,3190.8,1151.5714133126396,601.5714276177542,3290.9,1151.5714133126396,601.5714276177542,3398.5,1151.5714133126396,601.5714276177542,3498.7,1151.5714133126396,601.5714276177542,3598.8,1151.5714133126396,601.5714276177542,3710.7,1151.5714133126396,601.5714276177542,3818.7,1151.5714133126396,601.5714276177542,3919.9,1151.5714133126396,601.5714276177542,4024.5,1151.5714133126396,601.5714276177542,4125.9,1151.5714133126396,601.5714276177542,4230.4,1151.5714133126396,601.5714276177542,4333.3,1151.5714133126396,601.5714276177542,4436.3,1151.5714133126396,601.5714276177542,4537.5,1151.5714133126396,601.5714276177542,4640.9,1151.5714133126396,601.5714276177542,4746,1151.5714133126396,601.5714276177542,4848.2,1151.5714133126396,601.5714276177542,4950.8]","[1380.1,1380.1,1000,0,380.1,""oops"",""down"",""left"",""good_move"",4121.4,2740.8,2417.1,1380.6,323.7,""smooth"",""down"",""down"",""good_move"",6971.2,2849.4,2515,4121.8,334.4,""oops"",""left"",""right"",""bad_move"",10490.5,3518.2,3227.6,6972.4,290.6,""oops"",""left"",""left"",""good_move"",13942.7,3451.2,3140.7,10491.5,310.5,""smooth"",""left"",""left"",""good_move"",16164.5,2221.1,1907.1,13943.4,314,""smooth"",""down"",""down"",""good_move"",19104.3,2939.3,2647,16165,292.3,""oops"",""left"",""up"",""bad_move"",25769.2,6664.6,3000.3,22446.8,322.1,""oops"",""left"",""down"",""good_move"",28954.5,3184,2886.2,25770.5,297.8,""oops"",""left"",""up"",""bad_move"",31763.4,2808.5,2499.6,28954.9,308.9,""while_blue"",""left"",""left"",""good_move"",34277.2,2512.1,2137.4,31765.1,374.7,""smooth"",""down"",""down"",""good_move"",37291.3,3013.7,2662.1,34277.6,351.6,""oops"",""down"",""up"",""bad_move""]","",""
"2498","","<div style=""width:500px;"">
  <p>What determined the result of this run?</p>
  </div>","18","html-slider-response","40","423091","0.0-5.0-1.6","227","1","2025-07-23 16:55:05","1f75c3e559b7213887762d5229550c2b","94.3.17.192","Mozilla/5.0 (X11; CrOS x86_64 14541.0.0) AppleWebKit/537.36 (KHTML, like Gecko) Chrome/137.0.0.0 Safari/537.36","WebKit","Chrome","137.0.0.0","ChromeOS","14541.0.0","https://app.prolific.com/","en-GB,en-US;q=0.9,en;q=0.8","5b5f23420085cb0001872849","683dba2a8a9dda3513610c04","688113dc9d0f2df884384b27","3","0","5b5f23420085cb0001872849","3","0","2025-07-23T17:02:09.598Z","","","","","","","","","","","AttribQ","","50","","","","","","","","","","","","","","","","","","","","","","","","","","","","",""
"2487","","<div style=""width:500px;"">
  <p>How much control did you have over the ball?</p>
  </div>","21","html-slider-response","41","425579","0.0-5.0-2.6","227","1","2025-07-23 16:55:05","1f75c3e559b7213887762d5229550c2b","94.3.17.192","Mozilla/5.0 (X11; CrOS x86_64 14541.0.0) AppleWebKit/537.36 (KHTML, like Gecko) Chrome/137.0.0.0 Safari/537.36","WebKit","Chrome","137.0.0.0","ChromeOS","14541.0.0","https://app.prolific.com/","en-GB,en-US;q=0.9,en;q=0.8","5b5f23420085cb0001872849","683dba2a8a9dda3513610c04","688113dc9d0f2df884384b27","3","0","5b5f23420085cb0001872849","3","0","2025-07-23T17:02:12.086Z","","","","","","","","","","","ControlQ","","50","","","","","","","","","","","","","","","","","","","","","","","","","","","","",""
"1879","","<div style=""width:500px;"">
  <p>How would you describe your current emotional state?</p>
  </div>","67","html-slider-response","42","427460","0.0-5.0-3.6","227","1","2025-07-23 16:55:05","1f75c3e559b7213887762d5229550c2b","94.3.17.192","Mozilla/5.0 (X11; CrOS x86_64 14541.0.0) AppleWebKit/537.36 (KHTML, like Gecko) Chrome/137.0.0.0 Safari/537.36","WebKit","Chrome","137.0.0.0","ChromeOS","14541.0.0","https://app.prolific.com/","en-GB,en-US;q=0.9,en;q=0.8","5b5f23420085cb0001872849","683dba2a8a9dda3513610c04","688113dc9d0f2df884384b27","3","0","5b5f23420085cb0001872849","3","0","2025-07-23T17:02:13.967Z","","","","","","","","","","","StressQ","","50","","","","","","","","","","","","","","","","","","","","","","","","","","","","",""
"2888","","<div style=""width:500px;"">
  <p>What best describes how you currently feel?</p>
  </div>","58","html-slider-response","43","430349","0.0-5.0-4.6","227","1","2025-07-23 16:55:05","1f75c3e559b7213887762d5229550c2b","94.3.17.192","Mozilla/5.0 (X11; CrOS x86_64 14541.0.0) AppleWebKit/537.36 (KHTML, like Gecko) Chrome/137.0.0.0 Safari/537.36","WebKit","Chrome","137.0.0.0","ChromeOS","14541.0.0","https://app.prolific.com/","en-GB,en-US;q=0.9,en;q=0.8","5b5f23420085cb0001872849","683dba2a8a9dda3513610c04","688113dc9d0f2df884384b27","3","0","5b5f23420085cb0001872849","3","0","2025-07-23T17:02:16.856Z","","","","","","","","","","","MotivationQ","","50","","","","","","","","","","","","","","","","","","","","","","","","","","","","",""
"","","","","ctl-task-cpt","44","469022","0.0-5.0-0.7","227","1","2025-07-23 16:55:05","1f75c3e559b7213887762d5229550c2b","94.3.17.192","Mozilla/5.0 (X11; CrOS x86_64 14541.0.0) AppleWebKit/537.36 (KHTML, like Gecko) Chrome/137.0.0.0 Safari/537.36","WebKit","Chrome","137.0.0.0","ChromeOS","14541.0.0","https://app.prolific.com/","en-GB,en-US;q=0.9,en;q=0.8","5b5f23420085cb0001872849","683dba2a8a9dda3513610c04","688113dc9d0f2df884384b27","3","0","5b5f23420085cb0001872849","3","0","2025-07-23T17:02:55.529Z","","","","","","","","","","","","","","win-only","1","g1:NE,g2:SW","0.3","8","0","432239.4","851.2","5852.8","35662.9","1","4","4","6","2","4","4","31","27","0.23484848484848486","1235.8","3000","115","[""down"",""left""]","{""num_key_presses"":10,""num_perfect"":3,""num_errors"":0,""num_randdir"":7,""num_randdir_good_moves"":5,""num_whilered"":0,""num_whileblue"":0,""num_blue"":1,""num_good_moves"":8}","[420.3214133126395,411.57142761775424,0.4,420.3214133126395,411.57142761775424,100.2,420.3214133126395,411.57142761775424,202.9,420.3214133126395,411.57142761775424,304.8,420.3214133126395,411.57142761775424,405.9,420.3214133126395,411.57142761775424,507.4,336.5714133126395,499.07142761775424,609.5,264.0714133126395,579.0714276177542,716.2,170.3214133126395,656.5714276177542,816.9,109.0714133126395,696.5714276177542,918.6,77.8214133126395,729.0714276177542,1020.1,77.8214133126395,729.0714276177542,1120.7,77.8214133126395,729.0714276177542,1221,77.8214133126395,729.0714276177542,1321.6,77.8214133126395,729.0714276177542,1425.5,77.8214133126395,729.0714276177542,1529.9,982.8214133126395,482.82142761775424,1637.6,1185.3214133126396,527.8214276177542,1739.9,1185.3214133126396,527.8214276177542,1841.8,1185.3214133126396,527.8214276177542,1944.7,1185.3214133126396,527.8214276177542,2045.8,1185.3214133126396,527.8214276177542,2152.7,1185.3214133126396,527.8214276177542,2255.2,1185.3214133126396,527.8214276177542,2359.6,1185.3214133126396,527.8214276177542,2463.1,1185.3214133126396,527.8214276177542,2566.8,1185.3214133126396,527.8214276177542,2669.7,1185.3214133126396,527.8214276177542,2773.1,1185.3214133126396,527.8214276177542,2874.8,1185.3214133126396,527.8214276177542,2980,1185.3214133126396,527.8214276177542,3080.1,1185.3214133126396,527.8214276177542,3181.3,1185.3214133126396,527.8214276177542,3284.3,1185.3214133126396,527.8214276177542,3386.7,1185.3214133126396,527.8214276177542,3486.7,1185.3214133126396,527.8214276177542,3589.3,1185.3214133126396,527.8214276177542,3691,1185.3214133126396,527.8214276177542,3794.7,1185.3214133126396,527.8214276177542,3900.4,1185.3214133126396,527.8214276177542,4003.5,1185.3214133126396,527.8214276177542,4105.1,1185.3214133126396,527.8214276177542,4206.1,1185.3214133126396,527.8214276177542,4309.7,1185.3214133126396,527.8214276177542,4416.9,1185.3214133126396,527.8214276177542,4519.3,1185.3214133126396,527.8214276177542,4620.3,1185.3214133126396,527.8214276177542,4720.3,1185.3214133126396,527.8214276177542,4820.3,1185.3214133126396,527.8214276177542,4920.9]","[1363.8,1363.8,1000,0,363.9,""smooth"",""down"",""down"",""good_move"",4396.3,3031.8,2688.1,1364.5,343.7,""smooth"",""left"",""left"",""good_move"",7381,2984.2,2676.9,4396.8,307.4,""oops"",""down"",""left"",""good_move"",13609.8,6228.4,2515.2,10781.6,313,""oops"",""down"",""right"",""bad_move"",16630.1,3019.8,2681.1,13610.3,338.7,""oops"",""down"",""up"",""bad_move"",19457.8,2827.3,2534.9,16630.5,292.4,""oops"",""down"",""down"",""good_move"",22061.8,2603.4,2245.7,19458.4,357.7,""oops"",""left"",""down"",""good_move"",24818.5,2756.5,2429,22062.1,327.5,""smooth"",""left"",""left"",""good_move"",27281.5,2462.6,2152.5,24818.9,310.1,""oops"",""left"",""left"",""good_move"",29685.1,2403,2069.5,27282.1,333.5,""oops"",""down"",""down"",""good_move""]","",""
"2877","","<div style=""width:500px;"">
  <p>What determined the result of this run?</p>
  </div>","64","html-slider-response","45","471901","0.0-5.0-1.7","227","1","2025-07-23 16:55:05","1f75c3e559b7213887762d5229550c2b","94.3.17.192","Mozilla/5.0 (X11; CrOS x86_64 14541.0.0) AppleWebKit/537.36 (KHTML, like Gecko) Chrome/137.0.0.0 Safari/537.36","WebKit","Chrome","137.0.0.0","ChromeOS","14541.0.0","https://app.prolific.com/","en-GB,en-US;q=0.9,en;q=0.8","5b5f23420085cb0001872849","683dba2a8a9dda3513610c04","688113dc9d0f2df884384b27","3","0","5b5f23420085cb0001872849","3","0","2025-07-23T17:02:58.408Z","","","","","","","","","","","AttribQ","","50","","","","","","","","","","","","","","","","","","","","","","","","","","","","",""
"2660","","<div style=""width:500px;"">
  <p>How much control did you have over the ball?</p>
  </div>","31","html-slider-response","46","474562","0.0-5.0-2.7","227","1","2025-07-23 16:55:05","1f75c3e559b7213887762d5229550c2b","94.3.17.192","Mozilla/5.0 (X11; CrOS x86_64 14541.0.0) AppleWebKit/537.36 (KHTML, like Gecko) Chrome/137.0.0.0 Safari/537.36","WebKit","Chrome","137.0.0.0","ChromeOS","14541.0.0","https://app.prolific.com/","en-GB,en-US;q=0.9,en;q=0.8","5b5f23420085cb0001872849","683dba2a8a9dda3513610c04","688113dc9d0f2df884384b27","3","0","5b5f23420085cb0001872849","3","0","2025-07-23T17:03:01.069Z","","","","","","","","","","","ControlQ","","50","","","","","","","","","","","","","","","","","","","","","","","","","","","","",""
"3363","","<div style=""width:500px;"">
  <p>How would you describe your current emotional state?</p>
  </div>","67","html-slider-response","47","477927","0.0-5.0-3.7","227","1","2025-07-23 16:55:05","1f75c3e559b7213887762d5229550c2b","94.3.17.192","Mozilla/5.0 (X11; CrOS x86_64 14541.0.0) AppleWebKit/537.36 (KHTML, like Gecko) Chrome/137.0.0.0 Safari/537.36","WebKit","Chrome","137.0.0.0","ChromeOS","14541.0.0","https://app.prolific.com/","en-GB,en-US;q=0.9,en;q=0.8","5b5f23420085cb0001872849","683dba2a8a9dda3513610c04","688113dc9d0f2df884384b27","3","0","5b5f23420085cb0001872849","3","0","2025-07-23T17:03:04.434Z","","","","","","","","","","","StressQ","","50","","","","","","","","","","","","","","","","","","","","","","","","","","","","",""
"2537","","<div style=""width:500px;"">
  <p>What best describes how you currently feel?</p>
  </div>","76","html-slider-response","48","480467","0.0-5.0-4.7","227","1","2025-07-23 16:55:05","1f75c3e559b7213887762d5229550c2b","94.3.17.192","Mozilla/5.0 (X11; CrOS x86_64 14541.0.0) AppleWebKit/537.36 (KHTML, like Gecko) Chrome/137.0.0.0 Safari/537.36","WebKit","Chrome","137.0.0.0","ChromeOS","14541.0.0","https://app.prolific.com/","en-GB,en-US;q=0.9,en;q=0.8","5b5f23420085cb0001872849","683dba2a8a9dda3513610c04","688113dc9d0f2df884384b27","3","0","5b5f23420085cb0001872849","3","0","2025-07-23T17:03:06.974Z","","","","","","","","","","","MotivationQ","","50","","","","","","","","","","","","","","","","","","","","","","","","","","","","",""
"","","","","ctl-task-cpt","49","523354","0.0-5.0-0.8","227","1","2025-07-23 16:55:05","1f75c3e559b7213887762d5229550c2b","94.3.17.192","Mozilla/5.0 (X11; CrOS x86_64 14541.0.0) AppleWebKit/537.36 (KHTML, like Gecko) Chrome/137.0.0.0 Safari/537.36","WebKit","Chrome","137.0.0.0","ChromeOS","14541.0.0","https://app.prolific.com/","en-GB,en-US;q=0.9,en;q=0.8","5b5f23420085cb0001872849","683dba2a8a9dda3513610c04","688113dc9d0f2df884384b27","3","0","5b5f23420085cb0001872849","3","0","2025-07-23T17:03:49.861Z","","","","","","","","","","","","","","win-only","3","g1:SW,g2:NE","0.2","9","0","482357.2","1287","6295.5","39876.8","1","4","8","6","2","-8","-8","23","31","0.17424242424242425","1053.2","3000","-2580","[""up"",""right""]","{""num_key_presses"":10,""num_perfect"":2,""num_errors"":0,""num_randdir"":8,""num_randdir_good_moves"":3,""num_whilered"":0,""num_whileblue"":0,""num_blue"":1,""num_good_moves"":5}","[407.8214133126395,406.57142761775424,0.3,407.8214133126395,406.57142761775424,107.9,407.8214133126395,406.57142761775424,208.6,407.8214133126395,406.57142761775424,313.5,407.8214133126395,406.57142761775424,415.5,407.8214133126395,406.57142761775424,518.9,646.5714133126395,165.32142761775424,625.2,755.3214133126395,91.57142761775425,728.7,764.0714133126395,87.82142761775425,829.5,764.0714133126395,86.57142761775425,933.6,764.0714133126395,86.57142761775425,1036.7,764.0714133126395,86.57142761775425,1139.4,764.0714133126395,86.57142761775425,1244.1,764.0714133126395,86.57142761775425,1348.7,1080.3214133126396,229.07142761775424,1449.2,1167.8214133126396,385.32142761775424,1557,1167.8214133126396,385.32142761775424,1657,1167.8214133126396,385.32142761775424,1759,1167.8214133126396,385.32142761775424,1871.3,1167.8214133126396,385.32142761775424,1984.7,1167.8214133126396,385.32142761775424,2085.4,1167.8214133126396,385.32142761775424,2189.7,1167.8214133126396,385.32142761775424,2294.1,1167.8214133126396,385.32142761775424,2398.6,1167.8214133126396,385.32142761775424,2499.8,1167.8214133126396,385.32142761775424,2600,1167.8214133126396,385.32142761775424,2704,1167.8214133126396,385.32142761775424,2806.7,1167.8214133126396,385.32142761775424,2907.4,1167.8214133126396,385.32142761775424,3009.1,1167.8214133126396,385.32142761775424,3115.2,1167.8214133126396,385.32142761775424,3220.4,1167.8214133126396,385.32142761775424,3338.3,1167.8214133126396,385.32142761775424,3438.9,1167.8214133126396,385.32142761775424,3539,1167.8214133126396,385.32142761775424,3640.2,1167.8214133126396,385.32142761775424,3743.4,1167.8214133126396,385.32142761775424,3847,1167.8214133126396,385.32142761775424,3948.9,1167.8214133126396,385.32142761775424,4049.8,1167.8214133126396,385.32142761775424,4152.4,1167.8214133126396,385.32142761775424,4260.9,1167.8214133126396,385.32142761775424,4365.8,1167.8214133126396,385.32142761775424,4466,1167.8214133126396,385.32142761775424,4569.4,1167.8214133126396,385.32142761775424,4670.3,1167.8214133126396,385.32142761775424,4774.9,1167.8214133126396,385.32142761775424,4878.6,1167.8214133126396,385.32142761775424,4980.3]","[1360.6,1360.6,1000,0,360.6,""smooth"",""up"",""up"",""good_move"",4304.9,2943.2,2633.6,1361.8,309.6,""oops"",""right"",""up"",""good_move"",7481.4,3176.2,2824.9,4305.2,351.3,""oops"",""right"",""right"",""good_move"",9837.5,2355.5,2009.2,7482,346.3,""oops"",""right"",""down"",""bad_move"",12559.2,2721.3,2387.4,9837.9,333.9,""smooth"",""right"",""right"",""good_move"",15772.4,3212.6,2872.8,12559.8,339.8,""oops"",""up"",""right"",""good_move"",18368.5,2595.8,2252.4,15772.7,343.4,""oops"",""up"",""down"",""bad_move"",21034.5,2665.6,2348.1,18368.9,317.5,""oops"",""up"",""down"",""bad_move"",24493.2,3458.5,3157.5,21034.7,301,""oops"",""up"",""down"",""bad_move"",27339.3,2845.4,2536,24493.9,309.4,""oops"",""up"",""left"",""bad_move""]","",""
"2215","","<div style=""width:500px;"">
  <p>What determined the result of this run?</p>
  </div>","13","html-slider-response","50","525570","0.0-5.0-1.8","227","1","2025-07-23 16:55:05","1f75c3e559b7213887762d5229550c2b","94.3.17.192","Mozilla/5.0 (X11; CrOS x86_64 14541.0.0) AppleWebKit/537.36 (KHTML, like Gecko) Chrome/137.0.0.0 Safari/537.36","WebKit","Chrome","137.0.0.0","ChromeOS","14541.0.0","https://app.prolific.com/","en-GB,en-US;q=0.9,en;q=0.8","5b5f23420085cb0001872849","683dba2a8a9dda3513610c04","688113dc9d0f2df884384b27","3","0","5b5f23420085cb0001872849","3","0","2025-07-23T17:03:52.077Z","","","","","","","","","","","AttribQ","","50","","","","","","","","","","","","","","","","","","","","","","","","","","","","",""
"2134","","<div style=""width:500px;"">
  <p>How much control did you have over the ball?</p>
  </div>","12","html-slider-response","51","527705","0.0-5.0-2.8","227","1","2025-07-23 16:55:05","1f75c3e559b7213887762d5229550c2b","94.3.17.192","Mozilla/5.0 (X11; CrOS x86_64 14541.0.0) AppleWebKit/537.36 (KHTML, like Gecko) Chrome/137.0.0.0 Safari/537.36","WebKit","Chrome","137.0.0.0","ChromeOS","14541.0.0","https://app.prolific.com/","en-GB,en-US;q=0.9,en;q=0.8","5b5f23420085cb0001872849","683dba2a8a9dda3513610c04","688113dc9d0f2df884384b27","3","0","5b5f23420085cb0001872849","3","0","2025-07-23T17:03:54.212Z","","","","","","","","","","","ControlQ","","50","","","","","","","","","","","","","","","","","","","","","","","","","","","","",""
"3269","","<div style=""width:500px;"">
  <p>How would you describe your current emotional state?</p>
  </div>","87","html-slider-response","52","530976","0.0-5.0-3.8","227","1","2025-07-23 16:55:05","1f75c3e559b7213887762d5229550c2b","94.3.17.192","Mozilla/5.0 (X11; CrOS x86_64 14541.0.0) AppleWebKit/537.36 (KHTML, like Gecko) Chrome/137.0.0.0 Safari/537.36","WebKit","Chrome","137.0.0.0","ChromeOS","14541.0.0","https://app.prolific.com/","en-GB,en-US;q=0.9,en;q=0.8","5b5f23420085cb0001872849","683dba2a8a9dda3513610c04","688113dc9d0f2df884384b27","3","0","5b5f23420085cb0001872849","3","0","2025-07-23T17:03:57.483Z","","","","","","","","","","","StressQ","","50","","","","","","","","","","","","","","","","","","","","","","","","","","","","",""
"2524","","<div style=""width:500px;"">
  <p>What best describes how you currently feel?</p>
  </div>","65","html-slider-response","53","533501","0.0-5.0-4.8","227","1","2025-07-23 16:55:05","1f75c3e559b7213887762d5229550c2b","94.3.17.192","Mozilla/5.0 (X11; CrOS x86_64 14541.0.0) AppleWebKit/537.36 (KHTML, like Gecko) Chrome/137.0.0.0 Safari/537.36","WebKit","Chrome","137.0.0.0","ChromeOS","14541.0.0","https://app.prolific.com/","en-GB,en-US;q=0.9,en;q=0.8","5b5f23420085cb0001872849","683dba2a8a9dda3513610c04","688113dc9d0f2df884384b27","3","0","5b5f23420085cb0001872849","3","0","2025-07-23T17:04:00.009Z","","","","","","","","","","","MotivationQ","","50","","","","","","","","","","","","","","","","","","","","","","","","","","","","",""
"","","","","ctl-task-cpt","54","597563","0.0-5.0-0.9","227","1","2025-07-23 16:55:05","1f75c3e559b7213887762d5229550c2b","94.3.17.192","Mozilla/5.0 (X11; CrOS x86_64 14541.0.0) AppleWebKit/537.36 (KHTML, like Gecko) Chrome/137.0.0.0 Safari/537.36","WebKit","Chrome","137.0.0.0","ChromeOS","14541.0.0","https://app.prolific.com/","en-GB,en-US;q=0.9,en;q=0.8","5b5f23420085cb0001872849","683dba2a8a9dda3513610c04","688113dc9d0f2df884384b27","3","0","5b5f23420085cb0001872849","3","0","2025-07-23T17:05:04.070Z","","","","","","","","","","","","","","win-only","1","g1:NE,g2:SW","0.4","10","0","535392.3","1005.5","6006","61049","1","4","4","6","2","-4","-4","19","23","0.14393939393939395","1535.3","3000","-2365","[""down"",""left""]","{""num_key_presses"":11,""num_perfect"":4,""num_errors"":0,""num_randdir"":7,""num_randdir_good_moves"":3,""num_whilered"":0,""num_whileblue"":0,""num_blue"":5,""num_good_moves"":7}","[416.5714133126395,410.32142761775424,0.3,416.5714133126395,410.32142761775424,103.5,416.5714133126395,410.32142761775424,205.5,416.5714133126395,410.32142761775424,313.6,416.5714133126395,410.32142761775424,422.3,416.5714133126395,410.32142761775424,526.7,335.3214133126395,506.57142761775424,630.1,304.0714133126395,546.5714276177542,736.4,304.0714133126395,546.5714276177542,840.5,304.0714133126395,546.5714276177542,942.7,57.82141331263951,685.3214276177542,1044.1,34.07141331263951,700.3214276177542,1145.9,30.321413312639507,702.8214276177542,1246.9,32.82141331263951,710.3214276177542,1353.7,32.82141331263951,710.3214276177542,1456.6,32.82141331263951,710.3214276177542,1559.1,32.82141331263951,710.3214276177542,1662.4,32.82141331263951,710.3214276177542,1765.3,32.82141331263951,710.3214276177542,1871.2,882.8214133126395,437.82142761775424,1973.8,1065.3214133126396,477.82142761775424,2075.5,1065.3214133126396,477.82142761775424,2177.9,1065.3214133126396,477.82142761775424,2283.9,1065.3214133126396,477.82142761775424,2386.4,1065.3214133126396,477.82142761775424,2489.3,1065.3214133126396,477.82142761775424,2593.2,1065.3214133126396,477.82142761775424,2696.3,1065.3214133126396,477.82142761775424,2801.2,1065.3214133126396,477.82142761775424,2904,1065.3214133126396,477.82142761775424,3005.1,1065.3214133126396,477.82142761775424,3113.8,1065.3214133126396,477.82142761775424,3221.7,1065.3214133126396,477.82142761775424,3322.8,1065.3214133126396,477.82142761775424,3424.4,1065.3214133126396,477.82142761775424,3534.2,1065.3214133126396,477.82142761775424,3637.1,1065.3214133126396,477.82142761775424,3746.6,1065.3214133126396,477.82142761775424,3849.4,1065.3214133126396,477.82142761775424,3950.1,1065.3214133126396,477.82142761775424,4052.6,1065.3214133126396,477.82142761775424,4154,1065.3214133126396,477.82142761775424,4255.6,1065.3214133126396,477.82142761775424,4358.8,1065.3214133126396,477.82142761775424,4463.5,1065.3214133126396,477.82142761775424,4565.9,1065.3214133126396,477.82142761775424,4668.3,1065.3214133126396,477.82142761775424,4768.7,1065.3214133126396,477.82142761775424,4869.4,1065.3214133126396,477.82142761775424,4970.9]","[1325.9,1325.9,1000,0,325.9,""oops"",""down"",""down"",""good_move"",4827.2,3500.8,3181.8,1326.4,319,""smooth"",""left"",""left"",""good_move"",8312.8,3485,3173.6,4827.8,311.4,""oops"",""down"",""left"",""good_move"",10832.6,2519.4,2148.5,8313.2,370.9,""oops"",""down"",""right"",""bad_move"",14526.1,3693,3390.2,10833.1,302.8,""smooth"",""down"",""down"",""good_move"",25215.4,10688.8,2602.8,22270.6,342,""oops"",""left"",""right"",""bad_move"",27682.5,2465.7,2127.9,25216.8,337.8,""smooth"",""left"",""left"",""good_move"",42040.8,14357.9,2585.8,39123.1,331.9,""oops"",""left"",""down"",""good_move"",45534.6,3492.2,3100.6,42042.4,391.6,""oops"",""left"",""right"",""bad_move"",48622.8,3087.9,2746.9,45535,341,""smooth"",""left"",""left"",""good_move"",52562.6,3938.7,3608.7,48623.9,330,""oops"",""left"",""right"",""bad_move""]","",""
"1828","","<div style=""width:500px;"">
  <p>What determined the result of this run?</p>
  </div>","11","html-slider-response","55","599393","0.0-5.0-1.9","227","1","2025-07-23 16:55:05","1f75c3e559b7213887762d5229550c2b","94.3.17.192","Mozilla/5.0 (X11; CrOS x86_64 14541.0.0) AppleWebKit/537.36 (KHTML, like Gecko) Chrome/137.0.0.0 Safari/537.36","WebKit","Chrome","137.0.0.0","ChromeOS","14541.0.0","https://app.prolific.com/","en-GB,en-US;q=0.9,en;q=0.8","5b5f23420085cb0001872849","683dba2a8a9dda3513610c04","688113dc9d0f2df884384b27","3","0","5b5f23420085cb0001872849","3","0","2025-07-23T17:05:05.900Z","","","","","","","","","","","AttribQ","","50","","","","","","","","","","","","","","","","","","","","","","","","","","","","",""
"1716","","<div style=""width:500px;"">
  <p>How much control did you have over the ball?</p>
  </div>","13","html-slider-response","56","601110","0.0-5.0-2.9","227","1","2025-07-23 16:55:05","1f75c3e559b7213887762d5229550c2b","94.3.17.192","Mozilla/5.0 (X11; CrOS x86_64 14541.0.0) AppleWebKit/537.36 (KHTML, like Gecko) Chrome/137.0.0.0 Safari/537.36","WebKit","Chrome","137.0.0.0","ChromeOS","14541.0.0","https://app.prolific.com/","en-GB,en-US;q=0.9,en;q=0.8","5b5f23420085cb0001872849","683dba2a8a9dda3513610c04","688113dc9d0f2df884384b27","3","0","5b5f23420085cb0001872849","3","0","2025-07-23T17:05:07.617Z","","","","","","","","","","","ControlQ","","50","","","","","","","","","","","","","","","","","","","","","","","","","","","","",""
"1933","","<div style=""width:500px;"">
  <p>How would you describe your current emotional state?</p>
  </div>","91","html-slider-response","57","603044","0.0-5.0-3.9","227","1","2025-07-23 16:55:05","1f75c3e559b7213887762d5229550c2b","94.3.17.192","Mozilla/5.0 (X11; CrOS x86_64 14541.0.0) AppleWebKit/537.36 (KHTML, like Gecko) Chrome/137.0.0.0 Safari/537.36","WebKit","Chrome","137.0.0.0","ChromeOS","14541.0.0","https://app.prolific.com/","en-GB,en-US;q=0.9,en;q=0.8","5b5f23420085cb0001872849","683dba2a8a9dda3513610c04","688113dc9d0f2df884384b27","3","0","5b5f23420085cb0001872849","3","0","2025-07-23T17:05:09.551Z","","","","","","","","","","","StressQ","","50","","","","","","","","","","","","","","","","","","","","","","","","","","","","",""
"1807","","<div style=""width:500px;"">
  <p>What best describes how you currently feel?</p>
  </div>","76","html-slider-response","58","604852","0.0-5.0-4.9","227","1","2025-07-23 16:55:05","1f75c3e559b7213887762d5229550c2b","94.3.17.192","Mozilla/5.0 (X11; CrOS x86_64 14541.0.0) AppleWebKit/537.36 (KHTML, like Gecko) Chrome/137.0.0.0 Safari/537.36","WebKit","Chrome","137.0.0.0","ChromeOS","14541.0.0","https://app.prolific.com/","en-GB,en-US;q=0.9,en;q=0.8","5b5f23420085cb0001872849","683dba2a8a9dda3513610c04","688113dc9d0f2df884384b27","3","0","5b5f23420085cb0001872849","3","0","2025-07-23T17:05:11.359Z","","","","","","","","","","","MotivationQ","","50","","","","","","","","","","","","","","","","","","","","","","","","","","","","",""
"","","","","ctl-task-cpt","59","663540","0.0-5.0-0.10","227","1","2025-07-23 16:55:05","1f75c3e559b7213887762d5229550c2b","94.3.17.192","Mozilla/5.0 (X11; CrOS x86_64 14541.0.0) AppleWebKit/537.36 (KHTML, like Gecko) Chrome/137.0.0.0 Safari/537.36","WebKit","Chrome","137.0.0.0","ChromeOS","14541.0.0","https://app.prolific.com/","en-GB,en-US;q=0.9,en;q=0.8","5b5f23420085cb0001872849","683dba2a8a9dda3513610c04","688113dc9d0f2df884384b27","3","0","5b5f23420085cb0001872849","3","0","2025-07-23T17:06:10.047Z","","","","","","","","","","","","","","win-only","0","g1:NW,g2:SE","0.5","11","0","606743","1986.1","6991.9","55670.2","1","4","8","6","2","8","8","27","19","0.20454545454545456","1172.3","3000","75","[""down"",""right""]","{""num_key_presses"":12,""num_perfect"":6,""num_errors"":0,""num_randdir"":6,""num_randdir_good_moves"":3,""num_whilered"":0,""num_whileblue"":0,""num_blue"":4,""num_good_moves"":9}","[422.8214133126395,420.32142761775424,0.5,422.8214133126395,420.32142761775424,102.3,422.8214133126395,420.32142761775424,208.7,422.8214133126395,420.32142761775424,309.3,422.8214133126395,420.32142761775424,413,422.8214133126395,420.32142761775424,519,587.8214133126395,501.57142761775424,622.5,837.8214133126395,732.8214276177542,732.3,866.5714133126395,780.3214276177542,839.2,755.3214133126395,756.5714276177542,941.5,742.8214133126395,749.0714276177542,1043.4,742.8214133126395,749.0714276177542,1145.6,742.8214133126395,749.0714276177542,1247.7,742.8214133126395,749.0714276177542,1348.2,742.8214133126395,749.0714276177542,1452.9,1021.5714133126395,707.8214276177542,1554.3,1154.0714133126396,779.0714276177542,1660.7,1154.0714133126396,779.0714276177542,1764.7,1154.0714133126396,779.0714276177542,1872.9,1154.0714133126396,779.0714276177542,1974.7,1154.0714133126396,779.0714276177542,2080.3,1154.0714133126396,779.0714276177542,2192.4,1154.0714133126396,779.0714276177542,2295.2,1154.0714133126396,779.0714276177542,2395.2,1154.0714133126396,779.0714276177542,2498,1154.0714133126396,779.0714276177542,2600.7,1154.0714133126396,779.0714276177542,2704.7,1154.0714133126396,779.0714276177542,2805.7,1154.0714133126396,779.0714276177542,2909,1154.0714133126396,779.0714276177542,3010.3,1154.0714133126396,779.0714276177542,3114.4,1154.0714133126396,779.0714276177542,3216.9,1154.0714133126396,779.0714276177542,3320.1,1154.0714133126396,779.0714276177542,3422.3,1154.0714133126396,779.0714276177542,3523.3,1154.0714133126396,779.0714276177542,3631.7,1154.0714133126396,779.0714276177542,3732.9,1154.0714133126396,779.0714276177542,3833.9,1154.0714133126396,779.0714276177542,3934.7,1154.0714133126396,779.0714276177542,4040.5,1154.0714133126396,779.0714276177542,4143.7,1154.0714133126396,779.0714276177542,4248.5,1154.0714133126396,779.0714276177542,4357.6,1154.0714133126396,779.0714276177542,4462.3,1154.0714133126396,779.0714276177542,4564.7,1154.0714133126396,779.0714276177542,4670.7,1154.0714133126396,779.0714276177542,4778.7,1154.0714133126396,779.0714276177542,4881.8,1154.0714133126396,779.0714276177542,4983.9]","[8640.8,8640.8,2313.7,5941,386.1,""smooth"",""down"",""down"",""good_move"",11846,3204.7,2921.4,8641.3,283.3,""oops"",""down"",""left"",""bad_move"",18553.3,6706.8,2521.8,15701.3,330.2,""oops"",""down"",""left"",""bad_move"",21860.1,3306.1,2991.5,18554,314.6,""smooth"",""down"",""down"",""good_move"",24952.4,3091.7,2768.7,21860.7,323,""smooth"",""right"",""right"",""good_move"",28065.9,3113,2807.3,24952.9,305.7,""oops"",""right"",""left"",""bad_move"",30968.3,2902,2608,28066.3,294,""smooth"",""right"",""right"",""good_move"",36662.3,5693.7,2124.7,34265.1,272.5,""smooth"",""right"",""right"",""good_move"",39551.8,2888.2,2585.6,36663.6,302.6,""oops"",""right"",""right"",""good_move"",42886.3,3334.4,3038.5,39552,295.9,""oops"",""right"",""down"",""good_move"",45788.9,2902.1,2571.2,42886.8,330.9,""smooth"",""right"",""right"",""good_move"",48553.3,2764.1,2438.1,45789.2,326,""oops"",""right"",""right"",""good_move""]","",""
"2354","","<div style=""width:500px;"">
  <p>What determined the result of this run?</p>
  </div>","72","html-slider-response","60","665896","0.0-5.0-1.10","227","1","2025-07-23 16:55:05","1f75c3e559b7213887762d5229550c2b","94.3.17.192","Mozilla/5.0 (X11; CrOS x86_64 14541.0.0) AppleWebKit/537.36 (KHTML, like Gecko) Chrome/137.0.0.0 Safari/537.36","WebKit","Chrome","137.0.0.0","ChromeOS","14541.0.0","https://app.prolific.com/","en-GB,en-US;q=0.9,en;q=0.8","5b5f23420085cb0001872849","683dba2a8a9dda3513610c04","688113dc9d0f2df884384b27","3","0","5b5f23420085cb0001872849","3","0","2025-07-23T17:06:12.403Z","","","","","","","","","","","AttribQ","","50","","","","","","","","","","","","","","","","","","","","","","","","","","","","",""
"1515","","<div style=""width:500px;"">
  <p>How much control did you have over the ball?</p>
  </div>","63","html-slider-response","61","667412","0.0-5.0-2.10","227","1","2025-07-23 16:55:05","1f75c3e559b7213887762d5229550c2b","94.3.17.192","Mozilla/5.0 (X11; CrOS x86_64 14541.0.0) AppleWebKit/537.36 (KHTML, like Gecko) Chrome/137.0.0.0 Safari/537.36","WebKit","Chrome","137.0.0.0","ChromeOS","14541.0.0","https://app.prolific.com/","en-GB,en-US;q=0.9,en;q=0.8","5b5f23420085cb0001872849","683dba2a8a9dda3513610c04","688113dc9d0f2df884384b27","3","0","5b5f23420085cb0001872849","3","0","2025-07-23T17:06:13.919Z","","","","","","","","","","","ControlQ","","50","","","","","","","","","","","","","","","","","","","","","","","","","","","","",""
"1978","","<div style=""width:500px;"">
  <p>How would you describe your current emotional state?</p>
  </div>","65","html-slider-response","62","669392","0.0-5.0-3.10","227","1","2025-07-23 16:55:05","1f75c3e559b7213887762d5229550c2b","94.3.17.192","Mozilla/5.0 (X11; CrOS x86_64 14541.0.0) AppleWebKit/537.36 (KHTML, like Gecko) Chrome/137.0.0.0 Safari/537.36","WebKit","Chrome","137.0.0.0","ChromeOS","14541.0.0","https://app.prolific.com/","en-GB,en-US;q=0.9,en;q=0.8","5b5f23420085cb0001872849","683dba2a8a9dda3513610c04","688113dc9d0f2df884384b27","3","0","5b5f23420085cb0001872849","3","0","2025-07-23T17:06:15.899Z","","","","","","","","","","","StressQ","","50","","","","","","","","","","","","","","","","","","","","","","","","","","","","",""
"2933","","<div style=""width:500px;"">
  <p>What best describes how you currently feel?</p>
  </div>","82","html-slider-response","63","672326","0.0-5.0-4.10","227","1","2025-07-23 16:55:05","1f75c3e559b7213887762d5229550c2b","94.3.17.192","Mozilla/5.0 (X11; CrOS x86_64 14541.0.0) AppleWebKit/537.36 (KHTML, like Gecko) Chrome/137.0.0.0 Safari/537.36","WebKit","Chrome","137.0.0.0","ChromeOS","14541.0.0","https://app.prolific.com/","en-GB,en-US;q=0.9,en;q=0.8","5b5f23420085cb0001872849","683dba2a8a9dda3513610c04","688113dc9d0f2df884384b27","3","0","5b5f23420085cb0001872849","3","0","2025-07-23T17:06:18.833Z","","","","","","","","","","","MotivationQ","","50","","","","","","","","","","","","","","","","","","","","","","","","","","","","",""
"","","","","ctl-task-cpt","64","724573","0.0-5.0-0.11","227","1","2025-07-23 16:55:05","1f75c3e559b7213887762d5229550c2b","94.3.17.192","Mozilla/5.0 (X11; CrOS x86_64 14541.0.0) AppleWebKit/537.36 (KHTML, like Gecko) Chrome/137.0.0.0 Safari/537.36","WebKit","Chrome","137.0.0.0","ChromeOS","14541.0.0","https://app.prolific.com/","en-GB,en-US;q=0.9,en;q=0.8","5b5f23420085cb0001872849","683dba2a8a9dda3513610c04","688113dc9d0f2df884384b27","3","0","5b5f23420085cb0001872849","3","0","2025-07-23T17:07:11.080Z","","","","","","","","","","","","","","win-only","1","g1:NE,g2:SW","0.6","12","0","674216.7","1341.9","6344.8","49226","1","4","4","6","2","4","4","31","27","0.23484848484848486","1117","3000","170","[""down"",""left""]","{""num_key_presses"":12,""num_perfect"":7,""num_errors"":0,""num_randdir"":5,""num_randdir_good_moves"":2,""num_whilered"":0,""num_whileblue"":0,""num_blue"":3,""num_good_moves"":9}","[414.0714133126395,424.07142761775424,0.4,414.0714133126395,424.07142761775424,105.4,414.0714133126395,424.07142761775424,206.6,414.0714133126395,424.07142761775424,314.1,414.0714133126395,424.07142761775424,416.6,414.0714133126395,424.07142761775424,523.7,172.8214133126395,719.0714276177542,629.2,155.3214133126395,744.0714276177542,733.4,140.3214133126395,752.8214276177542,836.1,97.8214133126395,751.5714276177542,937.6,97.8214133126395,751.5714276177542,1043.9,97.8214133126395,751.5714276177542,1144.2,97.8214133126395,751.5714276177542,1250.6,97.8214133126395,751.5714276177542,1353.7,97.8214133126395,751.5714276177542,1454.5,895.3214133126395,516.5714276177542,1555.7,995.3214133126395,537.8214276177542,1659.1,995.3214133126395,537.8214276177542,1759.6,995.3214133126395,537.8214276177542,1863.8,995.3214133126395,537.8214276177542,1966.1,995.3214133126395,537.8214276177542,2075.8,995.3214133126395,537.8214276177542,2181.2,995.3214133126395,537.8214276177542,2286.4,995.3214133126395,537.8214276177542,2386.8,995.3214133126395,537.8214276177542,2495,995.3214133126395,537.8214276177542,2597.6,995.3214133126395,537.8214276177542,2699.9,995.3214133126395,537.8214276177542,2801.1,995.3214133126395,537.8214276177542,2907.1,995.3214133126395,537.8214276177542,3007.3,995.3214133126395,537.8214276177542,3115.3,995.3214133126395,537.8214276177542,3224.2,995.3214133126395,537.8214276177542,3327.5,995.3214133126395,537.8214276177542,3434.9,995.3214133126395,537.8214276177542,3542.9,995.3214133126395,537.8214276177542,3646.8,995.3214133126395,537.8214276177542,3755.7,995.3214133126395,537.8214276177542,3856.8,995.3214133126395,537.8214276177542,3960,995.3214133126395,537.8214276177542,4060.6,995.3214133126395,537.8214276177542,4167.3,995.3214133126395,537.8214276177542,4270.9,995.3214133126395,537.8214276177542,4375.8,995.3214133126395,537.8214276177542,4476.7,995.3214133126395,537.8214276177542,4577.2,995.3214133126395,537.8214276177542,4684.9,995.3214133126395,537.8214276177542,4790.9,995.3214133126395,537.8214276177542,4896.7]","[1328.1,1328.1,1000,0,328.1,""smooth"",""down"",""down"",""good_move"",3950.3,2621.3,2264.9,1329,356.4,""smooth"",""left"",""left"",""good_move"",6201.5,2250.7,1947.2,3950.8,303.5,""oops"",""down"",""left"",""good_move"",9697.3,3495.6,3174.6,6201.8,320.9,""oops"",""down"",""up"",""bad_move"",17089.6,7391.7,3119.5,13642.2,327.9,""smooth"",""down"",""down"",""good_move"",19313.4,2223.5,1882,17090,341.4,""smooth"",""down"",""down"",""good_move"",21722.4,2408.7,2153.8,19313.8,254.8,""oops"",""left"",""up"",""bad_move"",28407.3,6684.5,2836.2,25280,291.1,""oops"",""left"",""up"",""bad_move"",30841.6,2433.9,1824.3,28407.8,609.5,""smooth"",""down"",""down"",""good_move"",34085.6,3243.5,2911.3,30842.1,332.2,""smooth"",""down"",""down"",""good_move"",36777.9,2691.9,2359.7,34086,332.2,""smooth"",""down"",""down"",""good_move"",42706.3,5928.3,2151.3,40202.6,352.5,""oops"",""left"",""left"",""good_move""]","",""
"3147","","<div style=""width:500px;"">
  <p>What determined the result of this run?</p>
  </div>","63","html-slider-response","65","727722","0.0-5.0-1.11","227","1","2025-07-23 16:55:05","1f75c3e559b7213887762d5229550c2b","94.3.17.192","Mozilla/5.0 (X11; CrOS x86_64 14541.0.0) AppleWebKit/537.36 (KHTML, like Gecko) Chrome/137.0.0.0 Safari/537.36","WebKit","Chrome","137.0.0.0","ChromeOS","14541.0.0","https://app.prolific.com/","en-GB,en-US;q=0.9,en;q=0.8","5b5f23420085cb0001872849","683dba2a8a9dda3513610c04","688113dc9d0f2df884384b27","3","0","5b5f23420085cb0001872849","3","0","2025-07-23T17:07:14.229Z","","","","","","","","","","","AttribQ","","50","","","","","","","","","","","","","","","","","","","","","","","","","","","","",""
"2669","","<div style=""width:500px;"">
  <p>How much control did you have over the ball?</p>
  </div>","24","html-slider-response","66","730392","0.0-5.0-2.11","227","1","2025-07-23 16:55:05","1f75c3e559b7213887762d5229550c2b","94.3.17.192","Mozilla/5.0 (X11; CrOS x86_64 14541.0.0) AppleWebKit/537.36 (KHTML, like Gecko) Chrome/137.0.0.0 Safari/537.36","WebKit","Chrome","137.0.0.0","ChromeOS","14541.0.0","https://app.prolific.com/","en-GB,en-US;q=0.9,en;q=0.8","5b5f23420085cb0001872849","683dba2a8a9dda3513610c04","688113dc9d0f2df884384b27","3","0","5b5f23420085cb0001872849","3","0","2025-07-23T17:07:16.899Z","","","","","","","","","","","ControlQ","","50","","","","","","","","","","","","","","","","","","","","","","","","","","","","",""
"4322","","<div style=""width:500px;"">
  <p>How would you describe your current emotional state?</p>
  </div>","76","html-slider-response","67","734715","0.0-5.0-3.11","227","1","2025-07-23 16:55:05","1f75c3e559b7213887762d5229550c2b","94.3.17.192","Mozilla/5.0 (X11; CrOS x86_64 14541.0.0) AppleWebKit/537.36 (KHTML, like Gecko) Chrome/137.0.0.0 Safari/537.36","WebKit","Chrome","137.0.0.0","ChromeOS","14541.0.0","https://app.prolific.com/","en-GB,en-US;q=0.9,en;q=0.8","5b5f23420085cb0001872849","683dba2a8a9dda3513610c04","688113dc9d0f2df884384b27","3","0","5b5f23420085cb0001872849","3","0","2025-07-23T17:07:21.222Z","","","","","","","","","","","StressQ","","50","","","","","","","","","","","","","","","","","","","","","","","","","","","","",""
"2433","","<div style=""width:500px;"">
  <p>What best describes how you currently feel?</p>
  </div>","78","html-slider-response","68","737150","0.0-5.0-4.11","227","1","2025-07-23 16:55:05","1f75c3e559b7213887762d5229550c2b","94.3.17.192","Mozilla/5.0 (X11; CrOS x86_64 14541.0.0) AppleWebKit/537.36 (KHTML, like Gecko) Chrome/137.0.0.0 Safari/537.36","WebKit","Chrome","137.0.0.0","ChromeOS","14541.0.0","https://app.prolific.com/","en-GB,en-US;q=0.9,en;q=0.8","5b5f23420085cb0001872849","683dba2a8a9dda3513610c04","688113dc9d0f2df884384b27","3","0","5b5f23420085cb0001872849","3","0","2025-07-23T17:07:23.657Z","","","","","","","","","","","MotivationQ","","50","","","","","","","","","","","","","","","","","","","","","","","","","","","","",""
"","","","","ctl-task-cpt","69","792128","0.0-5.0-0.12","227","1","2025-07-23 16:55:05","1f75c3e559b7213887762d5229550c2b","94.3.17.192","Mozilla/5.0 (X11; CrOS x86_64 14541.0.0) AppleWebKit/537.36 (KHTML, like Gecko) Chrome/137.0.0.0 Safari/537.36","WebKit","Chrome","137.0.0.0","ChromeOS","14541.0.0","https://app.prolific.com/","en-GB,en-US;q=0.9,en;q=0.8","5b5f23420085cb0001872849","683dba2a8a9dda3513610c04","688113dc9d0f2df884384b27","3","0","5b5f23420085cb0001872849","3","0","2025-07-23T17:08:18.635Z","","","","","","","","","","","","","","win-only","0","g1:NW,g2:SE","0.7","13","0","739040.9","1387.6","6390.1","51960.3","1","4","8","6","2","8","8","39","31","0.29545454545454547","1061.7","3000","640","[""down"",""right""]","{""num_key_presses"":10,""num_perfect"":7,""num_errors"":0,""num_randdir"":3,""num_randdir_good_moves"":1,""num_whilered"":0,""num_whileblue"":0,""num_blue"":5,""num_good_moves"":8}","[406.5714133126395,412.82142761775424,0.5,406.5714133126395,412.82142761775424,107.7,406.5714133126395,412.82142761775424,221,406.5714133126395,412.82142761775424,330,406.5714133126395,412.82142761775424,432.5,406.5714133126395,412.82142761775424,533,742.8214133126395,677.8214276177542,635.4,745.3214133126395,697.8214276177542,742.5,765.3214133126395,767.8214276177542,845.8,765.3214133126395,769.0714276177542,946.2,765.3214133126395,769.0714276177542,1052.2,765.3214133126395,769.0714276177542,1166.6,765.3214133126395,769.0714276177542,1273.8,765.3214133126395,769.0714276177542,1387.7,1186.5714133126396,650.3214276177542,1491.8,1217.8214133126396,646.5714276177542,1595.3,1217.8214133126396,646.5714276177542,1703.9,1217.8214133126396,646.5714276177542,1809.6,1217.8214133126396,646.5714276177542,1917.9,1217.8214133126396,646.5714276177542,2020.5,1217.8214133126396,646.5714276177542,2134,1217.8214133126396,646.5714276177542,2239.1,1217.8214133126396,646.5714276177542,2342.2,1217.8214133126396,646.5714276177542,2450.5,1217.8214133126396,646.5714276177542,2557.3,1217.8214133126396,646.5714276177542,2657.5,1217.8214133126396,646.5714276177542,2758.1,1217.8214133126396,646.5714276177542,2858.9,1217.8214133126396,646.5714276177542,2960.9,1217.8214133126396,646.5714276177542,3063.4,1217.8214133126396,646.5714276177542,3164.6,1217.8214133126396,646.5714276177542,3270.4,1217.8214133126396,646.5714276177542,3371.2,1217.8214133126396,646.5714276177542,3477.2,1217.8214133126396,646.5714276177542,3581.3,1217.8214133126396,646.5714276177542,3684.5,1217.8214133126396,646.5714276177542,3791.9,1217.8214133126396,646.5714276177542,3894.9,1217.8214133126396,646.5714276177542,4001,1217.8214133126396,646.5714276177542,4108.8,1217.8214133126396,646.5714276177542,4208.9,1217.8214133126396,646.5714276177542,4312.3,1217.8214133126396,646.5714276177542,4415.7,1217.8214133126396,646.5714276177542,4518.9,1217.8214133126396,646.5714276177542,4625.3,1217.8214133126396,646.5714276177542,4727.6,1217.8214133126396,646.5714276177542,4829.9,1217.8214133126396,646.5714276177542,4942.6]","[1338.8,1338.8,1000,0,338.9,""smooth"",""down"",""down"",""good_move"",12116.5,10777,2941.6,8810.2,364.7,""smooth"",""down"",""down"",""good_move"",14859.6,2742.7,2399.7,12116.9,343,""oops"",""right"",""up"",""bad_move"",17057.5,2197.5,1841.8,14860.1,355.7,""smooth"",""right"",""right"",""good_move"",24312.8,7254.7,2773.8,21196.9,342.1,""oops"",""right"",""right"",""good_move"",27092.6,2779.3,2440.2,24313.3,339.1,""smooth"",""down"",""down"",""good_move"",29675.3,2582.1,2254.2,27093.3,327.9,""smooth"",""right"",""right"",""good_move"",33141.7,3466,3105.2,29675.7,360.8,""oops"",""down"",""up"",""bad_move"",36766.1,3624,3245,33142.2,379,""smooth"",""down"",""down"",""good_move"",45423.1,8656.5,1587,43456,380.1,""smooth"",""down"",""down"",""good_move""]","",""
"3338","","<div style=""width:500px;"">
  <p>What determined the result of this run?</p>
  </div>","75","html-slider-response","70","795467","0.0-5.0-1.12","227","1","2025-07-23 16:55:05","1f75c3e559b7213887762d5229550c2b","94.3.17.192","Mozilla/5.0 (X11; CrOS x86_64 14541.0.0) AppleWebKit/537.36 (KHTML, like Gecko) Chrome/137.0.0.0 Safari/537.36","WebKit","Chrome","137.0.0.0","ChromeOS","14541.0.0","https://app.prolific.com/","en-GB,en-US;q=0.9,en;q=0.8","5b5f23420085cb0001872849","683dba2a8a9dda3513610c04","688113dc9d0f2df884384b27","3","0","5b5f23420085cb0001872849","3","0","2025-07-23T17:08:21.974Z","","","","","","","","","","","AttribQ","","50","","","","","","","","","","","","","","","","","","","","","","","","","","","","",""
"1952","","<div style=""width:500px;"">
  <p>How much control did you have over the ball?</p>
  </div>","67","html-slider-response","71","797421","0.0-5.0-2.12","227","1","2025-07-23 16:55:05","1f75c3e559b7213887762d5229550c2b","94.3.17.192","Mozilla/5.0 (X11; CrOS x86_64 14541.0.0) AppleWebKit/537.36 (KHTML, like Gecko) Chrome/137.0.0.0 Safari/537.36","WebKit","Chrome","137.0.0.0","ChromeOS","14541.0.0","https://app.prolific.com/","en-GB,en-US;q=0.9,en;q=0.8","5b5f23420085cb0001872849","683dba2a8a9dda3513610c04","688113dc9d0f2df884384b27","3","0","5b5f23420085cb0001872849","3","0","2025-07-23T17:08:23.928Z","","","","","","","","","","","ControlQ","","50","","","","","","","","","","","","","","","","","","","","","","","","","","","","",""
"2423","","<div style=""width:500px;"">
  <p>How would you describe your current emotional state?</p>
  </div>","64","html-slider-response","72","799845","0.0-5.0-3.12","227","1","2025-07-23 16:55:05","1f75c3e559b7213887762d5229550c2b","94.3.17.192","Mozilla/5.0 (X11; CrOS x86_64 14541.0.0) AppleWebKit/537.36 (KHTML, like Gecko) Chrome/137.0.0.0 Safari/537.36","WebKit","Chrome","137.0.0.0","ChromeOS","14541.0.0","https://app.prolific.com/","en-GB,en-US;q=0.9,en;q=0.8","5b5f23420085cb0001872849","683dba2a8a9dda3513610c04","688113dc9d0f2df884384b27","3","0","5b5f23420085cb0001872849","3","0","2025-07-23T17:08:26.353Z","","","","","","","","","","","StressQ","","50","","","","","","","","","","","","","","","","","","","","","","","","","","","","",""
"1806","","<div style=""width:500px;"">
  <p>What best describes how you currently feel?</p>
  </div>","78","html-slider-response","73","801653","0.0-5.0-4.12","227","1","2025-07-23 16:55:05","1f75c3e559b7213887762d5229550c2b","94.3.17.192","Mozilla/5.0 (X11; CrOS x86_64 14541.0.0) AppleWebKit/537.36 (KHTML, like Gecko) Chrome/137.0.0.0 Safari/537.36","WebKit","Chrome","137.0.0.0","ChromeOS","14541.0.0","https://app.prolific.com/","en-GB,en-US;q=0.9,en;q=0.8","5b5f23420085cb0001872849","683dba2a8a9dda3513610c04","688113dc9d0f2df884384b27","3","0","5b5f23420085cb0001872849","3","0","2025-07-23T17:08:28.160Z","","","","","","","","","","","MotivationQ","","50","","","","","","","","","","","","","","","","","","","","","","","","","","","","",""
