"rt","response_timestamp","stimulus","response","trial_type","trial_index","time_elapsed","internal_node_id","run_id","condition","recorded_at","source_code_version","ip","user_agent","device","browser","browser_version","platform","platform_version","referer","accept_language","PROLIFIC_PID","STUDY_ID","SESSION_ID","WEEK","BATCH","prolific_id","week","batch","realtime","success","responses","item_order","radio_event_ids","radio_event_times","key_event_times","mouse_event_times","straightlining","zigzagging","honeypot","eventType","view_history","slider_start","which_type","canvas_config","goals_layout","control_level","trial_number","tutorial_trial_number","trial_start_time","phase1_start_time","phase2_start_time","phase3_start_time","goal_1_value","goal_1_distance","goal_2_value","goal_2_distance","goal_selected","outcome","outcome_total","participant_final_score","participant_initial_score","participant_final_score_prop","goal_choice_rt","allocated_time","allocated_time_remaining","goal_direction","counts","mouse_movements","key_presses","question_order","question_id"
"2319135","1753868428198","<p style='font-size:40px;line-height:1.25'><strong>Welcome to the experiment!</strong></p><p style='font-size:1.1em;line-height:1.25'>Thank you for participanting in our experiment again! You will be asked to play the Dysfunctional Ball Game again. We will briefly recap the rules before we start.</p><p style='font-size:1.1em;line-height:1.25'>Press <strong>Next</strong> to continue.</p>","0","custom-html-button-response","0","2319236","0.0-0.0","275","1","2025-07-30 09:01:47","1f75c3e559b7213887762d5229550c2b","41.122.147.138","Mozilla/5.0 (Macintosh; Intel Mac OS X 10_15_7) AppleWebKit/537.36 (KHTML, like Gecko) Chrome/128.0.0.0 Safari/537.36","Macintosh","Chrome","128.0.0.0","OS X","10_15_7","https://app.prolific.com/","en-GB,en-US;q=0.9,en;q=0.8","67d163e7b7bcc1e9718e01da","6877631c9844ddd5501205fc","6889df73b1fa69a111487d3e","3","1","67d163e7b7bcc1e9718e01da","3","1","2025-07-30T09:40:28.202Z","","","","","","","","","","","","","","","","","","","","","","","","","","","","","","","","","","","","","","","","","",""
"8395","","","","fullscreen","1","2328640","0.0-1.0","275","1","2025-07-30 09:01:47","1f75c3e559b7213887762d5229550c2b","41.122.147.138","Mozilla/5.0 (Macintosh; Intel Mac OS X 10_15_7) AppleWebKit/537.36 (KHTML, like Gecko) Chrome/128.0.0.0 Safari/537.36","Macintosh","Chrome","128.0.0.0","OS X","10_15_7","https://app.prolific.com/","en-GB,en-US;q=0.9,en;q=0.8","67d163e7b7bcc1e9718e01da","6877631c9844ddd5501205fc","6889df73b1fa69a111487d3e","3","1","67d163e7b7bcc1e9718e01da","3","1","","true","","","","","","","","","","","","","","","","","","","","","","","","","","","","","","","","","","","","","","","","",""
"1226","1753868438832","<p style='font-size:1.1em;line-height:1.25'>In the following, we will ask you a few questions relating to your feelings in the last 24 hours.<br></p><p style='font-size:1.1em;line-height:1.25'>Press the <strong>Next</strong> button to continue.</p>","0","custom-html-button-response","2","2329869","0.0-2.0-0.0","275","1","2025-07-30 09:01:47","1f75c3e559b7213887762d5229550c2b","41.122.147.138","Mozilla/5.0 (Macintosh; Intel Mac OS X 10_15_7) AppleWebKit/537.36 (KHTML, like Gecko) Chrome/128.0.0.0 Safari/537.36","Macintosh","Chrome","128.0.0.0","OS X","10_15_7","https://app.prolific.com/","en-GB,en-US;q=0.9,en;q=0.8","67d163e7b7bcc1e9718e01da","6877631c9844ddd5501205fc","6889df73b1fa69a111487d3e","3","1","67d163e7b7bcc1e9718e01da","3","1","2025-07-30T09:40:38.833Z","","","","","","","","","","","","","","","","","","","","","","","","","","","","","","","","","","","","","","","","","",""
"32543.900000095367","","","","survey-template","3","2362424","0.0-2.0-1.0","275","1","2025-07-30 09:01:47","1f75c3e559b7213887762d5229550c2b","41.122.147.138","Mozilla/5.0 (Macintosh; Intel Mac OS X 10_15_7) AppleWebKit/537.36 (KHTML, like Gecko) Chrome/128.0.0.0 Safari/537.36","Macintosh","Chrome","128.0.0.0","OS X","10_15_7","https://app.prolific.com/","en-GB,en-US;q=0.9,en;q=0.8","67d163e7b7bcc1e9718e01da","6877631c9844ddd5501205fc","6889df73b1fa69a111487d3e","3","1","67d163e7b7bcc1e9718e01da","3","1","2025-07-30T09:41:11.389Z","","{""Q01"":""3"",""Q02"":""2"",""Q03"":""3"",""Q04"":""2"",""Q05"":""4"",""Q06"":""3"",""Q07"":""2"",""Q08"":""3"",""Q09"":""2"",""Q10"":""3"",""Q11"":""3"",""Q12"":""5"",""Q13"":""2"",""Q14"":""3"",""Q15"":""4"",""Q16"":""3"",""Q17"":""2"",""Q18"":""3"",""Q19"":""4"",""Q20"":""3"",""Q21"":""3"",""Q22"":""4""}","[0,1,2,3,4,5,6,7,8,9,10,11,12,13,14,15,16,17,18,19,20,21]","[""Q01"",""Q02"",""Q03"",""Q04"",""Q05"",""Q06"",""Q07"",""Q08"",""Q09"",""Q10"",""Q11"",""Q12"",""Q13"",""Q14"",""Q15"",""Q16"",""Q17"",""Q18"",""Q19"",""Q20"",""Q21"",""Q22""]","[2904.2000002861023,3548.800000190735,5193.800000190735,6254.700000286102,7177.700000286102,8335.400000095367,10481.700000286102,12740.300000190735,14867.700000286102,15727.700000286102,17643.60000038147,19391.5,21024.10000038147,22947.800000190735,23431.200000286102,24091.300000190735,25652,26305.5,28218.400000095367,28963.200000286102,29570.5,31658]","[]","[0.10000038146972656,1648,2904.2000002861023,3548.800000190735,4275.900000095367,4678.700000286102,5193.800000190735,6254.700000286102,7177.700000286102,8335.400000095367,8982.10000038147,10481.700000286102,11098.400000095367,11973.800000190735,12740.300000190735,13673.800000190735,14867.700000286102,15727.700000286102,16311.200000286102,17643.60000038147,18297.900000095367,19391.5,21024.10000038147,21978.300000190735,22947.800000190735,23431.200000286102,24091.300000190735,25652,26305.5,26930.700000286102,28218.400000095367,28963.200000286102,29570.5,31219.700000286102,31658,32536]","0.5","0.7619047619047619","0","drsp","","","","","","","","","","","","","","","","","","","","","","","","","","","","","","",""
"6388.200000286102","","","","survey-template","4","2368818","0.0-2.0-2.0","275","1","2025-07-30 09:01:47","1f75c3e559b7213887762d5229550c2b","41.122.147.138","Mozilla/5.0 (Macintosh; Intel Mac OS X 10_15_7) AppleWebKit/537.36 (KHTML, like Gecko) Chrome/128.0.0.0 Safari/537.36","Macintosh","Chrome","128.0.0.0","OS X","10_15_7","https://app.prolific.com/","en-GB,en-US;q=0.9,en;q=0.8","67d163e7b7bcc1e9718e01da","6877631c9844ddd5501205fc","6889df73b1fa69a111487d3e","3","1","67d163e7b7bcc1e9718e01da","3","1","2025-07-30T09:41:17.782Z","","{""Q01"":""3"",""Q02"":""2"",""Q03"":""2""}","[0,1,2]","[""Q01"",""Q02"",""Q03""]","[1894.7000002861023,3520.7000002861023,5360.60000038147]","[]","[1894.7000002861023,2473.9000000953674,3520.7000002861023,4024.7000002861023,5360.60000038147,6386.60000038147]","0.6666666666666666","0.5","0","stress","","","","","","","","","","","","","","","","","","","","","","","","","","","","","","",""
"2113","","","","instructions","5","2370937","0.0-3.0-0.0","275","1","2025-07-30 09:01:47","1f75c3e559b7213887762d5229550c2b","41.122.147.138","Mozilla/5.0 (Macintosh; Intel Mac OS X 10_15_7) AppleWebKit/537.36 (KHTML, like Gecko) Chrome/128.0.0.0 Safari/537.36","Macintosh","Chrome","128.0.0.0","OS X","10_15_7","https://app.prolific.com/","en-GB,en-US;q=0.9,en;q=0.8","67d163e7b7bcc1e9718e01da","6877631c9844ddd5501205fc","6889df73b1fa69a111487d3e","3","1","67d163e7b7bcc1e9718e01da","3","1","","","","","","","","","","","","","[{""page_index"":0,""viewing_time"":2113}]","","","","","","","","","","","","","","","","","","","","","","","","","","","","","",""
"1639","","<p>Before you start with this game please answer the following three questions yourself. </p>
  <p>Through this game, we measure several aspects of your cognitive performance, such as reaction times, multi-tasking capabilities </p>
  <p>and the ability to assess the situation you are in.</p>
  <p></p>
  <p><b>How good do you usually are in such tasks?</b></p>","65","html-slider-response","6","2372579","0.0-4.0-0.0","275","1","2025-07-30 09:01:47","1f75c3e559b7213887762d5229550c2b","41.122.147.138","Mozilla/5.0 (Macintosh; Intel Mac OS X 10_15_7) AppleWebKit/537.36 (KHTML, like Gecko) Chrome/128.0.0.0 Safari/537.36","Macintosh","Chrome","128.0.0.0","OS X","10_15_7","https://app.prolific.com/","en-GB,en-US;q=0.9,en;q=0.8","67d163e7b7bcc1e9718e01da","6877631c9844ddd5501205fc","6889df73b1fa69a111487d3e","3","1","67d163e7b7bcc1e9718e01da","3","1","2025-07-30T09:41:21.543Z","","","","","","","","","","","PreSkillQ","","50","","","","","","","","","","","","","","","","","","","","","","","","","","","","",""
"1495","","<div style=""width:500px;"">
  <p>How well do you think you will perform in this task compared to other participants?</p>
  </div>","76","html-slider-response","7","2374076","0.0-4.0-1.0","275","1","2025-07-30 09:01:47","1f75c3e559b7213887762d5229550c2b","41.122.147.138","Mozilla/5.0 (Macintosh; Intel Mac OS X 10_15_7) AppleWebKit/537.36 (KHTML, like Gecko) Chrome/128.0.0.0 Safari/537.36","Macintosh","Chrome","128.0.0.0","OS X","10_15_7","https://app.prolific.com/","en-GB,en-US;q=0.9,en;q=0.8","67d163e7b7bcc1e9718e01da","6877631c9844ddd5501205fc","6889df73b1fa69a111487d3e","3","1","67d163e7b7bcc1e9718e01da","3","1","2025-07-30T09:41:23.040Z","","","","","","","","","","","PrePerfQ","","50","","","","","","","","","","","","","","","","","","","","","","","","","","","","",""
"2292","","<div style=""width:500px;"">
  <p>What best describes how you currently feel?</p>
  </div>","71","html-slider-response","8","2376370","0.0-4.0-2.0","275","1","2025-07-30 09:01:47","1f75c3e559b7213887762d5229550c2b","41.122.147.138","Mozilla/5.0 (Macintosh; Intel Mac OS X 10_15_7) AppleWebKit/537.36 (KHTML, like Gecko) Chrome/128.0.0.0 Safari/537.36","Macintosh","Chrome","128.0.0.0","OS X","10_15_7","https://app.prolific.com/","en-GB,en-US;q=0.9,en;q=0.8","67d163e7b7bcc1e9718e01da","6877631c9844ddd5501205fc","6889df73b1fa69a111487d3e","3","1","67d163e7b7bcc1e9718e01da","3","1","2025-07-30T09:41:25.334Z","","","","","","","","","","","PreMotivationQ","","50","","","","","","","","","","","","","","","","","","","","","","","","","","","","",""
"","","","","ctl-task-cpt","9","3439281","0.0-5.0-0.0","275","1","2025-07-30 09:01:47","1f75c3e559b7213887762d5229550c2b","41.122.147.138","Mozilla/5.0 (Macintosh; Intel Mac OS X 10_15_7) AppleWebKit/537.36 (KHTML, like Gecko) Chrome/128.0.0.0 Safari/537.36","Macintosh","Chrome","128.0.0.0","OS X","10_15_7","https://app.prolific.com/","en-GB,en-US;q=0.9,en;q=0.8","67d163e7b7bcc1e9718e01da","6877631c9844ddd5501205fc","6889df73b1fa69a111487d3e","3","1","67d163e7b7bcc1e9718e01da","3","1","2025-07-30T09:59:08.246Z","","","","","","","","","","","","","","win-only","3","g1:SW,g2:NE","1","1","0","2378921.5","1038730.7","1043732.6","1059852.3","1","4","4","6","2","4","4","4","0","0.030303030303030304","1054.2","3000","470","[""up"",""right""]","{""num_key_presses"":6,""num_perfect"":6,""num_errors"":0,""num_randdir"":0,""num_randdir_good_moves"":0,""num_whilered"":0,""num_whileblue"":0,""num_blue"":0,""num_good_moves"":6}","[345.64285714285717,344.14285714285717,0.7,345.64285714285717,344.14285714285717,100.2,347.64285714285717,345.14285714285717,201.8,361.64285714285717,380.14285714285717,305.5,351.64285714285717,492.14285714285717,405.5,358.64285714285717,508.14285714285717,505.6,491.64285714285717,352.14285714285717,611.2,697.6428571428571,136.14285714285714,719.6,711.6428571428571,87.14285714285714,820.8,661.6428571428571,60.142857142857146,921.1,660.6428571428571,61.142857142857146,1026.8,659.6428571428571,61.142857142857146,1130.6,651.6428571428571,97.14285714285714,1232.5,568.6428571428571,211.14285714285714,1332.6,477.64285714285717,281.14285714285717,1437,477.64285714285717,281.14285714285717,1541.1,477.64285714285717,281.14285714285717,1645.6,477.64285714285717,281.14285714285717,1746.2,477.64285714285717,281.14285714285717,1850.5,477.64285714285717,281.14285714285717,1951.7,477.64285714285717,281.14285714285717,2056.3,477.64285714285717,281.14285714285717,2160.7,477.64285714285717,281.14285714285717,2260.8,477.64285714285717,281.14285714285717,2365.1,477.64285714285717,281.14285714285717,2466.3,477.64285714285717,281.14285714285717,2566.6,477.64285714285717,281.14285714285717,2670.7,477.64285714285717,281.14285714285717,2777.8,477.64285714285717,281.14285714285717,2880.6,477.64285714285717,281.14285714285717,2980.8,477.64285714285717,281.14285714285717,3081.2,477.64285714285717,281.14285714285717,3185.9,477.64285714285717,281.14285714285717,3286.7,477.64285714285717,281.14285714285717,3390.8,477.64285714285717,281.14285714285717,3490.9,477.64285714285717,281.14285714285717,3591.5,477.64285714285717,281.14285714285717,3696.4,477.64285714285717,281.14285714285717,3800,477.64285714285717,281.14285714285717,3900.2,477.64285714285717,281.14285714285717,4001.6,477.64285714285717,281.14285714285717,4105.9,477.64285714285717,281.14285714285717,4206,477.64285714285717,281.14285714285717,4306.1,477.64285714285717,281.14285714285717,4410.9,477.64285714285717,281.14285714285717,4511,477.64285714285717,281.14285714285717,4615.8,477.64285714285717,281.14285714285717,4716,477.64285714285717,281.14285714285717,4820.1,477.64285714285717,281.14285714285717,4920.5]","[1625.3,1625.1,1000,0.2,625.1,""smooth"",""right"",""right"",""good_move"",4276.7,2650.8,2248.2,1626,402.5,""smooth"",""right"",""right"",""good_move"",7741.2,3464.2,3012.3,4277,451.9,""smooth"",""right"",""right"",""good_move"",10787.6,3046.1,2682,7741.5,364.1,""smooth"",""up"",""up"",""good_move"",13665.5,2877.6,2514.7,10787.9,362.9,""smooth"",""up"",""up"",""good_move"",16032.9,2366.9,1889.5,13666,477.4,""smooth"",""up"",""up"",""good_move""]","",""
"1918","","<div style=""width:500px;"">
  <p>What determined the result of this run?</p>
  </div>","69","html-slider-response","10","3441203","0.0-5.0-1.0","275","1","2025-07-30 09:01:47","1f75c3e559b7213887762d5229550c2b","41.122.147.138","Mozilla/5.0 (Macintosh; Intel Mac OS X 10_15_7) AppleWebKit/537.36 (KHTML, like Gecko) Chrome/128.0.0.0 Safari/537.36","Macintosh","Chrome","128.0.0.0","OS X","10_15_7","https://app.prolific.com/","en-GB,en-US;q=0.9,en;q=0.8","67d163e7b7bcc1e9718e01da","6877631c9844ddd5501205fc","6889df73b1fa69a111487d3e","3","1","67d163e7b7bcc1e9718e01da","3","1","2025-07-30T09:59:10.167Z","","","","","","","","","","","AttribQ","","50","","","","","","","","","","","","","","","","","","","","","","","","","","","","",""
"1986","","<div style=""width:500px;"">
  <p>How much control did you have over the ball?</p>
  </div>","61","html-slider-response","11","3443190","0.0-5.0-2.0","275","1","2025-07-30 09:01:47","1f75c3e559b7213887762d5229550c2b","41.122.147.138","Mozilla/5.0 (Macintosh; Intel Mac OS X 10_15_7) AppleWebKit/537.36 (KHTML, like Gecko) Chrome/128.0.0.0 Safari/537.36","Macintosh","Chrome","128.0.0.0","OS X","10_15_7","https://app.prolific.com/","en-GB,en-US;q=0.9,en;q=0.8","67d163e7b7bcc1e9718e01da","6877631c9844ddd5501205fc","6889df73b1fa69a111487d3e","3","1","67d163e7b7bcc1e9718e01da","3","1","2025-07-30T09:59:12.154Z","","","","","","","","","","","ControlQ","","50","","","","","","","","","","","","","","","","","","","","","","","","","","","","",""
"1581","","<div style=""width:500px;"">
  <p>How would you describe your current emotional state?</p>
  </div>","40","html-slider-response","12","3444773","0.0-5.0-3.0","275","1","2025-07-30 09:01:47","1f75c3e559b7213887762d5229550c2b","41.122.147.138","Mozilla/5.0 (Macintosh; Intel Mac OS X 10_15_7) AppleWebKit/537.36 (KHTML, like Gecko) Chrome/128.0.0.0 Safari/537.36","Macintosh","Chrome","128.0.0.0","OS X","10_15_7","https://app.prolific.com/","en-GB,en-US;q=0.9,en;q=0.8","67d163e7b7bcc1e9718e01da","6877631c9844ddd5501205fc","6889df73b1fa69a111487d3e","3","1","67d163e7b7bcc1e9718e01da","3","1","2025-07-30T09:59:13.737Z","","","","","","","","","","","StressQ","","50","","","","","","","","","","","","","","","","","","","","","","","","","","","","",""
"2264","","<div style=""width:500px;"">
  <p>What best describes how you currently feel?</p>
  </div>","65","html-slider-response","13","3447039","0.0-5.0-4.0","275","1","2025-07-30 09:01:47","1f75c3e559b7213887762d5229550c2b","41.122.147.138","Mozilla/5.0 (Macintosh; Intel Mac OS X 10_15_7) AppleWebKit/537.36 (KHTML, like Gecko) Chrome/128.0.0.0 Safari/537.36","Macintosh","Chrome","128.0.0.0","OS X","10_15_7","https://app.prolific.com/","en-GB,en-US;q=0.9,en;q=0.8","67d163e7b7bcc1e9718e01da","6877631c9844ddd5501205fc","6889df73b1fa69a111487d3e","3","1","67d163e7b7bcc1e9718e01da","3","1","2025-07-30T09:59:16.003Z","","","","","","","","","","","MotivationQ","","50","","","","","","","","","","","","","","","","","","","","","","","","","","","","",""
"","","","","ctl-task-cpt","14","3475152","0.0-5.0-0.1","275","1","2025-07-30 09:01:47","1f75c3e559b7213887762d5229550c2b","41.122.147.138","Mozilla/5.0 (Macintosh; Intel Mac OS X 10_15_7) AppleWebKit/537.36 (KHTML, like Gecko) Chrome/128.0.0.0 Safari/537.36","Macintosh","Chrome","128.0.0.0","OS X","10_15_7","https://app.prolific.com/","en-GB,en-US;q=0.9,en;q=0.8","67d163e7b7bcc1e9718e01da","6877631c9844ddd5501205fc","6889df73b1fa69a111487d3e","3","1","67d163e7b7bcc1e9718e01da","3","1","2025-07-30T09:59:44.116Z","","","","","","","","","","","","","","win-only","2","g1:SE,g2:NW","0.9","2","0","3449541","916.3","5922.2","24997","1","4","8","6","2","8","8","12","4","0.09090909090909091","1193.6","3000","775","[""left"",""up""]","{""num_key_presses"":6,""num_perfect"":6,""num_errors"":0,""num_randdir"":0,""num_randdir_good_moves"":0,""num_whilered"":0,""num_whileblue"":0,""num_blue"":1,""num_good_moves"":6}","[318.20625,319.096875,0.3,318.20625,319.096875,100,320.20625,322.096875,205.2,325.20625,326.096875,309.5,431.20625,339.096875,409.6,406.20625,268.096875,515,210.20625,123.096875,615.4,112.20625,51.096875,720.4,89.20625,43.096875,822.7,86.20625,45.096875,925.5,86.20625,45.096875,1026,86.20625,45.096875,1132.7,86.20625,45.096875,1235.6,86.20625,45.096875,1335.9,77.20625,82.096875,1440,-32.79375,170.096875,1541.3,-40.79375,168.096875,1641.7,-40.79375,168.096875,1745.2,-40.79375,168.096875,1845.8,-40.79375,168.096875,1945.9,-40.79375,168.096875,2051.6,-40.79375,168.096875,2155.1,-40.79375,168.096875,2255.3,-40.79375,168.096875,2360,-40.79375,168.096875,2460.2,-40.79375,168.096875,2560.3,-40.79375,168.096875,2660.8,-40.79375,168.096875,2765.4,-40.79375,168.096875,2866.3,-40.79375,168.096875,2981.2,-40.79375,168.096875,3085.1,-40.79375,168.096875,3190.5,-40.79375,168.096875,3295,-40.79375,168.096875,3395.4,-40.79375,168.096875,3495.4,-40.79375,168.096875,3602.6,-40.79375,168.096875,3702.8,-40.79375,168.096875,3804.4,-40.79375,168.096875,3904.4,-40.79375,168.096875,4005.7,-40.79375,168.096875,4109.9,-40.79375,168.096875,4210,-40.79375,168.096875,4310.5,-40.79375,168.096875,4416.7,-40.79375,168.096875,4520.1,-40.79375,168.096875,4620.1,-40.79375,168.096875,4720.2,-40.79375,168.096875,4824.6,-40.79375,168.096875,4924.6]","[5146,5145.9,2662.2,2008.8,475,""smooth"",""left"",""left"",""good_move"",7879,2732.5,2351.8,5146.5,380.7,""smooth"",""left"",""left"",""good_move"",10755.5,2876.2,2472.6,7879.3,403.6,""smooth"",""left"",""left"",""good_move"",13265.1,2509.3,2049.1,10755.8,460.2,""smooth"",""up"",""up"",""good_move"",15530.5,2265,1866.7,13265.5,398.3,""smooth"",""up"",""up"",""good_move"",18978.3,3447.7,2982.8,15530.7,464.9,""smooth"",""up"",""up"",""good_move""]","",""
"2686","","<div style=""width:500px;"">
  <p>What determined the result of this run?</p>
  </div>","64","html-slider-response","15","3477840","0.0-5.0-1.1","275","1","2025-07-30 09:01:47","1f75c3e559b7213887762d5229550c2b","41.122.147.138","Mozilla/5.0 (Macintosh; Intel Mac OS X 10_15_7) AppleWebKit/537.36 (KHTML, like Gecko) Chrome/128.0.0.0 Safari/537.36","Macintosh","Chrome","128.0.0.0","OS X","10_15_7","https://app.prolific.com/","en-GB,en-US;q=0.9,en;q=0.8","67d163e7b7bcc1e9718e01da","6877631c9844ddd5501205fc","6889df73b1fa69a111487d3e","3","1","67d163e7b7bcc1e9718e01da","3","1","2025-07-30T09:59:46.804Z","","","","","","","","","","","AttribQ","","50","","","","","","","","","","","","","","","","","","","","","","","","","","","","",""
"1701","","<div style=""width:500px;"">
  <p>How much control did you have over the ball?</p>
  </div>","65","html-slider-response","16","3479544","0.0-5.0-2.1","275","1","2025-07-30 09:01:47","1f75c3e559b7213887762d5229550c2b","41.122.147.138","Mozilla/5.0 (Macintosh; Intel Mac OS X 10_15_7) AppleWebKit/537.36 (KHTML, like Gecko) Chrome/128.0.0.0 Safari/537.36","Macintosh","Chrome","128.0.0.0","OS X","10_15_7","https://app.prolific.com/","en-GB,en-US;q=0.9,en;q=0.8","67d163e7b7bcc1e9718e01da","6877631c9844ddd5501205fc","6889df73b1fa69a111487d3e","3","1","67d163e7b7bcc1e9718e01da","3","1","2025-07-30T09:59:48.509Z","","","","","","","","","","","ControlQ","","50","","","","","","","","","","","","","","","","","","","","","","","","","","","","",""
"2113","","<div style=""width:500px;"">
  <p>How would you describe your current emotional state?</p>
  </div>","33","html-slider-response","17","3481659","0.0-5.0-3.1","275","1","2025-07-30 09:01:47","1f75c3e559b7213887762d5229550c2b","41.122.147.138","Mozilla/5.0 (Macintosh; Intel Mac OS X 10_15_7) AppleWebKit/537.36 (KHTML, like Gecko) Chrome/128.0.0.0 Safari/537.36","Macintosh","Chrome","128.0.0.0","OS X","10_15_7","https://app.prolific.com/","en-GB,en-US;q=0.9,en;q=0.8","67d163e7b7bcc1e9718e01da","6877631c9844ddd5501205fc","6889df73b1fa69a111487d3e","3","1","67d163e7b7bcc1e9718e01da","3","1","2025-07-30T09:59:50.624Z","","","","","","","","","","","StressQ","","50","","","","","","","","","","","","","","","","","","","","","","","","","","","","",""
"2500","","<div style=""width:500px;"">
  <p>What best describes how you currently feel?</p>
  </div>","67","html-slider-response","18","3484161","0.0-5.0-4.1","275","1","2025-07-30 09:01:47","1f75c3e559b7213887762d5229550c2b","41.122.147.138","Mozilla/5.0 (Macintosh; Intel Mac OS X 10_15_7) AppleWebKit/537.36 (KHTML, like Gecko) Chrome/128.0.0.0 Safari/537.36","Macintosh","Chrome","128.0.0.0","OS X","10_15_7","https://app.prolific.com/","en-GB,en-US;q=0.9,en;q=0.8","67d163e7b7bcc1e9718e01da","6877631c9844ddd5501205fc","6889df73b1fa69a111487d3e","3","1","67d163e7b7bcc1e9718e01da","3","1","2025-07-30T09:59:53.125Z","","","","","","","","","","","MotivationQ","","50","","","","","","","","","","","","","","","","","","","","","","","","","","","","",""
"","","","","ctl-task-cpt","19","3528013","0.0-5.0-0.2","275","1","2025-07-30 09:01:47","1f75c3e559b7213887762d5229550c2b","41.122.147.138","Mozilla/5.0 (Macintosh; Intel Mac OS X 10_15_7) AppleWebKit/537.36 (KHTML, like Gecko) Chrome/128.0.0.0 Safari/537.36","Macintosh","Chrome","128.0.0.0","OS X","10_15_7","https://app.prolific.com/","en-GB,en-US;q=0.9,en;q=0.8","67d163e7b7bcc1e9718e01da","6877631c9844ddd5501205fc","6889df73b1fa69a111487d3e","3","1","67d163e7b7bcc1e9718e01da","3","1","2025-07-30T10:00:36.978Z","","","","","","","","","","","","","","win-only","2","g1:SE,g2:NW","0.8","3","0","3486659.2","802.4","5806.7","40839.7","1","4","4","6","2","4","4","16","12","0.12121212121212122","1977.5","3000","390","[""left"",""up""]","{""num_key_presses"":8,""num_perfect"":7,""num_errors"":0,""num_randdir"":1,""num_randdir_good_moves"":0,""num_whilered"":0,""num_whileblue"":0,""num_blue"":3,""num_good_moves"":7}","[317.20625,314.096875,0.3,317.20625,314.096875,103.5,317.20625,331.096875,204.1,311.20625,325.096875,308.6,311.20625,325.096875,408.6,311.20625,325.096875,508.7,311.20625,325.096875,609.3,311.20625,325.096875,712.9,311.20625,325.096875,815.5,311.20625,325.096875,916.4,311.20625,325.096875,1018,311.20625,325.096875,1119.1,311.20625,325.096875,1223.6,231.20625,205.096875,1331.1,215.20625,166.096875,1431.3,148.20625,153.096875,1534.3,93.20625,116.096875,1639.2,76.20625,97.096875,1741.7,75.20625,85.096875,1844.9,71.20625,70.096875,1953.7,71.20625,70.096875,2054.2,70.20625,81.096875,2158.4,54.20625,192.096875,2267.8,48.20625,204.096875,2368.6,48.20625,204.096875,2469.9,48.20625,204.096875,2574.4,48.20625,204.096875,2674.8,48.20625,204.096875,2775.1,48.20625,204.096875,2879.5,48.20625,204.096875,2979.6,48.20625,204.096875,3080.3,48.20625,204.096875,3187.9,48.20625,204.096875,3288.6,48.20625,204.096875,3388.7,48.20625,204.096875,3489.4,48.20625,204.096875,3593.2,48.20625,204.096875,3693.1,48.20625,204.096875,3794.5,48.20625,204.096875,3898.6,48.20625,204.096875,3998.9,48.20625,204.096875,4099.1,48.20625,204.096875,4199.4,48.20625,204.096875,4305.6,48.20625,204.096875,4408.8,48.20625,204.096875,4514.7,48.20625,204.096875,4615.3,48.20625,204.096875,4719.2,48.20625,204.096875,4823.5,48.20625,204.096875,4923.9]","[1485.2,1485.2,1000,0,485.2,""smooth"",""left"",""left"",""good_move"",5061.6,3575.7,3207.1,1485.9,368.6,""smooth"",""left"",""left"",""good_move"",12727.8,7666.1,2891.6,9388.5,447.8,""smooth"",""left"",""left"",""good_move"",15882.2,3153.9,2743.6,12728.3,410.3,""smooth"",""up"",""up"",""good_move"",18622.2,2739.7,2008.9,15882.5,730.8,""smooth"",""up"",""up"",""good_move"",24638.8,6016.3,1920,22322.2,396.7,""oops"",""up"",""down"",""bad_move"",27723.4,3083.9,2690,24639.5,393.9,""smooth"",""up"",""up"",""good_move"",34868.7,7145,2965.7,31255.6,647.4,""smooth"",""up"",""up"",""good_move""]","",""
"1328","","<div style=""width:500px;"">
  <p>What determined the result of this run?</p>
  </div>","73","html-slider-response","20","3529343","0.0-5.0-1.2","275","1","2025-07-30 09:01:47","1f75c3e559b7213887762d5229550c2b","41.122.147.138","Mozilla/5.0 (Macintosh; Intel Mac OS X 10_15_7) AppleWebKit/537.36 (KHTML, like Gecko) Chrome/128.0.0.0 Safari/537.36","Macintosh","Chrome","128.0.0.0","OS X","10_15_7","https://app.prolific.com/","en-GB,en-US;q=0.9,en;q=0.8","67d163e7b7bcc1e9718e01da","6877631c9844ddd5501205fc","6889df73b1fa69a111487d3e","3","1","67d163e7b7bcc1e9718e01da","3","1","2025-07-30T10:00:38.307Z","","","","","","","","","","","AttribQ","","50","","","","","","","","","","","","","","","","","","","","","","","","","","","","",""
"1883","","<div style=""width:500px;"">
  <p>How much control did you have over the ball?</p>
  </div>","59","html-slider-response","21","3531228","0.0-5.0-2.2","275","1","2025-07-30 09:01:47","1f75c3e559b7213887762d5229550c2b","41.122.147.138","Mozilla/5.0 (Macintosh; Intel Mac OS X 10_15_7) AppleWebKit/537.36 (KHTML, like Gecko) Chrome/128.0.0.0 Safari/537.36","Macintosh","Chrome","128.0.0.0","OS X","10_15_7","https://app.prolific.com/","en-GB,en-US;q=0.9,en;q=0.8","67d163e7b7bcc1e9718e01da","6877631c9844ddd5501205fc","6889df73b1fa69a111487d3e","3","1","67d163e7b7bcc1e9718e01da","3","1","2025-07-30T10:00:40.192Z","","","","","","","","","","","ControlQ","","50","","","","","","","","","","","","","","","","","","","","","","","","","","","","",""
"1980","","<div style=""width:500px;"">
  <p>How would you describe your current emotional state?</p>
  </div>","36","html-slider-response","22","3533211","0.0-5.0-3.2","275","1","2025-07-30 09:01:47","1f75c3e559b7213887762d5229550c2b","41.122.147.138","Mozilla/5.0 (Macintosh; Intel Mac OS X 10_15_7) AppleWebKit/537.36 (KHTML, like Gecko) Chrome/128.0.0.0 Safari/537.36","Macintosh","Chrome","128.0.0.0","OS X","10_15_7","https://app.prolific.com/","en-GB,en-US;q=0.9,en;q=0.8","67d163e7b7bcc1e9718e01da","6877631c9844ddd5501205fc","6889df73b1fa69a111487d3e","3","1","67d163e7b7bcc1e9718e01da","3","1","2025-07-30T10:00:42.175Z","","","","","","","","","","","StressQ","","50","","","","","","","","","","","","","","","","","","","","","","","","","","","","",""
"1172","","<div style=""width:500px;"">
  <p>What best describes how you currently feel?</p>
  </div>","62","html-slider-response","23","3534386","0.0-5.0-4.2","275","1","2025-07-30 09:01:47","1f75c3e559b7213887762d5229550c2b","41.122.147.138","Mozilla/5.0 (Macintosh; Intel Mac OS X 10_15_7) AppleWebKit/537.36 (KHTML, like Gecko) Chrome/128.0.0.0 Safari/537.36","Macintosh","Chrome","128.0.0.0","OS X","10_15_7","https://app.prolific.com/","en-GB,en-US;q=0.9,en;q=0.8","67d163e7b7bcc1e9718e01da","6877631c9844ddd5501205fc","6889df73b1fa69a111487d3e","3","1","67d163e7b7bcc1e9718e01da","3","1","2025-07-30T10:00:43.350Z","","","","","","","","","","","MotivationQ","","50","","","","","","","","","","","","","","","","","","","","","","","","","","","","",""
"","","","","ctl-task-cpt","24","3581386","0.0-5.0-0.3","275","1","2025-07-30 09:01:47","1f75c3e559b7213887762d5229550c2b","41.122.147.138","Mozilla/5.0 (Macintosh; Intel Mac OS X 10_15_7) AppleWebKit/537.36 (KHTML, like Gecko) Chrome/128.0.0.0 Safari/537.36","Macintosh","Chrome","128.0.0.0","OS X","10_15_7","https://app.prolific.com/","en-GB,en-US;q=0.9,en;q=0.8","67d163e7b7bcc1e9718e01da","6877631c9844ddd5501205fc","6889df73b1fa69a111487d3e","3","1","67d163e7b7bcc1e9718e01da","3","1","2025-07-30T10:01:30.350Z","","","","","","","","","","","","","","win-only","3","g1:SW,g2:NE","0.7","4","0","3536884.9","701.9","5708.3","43936","1","4","8","6","2","8","8","24","16","0.18181818181818182","923","3000","640","[""up"",""right""]","{""num_key_presses"":10,""num_perfect"":7,""num_errors"":0,""num_randdir"":3,""num_randdir_good_moves"":1,""num_whilered"":0,""num_whileblue"":0,""num_blue"":2,""num_good_moves"":8}","[317.20625,315.096875,0.9,317.20625,315.096875,104.1,321.20625,316.096875,206.3,341.20625,311.096875,311.9,378.20625,267.096875,421.9,503.20625,164.096875,526.4,569.20625,108.096875,636.7,566.20625,99.096875,737,564.20625,91.096875,839.7,564.20625,90.096875,952.8,563.20625,92.096875,1065.9,565.20625,200.096875,1211.9,566.20625,204.096875,1326.2,566.20625,204.096875,1437.9,566.20625,204.096875,1548.8,566.20625,204.096875,1654.1,566.20625,204.096875,1754.5,566.20625,204.096875,1954.9,566.20625,204.096875,2058,566.20625,204.096875,2164.2,566.20625,204.096875,2269.7,566.20625,204.096875,2380.1,566.20625,204.096875,2481,566.20625,204.096875,2594.9,566.20625,204.096875,2695.2,566.20625,204.096875,2803.4,566.20625,204.096875,2904.9,566.20625,204.096875,3004.9,566.20625,204.096875,3106.5,566.20625,204.096875,3224.3,566.20625,204.096875,3337.4,566.20625,204.096875,3439.6,566.20625,204.096875,3540.2,566.20625,204.096875,3655.6,566.20625,204.096875,3756.4,566.20625,204.096875,3859.1,566.20625,204.096875,3961.8,566.20625,204.096875,4066.1,566.20625,204.096875,4169,566.20625,204.096875,4270.7,566.20625,204.096875,4371.5,566.20625,204.096875,4486.5,566.20625,204.096875,4598.6,566.20625,204.096875,4701.8,566.20625,204.096875,4802.2,566.20625,204.096875,4904.6]","[1824.9,1824.9,1000,0,824.9,""oops"",""right"",""up"",""good_move"",5947,4121.5,2422.3,1825.5,1699.2,""smooth"",""right"",""right"",""good_move"",10071.2,4124.2,3140.8,5947.4,983.5,""smooth"",""right"",""right"",""good_move"",12890.5,2814,2425.2,10077,388.3,""smooth"",""right"",""right"",""good_move"",15949.7,3059,2665.8,12890.9,393.2,""oops"",""up"",""down"",""bad_move"",18472.8,2520.9,2117,15951.9,403.9,""smooth"",""up"",""up"",""good_move"",25630.3,7157,2877.7,22342.4,410.2,""smooth"",""up"",""up"",""good_move"",31973,6342.5,2703.5,28857.1,412.4,""oops"",""up"",""down"",""bad_move"",34878.3,2904.4,2357.1,31974,547.2,""smooth"",""up"",""up"",""good_move"",37970.8,3092.2,2563.8,34878.6,528.4,""smooth"",""up"",""up"",""good_move""]","",""
"2469","","<div style=""width:500px;"">
  <p>What determined the result of this run?</p>
  </div>","65","html-slider-response","25","3583865","0.0-5.0-1.3","275","1","2025-07-30 09:01:47","1f75c3e559b7213887762d5229550c2b","41.122.147.138","Mozilla/5.0 (Macintosh; Intel Mac OS X 10_15_7) AppleWebKit/537.36 (KHTML, like Gecko) Chrome/128.0.0.0 Safari/537.36","Macintosh","Chrome","128.0.0.0","OS X","10_15_7","https://app.prolific.com/","en-GB,en-US;q=0.9,en;q=0.8","67d163e7b7bcc1e9718e01da","6877631c9844ddd5501205fc","6889df73b1fa69a111487d3e","3","1","67d163e7b7bcc1e9718e01da","3","1","2025-07-30T10:01:32.829Z","","","","","","","","","","","AttribQ","","50","","","","","","","","","","","","","","","","","","","","","","","","","","","","",""
"1624","","<div style=""width:500px;"">
  <p>How much control did you have over the ball?</p>
  </div>","60","html-slider-response","26","3585506","0.0-5.0-2.3","275","1","2025-07-30 09:01:47","1f75c3e559b7213887762d5229550c2b","41.122.147.138","Mozilla/5.0 (Macintosh; Intel Mac OS X 10_15_7) AppleWebKit/537.36 (KHTML, like Gecko) Chrome/128.0.0.0 Safari/537.36","Macintosh","Chrome","128.0.0.0","OS X","10_15_7","https://app.prolific.com/","en-GB,en-US;q=0.9,en;q=0.8","67d163e7b7bcc1e9718e01da","6877631c9844ddd5501205fc","6889df73b1fa69a111487d3e","3","1","67d163e7b7bcc1e9718e01da","3","1","2025-07-30T10:01:34.470Z","","","","","","","","","","","ControlQ","","50","","","","","","","","","","","","","","","","","","","","","","","","","","","","",""
"3267","","<div style=""width:500px;"">
  <p>How would you describe your current emotional state?</p>
  </div>","32","html-slider-response","27","3588776","0.0-5.0-3.3","275","1","2025-07-30 09:01:47","1f75c3e559b7213887762d5229550c2b","41.122.147.138","Mozilla/5.0 (Macintosh; Intel Mac OS X 10_15_7) AppleWebKit/537.36 (KHTML, like Gecko) Chrome/128.0.0.0 Safari/537.36","Macintosh","Chrome","128.0.0.0","OS X","10_15_7","https://app.prolific.com/","en-GB,en-US;q=0.9,en;q=0.8","67d163e7b7bcc1e9718e01da","6877631c9844ddd5501205fc","6889df73b1fa69a111487d3e","3","1","67d163e7b7bcc1e9718e01da","3","1","2025-07-30T10:01:37.740Z","","","","","","","","","","","StressQ","","50","","","","","","","","","","","","","","","","","","","","","","","","","","","","",""
"1322","","<div style=""width:500px;"">
  <p>What best describes how you currently feel?</p>
  </div>","62","html-slider-response","28","3590100","0.0-5.0-4.3","275","1","2025-07-30 09:01:47","1f75c3e559b7213887762d5229550c2b","41.122.147.138","Mozilla/5.0 (Macintosh; Intel Mac OS X 10_15_7) AppleWebKit/537.36 (KHTML, like Gecko) Chrome/128.0.0.0 Safari/537.36","Macintosh","Chrome","128.0.0.0","OS X","10_15_7","https://app.prolific.com/","en-GB,en-US;q=0.9,en;q=0.8","67d163e7b7bcc1e9718e01da","6877631c9844ddd5501205fc","6889df73b1fa69a111487d3e","3","1","67d163e7b7bcc1e9718e01da","3","1","2025-07-30T10:01:39.064Z","","","","","","","","","","","MotivationQ","","50","","","","","","","","","","","","","","","","","","","","","","","","","","","","",""
"","","","","ctl-task-cpt","29","3639510","0.0-5.0-0.4","275","1","2025-07-30 09:01:47","1f75c3e559b7213887762d5229550c2b","41.122.147.138","Mozilla/5.0 (Macintosh; Intel Mac OS X 10_15_7) AppleWebKit/537.36 (KHTML, like Gecko) Chrome/128.0.0.0 Safari/537.36","Macintosh","Chrome","128.0.0.0","OS X","10_15_7","https://app.prolific.com/","en-GB,en-US;q=0.9,en;q=0.8","67d163e7b7bcc1e9718e01da","6877631c9844ddd5501205fc","6889df73b1fa69a111487d3e","3","1","67d163e7b7bcc1e9718e01da","3","1","2025-07-30T10:02:28.474Z","","","","","","","","","","","","","","win-only","2","g1:SE,g2:NW","0.6","5","0","3592597.6","798.6","5805.4","46385.4","1","4","8","6","2","-8","-8","16","24","0.12121212121212122","1060","3000","-1905","[""left"",""up""]","{""num_key_presses"":10,""num_perfect"":6,""num_errors"":0,""num_randdir"":4,""num_randdir_good_moves"":1,""num_whilered"":0,""num_whileblue"":0,""num_blue"":2,""num_good_moves"":7}","[312.20625,304.096875,0.4,312.20625,304.096875,105.2,309.20625,309.096875,205.6,287.20625,362.096875,308.4,244.20625,289.096875,413.6,156.20625,170.096875,521.1,120.20625,115.096875,632.9,107.20625,110.096875,744,98.20625,103.096875,849,69.20625,88.096875,957.8,69.20625,87.096875,1066.2,69.20625,87.096875,1170.9,70.20625,97.096875,1279.6,108.20625,211.096875,1385.6,97.20625,473.096875,1492.9,83.20625,530.096875,1599.5,82.20625,531.096875,1705,82.20625,531.096875,1810.4,82.20625,531.096875,1914.4,82.20625,531.096875,2019.2,82.20625,531.096875,2131,82.20625,531.096875,2232.8,82.20625,531.096875,2332.9,82.20625,531.096875,2440.6,82.20625,531.096875,2547.3,82.20625,531.096875,2650.9,82.20625,531.096875,2753,82.20625,531.096875,2862.3,82.20625,531.096875,2964.5,82.20625,531.096875,3064.5,82.20625,531.096875,3168.5,82.20625,531.096875,3275.8,82.20625,531.096875,3378.7,82.20625,531.096875,3479.3,82.20625,531.096875,3581.6,82.20625,531.096875,3686.3,82.20625,531.096875,3790.3,82.20625,531.096875,3896.8,82.20625,531.096875,3997.7,82.20625,531.096875,4098.4,82.20625,531.096875,4198.9,82.20625,531.096875,4304.4,82.20625,531.096875,4411.1,82.20625,531.096875,4514.5,82.20625,531.096875,4617,82.20625,531.096875,4719,82.20625,531.096875,4825,82.20625,531.096875,4930.1]","[1681,1681,1000,0,681,""oops"",""left"",""up"",""good_move"",4609.5,2928,2514.3,1681.5,413.7,""smooth"",""left"",""left"",""good_move"",8179.1,3568.9,3089,4610.3,479.8,""oops"",""left"",""right"",""bad_move"",10984.7,2804.9,2378.9,8179.8,426,""smooth"",""left"",""left"",""good_move"",13872.4,2887,2436.8,10985.5,450.2,""oops"",""left"",""down"",""bad_move"",17785.4,3912.6,3266.1,13872.8,646.5,""smooth"",""left"",""left"",""good_move"",25081.5,7295.5,2631.7,21631.3,818.5,""oops"",""left"",""right"",""bad_move"",32078.6,6996.8,2864.7,28782.6,431.3,""smooth"",""left"",""left"",""good_move"",35383.3,3304.5,2890.9,32078.8,413.6,""smooth"",""left"",""left"",""good_move"",38489,3105.2,2698.8,35383.9,406.3,""smooth"",""up"",""up"",""good_move""]","",""
"3831","","<div style=""width:500px;"">
  <p>What determined the result of this run?</p>
  </div>","32","html-slider-response","30","3643342","0.0-5.0-1.4","275","1","2025-07-30 09:01:47","1f75c3e559b7213887762d5229550c2b","41.122.147.138","Mozilla/5.0 (Macintosh; Intel Mac OS X 10_15_7) AppleWebKit/537.36 (KHTML, like Gecko) Chrome/128.0.0.0 Safari/537.36","Macintosh","Chrome","128.0.0.0","OS X","10_15_7","https://app.prolific.com/","en-GB,en-US;q=0.9,en;q=0.8","67d163e7b7bcc1e9718e01da","6877631c9844ddd5501205fc","6889df73b1fa69a111487d3e","3","1","67d163e7b7bcc1e9718e01da","3","1","2025-07-30T10:02:32.306Z","","","","","","","","","","","AttribQ","","50","","","","","","","","","","","","","","","","","","","","","","","","","","","","",""
"4052","","<div style=""width:500px;"">
  <p>How much control did you have over the ball?</p>
  </div>","28","html-slider-response","31","3647396","0.0-5.0-2.4","275","1","2025-07-30 09:01:47","1f75c3e559b7213887762d5229550c2b","41.122.147.138","Mozilla/5.0 (Macintosh; Intel Mac OS X 10_15_7) AppleWebKit/537.36 (KHTML, like Gecko) Chrome/128.0.0.0 Safari/537.36","Macintosh","Chrome","128.0.0.0","OS X","10_15_7","https://app.prolific.com/","en-GB,en-US;q=0.9,en;q=0.8","67d163e7b7bcc1e9718e01da","6877631c9844ddd5501205fc","6889df73b1fa69a111487d3e","3","1","67d163e7b7bcc1e9718e01da","3","1","2025-07-30T10:02:36.360Z","","","","","","","","","","","ControlQ","","50","","","","","","","","","","","","","","","","","","","","","","","","","","","","",""
"2545","","<div style=""width:500px;"">
  <p>How would you describe your current emotional state?</p>
  </div>","67","html-slider-response","32","3649948","0.0-5.0-3.4","275","1","2025-07-30 09:01:47","1f75c3e559b7213887762d5229550c2b","41.122.147.138","Mozilla/5.0 (Macintosh; Intel Mac OS X 10_15_7) AppleWebKit/537.36 (KHTML, like Gecko) Chrome/128.0.0.0 Safari/537.36","Macintosh","Chrome","128.0.0.0","OS X","10_15_7","https://app.prolific.com/","en-GB,en-US;q=0.9,en;q=0.8","67d163e7b7bcc1e9718e01da","6877631c9844ddd5501205fc","6889df73b1fa69a111487d3e","3","1","67d163e7b7bcc1e9718e01da","3","1","2025-07-30T10:02:38.912Z","","","","","","","","","","","StressQ","","50","","","","","","","","","","","","","","","","","","","","","","","","","","","","",""
"122663","","<div style=""width:500px;"">
  <p>What best describes how you currently feel?</p>
  </div>","24","html-slider-response","33","3772617","0.0-5.0-4.4","275","1","2025-07-30 09:01:47","1f75c3e559b7213887762d5229550c2b","41.122.147.138","Mozilla/5.0 (Macintosh; Intel Mac OS X 10_15_7) AppleWebKit/537.36 (KHTML, like Gecko) Chrome/128.0.0.0 Safari/537.36","Macintosh","Chrome","128.0.0.0","OS X","10_15_7","https://app.prolific.com/","en-GB,en-US;q=0.9,en;q=0.8","67d163e7b7bcc1e9718e01da","6877631c9844ddd5501205fc","6889df73b1fa69a111487d3e","3","1","67d163e7b7bcc1e9718e01da","3","1","2025-07-30T10:04:41.581Z","","","","","","","","","","","MotivationQ","","50","","","","","","","","","","","","","","","","","","","","","","","","","","","","",""
"","","","","ctl-task-cpt","34","3824786","0.0-5.0-0.5","275","1","2025-07-30 09:01:47","1f75c3e559b7213887762d5229550c2b","41.122.147.138","Mozilla/5.0 (Macintosh; Intel Mac OS X 10_15_7) AppleWebKit/537.36 (KHTML, like Gecko) Chrome/128.0.0.0 Safari/537.36","Macintosh","Chrome","128.0.0.0","OS X","10_15_7","https://app.prolific.com/","en-GB,en-US;q=0.9,en;q=0.8","67d163e7b7bcc1e9718e01da","6877631c9844ddd5501205fc","6889df73b1fa69a111487d3e","3","1","67d163e7b7bcc1e9718e01da","3","1","2025-07-30T10:05:33.750Z","","","","","","","","","","","","","","win-only","0","g1:NW,g2:SE","0.5","6","0","3775106.6","1346.5","6353.7","49103.8","1","4","4","6","2","4","4","20","16","0.15151515151515152","1270.9","3000","65","[""down"",""right""]","{""num_key_presses"":14,""num_perfect"":7,""num_errors"":0,""num_randdir"":7,""num_randdir_good_moves"":3,""num_whilered"":0,""num_whileblue"":0,""num_blue"":0,""num_good_moves"":10}","[310.20625,321.096875,0.5,310.20625,321.096875,103.2,306.20625,326.096875,203.2,242.20625,413.096875,310.5,87.20625,429.096875,416.9,257.20625,381.096875,527.8,746.20625,533.096875,629.1,734.20625,657.096875,733,686.20625,636.096875,842.6,661.20625,616.096875,952.4,624.20625,616.096875,1055.9,597.20625,611.096875,1158.6,581.20625,602.096875,1261.9,581.20625,602.096875,1366.6,531.20625,645.096875,1475.9,308.20625,642.096875,1580.5,307.20625,641.096875,1684.9,307.20625,641.096875,1793.8,307.20625,641.096875,1905.3,307.20625,641.096875,2005.5,307.20625,641.096875,2106.6,307.20625,641.096875,2207.2,307.20625,641.096875,2310,307.20625,641.096875,2418.1,307.20625,641.096875,2520.1,307.20625,641.096875,2622.7,307.20625,641.096875,2725.4,307.20625,641.096875,2826.8,307.20625,641.096875,2928.8,307.20625,641.096875,3044.1,307.20625,641.096875,3155.6,307.20625,641.096875,3256.2,307.20625,641.096875,3364.8,307.20625,641.096875,3470,307.20625,641.096875,3576.5,307.20625,641.096875,3689.1,307.20625,641.096875,3789.9,307.20625,641.096875,3906.4,307.20625,641.096875,4015.7,307.20625,641.096875,4124,307.20625,641.096875,4224.2,307.20625,641.096875,4325.4,307.20625,641.096875,4431.6,307.20625,641.096875,4536.2,307.20625,641.096875,4642.9,307.20625,641.096875,4748.1,307.20625,641.096875,4853.7,307.20625,641.096875,4954.3]","[1430.1,1430.1,1000,0,430.1,""smooth"",""right"",""right"",""good_move"",4230,2799.3,2403.7,1430.7,395.6,""smooth"",""right"",""right"",""good_move"",7216.5,2985.9,2385.1,4230.7,600.8,""oops"",""right"",""right"",""good_move"",11471.1,4253.9,3218.7,7217.2,1035.2,""smooth"",""down"",""down"",""good_move"",14882.2,3409.1,2430.8,11473.1,978.3,""oops"",""down"",""left"",""bad_move"",18148.7,3265,2686.9,14883.7,578.1,""smooth"",""down"",""down"",""good_move"",20650.1,2501.2,2130.8,18148.9,370.4,""oops"",""down"",""right"",""good_move"",23687.6,3037.2,2671.7,20650.4,365.5,""oops"",""down"",""up"",""bad_move"",26656.3,2968.3,2625,23688,343.3,""oops"",""down"",""up"",""bad_move"",30410.3,3753.5,3296.3,26656.8,457.2,""smooth"",""down"",""down"",""good_move"",33116.5,2703.6,2306.8,30412.9,396.8,""smooth"",""down"",""down"",""good_move"",36570.8,3453.7,3075.1,33117.1,378.6,""oops"",""down"",""left"",""bad_move"",39661.2,3088.7,2604,36572.5,484.7,""oops"",""down"",""down"",""good_move"",42348.3,2686.5,2163.1,39661.9,523.3,""smooth"",""right"",""right"",""good_move""]","",""
"2240","","<div style=""width:500px;"">
  <p>What determined the result of this run?</p>
  </div>","60","html-slider-response","35","3827029","0.0-5.0-1.5","275","1","2025-07-30 09:01:47","1f75c3e559b7213887762d5229550c2b","41.122.147.138","Mozilla/5.0 (Macintosh; Intel Mac OS X 10_15_7) AppleWebKit/537.36 (KHTML, like Gecko) Chrome/128.0.0.0 Safari/537.36","Macintosh","Chrome","128.0.0.0","OS X","10_15_7","https://app.prolific.com/","en-GB,en-US;q=0.9,en;q=0.8","67d163e7b7bcc1e9718e01da","6877631c9844ddd5501205fc","6889df73b1fa69a111487d3e","3","1","67d163e7b7bcc1e9718e01da","3","1","2025-07-30T10:05:35.993Z","","","","","","","","","","","AttribQ","","50","","","","","","","","","","","","","","","","","","","","","","","","","","","","",""
"1999","","<div style=""width:500px;"">
  <p>How much control did you have over the ball?</p>
  </div>","55","html-slider-response","36","3829030","0.0-5.0-2.5","275","1","2025-07-30 09:01:47","1f75c3e559b7213887762d5229550c2b","41.122.147.138","Mozilla/5.0 (Macintosh; Intel Mac OS X 10_15_7) AppleWebKit/537.36 (KHTML, like Gecko) Chrome/128.0.0.0 Safari/537.36","Macintosh","Chrome","128.0.0.0","OS X","10_15_7","https://app.prolific.com/","en-GB,en-US;q=0.9,en;q=0.8","67d163e7b7bcc1e9718e01da","6877631c9844ddd5501205fc","6889df73b1fa69a111487d3e","3","1","67d163e7b7bcc1e9718e01da","3","1","2025-07-30T10:05:38.001Z","","","","","","","","","","","ControlQ","","50","","","","","","","","","","","","","","","","","","","","","","","","","","","","",""
"2525","","<div style=""width:500px;"">
  <p>How would you describe your current emotional state?</p>
  </div>","41","html-slider-response","37","3831563","0.0-5.0-3.5","275","1","2025-07-30 09:01:47","1f75c3e559b7213887762d5229550c2b","41.122.147.138","Mozilla/5.0 (Macintosh; Intel Mac OS X 10_15_7) AppleWebKit/537.36 (KHTML, like Gecko) Chrome/128.0.0.0 Safari/537.36","Macintosh","Chrome","128.0.0.0","OS X","10_15_7","https://app.prolific.com/","en-GB,en-US;q=0.9,en;q=0.8","67d163e7b7bcc1e9718e01da","6877631c9844ddd5501205fc","6889df73b1fa69a111487d3e","3","1","67d163e7b7bcc1e9718e01da","3","1","2025-07-30T10:05:40.527Z","","","","","","","","","","","StressQ","","50","","","","","","","","","","","","","","","","","","","","","","","","","","","","",""
"1701","","<div style=""width:500px;"">
  <p>What best describes how you currently feel?</p>
  </div>","64","html-slider-response","38","3833266","0.0-5.0-4.5","275","1","2025-07-30 09:01:47","1f75c3e559b7213887762d5229550c2b","41.122.147.138","Mozilla/5.0 (Macintosh; Intel Mac OS X 10_15_7) AppleWebKit/537.36 (KHTML, like Gecko) Chrome/128.0.0.0 Safari/537.36","Macintosh","Chrome","128.0.0.0","OS X","10_15_7","https://app.prolific.com/","en-GB,en-US;q=0.9,en;q=0.8","67d163e7b7bcc1e9718e01da","6877631c9844ddd5501205fc","6889df73b1fa69a111487d3e","3","1","67d163e7b7bcc1e9718e01da","3","1","2025-07-30T10:05:42.230Z","","","","","","","","","","","MotivationQ","","50","","","","","","","","","","","","","","","","","","","","","","","","","","","","",""
"","","","","ctl-task-cpt","39","3864279","0.0-5.0-0.6","275","1","2025-07-30 09:01:47","1f75c3e559b7213887762d5229550c2b","41.122.147.138","Mozilla/5.0 (Macintosh; Intel Mac OS X 10_15_7) AppleWebKit/537.36 (KHTML, like Gecko) Chrome/128.0.0.0 Safari/537.36","Macintosh","Chrome","128.0.0.0","OS X","10_15_7","https://app.prolific.com/","en-GB,en-US;q=0.9,en;q=0.8","67d163e7b7bcc1e9718e01da","6877631c9844ddd5501205fc","6889df73b1fa69a111487d3e","3","1","67d163e7b7bcc1e9718e01da","3","1","2025-07-30T10:06:13.243Z","","","","","","","","","","","","","","win-only","1","g1:NE,g2:SW","0.4","7","0","3835753.9","873.7","5897.5","27897.6","1","4","8","6","2","8","8","28","20","0.21212121212121213","834.3","3000","1850","[""down"",""left""]","{""num_key_presses"":6,""num_perfect"":3,""num_errors"":0,""num_randdir"":3,""num_randdir_good_moves"":3,""num_whilered"":0,""num_whileblue"":0,""num_blue"":1,""num_good_moves"":6}","[314.20625,314.096875,0.9,312.20625,313.096875,137.3,311.20625,316.096875,240.3,304.20625,328.096875,352.6,238.20625,328.096875,458.8,95.20625,495.096875,568.6,59.20625,545.096875,672.5,51.20625,545.096875,785.4,51.20625,545.096875,925.5,51.20625,545.096875,1038.4,51.20625,544.096875,1138.4,53.20625,541.096875,1249.2,53.20625,541.096875,1356.1,53.20625,541.096875,1464.4,53.20625,541.096875,1568.6,53.20625,541.096875,1681.3,53.20625,541.096875,1784.7,53.20625,541.096875,1889.9,53.20625,541.096875,1990,53.20625,541.096875,2103.1,53.20625,541.096875,2207.7,53.20625,541.096875,2310.2,53.20625,541.096875,2414.7,53.20625,541.096875,2517.7,53.20625,541.096875,2618.5,53.20625,541.096875,2720.5,53.20625,541.096875,2823.3,53.20625,541.096875,2924.8,53.20625,541.096875,3033.5,53.20625,541.096875,3140.4,53.20625,541.096875,3241.7,53.20625,541.096875,3344.6,53.20625,541.096875,3452.6,53.20625,541.096875,3556.3,53.20625,541.096875,3658,53.20625,541.096875,3765.5,53.20625,541.096875,3872,53.20625,541.096875,3972,53.20625,541.096875,4075.5,53.20625,541.096875,4184,53.20625,541.096875,4286.3,53.20625,541.096875,4388.8,53.20625,541.096875,4495.5,53.20625,541.096875,4601,53.20625,541.096875,4716.6,53.20625,541.096875,4826.7,53.20625,541.096875,4931.6]","[1498.7,1498.7,1000,0,498.7,""smooth"",""down"",""down"",""good_move"",4535.9,3036.6,2586.1,1499.3,450.5,""oops"",""down"",""left"",""good_move"",6549.7,2013.3,1559.2,4536.4,454.1,""oops"",""left"",""left"",""good_move"",13197.5,6647.6,2316.4,10418.3,462.8,""oops"",""left"",""down"",""good_move"",16301.7,3103.3,2598.5,13198.4,504.8,""smooth"",""left"",""left"",""good_move"",21584.1,5279.2,2987.8,16305.1,2291.3,""smooth"",""down"",""down"",""good_move""]","",""
"2937","","<div style=""width:500px;"">
  <p>What determined the result of this run?</p>
  </div>","65","html-slider-response","40","3867219","0.0-5.0-1.6","275","1","2025-07-30 09:01:47","1f75c3e559b7213887762d5229550c2b","41.122.147.138","Mozilla/5.0 (Macintosh; Intel Mac OS X 10_15_7) AppleWebKit/537.36 (KHTML, like Gecko) Chrome/128.0.0.0 Safari/537.36","Macintosh","Chrome","128.0.0.0","OS X","10_15_7","https://app.prolific.com/","en-GB,en-US;q=0.9,en;q=0.8","67d163e7b7bcc1e9718e01da","6877631c9844ddd5501205fc","6889df73b1fa69a111487d3e","3","1","67d163e7b7bcc1e9718e01da","3","1","2025-07-30T10:06:16.183Z","","","","","","","","","","","AttribQ","","50","","","","","","","","","","","","","","","","","","","","","","","","","","","","",""
"1915","","<div style=""width:500px;"">
  <p>How much control did you have over the ball?</p>
  </div>","59","html-slider-response","41","3869155","0.0-5.0-2.6","275","1","2025-07-30 09:01:47","1f75c3e559b7213887762d5229550c2b","41.122.147.138","Mozilla/5.0 (Macintosh; Intel Mac OS X 10_15_7) AppleWebKit/537.36 (KHTML, like Gecko) Chrome/128.0.0.0 Safari/537.36","Macintosh","Chrome","128.0.0.0","OS X","10_15_7","https://app.prolific.com/","en-GB,en-US;q=0.9,en;q=0.8","67d163e7b7bcc1e9718e01da","6877631c9844ddd5501205fc","6889df73b1fa69a111487d3e","3","1","67d163e7b7bcc1e9718e01da","3","1","2025-07-30T10:06:18.119Z","","","","","","","","","","","ControlQ","","50","","","","","","","","","","","","","","","","","","","","","","","","","","","","",""
"1786","","<div style=""width:500px;"">
  <p>How would you describe your current emotional state?</p>
  </div>","44","html-slider-response","42","3870944","0.0-5.0-3.6","275","1","2025-07-30 09:01:47","1f75c3e559b7213887762d5229550c2b","41.122.147.138","Mozilla/5.0 (Macintosh; Intel Mac OS X 10_15_7) AppleWebKit/537.36 (KHTML, like Gecko) Chrome/128.0.0.0 Safari/537.36","Macintosh","Chrome","128.0.0.0","OS X","10_15_7","https://app.prolific.com/","en-GB,en-US;q=0.9,en;q=0.8","67d163e7b7bcc1e9718e01da","6877631c9844ddd5501205fc","6889df73b1fa69a111487d3e","3","1","67d163e7b7bcc1e9718e01da","3","1","2025-07-30T10:06:19.908Z","","","","","","","","","","","StressQ","","50","","","","","","","","","","","","","","","","","","","","","","","","","","","","",""
"1420","","<div style=""width:500px;"">
  <p>What best describes how you currently feel?</p>
  </div>","63","html-slider-response","43","3872368","0.0-5.0-4.6","275","1","2025-07-30 09:01:47","1f75c3e559b7213887762d5229550c2b","41.122.147.138","Mozilla/5.0 (Macintosh; Intel Mac OS X 10_15_7) AppleWebKit/537.36 (KHTML, like Gecko) Chrome/128.0.0.0 Safari/537.36","Macintosh","Chrome","128.0.0.0","OS X","10_15_7","https://app.prolific.com/","en-GB,en-US;q=0.9,en;q=0.8","67d163e7b7bcc1e9718e01da","6877631c9844ddd5501205fc","6889df73b1fa69a111487d3e","3","1","67d163e7b7bcc1e9718e01da","3","1","2025-07-30T10:06:21.332Z","","","","","","","","","","","MotivationQ","","50","","","","","","","","","","","","","","","","","","","","","","","","","","","","",""
"","","","","ctl-task-cpt","44","3926958","0.0-5.0-0.7","275","1","2025-07-30 09:01:47","1f75c3e559b7213887762d5229550c2b","41.122.147.138","Mozilla/5.0 (Macintosh; Intel Mac OS X 10_15_7) AppleWebKit/537.36 (KHTML, like Gecko) Chrome/128.0.0.0 Safari/537.36","Macintosh","Chrome","128.0.0.0","OS X","10_15_7","https://app.prolific.com/","en-GB,en-US;q=0.9,en;q=0.8","67d163e7b7bcc1e9718e01da","6877631c9844ddd5501205fc","6889df73b1fa69a111487d3e","3","1","67d163e7b7bcc1e9718e01da","3","1","2025-07-30T10:07:15.922Z","","","","","","","","","","","","","","win-only","3","g1:SW,g2:NE","0.3","8","0","3874854.8","569.8","5573.6","51566.5","1","4","4","6","2","-4","-4","24","28","0.18181818181818182","2256.1","3000","-770","[""up"",""right""]","{""num_key_presses"":12,""num_perfect"":4,""num_errors"":0,""num_randdir"":8,""num_randdir_good_moves"":3,""num_whilered"":0,""num_whileblue"":0,""num_blue"":2,""num_good_moves"":7}","[310.20625,321.096875,3.2,311.20625,321.096875,102.7,313.20625,321.096875,205.8,346.20625,344.096875,320.7,339.20625,384.096875,434.4,249.20625,440.096875,538.6,457.20625,211.096875,644.2,591.20625,135.096875,746,611.20625,136.096875,858.3,587.20625,136.096875,962.1,575.20625,147.096875,1064,316.20625,722.096875,1171.9,554.20625,722.096875,1274.5,1032.20625,496.096875,1376,980.20625,151.096875,1477.6,899.20625,131.096875,1578.1,830.20625,123.096875,1691.2,690.20625,99.096875,1794.3,658.20625,90.096875,1906.4,644.20625,84.096875,2010.3,605.20625,68.096875,2119.8,598.20625,67.096875,2226.2,598.20625,67.096875,2332.8,598.20625,67.096875,2435.7,598.20625,72.096875,2540.6,579.20625,106.096875,2641,533.20625,125.096875,2758.3,533.20625,125.096875,2863.9,533.20625,125.096875,2968.1,533.20625,125.096875,3070.9,533.20625,125.096875,3175.4,533.20625,125.096875,3277.3,533.20625,125.096875,3380,533.20625,125.096875,3483.3,533.20625,125.096875,3590.4,533.20625,125.096875,3691.2,533.20625,125.096875,3792.8,533.20625,125.096875,3893.9,533.20625,125.096875,4004.6,533.20625,125.096875,4106.8,533.20625,125.096875,4207.4,533.20625,125.096875,4311.7,533.20625,125.096875,4420.6,533.20625,125.096875,4527.3,533.20625,125.096875,4632.9,533.20625,125.096875,4738.7,533.20625,125.096875,4843.9,533.20625,125.096875,4957.9]","[1736.3,1736.4,1000,0,736.4,""smooth"",""right"",""right"",""good_move"",4806.1,3069.1,2421.5,1737,647.6,""oops"",""right"",""right"",""good_move"",8213,3403.4,2560.7,4809.7,842.6,""smooth"",""right"",""right"",""good_move"",10739.1,2525.1,2065.6,8214,459.5,""oops"",""up"",""left"",""bad_move"",14896.3,4156.8,3236.7,10739.5,920.1,""oops"",""up"",""right"",""good_move"",18669.9,3772.4,2982.9,14897.5,789.6,""oops"",""up"",""down"",""bad_move"",21488.9,2818.5,2203.5,18670.4,615,""smooth"",""up"",""up"",""good_move"",25656.8,4167.7,2135.8,21489.2,2032,""oops"",""up"",""down"",""bad_move"",27830.6,2172.6,1596.3,25658,576.3,""oops"",""up"",""down"",""bad_move"",34012.5,6181.2,2653.5,30897.3,461.7,""oops"",""up"",""up"",""good_move"",39991.8,5979,1889.2,37632.1,470.5,""oops"",""up"",""left"",""bad_move"",42297.2,2305,1672.6,39992.2,632.4,""smooth"",""up"",""up"",""good_move""]","",""
"97948","","<div style=""width:500px;"">
  <p>What determined the result of this run?</p>
  </div>","32","html-slider-response","45","4024910","0.0-5.0-1.7","275","1","2025-07-30 09:01:47","1f75c3e559b7213887762d5229550c2b","41.122.147.138","Mozilla/5.0 (Macintosh; Intel Mac OS X 10_15_7) AppleWebKit/537.36 (KHTML, like Gecko) Chrome/128.0.0.0 Safari/537.36","Macintosh","Chrome","128.0.0.0","OS X","10_15_7","https://app.prolific.com/","en-GB,en-US;q=0.9,en;q=0.8","67d163e7b7bcc1e9718e01da","6877631c9844ddd5501205fc","6889df73b1fa69a111487d3e","3","1","67d163e7b7bcc1e9718e01da","3","1","2025-07-30T10:08:53.874Z","","","","","","","","","","","AttribQ","","50","","","","","","","","","","","","","","","","","","","","","","","","","","","","",""
"2418","","<div style=""width:500px;"">
  <p>How much control did you have over the ball?</p>
  </div>","31","html-slider-response","46","4027330","0.0-5.0-2.7","275","1","2025-07-30 09:01:47","1f75c3e559b7213887762d5229550c2b","41.122.147.138","Mozilla/5.0 (Macintosh; Intel Mac OS X 10_15_7) AppleWebKit/537.36 (KHTML, like Gecko) Chrome/128.0.0.0 Safari/537.36","Macintosh","Chrome","128.0.0.0","OS X","10_15_7","https://app.prolific.com/","en-GB,en-US;q=0.9,en;q=0.8","67d163e7b7bcc1e9718e01da","6877631c9844ddd5501205fc","6889df73b1fa69a111487d3e","3","1","67d163e7b7bcc1e9718e01da","3","1","2025-07-30T10:08:56.294Z","","","","","","","","","","","ControlQ","","50","","","","","","","","","","","","","","","","","","","","","","","","","","","","",""
"3790","","<div style=""width:500px;"">
  <p>How would you describe your current emotional state?</p>
  </div>","73","html-slider-response","47","4031121","0.0-5.0-3.7","275","1","2025-07-30 09:01:47","1f75c3e559b7213887762d5229550c2b","41.122.147.138","Mozilla/5.0 (Macintosh; Intel Mac OS X 10_15_7) AppleWebKit/537.36 (KHTML, like Gecko) Chrome/128.0.0.0 Safari/537.36","Macintosh","Chrome","128.0.0.0","OS X","10_15_7","https://app.prolific.com/","en-GB,en-US;q=0.9,en;q=0.8","67d163e7b7bcc1e9718e01da","6877631c9844ddd5501205fc","6889df73b1fa69a111487d3e","3","1","67d163e7b7bcc1e9718e01da","3","1","2025-07-30T10:09:00.086Z","","","","","","","","","","","StressQ","","50","","","","","","","","","","","","","","","","","","","","","","","","","","","","",""
"3380","","<div style=""width:500px;"">
  <p>What best describes how you currently feel?</p>
  </div>","27","html-slider-response","48","4034504","0.0-5.0-4.7","275","1","2025-07-30 09:01:47","1f75c3e559b7213887762d5229550c2b","41.122.147.138","Mozilla/5.0 (Macintosh; Intel Mac OS X 10_15_7) AppleWebKit/537.36 (KHTML, like Gecko) Chrome/128.0.0.0 Safari/537.36","Macintosh","Chrome","128.0.0.0","OS X","10_15_7","https://app.prolific.com/","en-GB,en-US;q=0.9,en;q=0.8","67d163e7b7bcc1e9718e01da","6877631c9844ddd5501205fc","6889df73b1fa69a111487d3e","3","1","67d163e7b7bcc1e9718e01da","3","1","2025-07-30T10:09:03.468Z","","","","","","","","","","","MotivationQ","","50","","","","","","","","","","","","","","","","","","","","","","","","","","","","",""
"","","","","ctl-task-cpt","49","4126398","0.0-5.0-0.8","275","1","2025-07-30 09:01:47","1f75c3e559b7213887762d5229550c2b","41.122.147.138","Mozilla/5.0 (Macintosh; Intel Mac OS X 10_15_7) AppleWebKit/537.36 (KHTML, like Gecko) Chrome/128.0.0.0 Safari/537.36","Macintosh","Chrome","128.0.0.0","OS X","10_15_7","https://app.prolific.com/","en-GB,en-US;q=0.9,en;q=0.8","67d163e7b7bcc1e9718e01da","6877631c9844ddd5501205fc","6889df73b1fa69a111487d3e","3","1","67d163e7b7bcc1e9718e01da","3","1","2025-07-30T10:10:35.362Z","","","","","","","","","","","","","","win-only","3","g1:SW,g2:NE","0.2","9","0","4036986.8","1388.2","6397.9","88858.8","1","4","8","6","2","-8","-8","16","24","0.12121212121212122","1076.8","3000","-1190","[""up"",""right""]","{""num_key_presses"":19,""num_perfect"":4,""num_errors"":0,""num_randdir"":15,""num_randdir_good_moves"":6,""num_whilered"":0,""num_whileblue"":0,""num_blue"":4,""num_good_moves"":10}","[306.20625,312.096875,7.5,308.20625,312.096875,189.1,318.20625,312.096875,314.2,318.20625,312.096875,448.6,469.20625,249.096875,554.8,584.20625,54.096875,911.5,583.20625,55.096875,1084.8,581.20625,82.096875,1443.1,512.20625,138.096875,1764.8,512.20625,138.096875,1891.3,512.20625,138.096875,2013.8,512.20625,138.096875,2201.6,512.20625,138.096875,2360.9,512.20625,138.096875,2514.6,512.20625,138.096875,2753.6,512.20625,138.096875,2910.7,512.20625,138.096875,3146.1,512.20625,138.096875,3321.9,512.20625,138.096875,3434.7,512.20625,138.096875,3629.6,512.20625,138.096875,3937.4,512.20625,138.096875,4110,512.20625,138.096875,4305,512.20625,138.096875,4551.6,512.20625,138.096875,4672.8,512.20625,138.096875,4773.6,512.20625,138.096875,4911.5]","[1579.5,1579.5,1000,0,579.5,""oops"",""right"",""left"",""bad_move"",5076.5,3496.3,2902,1580.3,594.3,""oops"",""right"",""left"",""bad_move"",7571.3,2492.6,2056.6,5078.8,435.9,""oops"",""right"",""right"",""good_move"",10430.6,2858,2401.8,7572.6,456.2,""oops"",""right"",""left"",""bad_move"",17268.4,6836.4,2189.8,14390.9,687.7,""smooth"",""right"",""right"",""good_move"",20520.5,3251.2,2774.9,17269.3,476.3,""oops"",""right"",""right"",""good_move"",31289.6,10767.6,3328.7,27392.9,568.1,""oops"",""right"",""down"",""bad_move"",35256.5,3965.5,2918.5,31291.1,1047,""oops"",""right"",""right"",""good_move"",38387.7,3118.1,2422.5,35269.6,695.6,""oops"",""right"",""left"",""bad_move"",41776.9,3386.8,2466.8,38390.1,920,""smooth"",""right"",""right"",""good_move"",44391,2614,1836.2,41777,777.8,""oops"",""right"",""down"",""bad_move"",51939.7,7548,3297.8,48188.8,453.1,""smooth"",""right"",""right"",""good_move"",55365,3423.4,2975,51941.6,448.4,""smooth"",""right"",""right"",""good_move"",58925.2,3558.3,2981.4,55366.9,576.9,""oops"",""up"",""up"",""good_move"",64685.7,5759.8,2610.2,58926,3149.6,""oops"",""up"",""up"",""good_move"",69955.5,5269.3,2093.9,64686.2,3175.4,""oops"",""up"",""down"",""bad_move"",73449.4,3492.7,2840,69956.8,652.6,""oops"",""up"",""down"",""bad_move"",76112.9,2662.9,2198.8,73450,464.1,""oops"",""up"",""left"",""bad_move"",79319.3,3205.8,2754.5,76113.5,451.3,""oops"",""up"",""right"",""good_move""]","",""
"7483","","<div style=""width:500px;"">
  <p>What determined the result of this run?</p>
  </div>","3","html-slider-response","50","4133883","0.0-5.0-1.8","275","1","2025-07-30 09:01:47","1f75c3e559b7213887762d5229550c2b","41.122.147.138","Mozilla/5.0 (Macintosh; Intel Mac OS X 10_15_7) AppleWebKit/537.36 (KHTML, like Gecko) Chrome/128.0.0.0 Safari/537.36","Macintosh","Chrome","128.0.0.0","OS X","10_15_7","https://app.prolific.com/","en-GB,en-US;q=0.9,en;q=0.8","67d163e7b7bcc1e9718e01da","6877631c9844ddd5501205fc","6889df73b1fa69a111487d3e","3","1","67d163e7b7bcc1e9718e01da","3","1","2025-07-30T10:10:42.847Z","","","","","","","","","","","AttribQ","","50","","","","","","","","","","","","","","","","","","","","","","","","","","","","",""
"4060","","<div style=""width:500px;"">
  <p>How much control did you have over the ball?</p>
  </div>","10","html-slider-response","51","4137945","0.0-5.0-2.8","275","1","2025-07-30 09:01:47","1f75c3e559b7213887762d5229550c2b","41.122.147.138","Mozilla/5.0 (Macintosh; Intel Mac OS X 10_15_7) AppleWebKit/537.36 (KHTML, like Gecko) Chrome/128.0.0.0 Safari/537.36","Macintosh","Chrome","128.0.0.0","OS X","10_15_7","https://app.prolific.com/","en-GB,en-US;q=0.9,en;q=0.8","67d163e7b7bcc1e9718e01da","6877631c9844ddd5501205fc","6889df73b1fa69a111487d3e","3","1","67d163e7b7bcc1e9718e01da","3","1","2025-07-30T10:10:46.909Z","","","","","","","","","","","ControlQ","","50","","","","","","","","","","","","","","","","","","","","","","","","","","","","",""
"4278","","<div style=""width:500px;"">
  <p>How would you describe your current emotional state?</p>
  </div>","92","html-slider-response","52","4142226","0.0-5.0-3.8","275","1","2025-07-30 09:01:47","1f75c3e559b7213887762d5229550c2b","41.122.147.138","Mozilla/5.0 (Macintosh; Intel Mac OS X 10_15_7) AppleWebKit/537.36 (KHTML, like Gecko) Chrome/128.0.0.0 Safari/537.36","Macintosh","Chrome","128.0.0.0","OS X","10_15_7","https://app.prolific.com/","en-GB,en-US;q=0.9,en;q=0.8","67d163e7b7bcc1e9718e01da","6877631c9844ddd5501205fc","6889df73b1fa69a111487d3e","3","1","67d163e7b7bcc1e9718e01da","3","1","2025-07-30T10:10:51.190Z","","","","","","","","","","","StressQ","","50","","","","","","","","","","","","","","","","","","","","","","","","","","","","",""
"3600","","<div style=""width:500px;"">
  <p>What best describes how you currently feel?</p>
  </div>","12","html-slider-response","53","4145828","0.0-5.0-4.8","275","1","2025-07-30 09:01:47","1f75c3e559b7213887762d5229550c2b","41.122.147.138","Mozilla/5.0 (Macintosh; Intel Mac OS X 10_15_7) AppleWebKit/537.36 (KHTML, like Gecko) Chrome/128.0.0.0 Safari/537.36","Macintosh","Chrome","128.0.0.0","OS X","10_15_7","https://app.prolific.com/","en-GB,en-US;q=0.9,en;q=0.8","67d163e7b7bcc1e9718e01da","6877631c9844ddd5501205fc","6889df73b1fa69a111487d3e","3","1","67d163e7b7bcc1e9718e01da","3","1","2025-07-30T10:10:54.792Z","","","","","","","","","","","MotivationQ","","50","","","","","","","","","","","","","","","","","","","","","","","","","","","","",""
"","","","","ctl-task-cpt","54","4203401","0.0-5.0-0.9","275","1","2025-07-30 09:01:47","1f75c3e559b7213887762d5229550c2b","41.122.147.138","Mozilla/5.0 (Macintosh; Intel Mac OS X 10_15_7) AppleWebKit/537.36 (KHTML, like Gecko) Chrome/128.0.0.0 Safari/537.36","Macintosh","Chrome","128.0.0.0","OS X","10_15_7","https://app.prolific.com/","en-GB,en-US;q=0.9,en;q=0.8","67d163e7b7bcc1e9718e01da","6877631c9844ddd5501205fc","6889df73b1fa69a111487d3e","3","1","67d163e7b7bcc1e9718e01da","3","1","2025-07-30T10:11:52.365Z","","","","","","","","","","","","","","win-only","2","g1:SE,g2:NW","0.4","10","0","4148326.1","2458.4","7460.2","54522.1","1","4","4","6","2","4","3","19","16","0.14393939393939395","1549.6","3000","770","[""left"",""up""]","{""num_key_presses"":14,""num_perfect"":5,""num_errors"":1,""num_randdir"":8,""num_randdir_good_moves"":4,""num_whilered"":0,""num_whileblue"":1,""num_blue"":1,""num_good_moves"":10}","[307.20625,309.096875,0.3,307.20625,309.096875,164.9,307.20625,309.096875,270.7,310.20625,311.096875,400,283.20625,334.096875,518.3,338.20625,442.096875,671.9,452.20625,529.096875,794.9,52.20625,106.096875,1050.9,-23.793750000000003,35.096875,1180,-22.793750000000003,32.096875,1286.4,8.206249999999997,55.096875,1404.4,11.206249999999997,55.096875,1519.8,12.206249999999997,55.096875,1622.5,14.206249999999997,64.096875,1727.6,16.206249999999997,108.096875,1827.8,9.206249999999997,135.096875,1938.6,-12.793750000000003,167.096875,2057.3,-12.793750000000003,167.096875,2178.6,-12.793750000000003,167.096875,2312,-12.793750000000003,167.096875,2416.4,-12.793750000000003,167.096875,2528,-12.793750000000003,167.096875,2641.2,-12.793750000000003,167.096875,2744.3,-12.793750000000003,167.096875,2846.7,-12.793750000000003,167.096875,2958.1,-12.793750000000003,167.096875,3063.6,-12.793750000000003,167.096875,3164.8,-12.793750000000003,167.096875,3266.4,-12.793750000000003,167.096875,3368.7,-12.793750000000003,167.096875,3481.6,-12.793750000000003,167.096875,3585.4,-12.793750000000003,167.096875,3699.7,-12.793750000000003,167.096875,3807.1,-12.793750000000003,167.096875,3912.8,-12.793750000000003,167.096875,4014.6,-12.793750000000003,167.096875,4116.7,-12.793750000000003,167.096875,4224.4,-12.793750000000003,167.096875,4334.4,-12.793750000000003,167.096875,4436.3,-12.793750000000003,167.096875,4543.6,-12.793750000000003,167.096875,4648.5,-12.793750000000003,167.096875,4756.8,-12.793750000000003,167.096875,4861.9,-12.793750000000003,167.096875,4970.3]","[1624.1,1624.1,1000,0,624.1,""oops"",""left"",""up"",""good_move"",4979.3,3352.5,2933.2,1626.8,419.3,""oops"",""left"",""down"",""bad_move"",8499.5,3519.2,3044.1,4980.3,475.1,""smooth"",""left"",""left"",""good_move"",11872.4,3372.1,2779.7,8500.4,592.4,""oops"",""left"",""down"",""bad_move"",14386.3,2513.1,2061.1,11873.2,452,""oops"",""left"",""left"",""good_move"",18096.8,3710.3,2961.4,14386.5,748.9,""smooth"",""left"",""left"",""good_move"",25321.4,7214.1,1868.3,18107.4,5345.7,""smooth"",""up"",""up"",""good_move"",29426.5,4105,2417.3,25321.6,1687.7,""oops"",""up"",""right"",""bad_move"",31945,2514.3,1962.2,29430.8,552,""oops"",""up"",""up"",""good_move"",34881.1,2934.8,2458.1,31946.3,476.7,""while_blue"",""up"",""left"",""good_move"",38220.2,3337.9,2916.3,34882.3,421.6,""smooth"",""up"",""up"",""good_move"",40827.1,2606.7,1880,38220.4,726.7,""oops"",""up"",""right"",""bad_move"",44176.9,3349.3,2796.8,40827.6,552.6,""oops"",""up"",""left"",""good_move"",46824.9,2646.3,1944.3,44178.7,702,""smooth"",""up"",""up"",""good_move""]","",""
"63247","","<div style=""width:500px;"">
  <p>What determined the result of this run?</p>
  </div>","37","html-slider-response","55","4266651","0.0-5.0-1.9","275","1","2025-07-30 09:01:47","1f75c3e559b7213887762d5229550c2b","41.122.147.138","Mozilla/5.0 (Macintosh; Intel Mac OS X 10_15_7) AppleWebKit/537.36 (KHTML, like Gecko) Chrome/128.0.0.0 Safari/537.36","Macintosh","Chrome","128.0.0.0","OS X","10_15_7","https://app.prolific.com/","en-GB,en-US;q=0.9,en;q=0.8","67d163e7b7bcc1e9718e01da","6877631c9844ddd5501205fc","6889df73b1fa69a111487d3e","3","1","67d163e7b7bcc1e9718e01da","3","1","2025-07-30T10:12:55.615Z","","","","","","","","","","","AttribQ","","50","","","","","","","","","","","","","","","","","","","","","","","","","","","","",""
"8305","","<div style=""width:500px;"">
  <p>How much control did you have over the ball?</p>
  </div>","33","html-slider-response","56","4274958","0.0-5.0-2.9","275","1","2025-07-30 09:01:47","1f75c3e559b7213887762d5229550c2b","41.122.147.138","Mozilla/5.0 (Macintosh; Intel Mac OS X 10_15_7) AppleWebKit/537.36 (KHTML, like Gecko) Chrome/128.0.0.0 Safari/537.36","Macintosh","Chrome","128.0.0.0","OS X","10_15_7","https://app.prolific.com/","en-GB,en-US;q=0.9,en;q=0.8","67d163e7b7bcc1e9718e01da","6877631c9844ddd5501205fc","6889df73b1fa69a111487d3e","3","1","67d163e7b7bcc1e9718e01da","3","1","2025-07-30T10:13:03.922Z","","","","","","","","","","","ControlQ","","50","","","","","","","","","","","","","","","","","","","","","","","","","","","","",""
"1676","","<div style=""width:500px;"">
  <p>How would you describe your current emotional state?</p>
  </div>","63","html-slider-response","57","4276636","0.0-5.0-3.9","275","1","2025-07-30 09:01:47","1f75c3e559b7213887762d5229550c2b","41.122.147.138","Mozilla/5.0 (Macintosh; Intel Mac OS X 10_15_7) AppleWebKit/537.36 (KHTML, like Gecko) Chrome/128.0.0.0 Safari/537.36","Macintosh","Chrome","128.0.0.0","OS X","10_15_7","https://app.prolific.com/","en-GB,en-US;q=0.9,en;q=0.8","67d163e7b7bcc1e9718e01da","6877631c9844ddd5501205fc","6889df73b1fa69a111487d3e","3","1","67d163e7b7bcc1e9718e01da","3","1","2025-07-30T10:13:05.600Z","","","","","","","","","","","StressQ","","50","","","","","","","","","","","","","","","","","","","","","","","","","","","","",""
"4940","","<div style=""width:500px;"">
  <p>What best describes how you currently feel?</p>
  </div>","36","html-slider-response","58","4281581","0.0-5.0-4.9","275","1","2025-07-30 09:01:47","1f75c3e559b7213887762d5229550c2b","41.122.147.138","Mozilla/5.0 (Macintosh; Intel Mac OS X 10_15_7) AppleWebKit/537.36 (KHTML, like Gecko) Chrome/128.0.0.0 Safari/537.36","Macintosh","Chrome","128.0.0.0","OS X","10_15_7","https://app.prolific.com/","en-GB,en-US;q=0.9,en;q=0.8","67d163e7b7bcc1e9718e01da","6877631c9844ddd5501205fc","6889df73b1fa69a111487d3e","3","1","67d163e7b7bcc1e9718e01da","3","1","2025-07-30T10:13:10.545Z","","","","","","","","","","","MotivationQ","","50","","","","","","","","","","","","","","","","","","","","","","","","","","","","",""
"","","","","ctl-task-cpt","59","4366557","0.0-5.0-0.10","275","1","2025-07-30 09:01:47","1f75c3e559b7213887762d5229550c2b","41.122.147.138","Mozilla/5.0 (Macintosh; Intel Mac OS X 10_15_7) AppleWebKit/537.36 (KHTML, like Gecko) Chrome/128.0.0.0 Safari/537.36","Macintosh","Chrome","128.0.0.0","OS X","10_15_7","https://app.prolific.com/","en-GB,en-US;q=0.9,en;q=0.8","67d163e7b7bcc1e9718e01da","6877631c9844ddd5501205fc","6889df73b1fa69a111487d3e","3","1","67d163e7b7bcc1e9718e01da","3","1","2025-07-30T10:14:35.522Z","","","","","","","","","","","","","","win-only","2","g1:SE,g2:NW","0.5","11","0","4284052.6","1164.3","6166.6","81950.7","1","4","4","6","2","-4","-4","15","19","0.11363636363636363","1631.1","3000","-935","[""left"",""up""]","{""num_key_presses"":16,""num_perfect"":8,""num_errors"":0,""num_randdir"":8,""num_randdir_good_moves"":3,""num_whilered"":0,""num_whileblue"":0,""num_blue"":5,""num_good_moves"":10}","[312.20625,309.096875,0.2,312.20625,309.096875,103.8,316.20625,308.096875,234.3,337.20625,269.096875,497,190.20625,178.096875,634.5,189.20625,177.096875,740.5,410.20625,397.096875,882.2,242.20625,279.096875,1215.7,82.20625,99.096875,1467.4,74.20625,79.096875,1614.9,74.20625,79.096875,1723.8,74.20625,84.096875,1837.4,79.20625,112.096875,2119.4,83.20625,135.096875,2319.3,83.20625,135.096875,2430.5,83.20625,135.096875,2555.9,83.20625,135.096875,2658.3,82.20625,135.096875,2779.2,82.20625,135.096875,2882.2,82.20625,135.096875,2999.2,82.20625,135.096875,3109.5,82.20625,135.096875,3219.6,82.20625,135.096875,3347,82.20625,135.096875,3456,82.20625,135.096875,3656.4,82.20625,135.096875,3763.8,82.20625,135.096875,3870.5,82.20625,135.096875,3971.9,82.20625,135.096875,4116.5,82.20625,135.096875,4217.3,82.20625,135.096875,4345.4,82.20625,135.096875,4451.7,82.20625,135.096875,4559.5,82.20625,135.096875,4663.7,82.20625,135.096875,4765,82.20625,135.096875,4873.5,82.20625,135.096875,4984.8]","[1573.3,1573.3,1000,0,573.3,""oops"",""left"",""right"",""bad_move"",12597.7,11023.3,2200.1,9807.7,589.9,""smooth"",""left"",""left"",""good_move"",15904.1,3305.8,2650.5,12598.3,655.3,""smooth"",""left"",""left"",""good_move"",22088.5,6184,1965.1,19553.1,570.3,""oops"",""left"",""left"",""good_move"",28499.7,6410.9,1914.8,22088.8,4496.1,""oops"",""left"",""right"",""bad_move"",32528,4026.9,3100.6,28501.1,926.3,""smooth"",""left"",""left"",""good_move"",36702.4,4171.9,2449.3,32530.5,1722.6,""oops"",""left"",""left"",""good_move"",40264.3,3560.8,2651.7,36703.5,909.1,""smooth"",""left"",""down"",""bad_move"",43407.7,3141.3,2500.3,40266.4,641,""smooth"",""up"",""up"",""good_move"",49849,6439.9,2100.6,47033.3,715.1,""oops"",""up"",""down"",""bad_move"",52784,2934.7,2274.2,49849.4,660.5,""smooth"",""up"",""up"",""good_move"",56329.1,3544.7,2171.2,52784.4,1373.5,""smooth"",""up"",""up"",""good_move"",64343.1,8013.4,2360.5,61279.7,702.9,""oops"",""up"",""down"",""bad_move"",67089.6,2743.9,1940.3,64345.8,803.6,""oops"",""up"",""down"",""bad_move"",69776.3,2684.7,2099.9,67091.6,584.8,""oops"",""up"",""up"",""good_move"",73075.6,3298.6,2441.1,69777,857.6,""smooth"",""up"",""up"",""good_move""]","",""
"4436","","<div style=""width:500px;"">
  <p>What determined the result of this run?</p>
  </div>","20","html-slider-response","60","4371003","0.0-5.0-1.10","275","1","2025-07-30 09:01:47","1f75c3e559b7213887762d5229550c2b","41.122.147.138","Mozilla/5.0 (Macintosh; Intel Mac OS X 10_15_7) AppleWebKit/537.36 (KHTML, like Gecko) Chrome/128.0.0.0 Safari/537.36","Macintosh","Chrome","128.0.0.0","OS X","10_15_7","https://app.prolific.com/","en-GB,en-US;q=0.9,en;q=0.8","67d163e7b7bcc1e9718e01da","6877631c9844ddd5501205fc","6889df73b1fa69a111487d3e","3","1","67d163e7b7bcc1e9718e01da","3","1","2025-07-30T10:14:39.967Z","","","","","","","","","","","AttribQ","","50","","","","","","","","","","","","","","","","","","","","","","","","","","","","",""
"2346","","<div style=""width:500px;"">
  <p>How much control did you have over the ball?</p>
  </div>","27","html-slider-response","61","4373350","0.0-5.0-2.10","275","1","2025-07-30 09:01:47","1f75c3e559b7213887762d5229550c2b","41.122.147.138","Mozilla/5.0 (Macintosh; Intel Mac OS X 10_15_7) AppleWebKit/537.36 (KHTML, like Gecko) Chrome/128.0.0.0 Safari/537.36","Macintosh","Chrome","128.0.0.0","OS X","10_15_7","https://app.prolific.com/","en-GB,en-US;q=0.9,en;q=0.8","67d163e7b7bcc1e9718e01da","6877631c9844ddd5501205fc","6889df73b1fa69a111487d3e","3","1","67d163e7b7bcc1e9718e01da","3","1","2025-07-30T10:14:42.315Z","","","","","","","","","","","ControlQ","","50","","","","","","","","","","","","","","","","","","","","","","","","","","","","",""
"3031","","<div style=""width:500px;"">
  <p>How would you describe your current emotional state?</p>
  </div>","100","html-slider-response","62","4376383","0.0-5.0-3.10","275","1","2025-07-30 09:01:47","1f75c3e559b7213887762d5229550c2b","41.122.147.138","Mozilla/5.0 (Macintosh; Intel Mac OS X 10_15_7) AppleWebKit/537.36 (KHTML, like Gecko) Chrome/128.0.0.0 Safari/537.36","Macintosh","Chrome","128.0.0.0","OS X","10_15_7","https://app.prolific.com/","en-GB,en-US;q=0.9,en;q=0.8","67d163e7b7bcc1e9718e01da","6877631c9844ddd5501205fc","6889df73b1fa69a111487d3e","3","1","67d163e7b7bcc1e9718e01da","3","1","2025-07-30T10:14:45.347Z","","","","","","","","","","","StressQ","","50","","","","","","","","","","","","","","","","","","","","","","","","","","","","",""
"1692","","<div style=""width:500px;"">
  <p>What best describes how you currently feel?</p>
  </div>","3","html-slider-response","63","4378077","0.0-5.0-4.10","275","1","2025-07-30 09:01:47","1f75c3e559b7213887762d5229550c2b","41.122.147.138","Mozilla/5.0 (Macintosh; Intel Mac OS X 10_15_7) AppleWebKit/537.36 (KHTML, like Gecko) Chrome/128.0.0.0 Safari/537.36","Macintosh","Chrome","128.0.0.0","OS X","10_15_7","https://app.prolific.com/","en-GB,en-US;q=0.9,en;q=0.8","67d163e7b7bcc1e9718e01da","6877631c9844ddd5501205fc","6889df73b1fa69a111487d3e","3","1","67d163e7b7bcc1e9718e01da","3","1","2025-07-30T10:14:47.041Z","","","","","","","","","","","MotivationQ","","50","","","","","","","","","","","","","","","","","","","","","","","","","","","","",""
"","","","","ctl-task-cpt","64","4440811","0.0-5.0-0.11","275","1","2025-07-30 09:01:47","1f75c3e559b7213887762d5229550c2b","41.122.147.138","Mozilla/5.0 (Macintosh; Intel Mac OS X 10_15_7) AppleWebKit/537.36 (KHTML, like Gecko) Chrome/128.0.0.0 Safari/537.36","Macintosh","Chrome","128.0.0.0","OS X","10_15_7","https://app.prolific.com/","en-GB,en-US;q=0.9,en;q=0.8","67d163e7b7bcc1e9718e01da","6877631c9844ddd5501205fc","6889df73b1fa69a111487d3e","3","1","67d163e7b7bcc1e9718e01da","3","1","2025-07-30T10:15:49.775Z","","","","","","","","","","","","","","win-only","0","g1:NW,g2:SE","0.6","12","0","4380546.2","1721","6724.1","59701.6","1","4","8","6","2","8","8","23","15","0.17424242424242425","1020.7","3000","1640","[""down"",""right""]","{""num_key_presses"":10,""num_perfect"":6,""num_errors"":0,""num_randdir"":4,""num_randdir_good_moves"":2,""num_whilered"":0,""num_whileblue"":0,""num_blue"":5,""num_good_moves"":8}","[317.20625,316.096875,1.2,317.20625,316.096875,100,317.20625,316.096875,215.6,320.20625,314.096875,320.9,388.20625,312.096875,433.7,494.20625,359.096875,535.5,593.20625,565.096875,921.5,593.20625,565.096875,1138,567.20625,563.096875,1239.4,457.20625,553.096875,1482.4,453.20625,552.096875,1589.5,452.20625,552.096875,1743,452.20625,552.096875,1968.8,452.20625,552.096875,2075.1,452.20625,552.096875,2218.7,452.20625,552.096875,2386.4,452.20625,552.096875,2576.7,452.20625,552.096875,2708,452.20625,552.096875,2897,452.20625,552.096875,3098.5,452.20625,552.096875,3350.1,452.20625,552.096875,3483.3,452.20625,552.096875,3611,452.20625,552.096875,3750.6,452.20625,552.096875,4046.9,452.20625,552.096875,4182.9,452.20625,552.096875,4291.6,452.20625,552.096875,4414.6,452.20625,552.096875,4555.6,452.20625,552.096875,4668,452.20625,552.096875,4801.5,452.20625,552.096875,4906]","[9531.8,9531.9,2730.9,5559.6,1241.4,""smooth"",""right"",""right"",""good_move"",16257.8,6712,2108.9,13584.1,564.8,""oops"",""right"",""left"",""bad_move"",19922.3,3661.6,3115.5,16260.7,546.1,""oops"",""right"",""down"",""good_move"",23945.4,4022.4,3357,19923,665.4,""smooth"",""right"",""right"",""good_move"",31171.8,7226.2,2862.8,27720.2,588.9,""smooth"",""right"",""right"",""good_move"",33874.3,2700.9,1785.9,31173.4,915,""smooth"",""right"",""right"",""good_move"",38196.6,4321.5,3305.7,33875.1,1015.8,""oops"",""down"",""left"",""bad_move"",46531.2,8332.8,1942.1,44063.8,525.3,""oops"",""right"",""down"",""good_move"",49325.7,2792.5,2191.8,46533.2,600.7,""smooth"",""right"",""right"",""good_move"",52615.3,3288.7,2834.2,49326.7,454.4,""smooth"",""down"",""down"",""good_move""]","",""
"4481","","<div style=""width:500px;"">
  <p>What determined the result of this run?</p>
  </div>","63","html-slider-response","65","4445294","0.0-5.0-1.11","275","1","2025-07-30 09:01:47","1f75c3e559b7213887762d5229550c2b","41.122.147.138","Mozilla/5.0 (Macintosh; Intel Mac OS X 10_15_7) AppleWebKit/537.36 (KHTML, like Gecko) Chrome/128.0.0.0 Safari/537.36","Macintosh","Chrome","128.0.0.0","OS X","10_15_7","https://app.prolific.com/","en-GB,en-US;q=0.9,en;q=0.8","67d163e7b7bcc1e9718e01da","6877631c9844ddd5501205fc","6889df73b1fa69a111487d3e","3","1","67d163e7b7bcc1e9718e01da","3","1","2025-07-30T10:15:54.258Z","","","","","","","","","","","AttribQ","","50","","","","","","","","","","","","","","","","","","","","","","","","","","","","",""
"1745","","<div style=""width:500px;"">
  <p>How much control did you have over the ball?</p>
  </div>","59","html-slider-response","66","4447041","0.0-5.0-2.11","275","1","2025-07-30 09:01:47","1f75c3e559b7213887762d5229550c2b","41.122.147.138","Mozilla/5.0 (Macintosh; Intel Mac OS X 10_15_7) AppleWebKit/537.36 (KHTML, like Gecko) Chrome/128.0.0.0 Safari/537.36","Macintosh","Chrome","128.0.0.0","OS X","10_15_7","https://app.prolific.com/","en-GB,en-US;q=0.9,en;q=0.8","67d163e7b7bcc1e9718e01da","6877631c9844ddd5501205fc","6889df73b1fa69a111487d3e","3","1","67d163e7b7bcc1e9718e01da","3","1","2025-07-30T10:15:56.005Z","","","","","","","","","","","ControlQ","","50","","","","","","","","","","","","","","","","","","","","","","","","","","","","",""
"2696","","<div style=""width:500px;"">
  <p>How would you describe your current emotional state?</p>
  </div>","31","html-slider-response","67","4449739","0.0-5.0-3.11","275","1","2025-07-30 09:01:47","1f75c3e559b7213887762d5229550c2b","41.122.147.138","Mozilla/5.0 (Macintosh; Intel Mac OS X 10_15_7) AppleWebKit/537.36 (KHTML, like Gecko) Chrome/128.0.0.0 Safari/537.36","Macintosh","Chrome","128.0.0.0","OS X","10_15_7","https://app.prolific.com/","en-GB,en-US;q=0.9,en;q=0.8","67d163e7b7bcc1e9718e01da","6877631c9844ddd5501205fc","6889df73b1fa69a111487d3e","3","1","67d163e7b7bcc1e9718e01da","3","1","2025-07-30T10:15:58.703Z","","","","","","","","","","","StressQ","","50","","","","","","","","","","","","","","","","","","","","","","","","","","","","",""
"2484","","<div style=""width:500px;"">
  <p>What best describes how you currently feel?</p>
  </div>","67","html-slider-response","68","4452225","0.0-5.0-4.11","275","1","2025-07-30 09:01:47","1f75c3e559b7213887762d5229550c2b","41.122.147.138","Mozilla/5.0 (Macintosh; Intel Mac OS X 10_15_7) AppleWebKit/537.36 (KHTML, like Gecko) Chrome/128.0.0.0 Safari/537.36","Macintosh","Chrome","128.0.0.0","OS X","10_15_7","https://app.prolific.com/","en-GB,en-US;q=0.9,en;q=0.8","67d163e7b7bcc1e9718e01da","6877631c9844ddd5501205fc","6889df73b1fa69a111487d3e","3","1","67d163e7b7bcc1e9718e01da","3","1","2025-07-30T10:16:01.189Z","","","","","","","","","","","MotivationQ","","50","","","","","","","","","","","","","","","","","","","","","","","","","","","","",""
"","","","","ctl-task-cpt","69","4485911","0.0-5.0-0.12","275","1","2025-07-30 09:01:47","1f75c3e559b7213887762d5229550c2b","41.122.147.138","Mozilla/5.0 (Macintosh; Intel Mac OS X 10_15_7) AppleWebKit/537.36 (KHTML, like Gecko) Chrome/128.0.0.0 Safari/537.36","Macintosh","Chrome","128.0.0.0","OS X","10_15_7","https://app.prolific.com/","en-GB,en-US;q=0.9,en;q=0.8","67d163e7b7bcc1e9718e01da","6877631c9844ddd5501205fc","6889df73b1fa69a111487d3e","3","1","67d163e7b7bcc1e9718e01da","3","1","2025-07-30T10:16:34.876Z","","","","","","","","","","","","","","win-only","2","g1:SE,g2:NW","0.7","13","0","4454697.3","1505.1","6626.3","30645.9","1","4","8","6","2","8","8","31","23","0.23484848484848486","1114.5","3000","2140","[""left"",""up""]","{""num_key_presses"":6,""num_perfect"":4,""num_errors"":0,""num_randdir"":2,""num_randdir_good_moves"":2,""num_whilered"":0,""num_whileblue"":0,""num_blue"":1,""num_good_moves"":6}","[317.20625,318.096875,0.7,317.20625,318.096875,124.1,317.20625,318.096875,330.7,317.20625,318.096875,465.8,316.20625,316.096875,628.8,131.20625,164.096875,755.1,74.20625,123.096875,868.1,48.20625,82.096875,1099.4,47.20625,82.096875,1244.3,48.20625,85.096875,1409.9,61.20625,211.096875,1616.1,32.20625,328.096875,1942.9,32.20625,328.096875,2067.5,32.20625,328.096875,2172.4,32.20625,328.096875,2369,32.20625,328.096875,2507.3,32.20625,328.096875,2621.2,32.20625,328.096875,2760.1,32.20625,328.096875,2873.2,32.20625,328.096875,2984.1,32.20625,328.096875,3192.5,32.20625,328.096875,3359.1,32.20625,328.096875,3522.5,32.20625,328.096875,3624.8,32.20625,328.096875,3733.9,32.20625,328.096875,3852.8,32.20625,328.096875,4000.5,32.20625,328.096875,4116.3,32.20625,328.096875,4227.7,32.20625,328.096875,4429.6,32.20625,328.096875,4630.3,32.20625,328.096875,4789.3,32.20625,328.096875,4898.6]","[2041.5,2041.5,1000,0,1041.5,""smooth"",""left"",""left"",""good_move"",9345.6,7272,2229.3,6647.9,468.4,""smooth"",""left"",""left"",""good_move"",12995.5,3649.1,2361.6,9346.5,1287.4,""smooth"",""left"",""left"",""good_move"",16473.8,3477.3,3031.8,12997.1,444.9,""smooth"",""up"",""up"",""good_move"",20102.9,3628.2,2528.7,16474.7,1099.5,""oops"",""up"",""up"",""good_move"",23692.7,3589.4,2508.2,20103.3,1081.2,""oops"",""up"",""up"",""good_move""]","",""
"2116","","<div style=""width:500px;"">
  <p>What determined the result of this run?</p>
  </div>","63","html-slider-response","70","4488029","0.0-5.0-1.12","275","1","2025-07-30 09:01:47","1f75c3e559b7213887762d5229550c2b","41.122.147.138","Mozilla/5.0 (Macintosh; Intel Mac OS X 10_15_7) AppleWebKit/537.36 (KHTML, like Gecko) Chrome/128.0.0.0 Safari/537.36","Macintosh","Chrome","128.0.0.0","OS X","10_15_7","https://app.prolific.com/","en-GB,en-US;q=0.9,en;q=0.8","67d163e7b7bcc1e9718e01da","6877631c9844ddd5501205fc","6889df73b1fa69a111487d3e","3","1","67d163e7b7bcc1e9718e01da","3","1","2025-07-30T10:16:36.993Z","","","","","","","","","","","AttribQ","","50","","","","","","","","","","","","","","","","","","","","","","","","","","","","",""
"2119","","<div style=""width:500px;"">
  <p>How much control did you have over the ball?</p>
  </div>","55","html-slider-response","71","4490151","0.0-5.0-2.12","275","1","2025-07-30 09:01:47","1f75c3e559b7213887762d5229550c2b","41.122.147.138","Mozilla/5.0 (Macintosh; Intel Mac OS X 10_15_7) AppleWebKit/537.36 (KHTML, like Gecko) Chrome/128.0.0.0 Safari/537.36","Macintosh","Chrome","128.0.0.0","OS X","10_15_7","https://app.prolific.com/","en-GB,en-US;q=0.9,en;q=0.8","67d163e7b7bcc1e9718e01da","6877631c9844ddd5501205fc","6889df73b1fa69a111487d3e","3","1","67d163e7b7bcc1e9718e01da","3","1","2025-07-30T10:16:39.115Z","","","","","","","","","","","ControlQ","","50","","","","","","","","","","","","","","","","","","","","","","","","","","","","",""
"2313","","<div style=""width:500px;"">
  <p>How would you describe your current emotional state?</p>
  </div>","38","html-slider-response","72","4492466","0.0-5.0-3.12","275","1","2025-07-30 09:01:47","1f75c3e559b7213887762d5229550c2b","41.122.147.138","Mozilla/5.0 (Macintosh; Intel Mac OS X 10_15_7) AppleWebKit/537.36 (KHTML, like Gecko) Chrome/128.0.0.0 Safari/537.36","Macintosh","Chrome","128.0.0.0","OS X","10_15_7","https://app.prolific.com/","en-GB,en-US;q=0.9,en;q=0.8","67d163e7b7bcc1e9718e01da","6877631c9844ddd5501205fc","6889df73b1fa69a111487d3e","3","1","67d163e7b7bcc1e9718e01da","3","1","2025-07-30T10:16:41.430Z","","","","","","","","","","","StressQ","","50","","","","","","","","","","","","","","","","","","","","","","","","","","","","",""
"4924","","<div style=""width:500px;"">
  <p>What best describes how you currently feel?</p>
  </div>","61","html-slider-response","73","4497393","0.0-5.0-4.12","275","1","2025-07-30 09:01:47","1f75c3e559b7213887762d5229550c2b","41.122.147.138","Mozilla/5.0 (Macintosh; Intel Mac OS X 10_15_7) AppleWebKit/537.36 (KHTML, like Gecko) Chrome/128.0.0.0 Safari/537.36","Macintosh","Chrome","128.0.0.0","OS X","10_15_7","https://app.prolific.com/","en-GB,en-US;q=0.9,en;q=0.8","67d163e7b7bcc1e9718e01da","6877631c9844ddd5501205fc","6889df73b1fa69a111487d3e","3","1","67d163e7b7bcc1e9718e01da","3","1","2025-07-30T10:16:46.357Z","","","","","","","","","","","MotivationQ","","50","","","","","","","","","","","","","","","","","","","","","","","","","","","","",""
"","","","","ctl-task-cpt","74","4537054","0.0-5.0-0.13","275","1","2025-07-30 09:01:47","1f75c3e559b7213887762d5229550c2b","41.122.147.138","Mozilla/5.0 (Macintosh; Intel Mac OS X 10_15_7) AppleWebKit/537.36 (KHTML, like Gecko) Chrome/128.0.0.0 Safari/537.36","Macintosh","Chrome","128.0.0.0","OS X","10_15_7","https://app.prolific.com/","en-GB,en-US;q=0.9,en;q=0.8","67d163e7b7bcc1e9718e01da","6877631c9844ddd5501205fc","6889df73b1fa69a111487d3e","3","1","67d163e7b7bcc1e9718e01da","3","1","2025-07-30T10:17:26.018Z","","","","","","","","","","","","","","win-only","3","g1:SW,g2:NE","0.8","14","0","4499858.7","5180.9","10188.3","36610.9","1","4","4","6","2","4","3","34","31","0.25757575757575757","2018.6","3000","2185","[""up"",""right""]","{""num_key_presses"":7,""num_perfect"":6,""num_errors"":1,""num_randdir"":0,""num_randdir_good_moves"":0,""num_whilered"":0,""num_whileblue"":0,""num_blue"":1,""num_good_moves"":6}","[320.20625,314.096875,2.1,320.20625,314.096875,109.8,320.20625,314.096875,231.7,333.20625,302.096875,352.9,418.20625,221.096875,495.6,501.20625,193.096875,600.8,487.20625,198.096875,738.2,381.20625,328.096875,855.6,315.20625,722.096875,962.8,679.20625,684.096875,1093.7,1032.20625,190.096875,1201.4,940.20625,128.096875,1314.4,743.20625,114.096875,1517,713.20625,109.096875,1636.9,688.20625,99.096875,1742.9,607.20625,79.096875,1849.9,579.20625,67.096875,1950.2,578.20625,65.096875,2072,578.20625,65.096875,2183.7,573.20625,93.096875,2287.7,498.20625,209.096875,2394.2,466.20625,263.096875,2510.1,467.20625,262.096875,2634,468.20625,261.096875,2752.3,468.20625,261.096875,2873.7,468.20625,261.096875,2977.2,468.20625,261.096875,3078.4,469.20625,261.096875,3179.6,469.20625,260.096875,3289.3,469.20625,260.096875,3389.4,469.20625,260.096875,3496.9,469.20625,260.096875,3605.4,469.20625,259.096875,3708.8,469.20625,259.096875,3819.8,470.20625,258.096875,3925.8,470.20625,258.096875,4031.1,470.20625,258.096875,4131.8,470.20625,258.096875,4244,468.20625,244.096875,4353.8,468.20625,244.096875,4466.6,468.20625,244.096875,4583,468.20625,244.096875,4688.9,468.20625,244.096875,4798.5,468.20625,244.096875,4915.7]","[1508.7,1508.7,1000,0,508.7,""smooth"",""right"",""right"",""good_move"",8643.6,7126.5,2960.5,4935.8,747.3,""smooth"",""up"",""up"",""good_move"",12294.1,3648.3,2496.3,8645.8,1152,""smooth"",""up"",""up"",""good_move"",14575.4,2280.9,2894.9,12294.5,-614,""error"",""-"",""-"",""no_move"",19357.6,4781.2,2912.1,15583,862.5,""smooth"",""right"",""right"",""good_move"",22540.4,3178.5,2316.3,19361.9,862.2,""smooth"",""right"",""right"",""good_move"",25948,3407,2214.5,22541,1192.5,""smooth"",""up"",""up"",""good_move""]","",""
"3491","","<div style=""width:500px;"">
  <p>What determined the result of this run?</p>
  </div>","65","html-slider-response","75","4540548","0.0-5.0-1.13","275","1","2025-07-30 09:01:47","1f75c3e559b7213887762d5229550c2b","41.122.147.138","Mozilla/5.0 (Macintosh; Intel Mac OS X 10_15_7) AppleWebKit/537.36 (KHTML, like Gecko) Chrome/128.0.0.0 Safari/537.36","Macintosh","Chrome","128.0.0.0","OS X","10_15_7","https://app.prolific.com/","en-GB,en-US;q=0.9,en;q=0.8","67d163e7b7bcc1e9718e01da","6877631c9844ddd5501205fc","6889df73b1fa69a111487d3e","3","1","67d163e7b7bcc1e9718e01da","3","1","2025-07-30T10:17:29.512Z","","","","","","","","","","","AttribQ","","50","","","","","","","","","","","","","","","","","","","","","","","","","","","","",""
"5922","","<div style=""width:500px;"">
  <p>How much control did you have over the ball?</p>
  </div>","58","html-slider-response","76","4546473","0.0-5.0-2.13","275","1","2025-07-30 09:01:47","1f75c3e559b7213887762d5229550c2b","41.122.147.138","Mozilla/5.0 (Macintosh; Intel Mac OS X 10_15_7) AppleWebKit/537.36 (KHTML, like Gecko) Chrome/128.0.0.0 Safari/537.36","Macintosh","Chrome","128.0.0.0","OS X","10_15_7","https://app.prolific.com/","en-GB,en-US;q=0.9,en;q=0.8","67d163e7b7bcc1e9718e01da","6877631c9844ddd5501205fc","6889df73b1fa69a111487d3e","3","1","67d163e7b7bcc1e9718e01da","3","1","2025-07-30T10:17:35.437Z","","","","","","","","","","","ControlQ","","50","","","","","","","","","","","","","","","","","","","","","","","","","","","","",""
"1462","","<div style=""width:500px;"">
  <p>How would you describe your current emotional state?</p>
  </div>","44","html-slider-response","77","4547936","0.0-5.0-3.13","275","1","2025-07-30 09:01:47","1f75c3e559b7213887762d5229550c2b","41.122.147.138","Mozilla/5.0 (Macintosh; Intel Mac OS X 10_15_7) AppleWebKit/537.36 (KHTML, like Gecko) Chrome/128.0.0.0 Safari/537.36","Macintosh","Chrome","128.0.0.0","OS X","10_15_7","https://app.prolific.com/","en-GB,en-US;q=0.9,en;q=0.8","67d163e7b7bcc1e9718e01da","6877631c9844ddd5501205fc","6889df73b1fa69a111487d3e","3","1","67d163e7b7bcc1e9718e01da","3","1","2025-07-30T10:17:36.900Z","","","","","","","","","","","StressQ","","50","","","","","","","","","","","","","","","","","","","","","","","","","","","","",""
"1330","","<div style=""width:500px;"">
  <p>What best describes how you currently feel?</p>
  </div>","58","html-slider-response","78","4549268","0.0-5.0-4.13","275","1","2025-07-30 09:01:47","1f75c3e559b7213887762d5229550c2b","41.122.147.138","Mozilla/5.0 (Macintosh; Intel Mac OS X 10_15_7) AppleWebKit/537.36 (KHTML, like Gecko) Chrome/128.0.0.0 Safari/537.36","Macintosh","Chrome","128.0.0.0","OS X","10_15_7","https://app.prolific.com/","en-GB,en-US;q=0.9,en;q=0.8","67d163e7b7bcc1e9718e01da","6877631c9844ddd5501205fc","6889df73b1fa69a111487d3e","3","1","67d163e7b7bcc1e9718e01da","3","1","2025-07-30T10:17:38.232Z","","","","","","","","","","","MotivationQ","","50","","","","","","","","","","","","","","","","","","","","","","","","","","","","",""
"","","","","ctl-task-cpt","79","4590114","0.0-5.0-0.14","275","1","2025-07-30 09:01:47","1f75c3e559b7213887762d5229550c2b","41.122.147.138","Mozilla/5.0 (Macintosh; Intel Mac OS X 10_15_7) AppleWebKit/537.36 (KHTML, like Gecko) Chrome/128.0.0.0 Safari/537.36","Macintosh","Chrome","128.0.0.0","OS X","10_15_7","https://app.prolific.com/","en-GB,en-US;q=0.9,en;q=0.8","67d163e7b7bcc1e9718e01da","6877631c9844ddd5501205fc","6889df73b1fa69a111487d3e","3","1","67d163e7b7bcc1e9718e01da","3","1","2025-07-30T10:18:19.078Z","","","","","","","","","","","","","","win-only","0","g1:NW,g2:SE","0.9","15","0","4551730.4","1436.4","6441.4","37819.3","1","4","4","6","2","4","4","38","34","0.2878787878787879","848.7","3000","2160","[""down"",""right""]","{""num_key_presses"":8,""num_perfect"":7,""num_errors"":0,""num_randdir"":1,""num_randdir_good_moves"":0,""num_whilered"":0,""num_whileblue"":0,""num_blue"":2,""num_good_moves"":7}","[317.20625,315.096875,0.3,318.20625,314.096875,131,347.20625,315.096875,238.8,416.20625,288.096875,364.3,459.20625,341.096875,469.8,524.20625,485.096875,579.6,572.20625,560.096875,693.1,573.20625,571.096875,804.7,573.20625,571.096875,911.7,573.20625,571.096875,1027.4,573.20625,571.096875,1139.1,573.20625,571.096875,1247.5,574.20625,569.096875,1369.5,574.20625,560.096875,1476.1,571.20625,557.096875,1589.8,571.20625,557.096875,1749.9,571.20625,557.096875,1857.1,571.20625,557.096875,1973.9,571.20625,557.096875,2078.5,571.20625,557.096875,2181.4,571.20625,557.096875,2298.8,571.20625,557.096875,2416.6,571.20625,557.096875,2534.3,571.20625,557.096875,2648.6,571.20625,557.096875,2749.7,571.20625,557.096875,2865.2,571.20625,557.096875,2975.9,571.20625,557.096875,3087,571.20625,557.096875,3194.1,571.20625,557.096875,3312.6,571.20625,557.096875,3421.8,571.20625,557.096875,3532.7,571.20625,557.096875,3650.6,571.20625,557.096875,3764.4,571.20625,557.096875,3878.9,571.20625,557.096875,3982.8,571.20625,557.096875,4093.8,571.20625,557.096875,4199.1,571.20625,557.096875,4308.5,571.20625,557.096875,4420.5,571.20625,557.096875,4522,571.20625,557.096875,4630.8,571.20625,557.096875,4744.2,571.20625,557.096875,4862.9,571.20625,557.096875,4982.1]","[8428.7,8428.7,2688.1,5049.5,691.1,""smooth"",""right"",""right"",""good_move"",11860.9,3415.1,2981.9,8445.8,433.2,""smooth"",""right"",""right"",""good_move"",15186.8,3324.9,2887.4,11861.9,437.5,""smooth"",""right"",""right"",""good_move"",18221.9,3034.5,2548.4,15187.4,486.1,""smooth"",""down"",""down"",""good_move"",21017,2794,2362.4,18223,431.6,""oops"",""down"",""up"",""bad_move"",24791.5,3774.3,2150.5,21017.2,1623.8,""smooth"",""down"",""down"",""good_move"",27398,2605.7,2169.7,24792.4,436,""smooth"",""down"",""down"",""good_move"",30958.5,3560.1,3065.4,27398.4,494.7,""smooth"",""down"",""down"",""good_move""]","",""
"41407","","<div style=""width:500px;"">
  <p>What determined the result of this run?</p>
  </div>","63","html-slider-response","80","4631539","0.0-5.0-1.14","275","1","2025-07-30 09:01:47","1f75c3e559b7213887762d5229550c2b","41.122.147.138","Mozilla/5.0 (Macintosh; Intel Mac OS X 10_15_7) AppleWebKit/537.36 (KHTML, like Gecko) Chrome/128.0.0.0 Safari/537.36","Macintosh","Chrome","128.0.0.0","OS X","10_15_7","https://app.prolific.com/","en-GB,en-US;q=0.9,en;q=0.8","67d163e7b7bcc1e9718e01da","6877631c9844ddd5501205fc","6889df73b1fa69a111487d3e","3","1","67d163e7b7bcc1e9718e01da","3","1","2025-07-30T10:19:00.503Z","","","","","","","","","","","AttribQ","","50","","","","","","","","","","","","","","","","","","","","","","","","","","","","",""
"2167","","<div style=""width:500px;"">
  <p>How much control did you have over the ball?</p>
  </div>","35","html-slider-response","81","4633727","0.0-5.0-2.14","275","1","2025-07-30 09:01:47","1f75c3e559b7213887762d5229550c2b","41.122.147.138","Mozilla/5.0 (Macintosh; Intel Mac OS X 10_15_7) AppleWebKit/537.36 (KHTML, like Gecko) Chrome/128.0.0.0 Safari/537.36","Macintosh","Chrome","128.0.0.0","OS X","10_15_7","https://app.prolific.com/","en-GB,en-US;q=0.9,en;q=0.8","67d163e7b7bcc1e9718e01da","6877631c9844ddd5501205fc","6889df73b1fa69a111487d3e","3","1","67d163e7b7bcc1e9718e01da","3","1","2025-07-30T10:19:02.691Z","","","","","","","","","","","ControlQ","","50","","","","","","","","","","","","","","","","","","","","","","","","","","","","",""
"1259","","<div style=""width:500px;"">
  <p>How would you describe your current emotional state?</p>
  </div>","61","html-slider-response","82","4634992","0.0-5.0-3.14","275","1","2025-07-30 09:01:47","1f75c3e559b7213887762d5229550c2b","41.122.147.138","Mozilla/5.0 (Macintosh; Intel Mac OS X 10_15_7) AppleWebKit/537.36 (KHTML, like Gecko) Chrome/128.0.0.0 Safari/537.36","Macintosh","Chrome","128.0.0.0","OS X","10_15_7","https://app.prolific.com/","en-GB,en-US;q=0.9,en;q=0.8","67d163e7b7bcc1e9718e01da","6877631c9844ddd5501205fc","6889df73b1fa69a111487d3e","3","1","67d163e7b7bcc1e9718e01da","3","1","2025-07-30T10:19:03.956Z","","","","","","","","","","","StressQ","","50","","","","","","","","","","","","","","","","","","","","","","","","","","","","",""
"1435","","<div style=""width:500px;"">
  <p>What best describes how you currently feel?</p>
  </div>","57","html-slider-response","83","4636432","0.0-5.0-4.14","275","1","2025-07-30 09:01:47","1f75c3e559b7213887762d5229550c2b","41.122.147.138","Mozilla/5.0 (Macintosh; Intel Mac OS X 10_15_7) AppleWebKit/537.36 (KHTML, like Gecko) Chrome/128.0.0.0 Safari/537.36","Macintosh","Chrome","128.0.0.0","OS X","10_15_7","https://app.prolific.com/","en-GB,en-US;q=0.9,en;q=0.8","67d163e7b7bcc1e9718e01da","6877631c9844ddd5501205fc","6889df73b1fa69a111487d3e","3","1","67d163e7b7bcc1e9718e01da","3","1","2025-07-30T10:19:05.396Z","","","","","","","","","","","MotivationQ","","50","","","","","","","","","","","","","","","","","","","","","","","","","","","","",""
