"rt","response_timestamp","stimulus","response","trial_type","trial_index","time_elapsed","internal_node_id","run_id","condition","recorded_at","source_code_version","ip","user_agent","device","browser","browser_version","platform","platform_version","referer","accept_language","PROLIFIC_PID","STUDY_ID","SESSION_ID","WEEK","BATCH","prolific_id","week","batch","realtime","success","responses","item_order","radio_event_ids","radio_event_times","key_event_times","mouse_event_times","straightlining","zigzagging","honeypot","eventType","view_history","slider_start","which_type","canvas_config","goals_layout","control_level","trial_number","tutorial_trial_number","trial_start_time","phase1_start_time","phase2_start_time","phase3_start_time","goal_1_value","goal_1_distance","goal_2_value","goal_2_distance","goal_selected","outcome","outcome_total","participant_final_score","participant_initial_score","participant_final_score_prop","goal_choice_rt","allocated_time","allocated_time_remaining","goal_direction","counts","mouse_movements","key_presses","question_order","question_id"
"103115","1753864728055","<p style='font-size:40px;line-height:1.25'><strong>Welcome to the experiment!</strong></p><p style='font-size:1.1em;line-height:1.25'>Thank you for participanting in our experiment again! You will be asked to play the Dysfunctional Ball Game again. We will briefly recap the rules before we start.</p><p style='font-size:1.1em;line-height:1.25'>Press <strong>Next</strong> to continue.</p>","0","custom-html-button-response","0","103122","0.0-0.0","258","1","2025-07-30 08:38:48","1f75c3e559b7213887762d5229550c2b","41.123.78.77","Mozilla/5.0 (Windows NT 10.0; Win64; x64) AppleWebKit/537.36 (KHTML, like Gecko) Chrome/138.0.0.0 Safari/537.36","WebKit","Chrome","138.0.0.0","Windows","10.0","https://app.prolific.com/","en-GB,en-US;q=0.9,en;q=0.8","67e074f58a5ea7d9897f3223","6877631c9844ddd5501205fc","6889d9bd48ca84a5cf301d8f","3","1","67e074f58a5ea7d9897f3223","3","1","2025-07-30T08:38:48.059Z","","","","","","","","","","","","","","","","","","","","","","","","","","","","","","","","","","","","","","","","","",""
"80489","","","","fullscreen","1","184639","0.0-1.0","258","1","2025-07-30 08:38:48","1f75c3e559b7213887762d5229550c2b","41.123.78.77","Mozilla/5.0 (Windows NT 10.0; Win64; x64) AppleWebKit/537.36 (KHTML, like Gecko) Chrome/138.0.0.0 Safari/537.36","WebKit","Chrome","138.0.0.0","Windows","10.0","https://app.prolific.com/","en-GB,en-US;q=0.9,en;q=0.8","67e074f58a5ea7d9897f3223","6877631c9844ddd5501205fc","6889d9bd48ca84a5cf301d8f","3","1","67e074f58a5ea7d9897f3223","3","1","","true","","","","","","","","","","","","","","","","","","","","","","","","","","","","","","","","","","","","","","","","",""
"35095","1753864844677","<p style='font-size:1.1em;line-height:1.25'>In the following, we will ask you a few questions relating to your feelings in the last 24 hours.<br></p><p style='font-size:1.1em;line-height:1.25'>Press the <strong>Next</strong> button to continue.</p>","0","custom-html-button-response","2","219752","0.0-2.0-0.0","258","1","2025-07-30 08:38:48","1f75c3e559b7213887762d5229550c2b","41.123.78.77","Mozilla/5.0 (Windows NT 10.0; Win64; x64) AppleWebKit/537.36 (KHTML, like Gecko) Chrome/138.0.0.0 Safari/537.36","WebKit","Chrome","138.0.0.0","Windows","10.0","https://app.prolific.com/","en-GB,en-US;q=0.9,en;q=0.8","67e074f58a5ea7d9897f3223","6877631c9844ddd5501205fc","6889d9bd48ca84a5cf301d8f","3","1","67e074f58a5ea7d9897f3223","3","1","2025-07-30T08:40:44.689Z","","","","","","","","","","","","","","","","","","","","","","","","","","","","","","","","","","","","","","","","","",""
"221236.10000002384","","","","survey-template","3","441010","0.0-2.0-1.0","258","1","2025-07-30 08:38:48","1f75c3e559b7213887762d5229550c2b","41.123.78.77","Mozilla/5.0 (Windows NT 10.0; Win64; x64) AppleWebKit/537.36 (KHTML, like Gecko) Chrome/138.0.0.0 Safari/537.36","WebKit","Chrome","138.0.0.0","Windows","10.0","https://app.prolific.com/","en-GB,en-US;q=0.9,en;q=0.8","67e074f58a5ea7d9897f3223","6877631c9844ddd5501205fc","6889d9bd48ca84a5cf301d8f","3","1","67e074f58a5ea7d9897f3223","3","1","2025-07-30T08:44:25.946Z","","{""Q01"":""1"",""Q02"":""0"",""Q03"":""0"",""Q04"":""2"",""Q05"":""3"",""Q06"":""1"",""Q07"":""3"",""Q08"":""0"",""Q09"":""0"",""Q10"":""0"",""Q11"":""0"",""Q12"":""2"",""Q13"":""5"",""Q14"":""2"",""Q15"":""0"",""Q16"":""3"",""Q17"":""2"",""Q18"":""1"",""Q19"":""0"",""Q20"":""1"",""Q21"":""2"",""Q22"":""1""}","[0,1,2,3,4,5,6,7,8,9,10,11,12,13,14,15,16,17,18,19,20,21]","[""Q01"",""Q02"",""Q03"",""Q04"",""Q05"",""Q06"",""Q07"",""Q08"",""Q09"",""Q10"",""Q11"",""Q12"",""Q13"",""Q14"",""Q15"",""Q16"",""Q17"",""Q18"",""Q19"",""Q20"",""Q21"",""Q22""]","[17290.100000023842,24095.200000047684,28941.200000047684,32063.600000023842,35848.80000001192,42648.5,48582.60000002384,52950.5,58596.80000001192,64991.200000047684,97262.40000003576,107842.5,112613.90000003576,130404,137321.90000003576,144928.20000004768,158064.20000004768,164590.40000003576,168682.60000002384,186378.90000003576,206466.30000001192,217191.90000003576]","[]","[6.300000011920929,17290.100000023842,24095.200000047684,28941.200000047684,32063.600000023842,35848.80000001192,41541.700000047684,42648.5,48582.60000002384,52950.5,57157.40000003576,58596.80000001192,63279.30000001192,64991.200000047684,95847,97262.40000003576,107842.5,112613.90000003576,130404,135824.60000002384,137321.90000003576,142297.5,144928.20000004768,151914.30000001192,156392.70000004768,158064.20000004768,164590.40000003576,168682.60000002384,186378.90000003576,206466.30000001192,217191.90000003576,221203.80000001192]","0.36363636363636365","0.38095238095238093","0","drsp","","","","","","","","","","","","","","","","","","","","","","","","","","","","","","",""
"40416.700000047684","","","","survey-template","4","481439","0.0-2.0-2.0","258","1","2025-07-30 08:38:48","1f75c3e559b7213887762d5229550c2b","41.123.78.77","Mozilla/5.0 (Windows NT 10.0; Win64; x64) AppleWebKit/537.36 (KHTML, like Gecko) Chrome/138.0.0.0 Safari/537.36","WebKit","Chrome","138.0.0.0","Windows","10.0","https://app.prolific.com/","en-GB,en-US;q=0.9,en;q=0.8","67e074f58a5ea7d9897f3223","6877631c9844ddd5501205fc","6889d9bd48ca84a5cf301d8f","3","1","67e074f58a5ea7d9897f3223","3","1","2025-07-30T08:45:06.375Z","","{""Q01"":""0"",""Q02"":""2"",""Q03"":""0""}","[0,1,2]","[""Q01"",""Q02"",""Q03""]","[10971.5,26553.400000035763,34503.30000001192]","[]","[10971.5,26553.400000035763,34503.30000001192,40407.30000001192]","0.6666666666666666","0","0","stress","","","","","","","","","","","","","","","","","","","","","","","","","","","","","","",""
"50978","","","","instructions","5","532429","0.0-3.0-0.0","258","1","2025-07-30 08:38:48","1f75c3e559b7213887762d5229550c2b","41.123.78.77","Mozilla/5.0 (Windows NT 10.0; Win64; x64) AppleWebKit/537.36 (KHTML, like Gecko) Chrome/138.0.0.0 Safari/537.36","WebKit","Chrome","138.0.0.0","Windows","10.0","https://app.prolific.com/","en-GB,en-US;q=0.9,en;q=0.8","67e074f58a5ea7d9897f3223","6877631c9844ddd5501205fc","6889d9bd48ca84a5cf301d8f","3","1","67e074f58a5ea7d9897f3223","3","1","","","","","","","","","","","","","[{""page_index"":0,""viewing_time"":50976}]","","","","","","","","","","","","","","","","","","","","","","","","","","","","","",""
"22401","","<p>Before you start with this game please answer the following three questions yourself. </p>
  <p>Through this game, we measure several aspects of your cognitive performance, such as reaction times, multi-tasking capabilities </p>
  <p>and the ability to assess the situation you are in.</p>
  <p></p>
  <p><b>How good do you usually are in such tasks?</b></p>","86","html-slider-response","6","554849","0.0-4.0-0.0","258","1","2025-07-30 08:38:48","1f75c3e559b7213887762d5229550c2b","41.123.78.77","Mozilla/5.0 (Windows NT 10.0; Win64; x64) AppleWebKit/537.36 (KHTML, like Gecko) Chrome/138.0.0.0 Safari/537.36","WebKit","Chrome","138.0.0.0","Windows","10.0","https://app.prolific.com/","en-GB,en-US;q=0.9,en;q=0.8","67e074f58a5ea7d9897f3223","6877631c9844ddd5501205fc","6889d9bd48ca84a5cf301d8f","3","1","67e074f58a5ea7d9897f3223","3","1","2025-07-30T08:46:19.786Z","","","","","","","","","","","PreSkillQ","","50","","","","","","","","","","","","","","","","","","","","","","","","","","","","",""
"11134","","<div style=""width:500px;"">
  <p>How well do you think you will perform in this task compared to other participants?</p>
  </div>","77","html-slider-response","7","565995","0.0-4.0-1.0","258","1","2025-07-30 08:38:48","1f75c3e559b7213887762d5229550c2b","41.123.78.77","Mozilla/5.0 (Windows NT 10.0; Win64; x64) AppleWebKit/537.36 (KHTML, like Gecko) Chrome/138.0.0.0 Safari/537.36","WebKit","Chrome","138.0.0.0","Windows","10.0","https://app.prolific.com/","en-GB,en-US;q=0.9,en;q=0.8","67e074f58a5ea7d9897f3223","6877631c9844ddd5501205fc","6889d9bd48ca84a5cf301d8f","3","1","67e074f58a5ea7d9897f3223","3","1","2025-07-30T08:46:30.931Z","","","","","","","","","","","PrePerfQ","","50","","","","","","","","","","","","","","","","","","","","","","","","","","","","",""
"8302","","<div style=""width:500px;"">
  <p>What best describes how you currently feel?</p>
  </div>","100","html-slider-response","8","574306","0.0-4.0-2.0","258","1","2025-07-30 08:38:48","1f75c3e559b7213887762d5229550c2b","41.123.78.77","Mozilla/5.0 (Windows NT 10.0; Win64; x64) AppleWebKit/537.36 (KHTML, like Gecko) Chrome/138.0.0.0 Safari/537.36","WebKit","Chrome","138.0.0.0","Windows","10.0","https://app.prolific.com/","en-GB,en-US;q=0.9,en;q=0.8","67e074f58a5ea7d9897f3223","6877631c9844ddd5501205fc","6889d9bd48ca84a5cf301d8f","3","1","67e074f58a5ea7d9897f3223","3","1","2025-07-30T08:46:39.242Z","","","","","","","","","","","PreMotivationQ","","50","","","","","","","","","","","","","","","","","","","","","","","","","","","","",""
"","","","","ctl-task-cpt","9","592773","0.0-5.0-0.0","258","1","2025-07-30 08:38:48","1f75c3e559b7213887762d5229550c2b","41.123.78.77","Mozilla/5.0 (Windows NT 10.0; Win64; x64) AppleWebKit/537.36 (KHTML, like Gecko) Chrome/138.0.0.0 Safari/537.36","WebKit","Chrome","138.0.0.0","Windows","10.0","https://app.prolific.com/","en-GB,en-US;q=0.9,en;q=0.8","67e074f58a5ea7d9897f3223","6877631c9844ddd5501205fc","6889d9bd48ca84a5cf301d8f","3","1","67e074f58a5ea7d9897f3223","3","1","2025-07-30T08:46:57.709Z","","","","","","","","","","","","","","win-only","0","g1:NW,g2:SE","1","1","0","577780.4","2617.2","7629.7","15446.4","1","4","8","6","2","-8","-8","0","0","0","5012.4","3000","-2255","[""down"",""right""]","{""num_key_presses"":1,""num_perfect"":1,""num_errors"":0,""num_randdir"":0,""num_randdir_good_moves"":0,""num_whilered"":0,""num_whileblue"":0,""num_blue"":0,""num_good_moves"":1}","[409.0714133126395,421.57142761775424,2.2,409.0714133126395,421.57142761775424,107.3,409.0714133126395,421.57142761775424,213.6,409.0714133126395,421.57142761775424,320.1,409.0714133126395,421.57142761775424,420.6,409.0714133126395,421.57142761775424,525.2,409.0714133126395,421.57142761775424,627.6,409.0714133126395,421.57142761775424,729.5,409.0714133126395,421.57142761775424,830.8,409.0714133126395,421.57142761775424,932.8,446.5714133126395,444.07142761775424,1040.8,851.5714133126395,715.3214276177542,1142,866.5714133126395,714.0714276177542,1243.3,902.8214133126395,716.5714276177542,1345.1,902.8214133126395,716.5714276177542,1450.1,902.8214133126395,716.5714276177542,1550.3,902.8214133126395,716.5714276177542,1654.4,902.8214133126395,716.5714276177542,1759.7,902.8214133126395,716.5714276177542,1868.3,902.8214133126395,716.5714276177542,1973.9,902.8214133126395,716.5714276177542,2079.8,900.3214133126395,710.3214276177542,2184.1,900.3214133126395,710.3214276177542,2286.1,900.3214133126395,710.3214276177542,2388.7,900.3214133126395,710.3214276177542,2488.7,900.3214133126395,710.3214276177542,2589.4,900.3214133126395,710.3214276177542,2697.5,900.3214133126395,710.3214276177542,2797.9,900.3214133126395,710.3214276177542,2904.9,791.5714133126395,796.5714276177542,3005.6,551.5714133126395,956.5714276177542,3111.7,542.8214133126395,896.5714276177542,3218.5,541.5714133126395,891.5714276177542,3320.7,585.3214133126395,871.5714276177542,3423.8,746.5714133126395,792.8214276177542,3528.9,771.5714133126395,795.3214276177542,3638,841.5714133126395,762.8214276177542,3739.1,807.8214133126395,756.5714276177542,3839.4,771.5714133126395,771.5714276177542,3942.7,771.5714133126395,771.5714276177542,4045,771.5714133126395,771.5714276177542,4147.3,772.8214133126395,770.3214276177542,4247.5,772.8214133126395,770.3214276177542,4354.4,772.8214133126395,770.3214276177542,4462.5,772.8214133126395,770.3214276177542,4564.9,772.8214133126395,770.3214276177542,4672.7,772.8214133126395,770.3214276177542,4779.2,772.8214133126395,770.3214276177542,4880.4,772.8214133126395,770.3214276177542,4989]","[4941.4,4941.3,1000,0.1,3941.3,""smooth"",""right"",""right"",""good_move""]","",""
"10143","","<div style=""width:500px;"">
  <p>What determined the result of this run?</p>
  </div>","0","html-slider-response","10","602922","0.0-5.0-1.0","258","1","2025-07-30 08:38:48","1f75c3e559b7213887762d5229550c2b","41.123.78.77","Mozilla/5.0 (Windows NT 10.0; Win64; x64) AppleWebKit/537.36 (KHTML, like Gecko) Chrome/138.0.0.0 Safari/537.36","WebKit","Chrome","138.0.0.0","Windows","10.0","https://app.prolific.com/","en-GB,en-US;q=0.9,en;q=0.8","67e074f58a5ea7d9897f3223","6877631c9844ddd5501205fc","6889d9bd48ca84a5cf301d8f","3","1","67e074f58a5ea7d9897f3223","3","1","2025-07-30T08:47:07.858Z","","","","","","","","","","","AttribQ","","50","","","","","","","","","","","","","","","","","","","","","","","","","","","","",""
"11174","","<div style=""width:500px;"">
  <p>How much control did you have over the ball?</p>
  </div>","51","html-slider-response","11","614114","0.0-5.0-2.0","258","1","2025-07-30 08:38:48","1f75c3e559b7213887762d5229550c2b","41.123.78.77","Mozilla/5.0 (Windows NT 10.0; Win64; x64) AppleWebKit/537.36 (KHTML, like Gecko) Chrome/138.0.0.0 Safari/537.36","WebKit","Chrome","138.0.0.0","Windows","10.0","https://app.prolific.com/","en-GB,en-US;q=0.9,en;q=0.8","67e074f58a5ea7d9897f3223","6877631c9844ddd5501205fc","6889d9bd48ca84a5cf301d8f","3","1","67e074f58a5ea7d9897f3223","3","1","2025-07-30T08:47:19.053Z","","","","","","","","","","","ControlQ","","50","","","","","","","","","","","","","","","","","","","","","","","","","","","","",""
"12070","","<div style=""width:500px;"">
  <p>How would you describe your current emotional state?</p>
  </div>","5","html-slider-response","12","626203","0.0-5.0-3.0","258","1","2025-07-30 08:38:48","1f75c3e559b7213887762d5229550c2b","41.123.78.77","Mozilla/5.0 (Windows NT 10.0; Win64; x64) AppleWebKit/537.36 (KHTML, like Gecko) Chrome/138.0.0.0 Safari/537.36","WebKit","Chrome","138.0.0.0","Windows","10.0","https://app.prolific.com/","en-GB,en-US;q=0.9,en;q=0.8","67e074f58a5ea7d9897f3223","6877631c9844ddd5501205fc","6889d9bd48ca84a5cf301d8f","3","1","67e074f58a5ea7d9897f3223","3","1","2025-07-30T08:47:31.140Z","","","","","","","","","","","StressQ","","50","","","","","","","","","","","","","","","","","","","","","","","","","","","","",""
"6151","","<div style=""width:500px;"">
  <p>What best describes how you currently feel?</p>
  </div>","48","html-slider-response","13","632373","0.0-5.0-4.0","258","1","2025-07-30 08:38:48","1f75c3e559b7213887762d5229550c2b","41.123.78.77","Mozilla/5.0 (Windows NT 10.0; Win64; x64) AppleWebKit/537.36 (KHTML, like Gecko) Chrome/138.0.0.0 Safari/537.36","WebKit","Chrome","138.0.0.0","Windows","10.0","https://app.prolific.com/","en-GB,en-US;q=0.9,en;q=0.8","67e074f58a5ea7d9897f3223","6877631c9844ddd5501205fc","6889d9bd48ca84a5cf301d8f","3","1","67e074f58a5ea7d9897f3223","3","1","2025-07-30T08:47:37.309Z","","","","","","","","","","","MotivationQ","","50","","","","","","","","","","","","","","","","","","","","","","","","","","","","",""
"","","","","ctl-task-cpt","14","673770","0.0-5.0-0.1","258","1","2025-07-30 08:38:48","1f75c3e559b7213887762d5229550c2b","41.123.78.77","Mozilla/5.0 (Windows NT 10.0; Win64; x64) AppleWebKit/537.36 (KHTML, like Gecko) Chrome/138.0.0.0 Safari/537.36","WebKit","Chrome","138.0.0.0","Windows","10.0","https://app.prolific.com/","en-GB,en-US;q=0.9,en;q=0.8","67e074f58a5ea7d9897f3223","6877631c9844ddd5501205fc","6889d9bd48ca84a5cf301d8f","3","1","67e074f58a5ea7d9897f3223","3","1","2025-07-30T08:48:18.706Z","","","","","","","","","","","","","","win-only","1","g1:NE,g2:SW","0.9","2","0","635845.5","4068.7","9079.6","38362","1","4","4","6","2","4","3","3","0","0.022727272727272728","4063.3","3000","515","[""down"",""left""]","{""num_key_presses"":8,""num_perfect"":7,""num_errors"":1,""num_randdir"":0,""num_randdir_good_moves"":0,""num_whilered"":0,""num_whileblue"":1,""num_blue"":3,""num_good_moves"":7}","[411.5714133126395,417.82142761775424,2,411.5714133126395,417.82142761775424,106.9,411.5714133126395,417.82142761775424,207.1,411.5714133126395,417.82142761775424,308.1,435.3214133126395,402.82142761775424,429,476.5714133126395,365.32142761775424,533.1,512.8214133126395,351.57142761775424,648.1,590.3214133126395,311.57142761775424,762.4,555.3214133126395,371.57142761775424,863.4,396.5714133126395,680.3214276177542,965.3,214.0714133126395,960.3214276177542,1069.4,99.0714133126395,960.3214276177542,1170.6,84.0714133126395,960.3214276177542,1280.9,391.5714133126395,949.0714276177542,1390.6,417.8214133126395,954.0714276177542,1496.4,417.8214133126395,954.0714276177542,1604.2,417.8214133126395,954.0714276177542,1705.9,417.8214133126395,954.0714276177542,1809.6,417.8214133126395,954.0714276177542,1918.9,417.8214133126395,954.0714276177542,2030.5,287.8214133126395,960.3214276177542,2132.8,282.8214133126395,960.3214276177542,2252.9,221.5714133126395,960.3214276177542,2358.4,165.3214133126395,960.3214276177542,2462.9,165.3214133126395,960.3214276177542,2570.6,-257.1785866873605,960.3214276177542,2672.7,-225.9285866873605,794.0714276177542,2778,216.5714133126395,557.8214276177542,2886.9,-197.1785866873605,930.3214276177542,2987.4,-130.9285866873605,836.5714276177542,3090.7,-137.1785866873605,921.5714276177542,3198.2,-153.4285866873605,960.3214276177542,3299.4,-132.1785866873605,957.8214276177542,3401.2,6.571413312639507,821.5714276177542,3507.6,6.571413312639507,816.5714276177542,3609.6,16.571413312639507,811.5714276177542,3713.3,17.821413312639507,807.8214276177542,3822.6,14.071413312639507,806.5714276177542,3925.4,14.071413312639507,806.5714276177542,4030.1,14.071413312639507,806.5714276177542,4132.6,14.071413312639507,806.5714276177542,4236.2,14.071413312639507,806.5714276177542,4344.6,14.071413312639507,806.5714276177542,4446.6,14.071413312639507,806.5714276177542,4560.4,14.071413312639507,806.5714276177542,4661.3,14.071413312639507,806.5714276177542,4765.3,14.071413312639507,806.5714276177542,4866.5,14.071413312639507,806.5714276177542,4973.5]","[2458.3,2458.3,1000,0,1458.3,""smooth"",""right"",""right"",""bad_move"",5893.5,3432.5,2639.3,2461,793.2,""smooth"",""left"",""left"",""good_move"",8749.9,2852.7,2528.6,5897.2,324.1,""smooth"",""left"",""left"",""good_move"",14925.3,6172.2,2092.5,12461.3,371.6,""smooth"",""left"",""left"",""good_move"",17632.3,2699.5,2314.3,14932.8,385.2,""smooth"",""left"",""left"",""good_move"",20382.1,2747.6,2365,17634.5,382.6,""smooth"",""down"",""down"",""good_move"",26315.1,5929.7,2294.8,23682.1,338.2,""smooth"",""down"",""down"",""good_move"",29153.5,2835,2471.4,26318.6,363.5,""while_blue"",""down"",""down"",""good_move""]","",""
"12884","","<div style=""width:500px;"">
  <p>What determined the result of this run?</p>
  </div>","100","html-slider-response","15","686658","0.0-5.0-1.1","258","1","2025-07-30 08:38:48","1f75c3e559b7213887762d5229550c2b","41.123.78.77","Mozilla/5.0 (Windows NT 10.0; Win64; x64) AppleWebKit/537.36 (KHTML, like Gecko) Chrome/138.0.0.0 Safari/537.36","WebKit","Chrome","138.0.0.0","Windows","10.0","https://app.prolific.com/","en-GB,en-US;q=0.9,en;q=0.8","67e074f58a5ea7d9897f3223","6877631c9844ddd5501205fc","6889d9bd48ca84a5cf301d8f","3","1","67e074f58a5ea7d9897f3223","3","1","2025-07-30T08:48:31.595Z","","","","","","","","","","","AttribQ","","50","","","","","","","","","","","","","","","","","","","","","","","","","","","","",""
"8328","","<div style=""width:500px;"">
  <p>How much control did you have over the ball?</p>
  </div>","76","html-slider-response","16","694994","0.0-5.0-2.1","258","1","2025-07-30 08:38:48","1f75c3e559b7213887762d5229550c2b","41.123.78.77","Mozilla/5.0 (Windows NT 10.0; Win64; x64) AppleWebKit/537.36 (KHTML, like Gecko) Chrome/138.0.0.0 Safari/537.36","WebKit","Chrome","138.0.0.0","Windows","10.0","https://app.prolific.com/","en-GB,en-US;q=0.9,en;q=0.8","67e074f58a5ea7d9897f3223","6877631c9844ddd5501205fc","6889d9bd48ca84a5cf301d8f","3","1","67e074f58a5ea7d9897f3223","3","1","2025-07-30T08:48:39.930Z","","","","","","","","","","","ControlQ","","50","","","","","","","","","","","","","","","","","","","","","","","","","","","","",""
"9338","","<div style=""width:500px;"">
  <p>How would you describe your current emotional state?</p>
  </div>","64","html-slider-response","17","704347","0.0-5.0-3.1","258","1","2025-07-30 08:38:48","1f75c3e559b7213887762d5229550c2b","41.123.78.77","Mozilla/5.0 (Windows NT 10.0; Win64; x64) AppleWebKit/537.36 (KHTML, like Gecko) Chrome/138.0.0.0 Safari/537.36","WebKit","Chrome","138.0.0.0","Windows","10.0","https://app.prolific.com/","en-GB,en-US;q=0.9,en;q=0.8","67e074f58a5ea7d9897f3223","6877631c9844ddd5501205fc","6889d9bd48ca84a5cf301d8f","3","1","67e074f58a5ea7d9897f3223","3","1","2025-07-30T08:48:49.283Z","","","","","","","","","","","StressQ","","50","","","","","","","","","","","","","","","","","","","","","","","","","","","","",""
"7633","","<div style=""width:500px;"">
  <p>What best describes how you currently feel?</p>
  </div>","4","html-slider-response","18","711995","0.0-5.0-4.1","258","1","2025-07-30 08:38:48","1f75c3e559b7213887762d5229550c2b","41.123.78.77","Mozilla/5.0 (Windows NT 10.0; Win64; x64) AppleWebKit/537.36 (KHTML, like Gecko) Chrome/138.0.0.0 Safari/537.36","WebKit","Chrome","138.0.0.0","Windows","10.0","https://app.prolific.com/","en-GB,en-US;q=0.9,en;q=0.8","67e074f58a5ea7d9897f3223","6877631c9844ddd5501205fc","6889d9bd48ca84a5cf301d8f","3","1","67e074f58a5ea7d9897f3223","3","1","2025-07-30T08:48:56.932Z","","","","","","","","","","","MotivationQ","","50","","","","","","","","","","","","","","","","","","","","","","","","","","","","",""
"","","","","ctl-task-cpt","19","765324","0.0-5.0-0.2","258","1","2025-07-30 08:38:48","1f75c3e559b7213887762d5229550c2b","41.123.78.77","Mozilla/5.0 (Windows NT 10.0; Win64; x64) AppleWebKit/537.36 (KHTML, like Gecko) Chrome/138.0.0.0 Safari/537.36","WebKit","Chrome","138.0.0.0","Windows","10.0","https://app.prolific.com/","en-GB,en-US;q=0.9,en;q=0.8","67e074f58a5ea7d9897f3223","6877631c9844ddd5501205fc","6889d9bd48ca84a5cf301d8f","3","1","67e074f58a5ea7d9897f3223","3","1","2025-07-30T08:49:50.260Z","","","","","","","","","","","","","","win-only","1","g1:NE,g2:SW","0.8","3","0","715470.4","1112.2","6115.2","50303.2","1","4","8","6","2","8","8","11","3","0.08333333333333333","2224.1","3000","105","[""down"",""left""]","{""num_key_presses"":10,""num_perfect"":8,""num_errors"":0,""num_randdir"":2,""num_randdir_good_moves"":0,""num_whilered"":0,""num_whileblue"":0,""num_blue"":4,""num_good_moves"":8}","[419.0714133126395,426.57142761775424,0.7,419.0714133126395,426.57142761775424,105.3,419.0714133126395,426.57142761775424,205.5,420.3214133126395,424.07142761775424,311.3,441.5714133126395,405.32142761775424,415,434.0714133126395,399.07142761775424,529,431.5714133126395,399.07142761775424,636.9,431.5714133126395,399.07142761775424,737.7,431.5714133126395,399.07142761775424,846.8,431.5714133126395,399.07142761775424,953.9,431.5714133126395,399.07142761775424,1055.4,431.5714133126395,399.07142761775424,1155.5,381.5714133126395,451.57142761775424,1259.1,312.8214133126395,529.0714276177542,1360.2,244.0714133126395,584.0714276177542,1464,195.3214133126395,629.0714276177542,1565.1,95.3214133126395,702.8214276177542,1674.9,61.57141331263951,762.8214276177542,1775.2,61.57141331263951,762.8214276177542,1879.3,61.57141331263951,762.8214276177542,1991.8,61.57141331263951,762.8214276177542,2092.6,61.57141331263951,762.8214276177542,2196.6,61.57141331263951,762.8214276177542,2304.2,61.57141331263951,762.8214276177542,2443.3,61.57141331263951,762.8214276177542,2546.9,61.57141331263951,762.8214276177542,2650.8,61.57141331263951,762.8214276177542,2767.3,61.57141331263951,762.8214276177542,2873.1,61.57141331263951,762.8214276177542,2974.2,61.57141331263951,762.8214276177542,3077.9,61.57141331263951,762.8214276177542,3182.2,61.57141331263951,762.8214276177542,3282.6,61.57141331263951,762.8214276177542,3383.6,61.57141331263951,762.8214276177542,3486.4,61.57141331263951,762.8214276177542,3591.8,61.57141331263951,762.8214276177542,3695.2,61.57141331263951,762.8214276177542,3795.2,61.57141331263951,762.8214276177542,3895.5,61.57141331263951,762.8214276177542,4002.5,61.57141331263951,762.8214276177542,4105.2,61.57141331263951,762.8214276177542,4207,61.57141331263951,762.8214276177542,4309.6,61.57141331263951,762.8214276177542,4416.7,61.57141331263951,762.8214276177542,4526,61.57141331263951,762.8214276177542,4627.5,61.57141331263951,762.8214276177542,4728,61.57141331263951,762.8214276177542,4831.3,61.57141331263951,762.8214276177542,4935]","[1864.5,1864.5,1000,0,864.5,""smooth"",""left"",""left"",""good_move"",8747.3,6879.3,2106.6,6260.9,379.8,""smooth"",""left"",""left"",""good_move"",11995,3246.8,2869,8748.2,377.8,""smooth"",""left"",""left"",""good_move"",14861.3,2864,2438.1,11997.3,425.9,""oops"",""down"",""up"",""bad_move"",21145.6,6281.4,3171.6,17650.6,323.4,""oops"",""up"",""up"",""bad_move"",24432.7,3285.8,2911.1,21147.2,374.7,""smooth"",""down"",""down"",""good_move"",27030.6,2594.5,2148.1,24436.2,446.4,""smooth"",""down"",""down"",""good_move"",34447.8,7413.8,2743.8,31257.5,446.5,""smooth"",""down"",""down"",""good_move"",40909,6452,2631.3,37838.4,439.3,""smooth"",""down"",""down"",""good_move"",44046,3131.8,2708.6,40914.2,423.2,""smooth"",""down"",""down"",""good_move""]","",""
"9155","","<div style=""width:500px;"">
  <p>What determined the result of this run?</p>
  </div>","100","html-slider-response","20","774484","0.0-5.0-1.2","258","1","2025-07-30 08:38:48","1f75c3e559b7213887762d5229550c2b","41.123.78.77","Mozilla/5.0 (Windows NT 10.0; Win64; x64) AppleWebKit/537.36 (KHTML, like Gecko) Chrome/138.0.0.0 Safari/537.36","WebKit","Chrome","138.0.0.0","Windows","10.0","https://app.prolific.com/","en-GB,en-US;q=0.9,en;q=0.8","67e074f58a5ea7d9897f3223","6877631c9844ddd5501205fc","6889d9bd48ca84a5cf301d8f","3","1","67e074f58a5ea7d9897f3223","3","1","2025-07-30T08:49:59.421Z","","","","","","","","","","","AttribQ","","50","","","","","","","","","","","","","","","","","","","","","","","","","","","","",""
"8318","","<div style=""width:500px;"">
  <p>How much control did you have over the ball?</p>
  </div>","82","html-slider-response","21","782813","0.0-5.0-2.2","258","1","2025-07-30 08:38:48","1f75c3e559b7213887762d5229550c2b","41.123.78.77","Mozilla/5.0 (Windows NT 10.0; Win64; x64) AppleWebKit/537.36 (KHTML, like Gecko) Chrome/138.0.0.0 Safari/537.36","WebKit","Chrome","138.0.0.0","Windows","10.0","https://app.prolific.com/","en-GB,en-US;q=0.9,en;q=0.8","67e074f58a5ea7d9897f3223","6877631c9844ddd5501205fc","6889d9bd48ca84a5cf301d8f","3","1","67e074f58a5ea7d9897f3223","3","1","2025-07-30T08:50:07.750Z","","","","","","","","","","","ControlQ","","50","","","","","","","","","","","","","","","","","","","","","","","","","","","","",""
"14430","","<div style=""width:500px;"">
  <p>How would you describe your current emotional state?</p>
  </div>","0","html-slider-response","22","797257","0.0-5.0-3.2","258","1","2025-07-30 08:38:48","1f75c3e559b7213887762d5229550c2b","41.123.78.77","Mozilla/5.0 (Windows NT 10.0; Win64; x64) AppleWebKit/537.36 (KHTML, like Gecko) Chrome/138.0.0.0 Safari/537.36","WebKit","Chrome","138.0.0.0","Windows","10.0","https://app.prolific.com/","en-GB,en-US;q=0.9,en;q=0.8","67e074f58a5ea7d9897f3223","6877631c9844ddd5501205fc","6889d9bd48ca84a5cf301d8f","3","1","67e074f58a5ea7d9897f3223","3","1","2025-07-30T08:50:22.193Z","","","","","","","","","","","StressQ","","50","","","","","","","","","","","","","","","","","","","","","","","","","","","","",""
"8520","","<div style=""width:500px;"">
  <p>What best describes how you currently feel?</p>
  </div>","100","html-slider-response","23","805787","0.0-5.0-4.2","258","1","2025-07-30 08:38:48","1f75c3e559b7213887762d5229550c2b","41.123.78.77","Mozilla/5.0 (Windows NT 10.0; Win64; x64) AppleWebKit/537.36 (KHTML, like Gecko) Chrome/138.0.0.0 Safari/537.36","WebKit","Chrome","138.0.0.0","Windows","10.0","https://app.prolific.com/","en-GB,en-US;q=0.9,en;q=0.8","67e074f58a5ea7d9897f3223","6877631c9844ddd5501205fc","6889d9bd48ca84a5cf301d8f","3","1","67e074f58a5ea7d9897f3223","3","1","2025-07-30T08:50:30.723Z","","","","","","","","","","","MotivationQ","","50","","","","","","","","","","","","","","","","","","","","","","","","","","","","",""
"","","","","ctl-task-cpt","24","865750","0.0-5.0-0.3","258","1","2025-07-30 08:38:48","1f75c3e559b7213887762d5229550c2b","41.123.78.77","Mozilla/5.0 (Windows NT 10.0; Win64; x64) AppleWebKit/537.36 (KHTML, like Gecko) Chrome/138.0.0.0 Safari/537.36","WebKit","Chrome","138.0.0.0","Windows","10.0","https://app.prolific.com/","en-GB,en-US;q=0.9,en;q=0.8","67e074f58a5ea7d9897f3223","6877631c9844ddd5501205fc","6889d9bd48ca84a5cf301d8f","3","1","67e074f58a5ea7d9897f3223","3","1","2025-07-30T08:51:30.686Z","","","","","","","","","","","","","","win-only","1","g1:NE,g2:SW","0.7","4","0","809259.3","4725.8","9732.5","56932.1","1","4","4","6","2","4","4","15","11","0.11363636363636363","1849.7","3000","425","[""down"",""left""]","{""num_key_presses"":6,""num_perfect"":5,""num_errors"":0,""num_randdir"":1,""num_randdir_good_moves"":1,""num_whilered"":0,""num_whileblue"":0,""num_blue"":8,""num_good_moves"":6}","[409.0714133126395,416.57142761775424,1.4,409.0714133126395,416.57142761775424,108.2,409.0714133126395,416.57142761775424,219.9,409.0714133126395,416.57142761775424,326.9,409.0714133126395,416.57142761775424,431.5,409.0714133126395,416.57142761775424,537.5,409.0714133126395,416.57142761775424,640.5,371.5714133126395,452.82142761775424,741.9,27.821413312639507,825.3214276177542,843,-38.42858668736049,870.3214276177542,943.5,-40.92858668736049,870.3214276177542,1044.4,-29.678586687360493,855.3214276177542,1150.4,40.32141331263951,805.3214276177542,1251.3,57.82141331263951,787.8214276177542,1360.3,59.07141331263951,784.0714276177542,1465.8,57.82141331263951,784.0714276177542,1567.1,57.82141331263951,784.0714276177542,1667.9,57.82141331263951,784.0714276177542,1771.3,57.82141331263951,784.0714276177542,1881,57.82141331263951,784.0714276177542,1981.9,57.82141331263951,784.0714276177542,2082.8,57.82141331263951,784.0714276177542,2188.5,57.82141331263951,784.0714276177542,2292.4,57.82141331263951,784.0714276177542,2392.5,57.82141331263951,784.0714276177542,2497.7,57.82141331263951,784.0714276177542,2607.9,57.82141331263951,784.0714276177542,2713.3,57.82141331263951,784.0714276177542,2814.5,57.82141331263951,784.0714276177542,2921.7,57.82141331263951,784.0714276177542,3025.5,56.57141331263951,784.0714276177542,3130,56.57141331263951,784.0714276177542,3233.2,56.57141331263951,784.0714276177542,3341.1,56.57141331263951,784.0714276177542,3446.6,56.57141331263951,784.0714276177542,3550.7,56.57141331263951,784.0714276177542,3657.8,56.57141331263951,784.0714276177542,3759.9,56.57141331263951,784.0714276177542,3863.4,56.57141331263951,784.0714276177542,3974.2,56.57141331263951,784.0714276177542,4088.1,56.57141331263951,784.0714276177542,4195.1,56.57141331263951,784.0714276177542,4304.8,57.82141331263951,782.8214276177542,4406.6,57.82141331263951,782.8214276177542,4526.7,57.82141331263951,782.8214276177542,4642.2,56.57141331263951,782.8214276177542,4758.7,56.57141331263951,784.0714276177542,4872,56.57141331263951,784.0714276177542,4979.3]","[1418.9,1418.9,1000,0,418.9,""smooth"",""left"",""left"",""good_move"",26301.8,24880.7,2437.6,23385.3,478.9,""smooth"",""left"",""left"",""good_move"",33069.3,6765.2,2153,30489.4,426.9,""smooth"",""left"",""left"",""good_move"",39148.4,6071.7,2303.7,36385.1,459.6,""smooth"",""down"",""down"",""good_move"",44226.7,5076.5,3431.9,39150.3,1644.6,""smooth"",""down"",""down"",""good_move"",47048.8,2819.6,2423.3,44229.2,396.3,""oops"",""down"",""down"",""good_move""]","",""
"12607","","<div style=""width:500px;"">
  <p>What determined the result of this run?</p>
  </div>","100","html-slider-response","25","878360","0.0-5.0-1.3","258","1","2025-07-30 08:38:48","1f75c3e559b7213887762d5229550c2b","41.123.78.77","Mozilla/5.0 (Windows NT 10.0; Win64; x64) AppleWebKit/537.36 (KHTML, like Gecko) Chrome/138.0.0.0 Safari/537.36","WebKit","Chrome","138.0.0.0","Windows","10.0","https://app.prolific.com/","en-GB,en-US;q=0.9,en;q=0.8","67e074f58a5ea7d9897f3223","6877631c9844ddd5501205fc","6889d9bd48ca84a5cf301d8f","3","1","67e074f58a5ea7d9897f3223","3","1","2025-07-30T08:51:43.296Z","","","","","","","","","","","AttribQ","","50","","","","","","","","","","","","","","","","","","","","","","","","","","","","",""
"6008","","<div style=""width:500px;"">
  <p>How much control did you have over the ball?</p>
  </div>","100","html-slider-response","26","884377","0.0-5.0-2.3","258","1","2025-07-30 08:38:48","1f75c3e559b7213887762d5229550c2b","41.123.78.77","Mozilla/5.0 (Windows NT 10.0; Win64; x64) AppleWebKit/537.36 (KHTML, like Gecko) Chrome/138.0.0.0 Safari/537.36","WebKit","Chrome","138.0.0.0","Windows","10.0","https://app.prolific.com/","en-GB,en-US;q=0.9,en;q=0.8","67e074f58a5ea7d9897f3223","6877631c9844ddd5501205fc","6889d9bd48ca84a5cf301d8f","3","1","67e074f58a5ea7d9897f3223","3","1","2025-07-30T08:51:49.313Z","","","","","","","","","","","ControlQ","","50","","","","","","","","","","","","","","","","","","","","","","","","","","","","",""
"14360","","<div style=""width:500px;"">
  <p>How would you describe your current emotional state?</p>
  </div>","0","html-slider-response","27","898746","0.0-5.0-3.3","258","1","2025-07-30 08:38:48","1f75c3e559b7213887762d5229550c2b","41.123.78.77","Mozilla/5.0 (Windows NT 10.0; Win64; x64) AppleWebKit/537.36 (KHTML, like Gecko) Chrome/138.0.0.0 Safari/537.36","WebKit","Chrome","138.0.0.0","Windows","10.0","https://app.prolific.com/","en-GB,en-US;q=0.9,en;q=0.8","67e074f58a5ea7d9897f3223","6877631c9844ddd5501205fc","6889d9bd48ca84a5cf301d8f","3","1","67e074f58a5ea7d9897f3223","3","1","2025-07-30T08:52:03.683Z","","","","","","","","","","","StressQ","","50","","","","","","","","","","","","","","","","","","","","","","","","","","","","",""
"8398","","<div style=""width:500px;"">
  <p>What best describes how you currently feel?</p>
  </div>","100","html-slider-response","28","907153","0.0-5.0-4.3","258","1","2025-07-30 08:38:48","1f75c3e559b7213887762d5229550c2b","41.123.78.77","Mozilla/5.0 (Windows NT 10.0; Win64; x64) AppleWebKit/537.36 (KHTML, like Gecko) Chrome/138.0.0.0 Safari/537.36","WebKit","Chrome","138.0.0.0","Windows","10.0","https://app.prolific.com/","en-GB,en-US;q=0.9,en;q=0.8","67e074f58a5ea7d9897f3223","6877631c9844ddd5501205fc","6889d9bd48ca84a5cf301d8f","3","1","67e074f58a5ea7d9897f3223","3","1","2025-07-30T08:52:12.089Z","","","","","","","","","","","MotivationQ","","50","","","","","","","","","","","","","","","","","","","","","","","","","","","","",""
"","","","","ctl-task-cpt","29","932730","0.0-5.0-0.4","258","1","2025-07-30 08:38:48","1f75c3e559b7213887762d5229550c2b","41.123.78.77","Mozilla/5.0 (Windows NT 10.0; Win64; x64) AppleWebKit/537.36 (KHTML, like Gecko) Chrome/138.0.0.0 Safari/537.36","WebKit","Chrome","138.0.0.0","Windows","10.0","https://app.prolific.com/","en-GB,en-US;q=0.9,en;q=0.8","67e074f58a5ea7d9897f3223","6877631c9844ddd5501205fc","6889d9bd48ca84a5cf301d8f","3","1","67e074f58a5ea7d9897f3223","3","1","2025-07-30T08:52:37.666Z","","","","","","","","","","","","","","win-only","0","g1:NW,g2:SE","0.6","5","0","910617.6","1586.3","6587.6","22556.6","1","4","8","6","2","8","8","23","15","0.17424242424242425","1515.7","3000","1440","[""down"",""right""]","{""num_key_presses"":6,""num_perfect"":4,""num_errors"":0,""num_randdir"":2,""num_randdir_good_moves"":2,""num_whilered"":0,""num_whileblue"":0,""num_blue"":0,""num_good_moves"":6}","[409.0714133126395,416.57142761775424,1.7,409.0714133126395,416.57142761775424,106.9,409.0714133126395,416.57142761775424,212.7,409.0714133126395,416.57142761775424,317.3,409.0714133126395,416.57142761775424,421.5,411.5714133126395,421.57142761775424,533.1,522.8214133126395,535.3214276177542,635.6,576.5714133126395,606.5714276177542,749.9,581.5714133126395,610.3214276177542,861.9,585.3214133126395,616.5714276177542,963.8,660.3214133126395,734.0714276177542,1067,709.0714133126395,796.5714276177542,1187.8,709.0714133126395,796.5714276177542,1291.7,716.5714133126395,791.5714276177542,1406.8,719.0714133126395,786.5714276177542,1522.1,721.5714133126395,786.5714276177542,1633.1,721.5714133126395,785.3214276177542,1742.7,721.5714133126395,785.3214276177542,1843.8,727.8214133126395,776.5714276177542,1960.4,751.5714133126395,752.8214276177542,2065.1,751.5714133126395,752.8214276177542,2174.5,755.3214133126395,745.3214276177542,2278.5,757.8214133126395,740.3214276177542,2380.5,757.8214133126395,740.3214276177542,2483.3,757.8214133126395,740.3214276177542,2588.7,765.3214133126395,746.5714276177542,2689.2,820.3214133126395,742.8214276177542,2796.4,821.5714133126395,741.5714276177542,2903.2,826.5714133126395,741.5714276177542,3004.9,1015.3214133126395,772.8214276177542,3109.2,1020.3214133126395,764.0714276177542,3209.3,1020.3214133126395,764.0714276177542,3314.5,1017.8214133126395,754.0714276177542,3418.4,1017.8214133126395,754.0714276177542,3545.3,1017.8214133126395,754.0714276177542,3648.5,1017.8214133126395,754.0714276177542,3750.6,1017.8214133126395,754.0714276177542,3863.7,1017.8214133126395,754.0714276177542,3968.9,1017.8214133126395,754.0714276177542,4070.4,1017.8214133126395,754.0714276177542,4171.8,1017.8214133126395,754.0714276177542,4273.8,1017.8214133126395,754.0714276177542,4389,1017.8214133126395,754.0714276177542,4490.1,1017.8214133126395,754.0714276177542,4595.4,1017.8214133126395,754.0714276177542,4701.5,1017.8214133126395,754.0714276177542,4805.4,1017.8214133126395,754.0714276177542,4920.7]","[1447.9,1447.9,1000,0,447.9,""smooth"",""right"",""right"",""good_move"",4548.2,3098.3,2471.3,1450,627,""smooth"",""right"",""right"",""good_move"",7634,3079.4,2683.1,4554.8,396.2,""oops"",""right"",""right"",""good_move"",10560.2,2922.5,2561.2,7637.7,361.4,""smooth"",""down"",""down"",""good_move"",13619.6,3052.7,2642.9,10566.9,409.8,""smooth"",""down"",""down"",""good_move"",15835.6,2212.7,1805.8,13622.9,406.9,""oops"",""down"",""down"",""good_move""]","",""
"9972","","<div style=""width:500px;"">
  <p>What determined the result of this run?</p>
  </div>","100","html-slider-response","30","942705","0.0-5.0-1.4","258","1","2025-07-30 08:38:48","1f75c3e559b7213887762d5229550c2b","41.123.78.77","Mozilla/5.0 (Windows NT 10.0; Win64; x64) AppleWebKit/537.36 (KHTML, like Gecko) Chrome/138.0.0.0 Safari/537.36","WebKit","Chrome","138.0.0.0","Windows","10.0","https://app.prolific.com/","en-GB,en-US;q=0.9,en;q=0.8","67e074f58a5ea7d9897f3223","6877631c9844ddd5501205fc","6889d9bd48ca84a5cf301d8f","3","1","67e074f58a5ea7d9897f3223","3","1","2025-07-30T08:52:47.643Z","","","","","","","","","","","AttribQ","","50","","","","","","","","","","","","","","","","","","","","","","","","","","","","",""
"8586","","<div style=""width:500px;"">
  <p>How much control did you have over the ball?</p>
  </div>","100","html-slider-response","31","951301","0.0-5.0-2.4","258","1","2025-07-30 08:38:48","1f75c3e559b7213887762d5229550c2b","41.123.78.77","Mozilla/5.0 (Windows NT 10.0; Win64; x64) AppleWebKit/537.36 (KHTML, like Gecko) Chrome/138.0.0.0 Safari/537.36","WebKit","Chrome","138.0.0.0","Windows","10.0","https://app.prolific.com/","en-GB,en-US;q=0.9,en;q=0.8","67e074f58a5ea7d9897f3223","6877631c9844ddd5501205fc","6889d9bd48ca84a5cf301d8f","3","1","67e074f58a5ea7d9897f3223","3","1","2025-07-30T08:52:56.237Z","","","","","","","","","","","ControlQ","","50","","","","","","","","","","","","","","","","","","","","","","","","","","","","",""
"8808","","<div style=""width:500px;"">
  <p>How would you describe your current emotional state?</p>
  </div>","0","html-slider-response","32","960114","0.0-5.0-3.4","258","1","2025-07-30 08:38:48","1f75c3e559b7213887762d5229550c2b","41.123.78.77","Mozilla/5.0 (Windows NT 10.0; Win64; x64) AppleWebKit/537.36 (KHTML, like Gecko) Chrome/138.0.0.0 Safari/537.36","WebKit","Chrome","138.0.0.0","Windows","10.0","https://app.prolific.com/","en-GB,en-US;q=0.9,en;q=0.8","67e074f58a5ea7d9897f3223","6877631c9844ddd5501205fc","6889d9bd48ca84a5cf301d8f","3","1","67e074f58a5ea7d9897f3223","3","1","2025-07-30T08:53:05.051Z","","","","","","","","","","","StressQ","","50","","","","","","","","","","","","","","","","","","","","","","","","","","","","",""
"9793","","<div style=""width:500px;"">
  <p>What best describes how you currently feel?</p>
  </div>","100","html-slider-response","33","969915","0.0-5.0-4.4","258","1","2025-07-30 08:38:48","1f75c3e559b7213887762d5229550c2b","41.123.78.77","Mozilla/5.0 (Windows NT 10.0; Win64; x64) AppleWebKit/537.36 (KHTML, like Gecko) Chrome/138.0.0.0 Safari/537.36","WebKit","Chrome","138.0.0.0","Windows","10.0","https://app.prolific.com/","en-GB,en-US;q=0.9,en;q=0.8","67e074f58a5ea7d9897f3223","6877631c9844ddd5501205fc","6889d9bd48ca84a5cf301d8f","3","1","67e074f58a5ea7d9897f3223","3","1","2025-07-30T08:53:14.852Z","","","","","","","","","","","MotivationQ","","50","","","","","","","","","","","","","","","","","","","","","","","","","","","","",""
"","","","","ctl-task-cpt","34","1019332","0.0-5.0-0.5","258","1","2025-07-30 08:38:48","1f75c3e559b7213887762d5229550c2b","41.123.78.77","Mozilla/5.0 (Windows NT 10.0; Win64; x64) AppleWebKit/537.36 (KHTML, like Gecko) Chrome/138.0.0.0 Safari/537.36","WebKit","Chrome","138.0.0.0","Windows","10.0","https://app.prolific.com/","en-GB,en-US;q=0.9,en;q=0.8","67e074f58a5ea7d9897f3223","6877631c9844ddd5501205fc","6889d9bd48ca84a5cf301d8f","3","1","67e074f58a5ea7d9897f3223","3","1","2025-07-30T08:54:04.268Z","","","","","","","","","","","","","","win-only","0","g1:NW,g2:SE","0.5","6","0","973376.9","2146.7","7154.7","46386.6","1","4","4","6","2","4","4","27","23","0.20454545454545456","1801.7","3000","540","[""down"",""right""]","{""num_key_presses"":10,""num_perfect"":5,""num_errors"":0,""num_randdir"":5,""num_randdir_good_moves"":3,""num_whilered"":0,""num_whileblue"":0,""num_blue"":3,""num_good_moves"":8}","[414.0714133126395,425.32142761775424,0.8,414.0714133126395,425.32142761775424,105.9,414.0714133126395,425.32142761775424,212.7,414.0714133126395,425.32142761775424,318.5,414.0714133126395,425.32142761775424,422.9,414.0714133126395,425.32142761775424,528.7,415.3214133126395,426.57142761775424,631.8,416.5714133126395,432.82142761775424,733.9,447.8214133126395,456.57142761775424,842,499.0714133126395,521.5714276177542,950.3,536.5714133126395,582.8214276177542,1055,661.5714133126395,781.5714276177542,1161.6,661.5714133126395,784.0714276177542,1265,661.5714133126395,784.0714276177542,1373.7,695.3214133126395,784.0714276177542,1477.7,700.3214133126395,782.8214276177542,1578.2,701.5714133126395,782.8214276177542,1679,701.5714133126395,782.8214276177542,1780.6,702.8214133126395,782.8214276177542,1890.7,702.8214133126395,782.8214276177542,1997.3,702.8214133126395,782.8214276177542,2102.1,730.3214133126395,782.8214276177542,2206.1,756.5714133126395,771.5714276177542,2308.2,766.5714133126395,771.5714276177542,2408.8,786.5714133126395,766.5714276177542,2509.3,796.5714133126395,761.5714276177542,2613.9,831.5714133126395,749.0714276177542,2720.8,840.3214133126395,745.3214276177542,2834.5,840.3214133126395,745.3214276177542,2941.1,856.5714133126395,766.5714276177542,3058.9,904.0714133126395,801.5714276177542,3164.7,916.5714133126395,806.5714276177542,3268,916.5714133126395,806.5714276177542,3384.9,916.5714133126395,806.5714276177542,3490.4,916.5714133126395,806.5714276177542,3594.7,916.5714133126395,806.5714276177542,3707.7,916.5714133126395,806.5714276177542,3808.9,916.5714133126395,806.5714276177542,3912.6,916.5714133126395,806.5714276177542,4017.2,916.5714133126395,806.5714276177542,4117.5,916.5714133126395,806.5714276177542,4232.9,916.5714133126395,806.5714276177542,4337.1,916.5714133126395,806.5714276177542,4443.3,916.5714133126395,806.5714276177542,4544.3,916.5714133126395,806.5714276177542,4654.6,916.5714133126395,806.5714276177542,4755.2,916.5714133126395,806.5714276177542,4855.3,916.5714133126395,806.5714276177542,4962.1]","[1398.9,1398.9,1000,0,398.9,""oops"",""right"",""right"",""good_move"",4815.2,3414.6,3007,1400.6,407.6,""oops"",""right"",""up"",""bad_move"",18705.6,13887.3,2356.4,15856.4,492.8,""smooth"",""right"",""right"",""good_move"",21146.5,2406,1763.4,18740.6,642.6,""smooth"",""right"",""right"",""good_move"",23617.6,2467.8,1948.9,21149.8,518.9,""oops"",""right"",""down"",""good_move"",26875.9,3254,2939,23622,314.9,""smooth"",""right"",""down"",""good_move"",30218.7,3337.2,2931.8,26881.6,405.4,""oops"",""right"",""up"",""bad_move"",33048,2827.3,2418.3,30220.8,409,""smooth"",""right"",""down"",""good_move"",36498.1,3446.2,3087.4,33051.9,358.8,""oops"",""right"",""down"",""good_move"",39032.3,2526.9,2157.6,36505.4,369.3,""smooth"",""right"",""down"",""good_move""]","",""
"8597","","<div style=""width:500px;"">
  <p>What determined the result of this run?</p>
  </div>","100","html-slider-response","35","1027930","0.0-5.0-1.5","258","1","2025-07-30 08:38:48","1f75c3e559b7213887762d5229550c2b","41.123.78.77","Mozilla/5.0 (Windows NT 10.0; Win64; x64) AppleWebKit/537.36 (KHTML, like Gecko) Chrome/138.0.0.0 Safari/537.36","WebKit","Chrome","138.0.0.0","Windows","10.0","https://app.prolific.com/","en-GB,en-US;q=0.9,en;q=0.8","67e074f58a5ea7d9897f3223","6877631c9844ddd5501205fc","6889d9bd48ca84a5cf301d8f","3","1","67e074f58a5ea7d9897f3223","3","1","2025-07-30T08:54:12.866Z","","","","","","","","","","","AttribQ","","50","","","","","","","","","","","","","","","","","","","","","","","","","","","","",""
"20425","","<div style=""width:500px;"">
  <p>How much control did you have over the ball?</p>
  </div>","74","html-slider-response","36","1048360","0.0-5.0-2.5","258","1","2025-07-30 08:38:48","1f75c3e559b7213887762d5229550c2b","41.123.78.77","Mozilla/5.0 (Windows NT 10.0; Win64; x64) AppleWebKit/537.36 (KHTML, like Gecko) Chrome/138.0.0.0 Safari/537.36","WebKit","Chrome","138.0.0.0","Windows","10.0","https://app.prolific.com/","en-GB,en-US;q=0.9,en;q=0.8","67e074f58a5ea7d9897f3223","6877631c9844ddd5501205fc","6889d9bd48ca84a5cf301d8f","3","1","67e074f58a5ea7d9897f3223","3","1","2025-07-30T08:54:33.296Z","","","","","","","","","","","ControlQ","","50","","","","","","","","","","","","","","","","","","","","","","","","","","","","",""
"5704","","<div style=""width:500px;"">
  <p>How would you describe your current emotional state?</p>
  </div>","0","html-slider-response","37","1054070","0.0-5.0-3.5","258","1","2025-07-30 08:38:48","1f75c3e559b7213887762d5229550c2b","41.123.78.77","Mozilla/5.0 (Windows NT 10.0; Win64; x64) AppleWebKit/537.36 (KHTML, like Gecko) Chrome/138.0.0.0 Safari/537.36","WebKit","Chrome","138.0.0.0","Windows","10.0","https://app.prolific.com/","en-GB,en-US;q=0.9,en;q=0.8","67e074f58a5ea7d9897f3223","6877631c9844ddd5501205fc","6889d9bd48ca84a5cf301d8f","3","1","67e074f58a5ea7d9897f3223","3","1","2025-07-30T08:54:39.006Z","","","","","","","","","","","StressQ","","50","","","","","","","","","","","","","","","","","","","","","","","","","","","","",""
"21600","","<div style=""width:500px;"">
  <p>What best describes how you currently feel?</p>
  </div>","100","html-slider-response","38","1075675","0.0-5.0-4.5","258","1","2025-07-30 08:38:48","1f75c3e559b7213887762d5229550c2b","41.123.78.77","Mozilla/5.0 (Windows NT 10.0; Win64; x64) AppleWebKit/537.36 (KHTML, like Gecko) Chrome/138.0.0.0 Safari/537.36","WebKit","Chrome","138.0.0.0","Windows","10.0","https://app.prolific.com/","en-GB,en-US;q=0.9,en;q=0.8","67e074f58a5ea7d9897f3223","6877631c9844ddd5501205fc","6889d9bd48ca84a5cf301d8f","3","1","67e074f58a5ea7d9897f3223","3","1","2025-07-30T08:55:00.612Z","","","","","","","","","","","MotivationQ","","50","","","","","","","","","","","","","","","","","","","","","","","","","","","","",""
"","","","","ctl-task-cpt","39","1102599","0.0-5.0-0.6","258","1","2025-07-30 08:38:48","1f75c3e559b7213887762d5229550c2b","41.123.78.77","Mozilla/5.0 (Windows NT 10.0; Win64; x64) AppleWebKit/537.36 (KHTML, like Gecko) Chrome/138.0.0.0 Safari/537.36","WebKit","Chrome","138.0.0.0","Windows","10.0","https://app.prolific.com/","en-GB,en-US;q=0.9,en;q=0.8","67e074f58a5ea7d9897f3223","6877631c9844ddd5501205fc","6889d9bd48ca84a5cf301d8f","3","1","67e074f58a5ea7d9897f3223","3","1","2025-07-30T08:55:27.535Z","","","","","","","","","","","","","","win-only","1","g1:NE,g2:SW","0.4","7","0","1079140.2","1853.3","6871.4","23897.7","1","4","4","6","2","4","4","31","27","0.23484848484848486","1450.1","3000","1775","[""down"",""left""]","{""num_key_presses"":6,""num_perfect"":3,""num_errors"":0,""num_randdir"":3,""num_randdir_good_moves"":3,""num_whilered"":0,""num_whileblue"":0,""num_blue"":0,""num_good_moves"":6}","[409.0714133126395,420.32142761775424,0.9,409.0714133126395,420.32142761775424,103,409.0714133126395,420.32142761775424,204.9,409.0714133126395,424.07142761775424,317.7,372.8214133126395,467.82142761775424,426.4,361.5714133126395,476.57142761775424,530.3,185.3214133126395,594.0714276177542,643.4,150.3214133126395,657.8214276177542,765.4,51.57141331263951,811.5714276177542,866.7,46.57141331263951,834.0714276177542,966.9,46.57141331263951,835.3214276177542,1077.1,46.57141331263951,831.5714276177542,1182.2,62.82141331263951,729.0714276177542,1295.8,64.0714133126395,712.8214276177542,1400,64.0714133126395,712.8214276177542,1504,64.0714133126395,712.8214276177542,1610.5,64.0714133126395,716.5714276177542,1725.2,75.3214133126395,736.5714276177542,1833.3,202.8214133126395,760.3214276177542,1937.3,357.8214133126395,754.0714276177542,2040.4,576.5714133126395,781.5714276177542,2142.9,712.8214133126395,769.0714276177542,2243.9,749.0714133126395,754.0714276177542,2349.3,761.5714133126395,737.8214276177542,2458.4,781.5714133126395,704.0714276177542,2564,787.8214133126395,700.3214276177542,2665.3,834.0714133126395,700.3214276177542,2767.7,835.3214133126395,699.0714276177542,2870.1,835.3214133126395,696.5714276177542,2985.5,835.3214133126395,696.5714276177542,3093.9,835.3214133126395,696.5714276177542,3204.5,835.3214133126395,696.5714276177542,3315.1,835.3214133126395,696.5714276177542,3424.1,835.3214133126395,696.5714276177542,3529.4,835.3214133126395,696.5714276177542,3642.3,835.3214133126395,696.5714276177542,3743,835.3214133126395,696.5714276177542,3852.1,835.3214133126395,696.5714276177542,3957.3,835.3214133126395,696.5714276177542,4068.6,835.3214133126395,696.5714276177542,4185.5,835.3214133126395,696.5714276177542,4290.7,835.3214133126395,696.5714276177542,4395.4,835.3214133126395,696.5714276177542,4499.4,835.3214133126395,696.5714276177542,4607.6,835.3214133126395,696.5714276177542,4712.2,835.3214133126395,696.5714276177542,4822.3,835.3214133126395,696.5714276177542,4929.2]","[1369.8,1369.8,1000,0,369.8,""smooth"",""left"",""left"",""good_move"",4293.9,2919.7,2561.3,1374.2,358.4,""smooth"",""left"",""left"",""good_move"",7592,3292,2876.9,4300,415.1,""oops"",""left"",""left"",""good_move"",10592.2,2986.8,2511.6,7605.4,475.2,""oops"",""down"",""down"",""good_move"",13991.5,3394.7,3038.9,10596.8,355.8,""oops"",""down"",""down"",""good_move"",16858.3,2861.4,2474.6,13996.9,386.9,""smooth"",""down"",""down"",""good_move""]","",""
"6111","","<div style=""width:500px;"">
  <p>What determined the result of this run?</p>
  </div>","100","html-slider-response","40","1108712","0.0-5.0-1.6","258","1","2025-07-30 08:38:48","1f75c3e559b7213887762d5229550c2b","41.123.78.77","Mozilla/5.0 (Windows NT 10.0; Win64; x64) AppleWebKit/537.36 (KHTML, like Gecko) Chrome/138.0.0.0 Safari/537.36","WebKit","Chrome","138.0.0.0","Windows","10.0","https://app.prolific.com/","en-GB,en-US;q=0.9,en;q=0.8","67e074f58a5ea7d9897f3223","6877631c9844ddd5501205fc","6889d9bd48ca84a5cf301d8f","3","1","67e074f58a5ea7d9897f3223","3","1","2025-07-30T08:55:33.650Z","","","","","","","","","","","AttribQ","","50","","","","","","","","","","","","","","","","","","","","","","","","","","","","",""
"6627","","<div style=""width:500px;"">
  <p>How much control did you have over the ball?</p>
  </div>","78","html-slider-response","41","1115347","0.0-5.0-2.6","258","1","2025-07-30 08:38:48","1f75c3e559b7213887762d5229550c2b","41.123.78.77","Mozilla/5.0 (Windows NT 10.0; Win64; x64) AppleWebKit/537.36 (KHTML, like Gecko) Chrome/138.0.0.0 Safari/537.36","WebKit","Chrome","138.0.0.0","Windows","10.0","https://app.prolific.com/","en-GB,en-US;q=0.9,en;q=0.8","67e074f58a5ea7d9897f3223","6877631c9844ddd5501205fc","6889d9bd48ca84a5cf301d8f","3","1","67e074f58a5ea7d9897f3223","3","1","2025-07-30T08:55:40.284Z","","","","","","","","","","","ControlQ","","50","","","","","","","","","","","","","","","","","","","","","","","","","","","","",""
"9137","","<div style=""width:500px;"">
  <p>How would you describe your current emotional state?</p>
  </div>","0","html-slider-response","42","1124491","0.0-5.0-3.6","258","1","2025-07-30 08:38:48","1f75c3e559b7213887762d5229550c2b","41.123.78.77","Mozilla/5.0 (Windows NT 10.0; Win64; x64) AppleWebKit/537.36 (KHTML, like Gecko) Chrome/138.0.0.0 Safari/537.36","WebKit","Chrome","138.0.0.0","Windows","10.0","https://app.prolific.com/","en-GB,en-US;q=0.9,en;q=0.8","67e074f58a5ea7d9897f3223","6877631c9844ddd5501205fc","6889d9bd48ca84a5cf301d8f","3","1","67e074f58a5ea7d9897f3223","3","1","2025-07-30T08:55:49.427Z","","","","","","","","","","","StressQ","","50","","","","","","","","","","","","","","","","","","","","","","","","","","","","",""
"10077","","<div style=""width:500px;"">
  <p>What best describes how you currently feel?</p>
  </div>","99","html-slider-response","43","1134574","0.0-5.0-4.6","258","1","2025-07-30 08:38:48","1f75c3e559b7213887762d5229550c2b","41.123.78.77","Mozilla/5.0 (Windows NT 10.0; Win64; x64) AppleWebKit/537.36 (KHTML, like Gecko) Chrome/138.0.0.0 Safari/537.36","WebKit","Chrome","138.0.0.0","Windows","10.0","https://app.prolific.com/","en-GB,en-US;q=0.9,en;q=0.8","67e074f58a5ea7d9897f3223","6877631c9844ddd5501205fc","6889d9bd48ca84a5cf301d8f","3","1","67e074f58a5ea7d9897f3223","3","1","2025-07-30T08:55:59.511Z","","","","","","","","","","","MotivationQ","","50","","","","","","","","","","","","","","","","","","","","","","","","","","","","",""
"","","","","ctl-task-cpt","44","1190374","0.0-5.0-0.7","258","1","2025-07-30 08:38:48","1f75c3e559b7213887762d5229550c2b","41.123.78.77","Mozilla/5.0 (Windows NT 10.0; Win64; x64) AppleWebKit/537.36 (KHTML, like Gecko) Chrome/138.0.0.0 Safari/537.36","WebKit","Chrome","138.0.0.0","Windows","10.0","https://app.prolific.com/","en-GB,en-US;q=0.9,en;q=0.8","67e074f58a5ea7d9897f3223","6877631c9844ddd5501205fc","6889d9bd48ca84a5cf301d8f","3","1","67e074f58a5ea7d9897f3223","3","1","2025-07-30T08:56:55.310Z","","","","","","","","","","","","","","win-only","1","g1:NE,g2:SW","0.3","8","0","1138040.2","2713.4","7719.1","52773.2","1","4","8","6","2","-8","-9","22","31","0.16666666666666666","3340.7","3000","-1480","[""down"",""left""]","{""num_key_presses"":13,""num_perfect"":4,""num_errors"":1,""num_randdir"":8,""num_randdir_good_moves"":2,""num_whilered"":0,""num_whileblue"":0,""num_blue"":2,""num_good_moves"":6}","[407.8214133126395,407.82142761775424,0.9,407.8214133126395,407.82142761775424,107.4,407.8214133126395,407.82142761775424,213.6,407.8214133126395,407.82142761775424,328.1,407.8214133126395,407.82142761775424,436.9,400.3214133126395,407.82142761775424,539.8,314.0714133126395,461.57142761775424,647.3,231.5714133126395,514.0714276177542,762,216.5714133126395,527.8214276177542,867.9,191.5714133126395,554.0714276177542,970.2,66.5714133126395,649.0714276177542,1073.7,41.57141331263951,679.0714276177542,1182.3,35.32141331263951,690.3214276177542,1284.1,41.57141331263951,696.5714276177542,1391.3,46.57141331263951,697.8214276177542,1494.1,47.82141331263951,697.8214276177542,1607.9,36.57141331263951,690.3214276177542,1713.3,36.57141331263951,690.3214276177542,1822.6,36.57141331263951,690.3214276177542,1931.7,36.57141331263951,690.3214276177542,2037.6,36.57141331263951,690.3214276177542,2141,36.57141331263951,690.3214276177542,2248.3,36.57141331263951,690.3214276177542,2357.4,36.57141331263951,690.3214276177542,2459.6,36.57141331263951,692.8214276177542,2560.9,54.07141331263951,800.3214276177542,2682.9,71.5714133126395,960.3214276177542,2783.7,71.5714133126395,946.5714276177542,2885.3,71.5714133126395,914.0714276177542,2988.1,95.3214133126395,787.8214276177542,3096.1,100.3214133126395,779.0714276177542,3198.5,101.5714133126395,779.0714276177542,3300.4,101.5714133126395,779.0714276177542,3403.4,100.3214133126395,779.0714276177542,3506.6,100.3214133126395,779.0714276177542,3616.7,102.8214133126395,777.8214276177542,3727.2,174.0714133126395,707.8214276177542,3832.6,205.3214133126395,675.3214276177542,3949.2,346.5714133126395,596.5714276177542,4056.3,469.0714133126395,612.8214276177542,4156.5,600.3214133126395,651.5714276177542,4256.9,600.3214133126395,651.5714276177542,4359,600.3214133126395,651.5714276177542,4471.3,600.3214133126395,651.5714276177542,4572.6,600.3214133126395,651.5714276177542,4676,600.3214133126395,651.5714276177542,4786.1,600.3214133126395,651.5714276177542,4891.5,600.3214133126395,651.5714276177542,4995.3]","[2318.3,2318.3,1000,0,1318.3,""oops"",""left"",""up"",""bad_move"",4730.6,2408.4,1660,2322.4,748.3,""oops"",""left"",""up"",""bad_move"",7530.8,2795.6,2408.2,4735.3,387.4,""oops"",""left"",""right"",""bad_move"",9395.5,1860.2,3085.9,7535.3,-1225.7,""error"",""-"",""-"",""no_move"",13428.6,4029.8,2343.8,10407.3,677.5,""smooth"",""down"",""down"",""good_move"",19100,5668.2,2215,16450.5,434.6,""smooth"",""down"",""down"",""good_move"",25917.9,6813.6,3085.2,22407.8,424.9,""oops"",""down"",""left"",""good_move"",29023.5,3101.4,2657.1,25922.1,444.3,""oops"",""down"",""up"",""bad_move"",32035.1,3005.2,2542.9,29029.9,462.3,""oops"",""down"",""left"",""good_move"",34410.7,2372.5,1781.9,32038.4,590.4,""smooth"",""down"",""down"",""good_move"",36633.1,2218.3,1726.7,34414.8,491.6,""oops"",""down"",""right"",""bad_move"",39082.2,2443.6,2059.4,36638.6,384.2,""smooth"",""left"",""left"",""good_move"",42033.9,2944.5,2570.1,39089.5,374.4,""oops"",""left"",""up"",""bad_move""]","",""
"6769","","<div style=""width:500px;"">
  <p>What determined the result of this run?</p>
  </div>","0","html-slider-response","45","1197182","0.0-5.0-1.7","258","1","2025-07-30 08:38:48","1f75c3e559b7213887762d5229550c2b","41.123.78.77","Mozilla/5.0 (Windows NT 10.0; Win64; x64) AppleWebKit/537.36 (KHTML, like Gecko) Chrome/138.0.0.0 Safari/537.36","WebKit","Chrome","138.0.0.0","Windows","10.0","https://app.prolific.com/","en-GB,en-US;q=0.9,en;q=0.8","67e074f58a5ea7d9897f3223","6877631c9844ddd5501205fc","6889d9bd48ca84a5cf301d8f","3","1","67e074f58a5ea7d9897f3223","3","1","2025-07-30T08:57:02.118Z","","","","","","","","","","","AttribQ","","50","","","","","","","","","","","","","","","","","","","","","","","","","","","","",""
"4443","","<div style=""width:500px;"">
  <p>How much control did you have over the ball?</p>
  </div>","0","html-slider-response","46","1201631","0.0-5.0-2.7","258","1","2025-07-30 08:38:48","1f75c3e559b7213887762d5229550c2b","41.123.78.77","Mozilla/5.0 (Windows NT 10.0; Win64; x64) AppleWebKit/537.36 (KHTML, like Gecko) Chrome/138.0.0.0 Safari/537.36","WebKit","Chrome","138.0.0.0","Windows","10.0","https://app.prolific.com/","en-GB,en-US;q=0.9,en;q=0.8","67e074f58a5ea7d9897f3223","6877631c9844ddd5501205fc","6889d9bd48ca84a5cf301d8f","3","1","67e074f58a5ea7d9897f3223","3","1","2025-07-30T08:57:06.567Z","","","","","","","","","","","ControlQ","","50","","","","","","","","","","","","","","","","","","","","","","","","","","","","",""
"6896","","<div style=""width:500px;"">
  <p>How would you describe your current emotional state?</p>
  </div>","100","html-slider-response","47","1208535","0.0-5.0-3.7","258","1","2025-07-30 08:38:48","1f75c3e559b7213887762d5229550c2b","41.123.78.77","Mozilla/5.0 (Windows NT 10.0; Win64; x64) AppleWebKit/537.36 (KHTML, like Gecko) Chrome/138.0.0.0 Safari/537.36","WebKit","Chrome","138.0.0.0","Windows","10.0","https://app.prolific.com/","en-GB,en-US;q=0.9,en;q=0.8","67e074f58a5ea7d9897f3223","6877631c9844ddd5501205fc","6889d9bd48ca84a5cf301d8f","3","1","67e074f58a5ea7d9897f3223","3","1","2025-07-30T08:57:13.471Z","","","","","","","","","","","StressQ","","50","","","","","","","","","","","","","","","","","","","","","","","","","","","","",""
"4884","","<div style=""width:500px;"">
  <p>What best describes how you currently feel?</p>
  </div>","0","html-slider-response","48","1213427","0.0-5.0-4.7","258","1","2025-07-30 08:38:48","1f75c3e559b7213887762d5229550c2b","41.123.78.77","Mozilla/5.0 (Windows NT 10.0; Win64; x64) AppleWebKit/537.36 (KHTML, like Gecko) Chrome/138.0.0.0 Safari/537.36","WebKit","Chrome","138.0.0.0","Windows","10.0","https://app.prolific.com/","en-GB,en-US;q=0.9,en;q=0.8","67e074f58a5ea7d9897f3223","6877631c9844ddd5501205fc","6889d9bd48ca84a5cf301d8f","3","1","67e074f58a5ea7d9897f3223","3","1","2025-07-30T08:57:18.364Z","","","","","","","","","","","MotivationQ","","50","","","","","","","","","","","","","","","","","","","","","","","","","","","","",""
"","","","","ctl-task-cpt","49","1278381","0.0-5.0-0.8","258","1","2025-07-30 08:38:48","1f75c3e559b7213887762d5229550c2b","41.123.78.77","Mozilla/5.0 (Windows NT 10.0; Win64; x64) AppleWebKit/537.36 (KHTML, like Gecko) Chrome/138.0.0.0 Safari/537.36","WebKit","Chrome","138.0.0.0","Windows","10.0","https://app.prolific.com/","en-GB,en-US;q=0.9,en;q=0.8","67e074f58a5ea7d9897f3223","6877631c9844ddd5501205fc","6889d9bd48ca84a5cf301d8f","3","1","67e074f58a5ea7d9897f3223","3","1","2025-07-30T08:58:23.320Z","","","","","","","","","","","","","","win-only","1","g1:NE,g2:SW","0.2","9","0","1216890.5","1380.7","6382.6","61927.4","1","4","4","6","2","-4","-4","18","22","0.13636363636363635","1131.6","3000","-1110","[""down"",""left""]","{""num_key_presses"":16,""num_perfect"":2,""num_errors"":0,""num_randdir"":14,""num_randdir_good_moves"":8,""num_whilered"":0,""num_whileblue"":0,""num_blue"":2,""num_good_moves"":9}","[415.3214133126395,414.07142761775424,4.8,414.0714133126395,414.07142761775424,105.7,414.0714133126395,414.07142761775424,206.7,414.0714133126395,414.07142761775424,313.1,400.3214133126395,424.07142761775424,420.5,305.3214133126395,527.8214276177542,523.4,96.5714133126395,691.5714276177542,624.7,34.07141331263951,761.5714276177542,740,30.321413312639507,771.5714276177542,851,36.57141331263951,770.3214276177542,952.9,69.0714133126395,739.0714276177542,1060,70.3214133126395,736.5714276177542,1168.4,71.5714133126395,736.5714276177542,1270.2,71.5714133126395,736.5714276177542,1374.7,71.5714133126395,736.5714276177542,1484.5,105.3214133126395,731.5714276177542,1591.9,212.8214133126395,670.3214276177542,1694.8,261.5714133126395,639.0714276177542,1816.3,286.5714133126395,622.8214276177542,1929.6,401.5714133126395,507.82142761775424,2035.1,475.3214133126395,406.57142761775424,2148.6,480.3214133126395,394.07142761775424,2260.8,487.8214133126395,384.07142761775424,2365.3,489.0714133126395,381.57142761775424,2465.8,489.0714133126395,381.57142761775424,2568.5,489.0714133126395,381.57142761775424,2668.9,489.0714133126395,381.57142761775424,2778,489.0714133126395,381.57142761775424,2892.4,489.0714133126395,381.57142761775424,3000.4,489.0714133126395,381.57142761775424,3102.6,489.0714133126395,381.57142761775424,3212.3,495.3214133126395,391.57142761775424,3321.7,496.5714133126395,391.57142761775424,3428.7,496.5714133126395,391.57142761775424,3536.6,496.5714133126395,390.32142761775424,3648.1,487.8214133126395,391.57142761775424,3760.5,456.5714133126395,397.82142761775424,3878.1,425.3214133126395,412.82142761775424,3992.3,414.0714133126395,421.57142761775424,4099.8,414.0714133126395,422.82142761775424,4219.2,481.5714133126395,441.57142761775424,4325.9,560.3214133126395,461.57142761775424,4434,560.3214133126395,461.57142761775424,4537.2,560.3214133126395,461.57142761775424,4641.1,560.3214133126395,461.57142761775424,4743.4,560.3214133126395,461.57142761775424,4849.5,560.3214133126395,461.57142761775424,4957.1]","[1611.5,1611.5,1000,0,611.5,""oops"",""left"",""right"",""bad_move"",4095.5,2480,1819.3,1615.5,660.7,""oops"",""down"",""down"",""good_move"",6676.1,2573.8,2166.7,4102.4,407.2,""oops"",""down"",""left"",""good_move"",9597.1,2917.6,2528.3,6679.5,389.4,""oops"",""down"",""left"",""good_move"",12806.9,3205.6,2788.4,9601.4,417.2,""oops"",""down"",""left"",""good_move"",15980.6,3168.8,2787.2,12811.8,381.6,""smooth"",""down"",""down"",""good_move"",18745.1,2759.9,2226,15985.3,533.9,""oops"",""left"",""right"",""bad_move"",21411.7,2662.6,2276.2,18749.1,386.4,""oops"",""down"",""down"",""good_move"",24539.1,3122.9,2736.7,21416.2,386.2,""oops"",""left"",""right"",""bad_move"",26976.9,2432.1,1965,24544.8,467.1,""smooth"",""right"",""right"",""bad_move"",30263,3280.5,2878.4,26982.6,402,""oops"",""left"",""right"",""bad_move"",33026.6,2759.1,2407.9,30267.5,351.2,""oops"",""left"",""left"",""good_move"",36676.8,3646.4,3310.6,33030.4,335.8,""oops"",""left"",""right"",""bad_move"",39841.3,3159.4,2652.5,36681.9,506.9,""oops"",""left"",""left"",""good_move"",42659.5,2812.5,2034.7,39847.1,777.8,""oops"",""left"",""right"",""bad_move"",49175.6,6513.2,2382.2,46463.4,330,""oops"",""left"",""left"",""good_move""]","",""
"6242","","<div style=""width:500px;"">
  <p>What determined the result of this run?</p>
  </div>","0","html-slider-response","50","1284632","0.0-5.0-1.8","258","1","2025-07-30 08:38:48","1f75c3e559b7213887762d5229550c2b","41.123.78.77","Mozilla/5.0 (Windows NT 10.0; Win64; x64) AppleWebKit/537.36 (KHTML, like Gecko) Chrome/138.0.0.0 Safari/537.36","WebKit","Chrome","138.0.0.0","Windows","10.0","https://app.prolific.com/","en-GB,en-US;q=0.9,en;q=0.8","67e074f58a5ea7d9897f3223","6877631c9844ddd5501205fc","6889d9bd48ca84a5cf301d8f","3","1","67e074f58a5ea7d9897f3223","3","1","2025-07-30T08:58:29.569Z","","","","","","","","","","","AttribQ","","50","","","","","","","","","","","","","","","","","","","","","","","","","","","","",""
"4686","","<div style=""width:500px;"">
  <p>How much control did you have over the ball?</p>
  </div>","0","html-slider-response","51","1289325","0.0-5.0-2.8","258","1","2025-07-30 08:38:48","1f75c3e559b7213887762d5229550c2b","41.123.78.77","Mozilla/5.0 (Windows NT 10.0; Win64; x64) AppleWebKit/537.36 (KHTML, like Gecko) Chrome/138.0.0.0 Safari/537.36","WebKit","Chrome","138.0.0.0","Windows","10.0","https://app.prolific.com/","en-GB,en-US;q=0.9,en;q=0.8","67e074f58a5ea7d9897f3223","6877631c9844ddd5501205fc","6889d9bd48ca84a5cf301d8f","3","1","67e074f58a5ea7d9897f3223","3","1","2025-07-30T08:58:34.262Z","","","","","","","","","","","ControlQ","","50","","","","","","","","","","","","","","","","","","","","","","","","","","","","",""
"5765","","<div style=""width:500px;"">
  <p>How would you describe your current emotional state?</p>
  </div>","100","html-slider-response","52","1295095","0.0-5.0-3.8","258","1","2025-07-30 08:38:48","1f75c3e559b7213887762d5229550c2b","41.123.78.77","Mozilla/5.0 (Windows NT 10.0; Win64; x64) AppleWebKit/537.36 (KHTML, like Gecko) Chrome/138.0.0.0 Safari/537.36","WebKit","Chrome","138.0.0.0","Windows","10.0","https://app.prolific.com/","en-GB,en-US;q=0.9,en;q=0.8","67e074f58a5ea7d9897f3223","6877631c9844ddd5501205fc","6889d9bd48ca84a5cf301d8f","3","1","67e074f58a5ea7d9897f3223","3","1","2025-07-30T08:58:40.031Z","","","","","","","","","","","StressQ","","50","","","","","","","","","","","","","","","","","","","","","","","","","","","","",""
"5234","","<div style=""width:500px;"">
  <p>What best describes how you currently feel?</p>
  </div>","0","html-slider-response","53","1300335","0.0-5.0-4.8","258","1","2025-07-30 08:38:48","1f75c3e559b7213887762d5229550c2b","41.123.78.77","Mozilla/5.0 (Windows NT 10.0; Win64; x64) AppleWebKit/537.36 (KHTML, like Gecko) Chrome/138.0.0.0 Safari/537.36","WebKit","Chrome","138.0.0.0","Windows","10.0","https://app.prolific.com/","en-GB,en-US;q=0.9,en;q=0.8","67e074f58a5ea7d9897f3223","6877631c9844ddd5501205fc","6889d9bd48ca84a5cf301d8f","3","1","67e074f58a5ea7d9897f3223","3","1","2025-07-30T08:58:45.271Z","","","","","","","","","","","MotivationQ","","50","","","","","","","","","","","","","","","","","","","","","","","","","","","","",""
"","","","","ctl-task-cpt","54","1341527","0.0-5.0-0.9","258","1","2025-07-30 08:38:48","1f75c3e559b7213887762d5229550c2b","41.123.78.77","Mozilla/5.0 (Windows NT 10.0; Win64; x64) AppleWebKit/537.36 (KHTML, like Gecko) Chrome/138.0.0.0 Safari/537.36","WebKit","Chrome","138.0.0.0","Windows","10.0","https://app.prolific.com/","en-GB,en-US;q=0.9,en;q=0.8","67e074f58a5ea7d9897f3223","6877631c9844ddd5501205fc","6889d9bd48ca84a5cf301d8f","3","1","67e074f58a5ea7d9897f3223","3","1","2025-07-30T08:59:26.464Z","","","","","","","","","","","","","","win-only","0","g1:NW,g2:SE","0.4","10","0","1303799","1412","6415.9","38156.7","1","4","8","6","2","8","8","26","18","0.19696969696969696","1630.2","3000","1510","[""down"",""right""]","{""num_key_presses"":8,""num_perfect"":4,""num_errors"":0,""num_randdir"":4,""num_randdir_good_moves"":3,""num_whilered"":0,""num_whileblue"":0,""num_blue"":3,""num_good_moves"":7}","[415.3214133126395,411.57142761775424,1.1,415.3214133126395,411.57142761775424,111,415.3214133126395,411.57142761775424,215.4,409.0714133126395,416.57142761775424,332.5,409.0714133126395,437.82142761775424,435.8,467.8214133126395,506.57142761775424,552.5,501.5714133126395,532.8214276177542,666,585.3214133126395,642.8214276177542,780.1,636.5714133126395,686.5714276177542,895.7,639.0714133126395,687.8214276177542,1005.2,721.5714133126395,721.5714276177542,1139.3,785.3214133126395,726.5714276177542,1249.2,811.5714133126395,716.5714276177542,1358.3,811.5714133126395,714.0714276177542,1459.7,809.0714133126395,714.0714276177542,1568.2,806.5714133126395,715.3214276177542,1695.9,806.5714133126395,715.3214276177542,1803.4,806.5714133126395,715.3214276177542,1909.9,806.5714133126395,715.3214276177542,2019.9,815.3214133126395,715.3214276177542,2129.6,871.5714133126395,715.3214276177542,2236.1,881.5714133126395,706.5714276177542,2347.9,910.3214133126395,684.0714276177542,2454.3,941.5714133126395,659.0714276177542,2554.4,941.5714133126395,659.0714276177542,2658.5,941.5714133126395,657.8214276177542,2760.5,941.5714133126395,657.8214276177542,2874.1,941.5714133126395,657.8214276177542,2977.8,941.5714133126395,657.8214276177542,3088.2,941.5714133126395,657.8214276177542,3191.1,941.5714133126395,657.8214276177542,3303.2,941.5714133126395,657.8214276177542,3403.6,941.5714133126395,656.5714276177542,3511.7,941.5714133126395,656.5714276177542,3612.9,939.0714133126395,652.8214276177542,3720.1,939.0714133126395,652.8214276177542,3821.3,939.0714133126395,652.8214276177542,3929.5,939.0714133126395,652.8214276177542,4041.3,939.0714133126395,652.8214276177542,4144.6,939.0714133126395,652.8214276177542,4247.6,939.0714133126395,652.8214276177542,4359.1,939.0714133126395,652.8214276177542,4469.3,939.0714133126395,652.8214276177542,4576.3,939.0714133126395,652.8214276177542,4679.7,939.0714133126395,652.8214276177542,4791.9,939.0714133126395,652.8214276177542,4892.6]","[1542,1542,1000,0,542,""oops"",""right"",""up"",""bad_move"",4771.3,3220.4,2723,1551,497.4,""smooth"",""right"",""right"",""good_move"",10504.6,5726.8,2341.6,7768.1,394.9,""oops"",""right"",""right"",""good_move"",13491.2,2983.5,2526.3,10507.7,457.2,""oops"",""right"",""down"",""good_move"",19347.1,5851.7,2137.9,16756.7,452.5,""smooth"",""right"",""right"",""good_move"",26163.9,6815.6,2605.3,22867.3,691.4,""smooth"",""down"",""down"",""good_move"",29063,2893.9,2429.3,26169.1,464.6,""smooth"",""down"",""down"",""good_move"",31551.7,2482.6,2062.2,29069.1,420.4,""oops"",""down"",""down"",""good_move""]","",""
"7325","","<div style=""width:500px;"">
  <p>What determined the result of this run?</p>
  </div>","100","html-slider-response","55","1348859","0.0-5.0-1.9","258","1","2025-07-30 08:38:48","1f75c3e559b7213887762d5229550c2b","41.123.78.77","Mozilla/5.0 (Windows NT 10.0; Win64; x64) AppleWebKit/537.36 (KHTML, like Gecko) Chrome/138.0.0.0 Safari/537.36","WebKit","Chrome","138.0.0.0","Windows","10.0","https://app.prolific.com/","en-GB,en-US;q=0.9,en;q=0.8","67e074f58a5ea7d9897f3223","6877631c9844ddd5501205fc","6889d9bd48ca84a5cf301d8f","3","1","67e074f58a5ea7d9897f3223","3","1","2025-07-30T08:59:33.795Z","","","","","","","","","","","AttribQ","","50","","","","","","","","","","","","","","","","","","","","","","","","","","","","",""
"5482","","<div style=""width:500px;"">
  <p>How much control did you have over the ball?</p>
  </div>","50","html-slider-response","56","1354348","0.0-5.0-2.9","258","1","2025-07-30 08:38:48","1f75c3e559b7213887762d5229550c2b","41.123.78.77","Mozilla/5.0 (Windows NT 10.0; Win64; x64) AppleWebKit/537.36 (KHTML, like Gecko) Chrome/138.0.0.0 Safari/537.36","WebKit","Chrome","138.0.0.0","Windows","10.0","https://app.prolific.com/","en-GB,en-US;q=0.9,en;q=0.8","67e074f58a5ea7d9897f3223","6877631c9844ddd5501205fc","6889d9bd48ca84a5cf301d8f","3","1","67e074f58a5ea7d9897f3223","3","1","2025-07-30T08:59:39.284Z","","","","","","","","","","","ControlQ","","50","","","","","","","","","","","","","","","","","","","","","","","","","","","","",""
"4386","","<div style=""width:500px;"">
  <p>How would you describe your current emotional state?</p>
  </div>","20","html-slider-response","57","1358742","0.0-5.0-3.9","258","1","2025-07-30 08:38:48","1f75c3e559b7213887762d5229550c2b","41.123.78.77","Mozilla/5.0 (Windows NT 10.0; Win64; x64) AppleWebKit/537.36 (KHTML, like Gecko) Chrome/138.0.0.0 Safari/537.36","WebKit","Chrome","138.0.0.0","Windows","10.0","https://app.prolific.com/","en-GB,en-US;q=0.9,en;q=0.8","67e074f58a5ea7d9897f3223","6877631c9844ddd5501205fc","6889d9bd48ca84a5cf301d8f","3","1","67e074f58a5ea7d9897f3223","3","1","2025-07-30T08:59:43.678Z","","","","","","","","","","","StressQ","","50","","","","","","","","","","","","","","","","","","","","","","","","","","","","",""
"7810","","<div style=""width:500px;"">
  <p>What best describes how you currently feel?</p>
  </div>","72","html-slider-response","58","1366559","0.0-5.0-4.9","258","1","2025-07-30 08:38:48","1f75c3e559b7213887762d5229550c2b","41.123.78.77","Mozilla/5.0 (Windows NT 10.0; Win64; x64) AppleWebKit/537.36 (KHTML, like Gecko) Chrome/138.0.0.0 Safari/537.36","WebKit","Chrome","138.0.0.0","Windows","10.0","https://app.prolific.com/","en-GB,en-US;q=0.9,en;q=0.8","67e074f58a5ea7d9897f3223","6877631c9844ddd5501205fc","6889d9bd48ca84a5cf301d8f","3","1","67e074f58a5ea7d9897f3223","3","1","2025-07-30T08:59:51.495Z","","","","","","","","","","","MotivationQ","","50","","","","","","","","","","","","","","","","","","","","","","","","","","","","",""
"","","","","ctl-task-cpt","59","1413318","0.0-5.0-0.10","258","1","2025-07-30 08:38:48","1f75c3e559b7213887762d5229550c2b","41.123.78.77","Mozilla/5.0 (Windows NT 10.0; Win64; x64) AppleWebKit/537.36 (KHTML, like Gecko) Chrome/138.0.0.0 Safari/537.36","WebKit","Chrome","138.0.0.0","Windows","10.0","https://app.prolific.com/","en-GB,en-US;q=0.9,en;q=0.8","67e074f58a5ea7d9897f3223","6877631c9844ddd5501205fc","6889d9bd48ca84a5cf301d8f","3","1","67e074f58a5ea7d9897f3223","3","1","2025-07-30T09:00:38.255Z","","","","","","","","","","","","","","win-only","3","g1:SW,g2:NE","0.5","11","0","1370023.1","1554.8","6559.2","43728.2","1","4","4","6","2","4","4","30","26","0.22727272727272727","1477.8","3000","1165","[""up"",""right""]","{""num_key_presses"":10,""num_perfect"":5,""num_errors"":0,""num_randdir"":5,""num_randdir_good_moves"":3,""num_whilered"":0,""num_whileblue"":0,""num_blue"":2,""num_good_moves"":8}","[424.0714133126395,410.32142761775424,2.5,424.0714133126395,409.07142761775424,109.2,424.0714133126395,409.07142761775424,215.8,424.0714133126395,419.07142761775424,317.2,421.5714133126395,466.57142761775424,424.7,441.5714133126395,411.57142761775424,534.9,517.8214133126395,290.32142761775424,653.1,605.3214133126395,187.82142761775424,768.7,667.8214133126395,150.32142761775424,872.7,681.5714133126395,146.57142761775424,973.1,690.3214133126395,140.32142761775424,1075.9,741.5714133126395,94.07142761775425,1193.8,750.3214133126395,86.57142761775425,1298.1,751.5714133126395,86.57142761775425,1405,751.5714133126395,86.57142761775425,1514.5,751.5714133126395,86.57142761775425,1635.2,751.5714133126395,86.57142761775425,1743.7,751.5714133126395,86.57142761775425,1859.7,751.5714133126395,86.57142761775425,1973.1,761.5714133126395,102.82142761775425,2085.4,765.3214133126395,117.82142761775425,2197.9,781.5714133126395,146.57142761775424,2305.6,796.5714133126395,172.82142761775424,2412.9,797.8214133126395,184.07142761775424,2524.7,797.8214133126395,204.07142761775424,2640.6,797.8214133126395,204.07142761775424,2743.2,797.8214133126395,204.07142761775424,2848.1,797.8214133126395,204.07142761775424,2965,797.8214133126395,204.07142761775424,3072.4,797.8214133126395,204.07142761775424,3176.9,797.8214133126395,204.07142761775424,3289.6,797.8214133126395,204.07142761775424,3394.4,797.8214133126395,204.07142761775424,3500.5,797.8214133126395,204.07142761775424,3601.1,797.8214133126395,204.07142761775424,3702,797.8214133126395,204.07142761775424,3803.1,797.8214133126395,204.07142761775424,3907,797.8214133126395,204.07142761775424,4023,797.8214133126395,204.07142761775424,4134.7,797.8214133126395,204.07142761775424,4246.4,797.8214133126395,204.07142761775424,4347.2,797.8214133126395,204.07142761775424,4451.7,797.8214133126395,204.07142761775424,4553.3,797.8214133126395,204.07142761775424,4659.8,797.8214133126395,204.07142761775424,4775.3,797.8214133126395,204.07142761775424,4876.7,797.8214133126395,204.07142761775424,4987.3]","[1739.3,1739.3,1000,0,739.3,""oops"",""up"",""left"",""bad_move"",5078.7,3333.2,2645.3,1745.5,687.9,""oops"",""up"",""right"",""good_move"",7898.2,2814.7,2291.6,5083.5,523.1,""smooth"",""right"",""right"",""good_move"",11437.2,3535.4,3062.7,7901.8,472.7,""smooth"",""right"",""right"",""good_move"",14105.7,2665.1,2224.6,11440.6,440.5,""oops"",""right"",""left"",""bad_move"",17880.3,3771.5,3217.8,14108.8,553.7,""oops"",""up"",""up"",""good_move"",25040.5,7157.4,2327.4,22126.8,586.3,""smooth"",""up"",""up"",""good_move"",31353.7,6310.3,2426.6,28364.8,562.3,""oops"",""up"",""right"",""good_move"",34050.6,2691.7,2131.3,31359,560.4,""smooth"",""up"",""up"",""good_move"",36874,2819.2,2132.7,34054.8,686.5,""smooth"",""right"",""right"",""good_move""]","",""
"7572","","<div style=""width:500px;"">
  <p>What determined the result of this run?</p>
  </div>","98","html-slider-response","60","1420895","0.0-5.0-1.10","258","1","2025-07-30 08:38:48","1f75c3e559b7213887762d5229550c2b","41.123.78.77","Mozilla/5.0 (Windows NT 10.0; Win64; x64) AppleWebKit/537.36 (KHTML, like Gecko) Chrome/138.0.0.0 Safari/537.36","WebKit","Chrome","138.0.0.0","Windows","10.0","https://app.prolific.com/","en-GB,en-US;q=0.9,en;q=0.8","67e074f58a5ea7d9897f3223","6877631c9844ddd5501205fc","6889d9bd48ca84a5cf301d8f","3","1","67e074f58a5ea7d9897f3223","3","1","2025-07-30T09:00:45.832Z","","","","","","","","","","","AttribQ","","50","","","","","","","","","","","","","","","","","","","","","","","","","","","","",""
"8122","","<div style=""width:500px;"">
  <p>How much control did you have over the ball?</p>
  </div>","60","html-slider-response","61","1429023","0.0-5.0-2.10","258","1","2025-07-30 08:38:48","1f75c3e559b7213887762d5229550c2b","41.123.78.77","Mozilla/5.0 (Windows NT 10.0; Win64; x64) AppleWebKit/537.36 (KHTML, like Gecko) Chrome/138.0.0.0 Safari/537.36","WebKit","Chrome","138.0.0.0","Windows","10.0","https://app.prolific.com/","en-GB,en-US;q=0.9,en;q=0.8","67e074f58a5ea7d9897f3223","6877631c9844ddd5501205fc","6889d9bd48ca84a5cf301d8f","3","1","67e074f58a5ea7d9897f3223","3","1","2025-07-30T09:00:53.959Z","","","","","","","","","","","ControlQ","","50","","","","","","","","","","","","","","","","","","","","","","","","","","","","",""
"7674","","<div style=""width:500px;"">
  <p>How would you describe your current emotional state?</p>
  </div>","25","html-slider-response","62","1436706","0.0-5.0-3.10","258","1","2025-07-30 08:38:48","1f75c3e559b7213887762d5229550c2b","41.123.78.77","Mozilla/5.0 (Windows NT 10.0; Win64; x64) AppleWebKit/537.36 (KHTML, like Gecko) Chrome/138.0.0.0 Safari/537.36","WebKit","Chrome","138.0.0.0","Windows","10.0","https://app.prolific.com/","en-GB,en-US;q=0.9,en;q=0.8","67e074f58a5ea7d9897f3223","6877631c9844ddd5501205fc","6889d9bd48ca84a5cf301d8f","3","1","67e074f58a5ea7d9897f3223","3","1","2025-07-30T09:01:01.643Z","","","","","","","","","","","StressQ","","50","","","","","","","","","","","","","","","","","","","","","","","","","","","","",""
"5448","","<div style=""width:500px;"">
  <p>What best describes how you currently feel?</p>
  </div>","100","html-slider-response","63","1442162","0.0-5.0-4.10","258","1","2025-07-30 08:38:48","1f75c3e559b7213887762d5229550c2b","41.123.78.77","Mozilla/5.0 (Windows NT 10.0; Win64; x64) AppleWebKit/537.36 (KHTML, like Gecko) Chrome/138.0.0.0 Safari/537.36","WebKit","Chrome","138.0.0.0","Windows","10.0","https://app.prolific.com/","en-GB,en-US;q=0.9,en;q=0.8","67e074f58a5ea7d9897f3223","6877631c9844ddd5501205fc","6889d9bd48ca84a5cf301d8f","3","1","67e074f58a5ea7d9897f3223","3","1","2025-07-30T09:01:07.098Z","","","","","","","","","","","MotivationQ","","50","","","","","","","","","","","","","","","","","","","","","","","","","","","","",""
"","","","","ctl-task-cpt","64","1471755","0.0-5.0-0.11","258","1","2025-07-30 08:38:48","1f75c3e559b7213887762d5229550c2b","41.123.78.77","Mozilla/5.0 (Windows NT 10.0; Win64; x64) AppleWebKit/537.36 (KHTML, like Gecko) Chrome/138.0.0.0 Safari/537.36","WebKit","Chrome","138.0.0.0","Windows","10.0","https://app.prolific.com/","en-GB,en-US;q=0.9,en;q=0.8","67e074f58a5ea7d9897f3223","6877631c9844ddd5501205fc","6889d9bd48ca84a5cf301d8f","3","1","67e074f58a5ea7d9897f3223","3","1","2025-07-30T09:01:36.691Z","","","","","","","","","","","","","","win-only","2","g1:SE,g2:NW","0.6","12","0","1445626.2","1283.4","6295.7","26552.8","1","4","8","6","2","8","8","38","30","0.2878787878787879","2156.1","3000","2190","[""left"",""up""]","{""num_key_presses"":6,""num_perfect"":3,""num_errors"":0,""num_randdir"":3,""num_randdir_good_moves"":3,""num_whilered"":0,""num_whileblue"":0,""num_blue"":0,""num_good_moves"":6}","[416.5714133126395,412.82142761775424,0.6,416.5714133126395,411.57142761775424,113.2,416.5714133126395,411.57142761775424,225.5,401.5714133126395,431.57142761775424,339.6,446.5714133126395,559.0714276177542,449.9,456.5714133126395,566.5714276177542,556.2,456.5714133126395,570.3214276177542,657.3,474.0714133126395,605.3214276177542,760.8,389.0714133126395,321.57142761775424,885.4,179.0714133126395,-92.17857238224575,1009.2,179.0714133126395,-92.17857238224575,1123.9,179.0714133126395,-92.17857238224575,1242.8,179.0714133126395,-92.17857238224575,1350.6,-97.1785866873605,-97.17857238224575,1479.6,-90.9285866873605,-109.67857238224575,1581.4,-50.92858668736049,-33.42857238224575,1688.5,-0.9285866873604931,86.57142761775425,1797.1,5.321413312639507,85.32142761775425,1915.2,10.321413312639507,70.32142761775425,2021.7,12.821413312639507,67.82142761775425,2134.4,21.571413312639507,67.82142761775425,2249.5,27.821413312639507,84.07142761775425,2372.6,116.5714133126395,141.57142761775424,2491.3,205.3214133126395,139.07142761775424,2599.5,331.5714133126395,167.82142761775424,2708.1,407.8214133126395,179.07142761775424,2819.9,561.5714133126395,216.57142761775424,2936.3,645.3214133126395,237.82142761775424,3046.8,756.5714133126395,276.57142761775424,3150.5,757.8214133126395,277.82142761775424,3265.2,857.8214133126395,310.32142761775424,3372.2,859.0714133126395,310.32142761775424,3483.6,859.0714133126395,310.32142761775424,3590,860.3214133126395,312.82142761775424,3707.6,894.0714133126395,340.32142761775424,3808.9,894.0714133126395,336.57142761775424,3911.1,894.0714133126395,335.32142761775424,4016.1,894.0714133126395,335.32142761775424,4137.8,894.0714133126395,335.32142761775424,4254.9,894.0714133126395,335.32142761775424,4356.5,894.0714133126395,335.32142761775424,4474.2,894.0714133126395,335.32142761775424,4576.6,894.0714133126395,335.32142761775424,4678.1,901.5714133126395,336.57142761775424,4782,901.5714133126395,336.57142761775424,4894.9]","[1459.6,1459.6,1000,0,459.6,""smooth"",""up"",""up"",""good_move"",6093.2,4630.9,2520.3,1462.3,2110.6,""oops"",""up"",""left"",""good_move"",9337.1,3234.1,2564.7,6103.1,669.3,""oops"",""up"",""up"",""good_move"",12949.7,3607.1,1720.6,9342.6,1886.5,""smooth"",""up"",""up"",""good_move"",16391.9,3436.6,2820.1,12955.3,616.5,""oops"",""left"",""left"",""good_move"",19908.8,3514.6,1367.1,16394.2,2147.5,""smooth"",""left"",""left"",""good_move""]","",""
"9925","","<div style=""width:500px;"">
  <p>What determined the result of this run?</p>
  </div>","100","html-slider-response","65","1481684","0.0-5.0-1.11","258","1","2025-07-30 08:38:48","1f75c3e559b7213887762d5229550c2b","41.123.78.77","Mozilla/5.0 (Windows NT 10.0; Win64; x64) AppleWebKit/537.36 (KHTML, like Gecko) Chrome/138.0.0.0 Safari/537.36","WebKit","Chrome","138.0.0.0","Windows","10.0","https://app.prolific.com/","en-GB,en-US;q=0.9,en;q=0.8","67e074f58a5ea7d9897f3223","6877631c9844ddd5501205fc","6889d9bd48ca84a5cf301d8f","3","1","67e074f58a5ea7d9897f3223","3","1","2025-07-30T09:01:46.620Z","","","","","","","","","","","AttribQ","","50","","","","","","","","","","","","","","","","","","","","","","","","","","","","",""
"3804","","<div style=""width:500px;"">
  <p>How much control did you have over the ball?</p>
  </div>","89","html-slider-response","66","1485499","0.0-5.0-2.11","258","1","2025-07-30 08:38:48","1f75c3e559b7213887762d5229550c2b","41.123.78.77","Mozilla/5.0 (Windows NT 10.0; Win64; x64) AppleWebKit/537.36 (KHTML, like Gecko) Chrome/138.0.0.0 Safari/537.36","WebKit","Chrome","138.0.0.0","Windows","10.0","https://app.prolific.com/","en-GB,en-US;q=0.9,en;q=0.8","67e074f58a5ea7d9897f3223","6877631c9844ddd5501205fc","6889d9bd48ca84a5cf301d8f","3","1","67e074f58a5ea7d9897f3223","3","1","2025-07-30T09:01:50.435Z","","","","","","","","","","","ControlQ","","50","","","","","","","","","","","","","","","","","","","","","","","","","","","","",""
"7257","","<div style=""width:500px;"">
  <p>How would you describe your current emotional state?</p>
  </div>","4","html-slider-response","67","1492762","0.0-5.0-3.11","258","1","2025-07-30 08:38:48","1f75c3e559b7213887762d5229550c2b","41.123.78.77","Mozilla/5.0 (Windows NT 10.0; Win64; x64) AppleWebKit/537.36 (KHTML, like Gecko) Chrome/138.0.0.0 Safari/537.36","WebKit","Chrome","138.0.0.0","Windows","10.0","https://app.prolific.com/","en-GB,en-US;q=0.9,en;q=0.8","67e074f58a5ea7d9897f3223","6877631c9844ddd5501205fc","6889d9bd48ca84a5cf301d8f","3","1","67e074f58a5ea7d9897f3223","3","1","2025-07-30T09:01:57.698Z","","","","","","","","","","","StressQ","","50","","","","","","","","","","","","","","","","","","","","","","","","","","","","",""
"3793","","<div style=""width:500px;"">
  <p>What best describes how you currently feel?</p>
  </div>","92","html-slider-response","68","1496562","0.0-5.0-4.11","258","1","2025-07-30 08:38:48","1f75c3e559b7213887762d5229550c2b","41.123.78.77","Mozilla/5.0 (Windows NT 10.0; Win64; x64) AppleWebKit/537.36 (KHTML, like Gecko) Chrome/138.0.0.0 Safari/537.36","WebKit","Chrome","138.0.0.0","Windows","10.0","https://app.prolific.com/","en-GB,en-US;q=0.9,en;q=0.8","67e074f58a5ea7d9897f3223","6877631c9844ddd5501205fc","6889d9bd48ca84a5cf301d8f","3","1","67e074f58a5ea7d9897f3223","3","1","2025-07-30T09:02:01.498Z","","","","","","","","","","","MotivationQ","","50","","","","","","","","","","","","","","","","","","","","","","","","","","","","",""
"","","","","ctl-task-cpt","69","1571390","0.0-5.0-0.12","258","1","2025-07-30 08:38:48","1f75c3e559b7213887762d5229550c2b","41.123.78.77","Mozilla/5.0 (Windows NT 10.0; Win64; x64) AppleWebKit/537.36 (KHTML, like Gecko) Chrome/138.0.0.0 Safari/537.36","WebKit","Chrome","138.0.0.0","Windows","10.0","https://app.prolific.com/","en-GB,en-US;q=0.9,en;q=0.8","67e074f58a5ea7d9897f3223","6877631c9844ddd5501205fc","6889d9bd48ca84a5cf301d8f","3","1","67e074f58a5ea7d9897f3223","3","1","2025-07-30T09:03:16.326Z","","","","","","","","","","","","","","win-only","2","g1:SE,g2:NW","0.7","13","0","1500022.9","1222.5","6240.6","71778.5","1","4","8","6","2","8","8","46","38","0.3484848484848485","1768.4","3000","1645","[""left"",""up""]","{""num_key_presses"":12,""num_perfect"":9,""num_errors"":0,""num_randdir"":3,""num_randdir_good_moves"":1,""num_whilered"":0,""num_whileblue"":0,""num_blue"":6,""num_good_moves"":9}","[411.5714133126395,416.57142761775424,1.3,411.5714133126395,416.57142761775424,100.4,411.5714133126395,416.57142761775424,211.3,392.8214133126395,449.07142761775424,329.4,367.8214133126395,416.57142761775424,435.6,321.5714133126395,287.82142761775424,555.3,301.5714133126395,266.57142761775424,676.8,221.5714133126395,197.82142761775424,804.9,202.8214133126395,146.57142761775424,924.7,200.3214133126395,140.32142761775424,1041.1,200.3214133126395,140.32142761775424,1148.7,172.8214133126395,129.07142761775424,1249.9,130.3214133126395,121.57142761775425,1359.4,111.5714133126395,111.57142761775425,1466.3,80.3214133126395,101.57142761775425,1570,84.0714133126395,97.82142761775425,1687.2,84.0714133126395,97.82142761775425,1790.4,84.0714133126395,97.82142761775425,1893.7,91.5714133126395,101.57142761775425,1994.1,161.5714133126395,136.57142761775424,2104.2,226.5714133126395,160.32142761775424,2212.7,459.0714133126395,247.82142761775424,2315,571.5714133126395,277.82142761775424,2435.7,664.0714133126395,296.57142761775424,2542.2,695.3214133126395,310.32142761775424,2648.1,706.5714133126395,326.57142761775424,2748.4,717.8214133126395,356.57142761775424,2861.6,712.8214133126395,387.82142761775424,2983.2,709.0714133126395,391.57142761775424,3089.7,707.8214133126395,394.07142761775424,3203.2,620.3214133126395,501.57142761775424,3306.1,606.5714133126395,526.5714276177542,3414.1,662.8214133126395,517.8214276177542,3529.3,681.5714133126395,532.8214276177542,3636.2,900.3214133126395,651.5714276177542,3737.1,1094.0714133126396,710.3214276177542,3852.2,987.8214133126395,790.3214276177542,3954.1,1201.5714133126396,914.0714276177542,4070.4,1375.3214133126396,939.0714276177542,4188.5,1354.0714133126396,936.5714276177542,4295.4,1375.3214133126396,951.5714276177542,4415.1,1051.5714133126396,960.3214276177542,4521.8,229.0714133126395,960.3214276177542,4630.5,1361.5714133126396,960.3214276177542,4741.7,986.5714133126395,960.3214276177542,4891.2]","[1857.2,1857.2,1000,0,857.2,""oops"",""up"",""up"",""good_move"",6406,4536.7,2215.6,1869.3,2321.1,""smooth"",""left"",""left"",""good_move"",9924.3,3510.8,2983.6,6413.5,527.2,""smooth"",""left"",""left"",""good_move"",16854.1,6925.9,2461.4,13990.9,401.8,""oops"",""left"",""right"",""bad_move"",26799.2,9934.2,2807.4,23465.3,526.6,""smooth"",""up"",""up"",""good_move"",33877,7071.8,2124.2,31231.3,521.5,""smooth"",""up"",""up"",""good_move"",37475.3,3594.1,2828.2,33881.2,765.9,""smooth"",""left"",""left"",""good_move"",47632.2,10141.6,2162.2,45052.6,417.4,""oops"",""left"",""right"",""bad_move"",50965.4,3329.7,2414.3,47635.7,915.4,""smooth"",""up"",""right"",""bad_move"",54907.2,3924.2,2542.9,50983,1381.3,""smooth"",""left"",""left"",""good_move"",60967.7,6057.7,2661.1,54910,3396.6,""smooth"",""left"",""left"",""good_move"",65323.5,4349.2,2339,60974.3,2010.3,""smooth"",""left"",""left"",""good_move""]","",""
"3607","","<div style=""width:500px;"">
  <p>What determined the result of this run?</p>
  </div>","100","html-slider-response","70","1575001","0.0-5.0-1.12","258","1","2025-07-30 08:38:48","1f75c3e559b7213887762d5229550c2b","41.123.78.77","Mozilla/5.0 (Windows NT 10.0; Win64; x64) AppleWebKit/537.36 (KHTML, like Gecko) Chrome/138.0.0.0 Safari/537.36","WebKit","Chrome","138.0.0.0","Windows","10.0","https://app.prolific.com/","en-GB,en-US;q=0.9,en;q=0.8","67e074f58a5ea7d9897f3223","6877631c9844ddd5501205fc","6889d9bd48ca84a5cf301d8f","3","1","67e074f58a5ea7d9897f3223","3","1","2025-07-30T09:03:19.937Z","","","","","","","","","","","AttribQ","","50","","","","","","","","","","","","","","","","","","","","","","","","","","","","",""
"5359","","<div style=""width:500px;"">
  <p>How much control did you have over the ball?</p>
  </div>","49","html-slider-response","71","1580369","0.0-5.0-2.12","258","1","2025-07-30 08:38:48","1f75c3e559b7213887762d5229550c2b","41.123.78.77","Mozilla/5.0 (Windows NT 10.0; Win64; x64) AppleWebKit/537.36 (KHTML, like Gecko) Chrome/138.0.0.0 Safari/537.36","WebKit","Chrome","138.0.0.0","Windows","10.0","https://app.prolific.com/","en-GB,en-US;q=0.9,en;q=0.8","67e074f58a5ea7d9897f3223","6877631c9844ddd5501205fc","6889d9bd48ca84a5cf301d8f","3","1","67e074f58a5ea7d9897f3223","3","1","2025-07-30T09:03:25.306Z","","","","","","","","","","","ControlQ","","50","","","","","","","","","","","","","","","","","","","","","","","","","","","","",""
"5736","","<div style=""width:500px;"">
  <p>How would you describe your current emotional state?</p>
  </div>","0","html-slider-response","72","1586121","0.0-5.0-3.12","258","1","2025-07-30 08:38:48","1f75c3e559b7213887762d5229550c2b","41.123.78.77","Mozilla/5.0 (Windows NT 10.0; Win64; x64) AppleWebKit/537.36 (KHTML, like Gecko) Chrome/138.0.0.0 Safari/537.36","WebKit","Chrome","138.0.0.0","Windows","10.0","https://app.prolific.com/","en-GB,en-US;q=0.9,en;q=0.8","67e074f58a5ea7d9897f3223","6877631c9844ddd5501205fc","6889d9bd48ca84a5cf301d8f","3","1","67e074f58a5ea7d9897f3223","3","1","2025-07-30T09:03:31.057Z","","","","","","","","","","","StressQ","","50","","","","","","","","","","","","","","","","","","","","","","","","","","","","",""
"14352","","<div style=""width:500px;"">
  <p>What best describes how you currently feel?</p>
  </div>","100","html-slider-response","73","1600483","0.0-5.0-4.12","258","1","2025-07-30 08:38:48","1f75c3e559b7213887762d5229550c2b","41.123.78.77","Mozilla/5.0 (Windows NT 10.0; Win64; x64) AppleWebKit/537.36 (KHTML, like Gecko) Chrome/138.0.0.0 Safari/537.36","WebKit","Chrome","138.0.0.0","Windows","10.0","https://app.prolific.com/","en-GB,en-US;q=0.9,en;q=0.8","67e074f58a5ea7d9897f3223","6877631c9844ddd5501205fc","6889d9bd48ca84a5cf301d8f","3","1","67e074f58a5ea7d9897f3223","3","1","2025-07-30T09:03:45.419Z","","","","","","","","","","","MotivationQ","","50","","","","","","","","","","","","","","","","","","","","","","","","","","","","",""
"","","","","ctl-task-cpt","74","1649882","0.0-5.0-0.13","258","1","2025-07-30 08:38:48","1f75c3e559b7213887762d5229550c2b","41.123.78.77","Mozilla/5.0 (Windows NT 10.0; Win64; x64) AppleWebKit/537.36 (KHTML, like Gecko) Chrome/138.0.0.0 Safari/537.36","WebKit","Chrome","138.0.0.0","Windows","10.0","https://app.prolific.com/","en-GB,en-US;q=0.9,en;q=0.8","67e074f58a5ea7d9897f3223","6877631c9844ddd5501205fc","6889d9bd48ca84a5cf301d8f","3","1","67e074f58a5ea7d9897f3223","3","1","2025-07-30T09:04:34.818Z","","","","","","","","","","","","","","win-only","1","g1:NE,g2:SW","0.8","14","0","1603947.5","3517.4","8533.8","46362","1","4","4","6","2","4","4","50","46","0.3787878787878788","2085.7","3000","2205","[""down"",""left""]","{""num_key_presses"":8,""num_perfect"":6,""num_errors"":0,""num_randdir"":2,""num_randdir_good_moves"":1,""num_whilered"":0,""num_whileblue"":0,""num_blue"":3,""num_good_moves"":7}","[412.8214133126395,406.57142761775424,3,412.8214133126395,406.57142761775424,118.5,412.8214133126395,406.57142761775424,219.5,412.8214133126395,406.57142761775424,352.2,412.8214133126395,406.57142761775424,479.4,412.8214133126395,406.57142761775424,581.4,412.8214133126395,406.57142761775424,690,267.8214133126395,561.5714276177542,805.5,216.5714133126395,631.5714276177542,920.3,199.0714133126395,651.5714276177542,1022.4,161.5714133126395,685.3214276177542,1127.3,161.5714133126395,685.3214276177542,1244.9,161.5714133126395,685.3214276177542,1360.7,129.0714133126395,712.8214276177542,1468.4,65.3214133126395,764.0714276177542,1583.7,61.57141331263951,764.0714276177542,1702.3,61.57141331263951,764.0714276177542,1807.7,61.57141331263951,764.0714276177542,1933.3,61.57141331263951,764.0714276177542,2048.3,61.57141331263951,764.0714276177542,2167.2,61.57141331263951,764.0714276177542,2325.6,61.57141331263951,764.0714276177542,2441.3,61.57141331263951,764.0714276177542,2544.6,61.57141331263951,764.0714276177542,2671.2,61.57141331263951,764.0714276177542,2775.6,61.57141331263951,764.0714276177542,2914.6,61.57141331263951,764.0714276177542,3016.1,61.57141331263951,764.0714276177542,3129.9,61.57141331263951,764.0714276177542,3231.4,61.57141331263951,764.0714276177542,3348.3,61.57141331263951,764.0714276177542,3454.1,61.57141331263951,764.0714276177542,3619.5,61.57141331263951,764.0714276177542,3725.9,61.57141331263951,764.0714276177542,3829.4,61.57141331263951,764.0714276177542,3936.4,61.57141331263951,764.0714276177542,4040.5,61.57141331263951,764.0714276177542,4143.8,61.57141331263951,764.0714276177542,4247.2,61.57141331263951,764.0714276177542,4348.2,61.57141331263951,764.0714276177542,4452.9,61.57141331263951,764.0714276177542,4605.4,61.57141331263951,764.0714276177542,4714.7,61.57141331263951,764.0714276177542,4814.7,61.57141331263951,764.0714276177542,4919.2]","[1477.9,1477.9,1000,0,477.9,""smooth"",""down"",""down"",""good_move"",4369.9,2887.1,2445.9,1482.8,441.2,""smooth"",""down"",""down"",""good_move"",7618.1,3240.5,2813.5,4377.6,427,""smooth"",""down"",""down"",""good_move"",11534.3,3910.1,3530.1,7624.2,380,""oops"",""left"",""right"",""bad_move"",15056.9,3517.8,3135.3,11539.1,382.5,""smooth"",""left"",""left"",""good_move"",26474,11411.2,3238.5,22752.3,483.2,""oops"",""left"",""left"",""good_move"",33828.6,7350.9,2175.9,31244.2,408.5,""smooth"",""left"",""left"",""good_move"",37317.2,3485.1,2764,33832.1,721.1,""smooth"",""left"",""left"",""good_move""]","",""
"5741","","<div style=""width:500px;"">
  <p>What determined the result of this run?</p>
  </div>","84","html-slider-response","75","1655625","0.0-5.0-1.13","258","1","2025-07-30 08:38:48","1f75c3e559b7213887762d5229550c2b","41.123.78.77","Mozilla/5.0 (Windows NT 10.0; Win64; x64) AppleWebKit/537.36 (KHTML, like Gecko) Chrome/138.0.0.0 Safari/537.36","WebKit","Chrome","138.0.0.0","Windows","10.0","https://app.prolific.com/","en-GB,en-US;q=0.9,en;q=0.8","67e074f58a5ea7d9897f3223","6877631c9844ddd5501205fc","6889d9bd48ca84a5cf301d8f","3","1","67e074f58a5ea7d9897f3223","3","1","2025-07-30T09:04:40.562Z","","","","","","","","","","","AttribQ","","50","","","","","","","","","","","","","","","","","","","","","","","","","","","","",""
"12646","","<div style=""width:500px;"">
  <p>How much control did you have over the ball?</p>
