"rt","response_timestamp","stimulus","response","trial_type","trial_index","time_elapsed","internal_node_id","run_id","condition","recorded_at","source_code_version","ip","user_agent","device","browser","browser_version","platform","platform_version","referer","accept_language","PROLIFIC_PID","STUDY_ID","SESSION_ID","WEEK","BATCH","prolific_id","week","batch","realtime","success","responses","item_order","radio_event_ids","radio_event_times","key_event_times","mouse_event_times","straightlining","zigzagging","honeypot","eventType","view_history","slider_start","which_type","canvas_config","goals_layout","control_level","trial_number","tutorial_trial_number","trial_start_time","phase1_start_time","phase2_start_time","phase3_start_time","goal_1_value","goal_1_distance","goal_2_value","goal_2_distance","goal_selected","outcome","outcome_total","participant_final_score","participant_initial_score","participant_final_score_prop","goal_choice_rt","allocated_time","allocated_time_remaining","goal_direction","counts","mouse_movements","key_presses","question_order","question_id"
"19514","1752671827058","<p style='font-size:40px;line-height:1.25'><strong>Welcome to the experiment!</strong></p><p style='font-size:1.1em;line-height:1.25'>Thank you for participanting in our experiment again! You will be asked to play the Dysfunctional Ball Game again. We will briefly recap the rules before we start.</p><p style='font-size:1.1em;line-height:1.25'>Press <strong>Next</strong> to continue.</p>","0","custom-html-button-response","0","19515","0.0-0.0","113","1","2025-07-16 13:16:45","1f75c3e559b7213887762d5229550c2b","156.155.35.77","Mozilla/5.0 (Windows NT 10.0; Win64; x64) AppleWebKit/537.36 (KHTML, like Gecko) Chrome/138.0.0.0 Safari/537.36","WebKit","Chrome","138.0.0.0","Windows","10.0","https://app.prolific.com/","en-US,en;q=0.9","60aad516e34718d318bfb44d","686e379bc37a29ffa5cdc956","6877a618cec02404c9c08e5c","1","1","60aad516e34718d318bfb44d","1","1","2025-07-16T13:17:07.058Z","","","","","","","","","","","","","","","","","","","","","","","","","","","","","","","","","","","","","","","","","",""
"53016","","","","fullscreen","1","73540","0.0-1.0","113","1","2025-07-16 13:16:45","1f75c3e559b7213887762d5229550c2b","156.155.35.77","Mozilla/5.0 (Windows NT 10.0; Win64; x64) AppleWebKit/537.36 (KHTML, like Gecko) Chrome/138.0.0.0 Safari/537.36","WebKit","Chrome","138.0.0.0","Windows","10.0","https://app.prolific.com/","en-US,en;q=0.9","60aad516e34718d318bfb44d","686e379bc37a29ffa5cdc956","6877a618cec02404c9c08e5c","1","1","60aad516e34718d318bfb44d","1","1","","true","","","","","","","","","","","","","","","","","","","","","","","","","","","","","","","","","","","","","","","","",""
"4053","1752671885138","<p style='font-size:1.1em;line-height:1.25'>In the following, we will ask you a few questions relating to your feelings in the last 24 hours.<br></p><p style='font-size:1.1em;line-height:1.25'>Press the <strong>Next</strong> button to continue.</p>","0","custom-html-button-response","2","77595","0.0-2.0-0.0","113","1","2025-07-16 13:16:45","1f75c3e559b7213887762d5229550c2b","156.155.35.77","Mozilla/5.0 (Windows NT 10.0; Win64; x64) AppleWebKit/537.36 (KHTML, like Gecko) Chrome/138.0.0.0 Safari/537.36","WebKit","Chrome","138.0.0.0","Windows","10.0","https://app.prolific.com/","en-US,en;q=0.9","60aad516e34718d318bfb44d","686e379bc37a29ffa5cdc956","6877a618cec02404c9c08e5c","1","1","60aad516e34718d318bfb44d","1","1","2025-07-16T13:18:05.138Z","","","","","","","","","","","","","","","","","","","","","","","","","","","","","","","","","","","","","","","","","",""
"108678.30000000447","","","","survey-template","3","186277","0.0-2.0-1.0","113","1","2025-07-16 13:16:45","1f75c3e559b7213887762d5229550c2b","156.155.35.77","Mozilla/5.0 (Windows NT 10.0; Win64; x64) AppleWebKit/537.36 (KHTML, like Gecko) Chrome/138.0.0.0 Safari/537.36","WebKit","Chrome","138.0.0.0","Windows","10.0","https://app.prolific.com/","en-US,en;q=0.9","60aad516e34718d318bfb44d","686e379bc37a29ffa5cdc956","6877a618cec02404c9c08e5c","1","1","60aad516e34718d318bfb44d","1","1","2025-07-16T13:19:53.820Z","","{""Q01"":""1"",""Q02"":""1"",""Q03"":""2"",""Q04"":""1"",""Q05"":""1"",""Q06"":""1"",""Q07"":""0"",""Q08"":""0"",""Q09"":""1"",""Q10"":""1"",""Q11"":""3"",""Q12"":""0"",""Q13"":""5"",""Q14"":""1"",""Q15"":""1"",""Q16"":""3"",""Q17"":""3"",""Q18"":""2"",""Q19"":""1"",""Q20"":""0"",""Q21"":""1"",""Q22"":""1""}","[0,1,2,3,4,5,6,7,8,9,10,11,12,13,14,15,16,17,18,19,20,21]","[""Q01"",""Q02"",""Q03"",""Q04"",""Q05"",""Q06"",""Q07"",""Q08"",""Q09"",""Q10"",""Q11"",""Q12"",""Q13"",""Q14"",""Q15"",""Q16"",""Q17"",""Q18"",""Q19"",""Q19"",""Q20"",""Q21"",""Q22""]","[3664.5,5802.60000000149,11097.40000000596,11885.70000000298,14097.20000000298,17727.90000000596,23240.5,24921,30597.70000000298,33522.60000000149,37206.40000000596,40992.80000000447,43160.60000000149,47465.80000000447,54253.30000000447,59728.60000000149,62870.5,66988.70000000298,71729.40000000596,84786.60000000149,94462.40000000596,98151.70000000298,102839.70000000298]","[]","[0.7000000029802322,3664.5,5802.60000000149,8044.5,10490.60000000149,11097.40000000596,11885.70000000298,14097.20000000298,17727.90000000596,21065.20000000298,23240.5,24921,27065.80000000447,30597.70000000298,33522.60000000149,37206.40000000596,40992.80000000447,43160.60000000149,46925,47465.80000000447,54253.30000000447,58798.30000000447,59308.20000000298,59728.60000000149,62870.5,66275.5,66613.70000000298,66988.70000000298,71729.40000000596,84786.60000000149,94462.40000000596,97274.90000000596,98151.70000000298,102839.70000000298,108674.80000000447]","0.5454545454545454","0.42857142857142855","0","drsp","","","","","","","","","","","","","","","","","","","","","","","","","","","","","","",""
"21670.5","","","","survey-template","4","207949","0.0-2.0-2.0","113","1","2025-07-16 13:16:45","1f75c3e559b7213887762d5229550c2b","156.155.35.77","Mozilla/5.0 (Windows NT 10.0; Win64; x64) AppleWebKit/537.36 (KHTML, like Gecko) Chrome/138.0.0.0 Safari/537.36","WebKit","Chrome","138.0.0.0","Windows","10.0","https://app.prolific.com/","en-US,en;q=0.9","60aad516e34718d318bfb44d","686e379bc37a29ffa5cdc956","6877a618cec02404c9c08e5c","1","1","60aad516e34718d318bfb44d","1","1","2025-07-16T13:20:15.492Z","","{""Q01"":""1"",""Q02"":""5"",""Q03"":""1""}","[0,1,2]","[""Q01"",""Q02"",""Q03""]","[6369.80000000447,13689.89999999851,20597]","[]","[6369.80000000447,13689.89999999851,20597,21670]","0.6666666666666666","1","0","stress","","","","","","","","","","","","","","","","","","","","","","","","","","","","","","",""
"83762","","","","instructions","5","291712","0.0-3.0-0.0","113","1","2025-07-16 13:16:45","1f75c3e559b7213887762d5229550c2b","156.155.35.77","Mozilla/5.0 (Windows NT 10.0; Win64; x64) AppleWebKit/537.36 (KHTML, like Gecko) Chrome/138.0.0.0 Safari/537.36","WebKit","Chrome","138.0.0.0","Windows","10.0","https://app.prolific.com/","en-US,en;q=0.9","60aad516e34718d318bfb44d","686e379bc37a29ffa5cdc956","6877a618cec02404c9c08e5c","1","1","60aad516e34718d318bfb44d","1","1","","","","","","","","","","","","","[{""page_index"":0,""viewing_time"":83761}]","","","","","","","","","","","","","","","","","","","","","","","","","","","","","",""
"24546","","<p>Before you start with this game please answer the following three questions yourself. </p>
  <p>Through this game, we measure several aspects of your cognitive performance, such as reaction times, multi-tasking capabilities </p>
  <p>and the ability to assess the situation you are in.</p>
  <p></p>
  <p><b>How good do you usually are in such tasks?</b></p>","62","html-slider-response","6","316259","0.0-4.0-0.0","113","1","2025-07-16 13:16:45","1f75c3e559b7213887762d5229550c2b","156.155.35.77","Mozilla/5.0 (Windows NT 10.0; Win64; x64) AppleWebKit/537.36 (KHTML, like Gecko) Chrome/138.0.0.0 Safari/537.36","WebKit","Chrome","138.0.0.0","Windows","10.0","https://app.prolific.com/","en-US,en;q=0.9","60aad516e34718d318bfb44d","686e379bc37a29ffa5cdc956","6877a618cec02404c9c08e5c","1","1","60aad516e34718d318bfb44d","1","1","2025-07-16T13:22:03.802Z","","","","","","","","","","","PreSkillQ","","50","","","","","","","","","","","","","","","","","","","","","","","","","","","","",""
"7545","","<div style=""width:500px;"">
  <p>How well do you think you will perform in this task compared to other participants?</p>
  </div>","33","html-slider-response","7","323806","0.0-4.0-1.0","113","1","2025-07-16 13:16:45","1f75c3e559b7213887762d5229550c2b","156.155.35.77","Mozilla/5.0 (Windows NT 10.0; Win64; x64) AppleWebKit/537.36 (KHTML, like Gecko) Chrome/138.0.0.0 Safari/537.36","WebKit","Chrome","138.0.0.0","Windows","10.0","https://app.prolific.com/","en-US,en;q=0.9","60aad516e34718d318bfb44d","686e379bc37a29ffa5cdc956","6877a618cec02404c9c08e5c","1","1","60aad516e34718d318bfb44d","1","1","2025-07-16T13:22:11.349Z","","","","","","","","","","","PrePerfQ","","50","","","","","","","","","","","","","","","","","","","","","","","","","","","","",""
"6299","","<div style=""width:500px;"">
  <p>What best describes how you currently feel?</p>
  </div>","55","html-slider-response","8","330106","0.0-4.0-2.0","113","1","2025-07-16 13:16:45","1f75c3e559b7213887762d5229550c2b","156.155.35.77","Mozilla/5.0 (Windows NT 10.0; Win64; x64) AppleWebKit/537.36 (KHTML, like Gecko) Chrome/138.0.0.0 Safari/537.36","WebKit","Chrome","138.0.0.0","Windows","10.0","https://app.prolific.com/","en-US,en;q=0.9","60aad516e34718d318bfb44d","686e379bc37a29ffa5cdc956","6877a618cec02404c9c08e5c","1","1","60aad516e34718d318bfb44d","1","1","2025-07-16T13:22:17.649Z","","","","","","","","","","","PreMotivationQ","","50","","","","","","","","","","","","","","","","","","","","","","","","","","","","",""
"","","","","ctl-task-cpt","9","364665","0.0-5.0-0.0","113","1","2025-07-16 13:16:45","1f75c3e559b7213887762d5229550c2b","156.155.35.77","Mozilla/5.0 (Windows NT 10.0; Win64; x64) AppleWebKit/537.36 (KHTML, like Gecko) Chrome/138.0.0.0 Safari/537.36","WebKit","Chrome","138.0.0.0","Windows","10.0","https://app.prolific.com/","en-US,en;q=0.9","60aad516e34718d318bfb44d","686e379bc37a29ffa5cdc956","6877a618cec02404c9c08e5c","1","1","60aad516e34718d318bfb44d","1","1","2025-07-16T13:22:52.208Z","","","","","","","","","","","","","","win-only","2","g1:SE,g2:NW","1","1","0","332672.5","3095.7","8102.9","31553.2","1","4","4","6","2","4","4","4","0","0.030303030303030304","1042.4","3000","510","[""left"",""up""]","{""num_key_presses"":6,""num_perfect"":6,""num_errors"":0,""num_randdir"":0,""num_randdir_good_moves"":0,""num_whilered"":0,""num_whileblue"":0,""num_blue"":2,""num_good_moves"":6}","[420.3214133126395,421.57142761775424,0.3,420.3214133126395,420.32142761775424,105.4,420.3214133126395,420.32142761775424,205.8,414.0714133126395,470.32142761775424,305.9,579.0714133126395,692.8214276177542,410.5,706.5714133126395,739.0714276177542,516.2,516.5714133126395,481.57142761775424,622,261.5714133126395,214.07142761775424,725.7,170.3214133126395,96.57142761775425,830.2,119.0714133126395,76.57142761775425,930.4,80.3214133126395,66.57142761775425,1032,80.3214133126395,66.57142761775425,1135.4,80.3214133126395,66.57142761775425,1241.6,87.8214133126395,101.57142761775425,1345.8,114.0714133126395,177.82142761775424,1450.4,130.3214133126395,266.57142761775424,1550.5,137.8214133126395,304.07142761775424,1655.9,144.0714133126395,319.07142761775424,1761.3,147.8214133126395,322.82142761775424,1865.6,150.3214133126395,324.07142761775424,1966,150.3214133126395,324.07142761775424,2066.2,150.3214133126395,324.07142761775424,2170.5,154.0714133126395,324.07142761775424,2271.1,154.0714133126395,324.07142761775424,2371.4,154.0714133126395,324.07142761775424,2475.7,154.0714133126395,324.07142761775424,2580.5,154.0714133126395,324.07142761775424,2680.6,154.0714133126395,324.07142761775424,2781.7,154.0714133126395,324.07142761775424,2885.7,154.0714133126395,324.07142761775424,2986.7,154.0714133126395,324.07142761775424,3090.8,154.0714133126395,324.07142761775424,3196.2,154.0714133126395,324.07142761775424,3299.9,154.0714133126395,324.07142761775424,3400.6,154.0714133126395,324.07142761775424,3500.6,154.0714133126395,324.07142761775424,3605.6,154.0714133126395,324.07142761775424,3709.7,159.0714133126395,325.32142761775424,3809.7,495.3214133126395,441.57142761775424,3909.7,1014.0714133126395,475.32142761775424,4014.8,1330.3214133126396,382.82142761775424,4116.3,1370.3214133126396,367.82142761775424,4220.4,1354.0714133126396,369.07142761775424,4324.8,1350.3214133126396,370.32142761775424,4424.9,1350.3214133126396,370.32142761775424,4525.6,1346.5714133126396,371.57142761775424,4631.9,1325.3214133126396,372.82142761775424,4736.5,1295.3214133126396,372.82142761775424,4840,1286.5714133126396,372.82142761775424,4941.2]","[1403.7,1403.7,1000,0,403.7,""smooth"",""left"",""left"",""good_move"",8087.8,6683.8,2663.1,4969.2,455.5,""smooth"",""up"",""up"",""good_move"",11511,3422.7,2956.5,8088.3,466.2,""smooth"",""up"",""up"",""good_move"",14880.8,3369.2,3013.9,11511.6,355.3,""smooth"",""left"",""left"",""good_move"",17569.4,2688.5,2294.7,14880.9,393.8,""smooth"",""left"",""left"",""good_move"",23359.4,5789.7,1472.5,21447.6,439.3,""smooth"",""up"",""up"",""good_move""]","",""
"6863","","<div style=""width:500px;"">
  <p>What determined the result of this run?</p>
  </div>","64","html-slider-response","10","371529","0.0-5.0-1.0","113","1","2025-07-16 13:16:45","1f75c3e559b7213887762d5229550c2b","156.155.35.77","Mozilla/5.0 (Windows NT 10.0; Win64; x64) AppleWebKit/537.36 (KHTML, like Gecko) Chrome/138.0.0.0 Safari/537.36","WebKit","Chrome","138.0.0.0","Windows","10.0","https://app.prolific.com/","en-US,en;q=0.9","60aad516e34718d318bfb44d","686e379bc37a29ffa5cdc956","6877a618cec02404c9c08e5c","1","1","60aad516e34718d318bfb44d","1","1","2025-07-16T13:22:59.072Z","","","","","","","","","","","AttribQ","","50","","","","","","","","","","","","","","","","","","","","","","","","","","","","",""
"4521","","<div style=""width:500px;"">
  <p>How much control did you have over the ball?</p>
  </div>","100","html-slider-response","11","376051","0.0-5.0-2.0","113","1","2025-07-16 13:16:45","1f75c3e559b7213887762d5229550c2b","156.155.35.77","Mozilla/5.0 (Windows NT 10.0; Win64; x64) AppleWebKit/537.36 (KHTML, like Gecko) Chrome/138.0.0.0 Safari/537.36","WebKit","Chrome","138.0.0.0","Windows","10.0","https://app.prolific.com/","en-US,en;q=0.9","60aad516e34718d318bfb44d","686e379bc37a29ffa5cdc956","6877a618cec02404c9c08e5c","1","1","60aad516e34718d318bfb44d","1","1","2025-07-16T13:23:03.594Z","","","","","","","","","","","ControlQ","","50","","","","","","","","","","","","","","","","","","","","","","","","","","","","",""
"4769","","<div style=""width:500px;"">
  <p>How would you describe your current emotional state?</p>
  </div>","33","html-slider-response","12","380821","0.0-5.0-3.0","113","1","2025-07-16 13:16:45","1f75c3e559b7213887762d5229550c2b","156.155.35.77","Mozilla/5.0 (Windows NT 10.0; Win64; x64) AppleWebKit/537.36 (KHTML, like Gecko) Chrome/138.0.0.0 Safari/537.36","WebKit","Chrome","138.0.0.0","Windows","10.0","https://app.prolific.com/","en-US,en;q=0.9","60aad516e34718d318bfb44d","686e379bc37a29ffa5cdc956","6877a618cec02404c9c08e5c","1","1","60aad516e34718d318bfb44d","1","1","2025-07-16T13:23:08.364Z","","","","","","","","","","","StressQ","","50","","","","","","","","","","","","","","","","","","","","","","","","","","","","",""
"5377","","<div style=""width:500px;"">
  <p>What best describes how you currently feel?</p>
  </div>","59","html-slider-response","13","386199","0.0-5.0-4.0","113","1","2025-07-16 13:16:45","1f75c3e559b7213887762d5229550c2b","156.155.35.77","Mozilla/5.0 (Windows NT 10.0; Win64; x64) AppleWebKit/537.36 (KHTML, like Gecko) Chrome/138.0.0.0 Safari/537.36","WebKit","Chrome","138.0.0.0","Windows","10.0","https://app.prolific.com/","en-US,en;q=0.9","60aad516e34718d318bfb44d","686e379bc37a29ffa5cdc956","6877a618cec02404c9c08e5c","1","1","60aad516e34718d318bfb44d","1","1","2025-07-16T13:23:13.742Z","","","","","","","","","","","MotivationQ","","50","","","","","","","","","","","","","","","","","","","","","","","","","","","","",""
"","","","","ctl-task-cpt","14","423019","0.0-5.0-0.1","113","1","2025-07-16 13:16:45","1f75c3e559b7213887762d5229550c2b","156.155.35.77","Mozilla/5.0 (Windows NT 10.0; Win64; x64) AppleWebKit/537.36 (KHTML, like Gecko) Chrome/138.0.0.0 Safari/537.36","WebKit","Chrome","138.0.0.0","Windows","10.0","https://app.prolific.com/","en-US,en;q=0.9","60aad516e34718d318bfb44d","686e379bc37a29ffa5cdc956","6877a618cec02404c9c08e5c","1","1","60aad516e34718d318bfb44d","1","1","2025-07-16T13:23:50.562Z","","","","","","","","","","","","","","win-only","3","g1:SW,g2:NE","0.9","2","0","388766","1498.5","6501.7","33801.4","1","4","8","6","2","-8","-10","0","4","0","1837.5","3000","-3015","[""up"",""right""]","{""num_key_presses"":8,""num_perfect"":5,""num_errors"":2,""num_randdir"":1,""num_randdir_good_moves"":0,""num_whilered"":0,""num_whileblue"":1,""num_blue"":2,""num_good_moves"":6}","[421.5714133126395,415.32142761775424,0.1,421.5714133126395,415.32142761775424,102.4,421.5714133126395,415.32142761775424,202.6,424.0714133126395,411.57142761775424,307.4,427.8214133126395,406.57142761775424,407.6,426.5714133126395,407.82142761775424,507.7,424.0714133126395,452.82142761775424,613.3,432.8214133126395,475.32142761775424,717.1,437.8214133126395,497.82142761775424,817.5,414.0714133126395,540.3214276177542,917.9,351.5714133126395,579.0714276177542,1022.7,341.5714133126395,569.0714276177542,1128.3,524.0714133126395,354.07142761775424,1232.4,654.0714133126395,195.32142761775424,1333.4,675.3214133126395,166.57142761775424,1438.7,694.0714133126395,146.57142761775424,1542.7,739.0714133126395,105.32142761775425,1647.8,757.8214133126395,84.07142761775425,1747.8,762.8214133126395,79.07142761775425,1852,762.8214133126395,77.82142761775425,1952,762.8214133126395,80.32142761775425,2057.2,746.5714133126395,150.32142761775424,2157.3,815.3214133126395,300.32142761775424,2263.8,980.3214133126395,376.57142761775424,2367.1,1027.8214133126396,415.32142761775424,2472.4,1021.5714133126395,419.07142761775424,2572.6,1017.8214133126395,419.07142761775424,2676.8,1024.0714133126396,417.82142761775424,2777.8,1035.3214133126396,414.07142761775424,2878.2,1044.0714133126396,410.32142761775424,2982.5,1047.8214133126396,406.57142761775424,3088.7,1047.8214133126396,406.57142761775424,3193,1050.3214133126396,407.82142761775424,3297.3,1051.5714133126396,410.32142761775424,3397.3,1052.8214133126396,411.57142761775424,3502.8,1052.8214133126396,411.57142761775424,3607.1,1054.0714133126396,411.57142761775424,3712.3,1056.5714133126396,411.57142761775424,3817.3,1056.5714133126396,412.82142761775424,3922,1056.5714133126396,412.82142761775424,4023,1056.5714133126396,412.82142761775424,4127.7,1056.5714133126396,412.82142761775424,4232.1,1056.5714133126396,412.82142761775424,4332.7,1056.5714133126396,412.82142761775424,4438.8,1056.5714133126396,412.82142761775424,4542.6,1056.5714133126396,412.82142761775424,4648,1056.5714133126396,412.82142761775424,4748,1059.0714133126396,414.07142761775424,4852.6,1059.0714133126396,414.07142761775424,4952.7]","[865,865,1000,0,-135,""error"",""-"",""-"",""no_move"",4321.2,3456.1,1819.5,1868.9,632.8,""smooth"",""up"",""up"",""good_move"",7027.5,2706,2174.5,4321.5,531.5,""oops"",""up"",""left"",""bad_move"",9546.2,2518.1,1973.4,7028.1,544.7,""smooth"",""up"",""up"",""good_move"",15932.1,6385.4,1946.1,13508.9,477.1,""smooth"",""right"",""right"",""good_move"",18564.7,2632.3,2183.8,15932.4,448.5,""smooth"",""right"",""right"",""good_move"",21531.3,2966.4,2660,18564.9,306.4,""while_blue"",""right"",""up"",""good_move"",24908.8,3377.2,3011.5,21531.6,365.7,""smooth"",""right"",""right"",""good_move""]","",""
"5600","","<div style=""width:500px;"">
  <p>What determined the result of this run?</p>
  </div>","1","html-slider-response","15","428620","0.0-5.0-1.1","113","1","2025-07-16 13:16:45","1f75c3e559b7213887762d5229550c2b","156.155.35.77","Mozilla/5.0 (Windows NT 10.0; Win64; x64) AppleWebKit/537.36 (KHTML, like Gecko) Chrome/138.0.0.0 Safari/537.36","WebKit","Chrome","138.0.0.0","Windows","10.0","https://app.prolific.com/","en-US,en;q=0.9","60aad516e34718d318bfb44d","686e379bc37a29ffa5cdc956","6877a618cec02404c9c08e5c","1","1","60aad516e34718d318bfb44d","1","1","2025-07-16T13:23:56.164Z","","","","","","","","","","","AttribQ","","50","","","","","","","","","","","","","","","","","","","","","","","","","","","","",""
"2076","","<div style=""width:500px;"">
  <p>How much control did you have over the ball?</p>
  </div>","3","html-slider-response","16","430697","0.0-5.0-2.1","113","1","2025-07-16 13:16:45","1f75c3e559b7213887762d5229550c2b","156.155.35.77","Mozilla/5.0 (Windows NT 10.0; Win64; x64) AppleWebKit/537.36 (KHTML, like Gecko) Chrome/138.0.0.0 Safari/537.36","WebKit","Chrome","138.0.0.0","Windows","10.0","https://app.prolific.com/","en-US,en;q=0.9","60aad516e34718d318bfb44d","686e379bc37a29ffa5cdc956","6877a618cec02404c9c08e5c","1","1","60aad516e34718d318bfb44d","1","1","2025-07-16T13:23:58.240Z","","","","","","","","","","","ControlQ","","50","","","","","","","","","","","","","","","","","","","","","","","","","","","","",""
"3464","","<div style=""width:500px;"">
  <p>How would you describe your current emotional state?</p>
  </div>","69","html-slider-response","17","434163","0.0-5.0-3.1","113","1","2025-07-16 13:16:45","1f75c3e559b7213887762d5229550c2b","156.155.35.77","Mozilla/5.0 (Windows NT 10.0; Win64; x64) AppleWebKit/537.36 (KHTML, like Gecko) Chrome/138.0.0.0 Safari/537.36","WebKit","Chrome","138.0.0.0","Windows","10.0","https://app.prolific.com/","en-US,en;q=0.9","60aad516e34718d318bfb44d","686e379bc37a29ffa5cdc956","6877a618cec02404c9c08e5c","1","1","60aad516e34718d318bfb44d","1","1","2025-07-16T13:24:01.706Z","","","","","","","","","","","StressQ","","50","","","","","","","","","","","","","","","","","","","","","","","","","","","","",""
"2661","","<div style=""width:500px;"">
  <p>What best describes how you currently feel?</p>
  </div>","35","html-slider-response","18","436824","0.0-5.0-4.1","113","1","2025-07-16 13:16:45","1f75c3e559b7213887762d5229550c2b","156.155.35.77","Mozilla/5.0 (Windows NT 10.0; Win64; x64) AppleWebKit/537.36 (KHTML, like Gecko) Chrome/138.0.0.0 Safari/537.36","WebKit","Chrome","138.0.0.0","Windows","10.0","https://app.prolific.com/","en-US,en;q=0.9","60aad516e34718d318bfb44d","686e379bc37a29ffa5cdc956","6877a618cec02404c9c08e5c","1","1","60aad516e34718d318bfb44d","1","1","2025-07-16T13:24:04.367Z","","","","","","","","","","","MotivationQ","","50","","","","","","","","","","","","","","","","","","","","","","","","","","","","",""
"","","","","ctl-task-cpt","19","468549","0.0-5.0-0.2","113","1","2025-07-16 13:16:45","1f75c3e559b7213887762d5229550c2b","156.155.35.77","Mozilla/5.0 (Windows NT 10.0; Win64; x64) AppleWebKit/537.36 (KHTML, like Gecko) Chrome/138.0.0.0 Safari/537.36","WebKit","Chrome","138.0.0.0","Windows","10.0","https://app.prolific.com/","en-US,en;q=0.9","60aad516e34718d318bfb44d","686e379bc37a29ffa5cdc956","6877a618cec02404c9c08e5c","1","1","60aad516e34718d318bfb44d","1","1","2025-07-16T13:24:36.092Z","","","","","","","","","","","","","","win-only","0","g1:NW,g2:SE","0.8","3","0","439390.7","997.1","6001.4","28707","1","4","4","6","2","4","4","4","0","0.030303030303030304","1364.4","3000","425","[""down"",""right""]","{""num_key_presses"":6,""num_perfect"":5,""num_errors"":0,""num_randdir"":1,""num_randdir_good_moves"":1,""num_whilered"":0,""num_whileblue"":0,""num_blue"":2,""num_good_moves"":6}","[411.5714133126395,416.57142761775424,0.3,411.5714133126395,416.57142761775424,103.6,411.5714133126395,416.57142761775424,204.7,411.5714133126395,416.57142761775424,309,411.5714133126395,416.57142761775424,414.2,461.5714133126395,499.07142761775424,514.5,534.0714133126395,569.0714276177542,618.9,661.5714133126395,707.8214276177542,723.7,637.8214133126395,675.3214276177542,823.7,552.8214133126395,610.3214276177542,923.8,771.5714133126395,761.5714276177542,1024.1,772.8214133126395,761.5714276177542,1129.4,775.3214133126395,756.5714276177542,1234.4,775.3214133126395,752.8214276177542,1338.5,775.3214133126395,751.5714276177542,1439.3,775.3214133126395,751.5714276177542,1539.3,775.3214133126395,751.5714276177542,1644,869.0714133126395,745.3214276177542,1748.4,985.3214133126395,685.3214276177542,1848.9,985.3214133126395,674.0714276177542,1949.1,985.3214133126395,671.5714276177542,2053.4,985.3214133126395,671.5714276177542,2153.5,985.3214133126395,671.5714276177542,2254.7,985.3214133126395,671.5714276177542,2358.3,985.3214133126395,671.5714276177542,2459.3,985.3214133126395,671.5714276177542,2563.6,985.3214133126395,671.5714276177542,2663.6,985.3214133126395,671.5714276177542,2768.4,985.3214133126395,671.5714276177542,2868.9,985.3214133126395,671.5714276177542,2974.4,985.3214133126395,671.5714276177542,3079,985.3214133126395,671.5714276177542,3184.3,985.3214133126395,671.5714276177542,3289.3,985.3214133126395,671.5714276177542,3393.7,985.3214133126395,671.5714276177542,3498.4,985.3214133126395,671.5714276177542,3599.1,985.3214133126395,671.5714276177542,3699.2,985.3214133126395,671.5714276177542,3803.6,985.3214133126395,671.5714276177542,3904.6,985.3214133126395,671.5714276177542,4008.9,985.3214133126395,671.5714276177542,4113.5,985.3214133126395,671.5714276177542,4218.5,985.3214133126395,671.5714276177542,4324.2,985.3214133126395,671.5714276177542,4428.5,985.3214133126395,671.5714276177542,4528.8,985.3214133126395,671.5714276177542,4629.2,985.3214133126395,671.5714276177542,4733.6,985.3214133126395,671.5714276177542,4833.8,985.3214133126395,671.5714276177542,4935]","[1504.7,1504.7,1000,0,504.7,""smooth"",""down"",""down"",""good_move"",4153,2648.1,2263.6,1504.9,384.5,""smooth"",""down"",""down"",""good_move"",13660.5,9506.9,2220,10969.4,471.1,""oops"",""right"",""right"",""good_move"",16756.6,3095.7,2578.7,13660.9,517,""smooth"",""right"",""right"",""good_move"",19806.4,3049.4,2620.2,16757,429.2,""smooth"",""right"",""right"",""good_move"",22616.5,2809.8,2523,19806.7,286.8,""smooth"",""down"",""down"",""good_move""]","",""
"4793","","<div style=""width:500px;"">
  <p>What determined the result of this run?</p>
  </div>","25","html-slider-response","20","473343","0.0-5.0-1.2","113","1","2025-07-16 13:16:45","1f75c3e559b7213887762d5229550c2b","156.155.35.77","Mozilla/5.0 (Windows NT 10.0; Win64; x64) AppleWebKit/537.36 (KHTML, like Gecko) Chrome/138.0.0.0 Safari/537.36","WebKit","Chrome","138.0.0.0","Windows","10.0","https://app.prolific.com/","en-US,en;q=0.9","60aad516e34718d318bfb44d","686e379bc37a29ffa5cdc956","6877a618cec02404c9c08e5c","1","1","60aad516e34718d318bfb44d","1","1","2025-07-16T13:24:40.886Z","","","","","","","","","","","AttribQ","","50","","","","","","","","","","","","","","","","","","","","","","","","","","","","",""
"4026","","<div style=""width:500px;"">
  <p>How much control did you have over the ball?</p>
  </div>","100","html-slider-response","21","477371","0.0-5.0-2.2","113","1","2025-07-16 13:16:45","1f75c3e559b7213887762d5229550c2b","156.155.35.77","Mozilla/5.0 (Windows NT 10.0; Win64; x64) AppleWebKit/537.36 (KHTML, like Gecko) Chrome/138.0.0.0 Safari/537.36","WebKit","Chrome","138.0.0.0","Windows","10.0","https://app.prolific.com/","en-US,en;q=0.9","60aad516e34718d318bfb44d","686e379bc37a29ffa5cdc956","6877a618cec02404c9c08e5c","1","1","60aad516e34718d318bfb44d","1","1","2025-07-16T13:24:44.914Z","","","","","","","","","","","ControlQ","","50","","","","","","","","","","","","","","","","","","","","","","","","","","","","",""
"3269","","<div style=""width:500px;"">
  <p>How would you describe your current emotional state?</p>
  </div>","59","html-slider-response","22","480640","0.0-5.0-3.2","113","1","2025-07-16 13:16:45","1f75c3e559b7213887762d5229550c2b","156.155.35.77","Mozilla/5.0 (Windows NT 10.0; Win64; x64) AppleWebKit/537.36 (KHTML, like Gecko) Chrome/138.0.0.0 Safari/537.36","WebKit","Chrome","138.0.0.0","Windows","10.0","https://app.prolific.com/","en-US,en;q=0.9","60aad516e34718d318bfb44d","686e379bc37a29ffa5cdc956","6877a618cec02404c9c08e5c","1","1","60aad516e34718d318bfb44d","1","1","2025-07-16T13:24:48.183Z","","","","","","","","","","","StressQ","","50","","","","","","","","","","","","","","","","","","","","","","","","","","","","",""
"3135","","<div style=""width:500px;"">
  <p>What best describes how you currently feel?</p>
  </div>","60","html-slider-response","23","483776","0.0-5.0-4.2","113","1","2025-07-16 13:16:45","1f75c3e559b7213887762d5229550c2b","156.155.35.77","Mozilla/5.0 (Windows NT 10.0; Win64; x64) AppleWebKit/537.36 (KHTML, like Gecko) Chrome/138.0.0.0 Safari/537.36","WebKit","Chrome","138.0.0.0","Windows","10.0","https://app.prolific.com/","en-US,en;q=0.9","60aad516e34718d318bfb44d","686e379bc37a29ffa5cdc956","6877a618cec02404c9c08e5c","1","1","60aad516e34718d318bfb44d","1","1","2025-07-16T13:24:51.319Z","","","","","","","","","","","MotivationQ","","50","","","","","","","","","","","","","","","","","","","","","","","","","","","","",""
"","","","","ctl-task-cpt","24","515389","0.0-5.0-0.3","113","1","2025-07-16 13:16:45","1f75c3e559b7213887762d5229550c2b","156.155.35.77","Mozilla/5.0 (Windows NT 10.0; Win64; x64) AppleWebKit/537.36 (KHTML, like Gecko) Chrome/138.0.0.0 Safari/537.36","WebKit","Chrome","138.0.0.0","Windows","10.0","https://app.prolific.com/","en-US,en;q=0.9","60aad516e34718d318bfb44d","686e379bc37a29ffa5cdc956","6877a618cec02404c9c08e5c","1","1","60aad516e34718d318bfb44d","1","1","2025-07-16T13:25:22.932Z","","","","","","","","","","","","","","win-only","0","g1:NW,g2:SE","0.7","4","0","486342.7","1145.4","6151.4","28595.5","1","4","8","6","1","1","1","5","4","0.03787878787878788","1312.9","3000","545","[""left"",""up""]","{""num_key_presses"":6,""num_perfect"":5,""num_errors"":0,""num_randdir"":1,""num_randdir_good_moves"":0,""num_whilered"":0,""num_whileblue"":0,""num_blue"":2,""num_good_moves"":5}","[417.8214133126395,416.57142761775424,0.1,417.8214133126395,416.57142761775424,100.4,417.8214133126395,416.57142761775424,201,417.8214133126395,416.57142761775424,301.1,407.8214133126395,490.32142761775424,405.4,411.5714133126395,559.0714276177542,505.4,412.8214133126395,576.5714276177542,610.1,297.8214133126395,516.5714276177542,711.5,171.5714133126395,405.32142761775424,815.6,114.0714133126395,101.57142761775425,920.7,130.3214133126395,79.07142761775425,1025.7,129.0714133126395,75.32142761775425,1130.7,125.3214133126395,86.57142761775425,1231.2,121.5714133126395,86.57142761775425,1331.2,121.5714133126395,86.57142761775425,1435.3,121.5714133126395,87.82142761775425,1535.8,131.5714133126395,130.32142761775424,1636.1,179.0714133126395,252.82142761775424,1740.9,235.3214133126395,361.57142761775424,1841.1,251.5714133126395,380.32142761775424,1945.3,251.5714133126395,380.32142761775424,2050.7,251.5714133126395,380.32142761775424,2150.8,251.5714133126395,380.32142761775424,2250.9,374.0714133126395,391.57142761775424,2355.9,679.0714133126395,397.82142761775424,2460.2,902.8214133126395,431.57142761775424,2560.5,926.5714133126395,437.82142761775424,2660.5,924.0714133126395,437.82142761775424,2765.5,921.5714133126395,437.82142761775424,2870,914.0714133126395,436.57142761775424,2970.9,911.5714133126395,435.32142761775424,3075.3,910.3214133126395,434.07142761775424,3175.7,909.0714133126395,431.57142761775424,3276.4,909.0714133126395,430.32142761775424,3380.8,907.8214133126395,429.07142761775424,3481.1,907.8214133126395,429.07142761775424,3581.1,907.8214133126395,429.07142761775424,3686.2,906.5714133126395,427.82142761775424,3790.7,901.5714133126395,426.57142761775424,3895.5,900.3214133126395,424.07142761775424,3995.6,899.0714133126395,424.07142761775424,4100.5,896.5714133126395,422.82142761775424,4201,895.3214133126395,421.57142761775424,4305.1,895.3214133126395,421.57142761775424,4410.5,894.0714133126395,421.57142761775424,4510.6,892.8214133126395,421.57142761775424,4611.8,891.5714133126395,421.57142761775424,4714.8,890.3214133126395,420.32142761775424,4815.4,887.8214133126395,419.07142761775424,4916.1]","[1462.9,1462.9,1000,0,462.9,""smooth"",""up"",""up"",""good_move"",3347,1883.6,1471.6,1463.4,412,""oops"",""up"",""right"",""bad_move"",13576.5,10229.3,2917.6,10228.8,430.1,""smooth"",""up"",""up"",""good_move"",16490.1,2913.6,2556.5,13576.5,357.1,""smooth"",""left"",""left"",""good_move"",19063.6,2573.1,2202.8,16490.5,370.3,""smooth"",""left"",""left"",""good_move"",22358.6,3294.8,2836.2,19063.8,458.6,""smooth"",""left"",""left"",""good_move""]","",""
"5009","","<div style=""width:500px;"">
  <p>What determined the result of this run?</p>
  </div>","70","html-slider-response","25","520399","0.0-5.0-1.3","113","1","2025-07-16 13:16:45","1f75c3e559b7213887762d5229550c2b","156.155.35.77","Mozilla/5.0 (Windows NT 10.0; Win64; x64) AppleWebKit/537.36 (KHTML, like Gecko) Chrome/138.0.0.0 Safari/537.36","WebKit","Chrome","138.0.0.0","Windows","10.0","https://app.prolific.com/","en-US,en;q=0.9","60aad516e34718d318bfb44d","686e379bc37a29ffa5cdc956","6877a618cec02404c9c08e5c","1","1","60aad516e34718d318bfb44d","1","1","2025-07-16T13:25:27.942Z","","","","","","","","","","","AttribQ","","50","","","","","","","","","","","","","","","","","","","","","","","","","","","","",""
"3383","","<div style=""width:500px;"">
  <p>How much control did you have over the ball?</p>
  </div>","90","html-slider-response","26","523783","0.0-5.0-2.3","113","1","2025-07-16 13:16:45","1f75c3e559b7213887762d5229550c2b","156.155.35.77","Mozilla/5.0 (Windows NT 10.0; Win64; x64) AppleWebKit/537.36 (KHTML, like Gecko) Chrome/138.0.0.0 Safari/537.36","WebKit","Chrome","138.0.0.0","Windows","10.0","https://app.prolific.com/","en-US,en;q=0.9","60aad516e34718d318bfb44d","686e379bc37a29ffa5cdc956","6877a618cec02404c9c08e5c","1","1","60aad516e34718d318bfb44d","1","1","2025-07-16T13:25:31.326Z","","","","","","","","","","","ControlQ","","50","","","","","","","","","","","","","","","","","","","","","","","","","","","","",""
"3275","","<div style=""width:500px;"">
  <p>How would you describe your current emotional state?</p>
  </div>","60","html-slider-response","27","527059","0.0-5.0-3.3","113","1","2025-07-16 13:16:45","1f75c3e559b7213887762d5229550c2b","156.155.35.77","Mozilla/5.0 (Windows NT 10.0; Win64; x64) AppleWebKit/537.36 (KHTML, like Gecko) Chrome/138.0.0.0 Safari/537.36","WebKit","Chrome","138.0.0.0","Windows","10.0","https://app.prolific.com/","en-US,en;q=0.9","60aad516e34718d318bfb44d","686e379bc37a29ffa5cdc956","6877a618cec02404c9c08e5c","1","1","60aad516e34718d318bfb44d","1","1","2025-07-16T13:25:34.602Z","","","","","","","","","","","StressQ","","50","","","","","","","","","","","","","","","","","","","","","","","","","","","","",""
"4290","","<div style=""width:500px;"">
  <p>What best describes how you currently feel?</p>
  </div>","64","html-slider-response","28","531349","0.0-5.0-4.3","113","1","2025-07-16 13:16:45","1f75c3e559b7213887762d5229550c2b","156.155.35.77","Mozilla/5.0 (Windows NT 10.0; Win64; x64) AppleWebKit/537.36 (KHTML, like Gecko) Chrome/138.0.0.0 Safari/537.36","WebKit","Chrome","138.0.0.0","Windows","10.0","https://app.prolific.com/","en-US,en;q=0.9","60aad516e34718d318bfb44d","686e379bc37a29ffa5cdc956","6877a618cec02404c9c08e5c","1","1","60aad516e34718d318bfb44d","1","1","2025-07-16T13:25:38.892Z","","","","","","","","","","","MotivationQ","","50","","","","","","","","","","","","","","","","","","","","","","","","","","","","",""
"","","","","ctl-task-cpt","29","570964","0.0-5.0-0.4","113","1","2025-07-16 13:16:45","1f75c3e559b7213887762d5229550c2b","156.155.35.77","Mozilla/5.0 (Windows NT 10.0; Win64; x64) AppleWebKit/537.36 (KHTML, like Gecko) Chrome/138.0.0.0 Safari/537.36","WebKit","Chrome","138.0.0.0","Windows","10.0","https://app.prolific.com/","en-US,en;q=0.9","60aad516e34718d318bfb44d","686e379bc37a29ffa5cdc956","6877a618cec02404c9c08e5c","1","1","60aad516e34718d318bfb44d","1","1","2025-07-16T13:26:18.507Z","","","","","","","","","","","","","","win-only","2","g1:SE,g2:NW","0.6","5","0","533916.2","1010.8","6011.7","36596.2","1","4","4","6","2","4","4","9","5","0.06818181818181818","997","3000","470","[""left"",""up""]","{""num_key_presses"":6,""num_perfect"":6,""num_errors"":0,""num_randdir"":0,""num_randdir_good_moves"":0,""num_whilered"":0,""num_whileblue"":0,""num_blue"":4,""num_good_moves"":6}","[415.3214133126395,416.57142761775424,0.1,415.3214133126395,416.57142761775424,105.4,415.3214133126395,416.57142761775424,210.3,415.3214133126395,416.57142761775424,310.5,415.3214133126395,416.57142761775424,414.8,415.3214133126395,416.57142761775424,516.6,360.3214133126395,435.32142761775424,620.2,141.5714133126395,191.57142761775424,724.5,64.0714133126395,89.07142761775425,824.9,45.32141331263951,65.32142761775425,925.4,44.07141331263951,61.57142761775425,1030,44.07141331263951,61.57142761775425,1130.1,71.5714133126395,87.82142761775425,1235.6,265.3214133126395,187.82142761775424,1339.6,732.8214133126395,304.07142761775424,1439.9,1066.5714133126396,379.07142761775424,1540.1,1177.8214133126396,457.82142761775424,1644.6,1181.5714133126396,487.82142761775424,1744.6,1181.5714133126396,489.07142761775424,1845.3,1175.3214133126396,489.07142761775424,1945.8,1172.8214133126396,487.82142761775424,2049.5,1172.8214133126396,487.82142761775424,2150.7,1172.8214133126396,487.82142761775424,2255.8,1172.8214133126396,487.82142761775424,2360.1,1172.8214133126396,487.82142761775424,2460.2,1169.0714133126396,487.82142761775424,2560.4,1166.5714133126396,487.82142761775424,2664.7,1166.5714133126396,487.82142761775424,2765,1166.5714133126396,487.82142761775424,2869.6,1166.5714133126396,487.82142761775424,2970.4,1166.5714133126396,487.82142761775424,3074.9,1166.5714133126396,487.82142761775424,3175.2,1166.5714133126396,487.82142761775424,3279.6,1166.5714133126396,487.82142761775424,3380.4,1166.5714133126396,487.82142761775424,3480.5,1166.5714133126396,487.82142761775424,3580.9,1166.5714133126396,487.82142761775424,3685.5,1166.5714133126396,487.82142761775424,3786.1,1166.5714133126396,487.82142761775424,3890.3,1166.5714133126396,487.82142761775424,3990.7,1166.5714133126396,487.82142761775424,4091.7,1166.5714133126396,487.82142761775424,4195.7,1166.5714133126396,486.57142761775424,4299.8,1166.5714133126396,481.57142761775424,4400.5,1166.5714133126396,481.57142761775424,4504.9,1167.8214133126396,481.57142761775424,4605.2,1167.8214133126396,480.32142761775424,4706.8,1170.3214133126396,479.07142761775424,4810.2,1171.5714133126396,476.57142761775424,4911.3]","[5197.6,5197.6,2755.1,2005.1,437.4,""smooth"",""up"",""up"",""good_move"",16143.1,10945.2,2159.5,13533.8,449.8,""smooth"",""up"",""up"",""good_move"",19376.6,3233.3,2650,16143.3,583.3,""smooth"",""up"",""up"",""good_move"",24946.9,5570.1,1896.5,22684.3,366.1,""smooth"",""left"",""left"",""good_move"",27862.9,2915.8,2549.9,24947.1,365.9,""smooth"",""left"",""left"",""good_move"",30498.7,2635.7,2275.6,27863,360.1,""smooth"",""left"",""left"",""good_move""]","",""
"4264","","<div style=""width:500px;"">
  <p>What determined the result of this run?</p>
  </div>","59","html-slider-response","30","575228","0.0-5.0-1.4","113","1","2025-07-16 13:16:45","1f75c3e559b7213887762d5229550c2b","156.155.35.77","Mozilla/5.0 (Windows NT 10.0; Win64; x64) AppleWebKit/537.36 (KHTML, like Gecko) Chrome/138.0.0.0 Safari/537.36","WebKit","Chrome","138.0.0.0","Windows","10.0","https://app.prolific.com/","en-US,en;q=0.9","60aad516e34718d318bfb44d","686e379bc37a29ffa5cdc956","6877a618cec02404c9c08e5c","1","1","60aad516e34718d318bfb44d","1","1","2025-07-16T13:26:22.771Z","","","","","","","","","","","AttribQ","","50","","","","","","","","","","","","","","","","","","","","","","","","","","","","",""
"3251","","<div style=""width:500px;"">
  <p>How much control did you have over the ball?</p>
  </div>","100","html-slider-response","31","578480","0.0-5.0-2.4","113","1","2025-07-16 13:16:45","1f75c3e559b7213887762d5229550c2b","156.155.35.77","Mozilla/5.0 (Windows NT 10.0; Win64; x64) AppleWebKit/537.36 (KHTML, like Gecko) Chrome/138.0.0.0 Safari/537.36","WebKit","Chrome","138.0.0.0","Windows","10.0","https://app.prolific.com/","en-US,en;q=0.9","60aad516e34718d318bfb44d","686e379bc37a29ffa5cdc956","6877a618cec02404c9c08e5c","1","1","60aad516e34718d318bfb44d","1","1","2025-07-16T13:26:26.023Z","","","","","","","","","","","ControlQ","","50","","","","","","","","","","","","","","","","","","","","","","","","","","","","",""
"3022","","<div style=""width:500px;"">
  <p>How would you describe your current emotional state?</p>
  </div>","41","html-slider-response","32","581503","0.0-5.0-3.4","113","1","2025-07-16 13:16:45","1f75c3e559b7213887762d5229550c2b","156.155.35.77","Mozilla/5.0 (Windows NT 10.0; Win64; x64) AppleWebKit/537.36 (KHTML, like Gecko) Chrome/138.0.0.0 Safari/537.36","WebKit","Chrome","138.0.0.0","Windows","10.0","https://app.prolific.com/","en-US,en;q=0.9","60aad516e34718d318bfb44d","686e379bc37a29ffa5cdc956","6877a618cec02404c9c08e5c","1","1","60aad516e34718d318bfb44d","1","1","2025-07-16T13:26:29.046Z","","","","","","","","","","","StressQ","","50","","","","","","","","","","","","","","","","","","","","","","","","","","","","",""
"3066","","<div style=""width:500px;"">
  <p>What best describes how you currently feel?</p>
  </div>","67","html-slider-response","33","584570","0.0-5.0-4.4","113","1","2025-07-16 13:16:45","1f75c3e559b7213887762d5229550c2b","156.155.35.77","Mozilla/5.0 (Windows NT 10.0; Win64; x64) AppleWebKit/537.36 (KHTML, like Gecko) Chrome/138.0.0.0 Safari/537.36","WebKit","Chrome","138.0.0.0","Windows","10.0","https://app.prolific.com/","en-US,en;q=0.9","60aad516e34718d318bfb44d","686e379bc37a29ffa5cdc956","6877a618cec02404c9c08e5c","1","1","60aad516e34718d318bfb44d","1","1","2025-07-16T13:26:32.113Z","","","","","","","","","","","MotivationQ","","50","","","","","","","","","","","","","","","","","","","","","","","","","","","","",""
"","","","","ctl-task-cpt","34","620325","0.0-5.0-0.5","113","1","2025-07-16 13:16:45","1f75c3e559b7213887762d5229550c2b","156.155.35.77","Mozilla/5.0 (Windows NT 10.0; Win64; x64) AppleWebKit/537.36 (KHTML, like Gecko) Chrome/138.0.0.0 Safari/537.36","WebKit","Chrome","138.0.0.0","Windows","10.0","https://app.prolific.com/","en-US,en;q=0.9","60aad516e34718d318bfb44d","686e379bc37a29ffa5cdc956","6877a618cec02404c9c08e5c","1","1","60aad516e34718d318bfb44d","1","1","2025-07-16T13:27:07.868Z","","","","","","","","","","","","","","win-only","3","g1:SW,g2:NE","0.5","6","0","587136","1102.1","6105.9","32736","1","4","8","6","1","-1","-1","8","9","0.06060606060606061","1101.4","3000","-3015","[""down"",""left""]","{""num_key_presses"":5,""num_perfect"":2,""num_errors"":0,""num_randdir"":3,""num_randdir_good_moves"":1,""num_whilered"":0,""num_whileblue"":0,""num_blue"":3,""num_good_moves"":3}","[421.5714133126395,420.32142761775424,0.1,421.5714133126395,420.32142761775424,103.9,421.5714133126395,420.32142761775424,209.5,421.5714133126395,420.32142761775424,313.3,421.5714133126395,420.32142761775424,419.4,387.8214133126395,516.5714276177542,523.7,336.5714133126395,621.5714276177542,623.9,242.8214133126395,697.8214276177542,724.1,137.8214133126395,736.5714276177542,828.8,112.8214133126395,746.5714276177542,929.3,101.5714133126395,751.5714276177542,1033.4,101.5714133126395,751.5714276177542,1134,101.5714133126395,751.5714276177542,1238.6,101.5714133126395,751.5714276177542,1339,294.0714133126395,776.5714276177542,1439.2,761.5714133126395,771.5714276177542,1539.5,852.8214133126395,746.5714276177542,1643.7,886.5714133126395,724.0714276177542,1743.9,889.0714133126395,720.3214276177542,1848.9,891.5714133126395,711.5714276177542,1949.1,891.5714133126395,711.5714276177542,2054.8,895.3214133126395,706.5714276177542,2159.6,916.5714133126395,687.8214276177542,2263.8,927.8214133126395,676.5714276177542,2368.8,931.5714133126395,672.8214276177542,2473.8,931.5714133126395,672.8214276177542,2574.2,931.5714133126395,672.8214276177542,2679.2,931.5714133126395,672.8214276177542,2779.3,931.5714133126395,672.8214276177542,2883.8,931.5714133126395,672.8214276177542,2989,931.5714133126395,672.8214276177542,3089.3,931.5714133126395,672.8214276177542,3189.7,931.5714133126395,672.8214276177542,3294.5,931.5714133126395,672.8214276177542,3398.6,931.5714133126395,672.8214276177542,3499.2,931.5714133126395,672.8214276177542,3605.5,931.5714133126395,672.8214276177542,3709.1,931.5714133126395,672.8214276177542,3814.9,931.5714133126395,672.8214276177542,3919.6,931.5714133126395,672.8214276177542,4019.7,931.5714133126395,672.8214276177542,4124.1,931.5714133126395,672.8214276177542,4224.7,931.5714133126395,672.8214276177542,4328.6,931.5714133126395,672.8214276177542,4429.1,931.5714133126395,672.8214276177542,4533.6,931.5714133126395,672.8214276177542,4634.3,931.5714133126395,672.8214276177542,4738.5,931.5714133126395,672.8214276177542,4839.1,931.5714133126395,672.8214276177542,4939.8]","[1516.9,1516.9,1000,0,516.9,""smooth"",""down"",""down"",""good_move"",8550.8,7033.7,3070.1,4945.6,535.1,""oops"",""down"",""down"",""good_move"",14093.5,5542.5,1564,12144.9,384.6,""smooth"",""left"",""left"",""good_move"",21066.4,6972.6,2841.7,17714.9,509.8,""oops"",""left"",""up"",""bad_move"",23743.2,2676.6,2005,21066.6,671.6,""oops"",""down"",""right"",""bad_move""]","",""
"4177","","<div style=""width:500px;"">
  <p>What determined the result of this run?</p>
  </div>","30","html-slider-response","35","624503","0.0-5.0-1.5","113","1","2025-07-16 13:16:45","1f75c3e559b7213887762d5229550c2b","156.155.35.77","Mozilla/5.0 (Windows NT 10.0; Win64; x64) AppleWebKit/537.36 (KHTML, like Gecko) Chrome/138.0.0.0 Safari/537.36","WebKit","Chrome","138.0.0.0","Windows","10.0","https://app.prolific.com/","en-US,en;q=0.9","60aad516e34718d318bfb44d","686e379bc37a29ffa5cdc956","6877a618cec02404c9c08e5c","1","1","60aad516e34718d318bfb44d","1","1","2025-07-16T13:27:12.046Z","","","","","","","","","","","AttribQ","","50","","","","","","","","","","","","","","","","","","","","","","","","","","","","",""
"4296","","<div style=""width:500px;"">
  <p>How much control did you have over the ball?</p>
  </div>","23","html-slider-response","36","628800","0.0-5.0-2.5","113","1","2025-07-16 13:16:45","1f75c3e559b7213887762d5229550c2b","156.155.35.77","Mozilla/5.0 (Windows NT 10.0; Win64; x64) AppleWebKit/537.36 (KHTML, like Gecko) Chrome/138.0.0.0 Safari/537.36","WebKit","Chrome","138.0.0.0","Windows","10.0","https://app.prolific.com/","en-US,en;q=0.9","60aad516e34718d318bfb44d","686e379bc37a29ffa5cdc956","6877a618cec02404c9c08e5c","1","1","60aad516e34718d318bfb44d","1","1","2025-07-16T13:27:16.343Z","","","","","","","","","","","ControlQ","","50","","","","","","","","","","","","","","","","","","","","","","","","","","","","",""
"6824","","<div style=""width:500px;"">
  <p>How would you describe your current emotional state?</p>
  </div>","41","html-slider-response","37","635625","0.0-5.0-3.5","113","1","2025-07-16 13:16:45","1f75c3e559b7213887762d5229550c2b","156.155.35.77","Mozilla/5.0 (Windows NT 10.0; Win64; x64) AppleWebKit/537.36 (KHTML, like Gecko) Chrome/138.0.0.0 Safari/537.36","WebKit","Chrome","138.0.0.0","Windows","10.0","https://app.prolific.com/","en-US,en;q=0.9","60aad516e34718d318bfb44d","686e379bc37a29ffa5cdc956","6877a618cec02404c9c08e5c","1","1","60aad516e34718d318bfb44d","1","1","2025-07-16T13:27:23.168Z","","","","","","","","","","","StressQ","","50","","","","","","","","","","","","","","","","","","","","","","","","","","","","",""
"4065","","<div style=""width:500px;"">
  <p>What best describes how you currently feel?</p>
  </div>","58","html-slider-response","38","639691","0.0-5.0-4.5","113","1","2025-07-16 13:16:45","1f75c3e559b7213887762d5229550c2b","156.155.35.77","Mozilla/5.0 (Windows NT 10.0; Win64; x64) AppleWebKit/537.36 (KHTML, like Gecko) Chrome/138.0.0.0 Safari/537.36","WebKit","Chrome","138.0.0.0","Windows","10.0","https://app.prolific.com/","en-US,en;q=0.9","60aad516e34718d318bfb44d","686e379bc37a29ffa5cdc956","6877a618cec02404c9c08e5c","1","1","60aad516e34718d318bfb44d","1","1","2025-07-16T13:27:27.234Z","","","","","","","","","","","MotivationQ","","50","","","","","","","","","","","","","","","","","","","","","","","","","","","","",""
"","","","","ctl-task-cpt","39","673009","0.0-5.0-0.6","113","1","2025-07-16 13:16:45","1f75c3e559b7213887762d5229550c2b","156.155.35.77","Mozilla/5.0 (Windows NT 10.0; Win64; x64) AppleWebKit/537.36 (KHTML, like Gecko) Chrome/138.0.0.0 Safari/537.36","WebKit","Chrome","138.0.0.0","Windows","10.0","https://app.prolific.com/","en-US,en;q=0.9","60aad516e34718d318bfb44d","686e379bc37a29ffa5cdc956","6877a618cec02404c9c08e5c","1","1","60aad516e34718d318bfb44d","1","1","2025-07-16T13:28:00.552Z","","","","","","","","","","","","","","win-only","3","g1:SW,g2:NE","0.4","7","0","642257.2","1512.4","6515.8","30300.5","1","4","8","6","2","-8","-8","0","8","0","2100.7","3000","-3015","[""up"",""right""]","{""num_key_presses"":8,""num_perfect"":4,""num_errors"":0,""num_randdir"":4,""num_randdir_good_moves"":2,""num_whilered"":0,""num_whileblue"":0,""num_blue"":0,""num_good_moves"":6}","[412.8214133126395,411.57142761775424,0.3,412.8214133126395,411.57142761775424,103.2,412.8214133126395,411.57142761775424,204.6,412.8214133126395,411.57142761775424,307.8,412.8214133126395,411.57142761775424,408.4,412.8214133126395,411.57142761775424,512.8,410.3214133126395,425.32142761775424,614.9,404.0714133126395,466.57142761775424,717.7,412.8214133126395,469.07142761775424,817.9,461.5714133126395,442.82142761775424,918.2,417.8214133126395,437.82142761775424,1019.1,220.3214133126395,661.5714276177542,1123.1,202.8214133126395,697.8214276177542,1223.6,182.8214133126395,706.5714276177542,1323.7,152.8214133126395,701.5714276177542,1428.3,104.0714133126395,700.3214276177542,1529.8,441.5714133126395,354.07142761775424,1632.8,716.5714133126395,170.32142761775424,1732.9,737.8214133126395,141.57142761775424,1833.1,741.5714133126395,135.32142761775424,1933.2,746.5714133126395,102.82142761775425,2039.5,746.5714133126395,97.82142761775425,2144,746.5714133126395,97.82142761775425,2248.8,729.0714133126395,131.57142761775424,2349.2,765.3214133126395,324.07142761775424,2453.3,931.5714133126395,444.07142761775424,2553.7,952.8214133126395,452.82142761775424,2654.2,954.0714133126395,452.82142761775424,2758.8,954.0714133126395,452.82142761775424,2863.6,954.0714133126395,452.82142761775424,2963.7,954.0714133126395,452.82142761775424,3067.8,954.0714133126395,452.82142761775424,3168.6,954.0714133126395,452.82142761775424,3269.6,954.0714133126395,452.82142761775424,3373,954.0714133126395,452.82142761775424,3473.4,954.0714133126395,452.82142761775424,3579.1,954.0714133126395,452.82142761775424,3683,954.0714133126395,452.82142761775424,3788.7,954.0714133126395,452.82142761775424,3894.4,954.0714133126395,452.82142761775424,3998.1,954.0714133126395,452.82142761775424,4098.5,954.0714133126395,452.82142761775424,4198.9,954.0714133126395,452.82142761775424,4303.1,954.0714133126395,452.82142761775424,4403.8,954.0714133126395,452.82142761775424,4507.8,954.0714133126395,452.82142761775424,4608.9,954.0714133126395,452.82142761775424,4709,954.0714133126395,452.82142761775424,4813.2,954.0714133126395,452.82142761775424,4914]","[1499.7,1499.7,1000,0,499.7,""smooth"",""up"",""up"",""good_move"",4247.8,2747.7,2379.7,1500.1,368,""smooth"",""up"",""up"",""good_move"",7264.3,3016.4,2719.2,4247.9,297.2,""smooth"",""up"",""up"",""good_move"",10363.6,3099.2,2816.3,7264.4,282.9,""oops"",""right"",""left"",""bad_move"",13572,3208.1,2866.1,10363.9,342,""smooth"",""right"",""right"",""good_move"",16444,2871.9,2585.6,13572.1,286.3,""oops"",""right"",""right"",""good_move"",18905.9,2461.8,2035.4,16444.1,426.4,""oops"",""right"",""left"",""bad_move"",21105.9,2199.4,1831.9,18906.5,367.5,""oops"",""right"",""right"",""good_move""]","",""
"4128","","<div style=""width:500px;"">
  <p>What determined the result of this run?</p>
  </div>","8","html-slider-response","40","677139","0.0-5.0-1.6","113","1","2025-07-16 13:16:45","1f75c3e559b7213887762d5229550c2b","156.155.35.77","Mozilla/5.0 (Windows NT 10.0; Win64; x64) AppleWebKit/537.36 (KHTML, like Gecko) Chrome/138.0.0.0 Safari/537.36","WebKit","Chrome","138.0.0.0","Windows","10.0","https://app.prolific.com/","en-US,en;q=0.9","60aad516e34718d318bfb44d","686e379bc37a29ffa5cdc956","6877a618cec02404c9c08e5c","1","1","60aad516e34718d318bfb44d","1","1","2025-07-16T13:28:04.682Z","","","","","","","","","","","AttribQ","","50","","","","","","","","","","","","","","","","","","","","","","","","","","","","",""
"4312","","<div style=""width:500px;"">
  <p>How much control did you have over the ball?</p>
  </div>","0","html-slider-response","41","681452","0.0-5.0-2.6","113","1","2025-07-16 13:16:45","1f75c3e559b7213887762d5229550c2b","156.155.35.77","Mozilla/5.0 (Windows NT 10.0; Win64; x64) AppleWebKit/537.36 (KHTML, like Gecko) Chrome/138.0.0.0 Safari/537.36","WebKit","Chrome","138.0.0.0","Windows","10.0","https://app.prolific.com/","en-US,en;q=0.9","60aad516e34718d318bfb44d","686e379bc37a29ffa5cdc956","6877a618cec02404c9c08e5c","1","1","60aad516e34718d318bfb44d","1","1","2025-07-16T13:28:08.995Z","","","","","","","","","","","ControlQ","","50","","","","","","","","","","","","","","","","","","","","","","","","","","","","",""
"3689","","<div style=""width:500px;"">
  <p>How would you describe your current emotional state?</p>
  </div>","96","html-slider-response","42","685142","0.0-5.0-3.6","113","1","2025-07-16 13:16:45","1f75c3e559b7213887762d5229550c2b","156.155.35.77","Mozilla/5.0 (Windows NT 10.0; Win64; x64) AppleWebKit/537.36 (KHTML, like Gecko) Chrome/138.0.0.0 Safari/537.36","WebKit","Chrome","138.0.0.0","Windows","10.0","https://app.prolific.com/","en-US,en;q=0.9","60aad516e34718d318bfb44d","686e379bc37a29ffa5cdc956","6877a618cec02404c9c08e5c","1","1","60aad516e34718d318bfb44d","1","1","2025-07-16T13:28:12.685Z","","","","","","","","","","","StressQ","","50","","","","","","","","","","","","","","","","","","","","","","","","","","","","",""
"2953","","<div style=""width:500px;"">
  <p>What best describes how you currently feel?</p>
  </div>","28","html-slider-response","43","688096","0.0-5.0-4.6","113","1","2025-07-16 13:16:45","1f75c3e559b7213887762d5229550c2b","156.155.35.77","Mozilla/5.0 (Windows NT 10.0; Win64; x64) AppleWebKit/537.36 (KHTML, like Gecko) Chrome/138.0.0.0 Safari/537.36","WebKit","Chrome","138.0.0.0","Windows","10.0","https://app.prolific.com/","en-US,en;q=0.9","60aad516e34718d318bfb44d","686e379bc37a29ffa5cdc956","6877a618cec02404c9c08e5c","1","1","60aad516e34718d318bfb44d","1","1","2025-07-16T13:28:15.639Z","","","","","","","","","","","MotivationQ","","50","","","","","","","","","","","","","","","","","","","","","","","","","","","","",""
"","","","","ctl-task-cpt","44","728765","0.0-5.0-0.7","113","1","2025-07-16 13:16:45","1f75c3e559b7213887762d5229550c2b","156.155.35.77","Mozilla/5.0 (Windows NT 10.0; Win64; x64) AppleWebKit/537.36 (KHTML, like Gecko) Chrome/138.0.0.0 Safari/537.36","WebKit","Chrome","138.0.0.0","Windows","10.0","https://app.prolific.com/","en-US,en;q=0.9","60aad516e34718d318bfb44d","686e379bc37a29ffa5cdc956","6877a618cec02404c9c08e5c","1","1","60aad516e34718d318bfb44d","1","1","2025-07-16T13:28:56.308Z","","","","","","","","","","","","","","win-only","0","g1:NW,g2:SE","0.3","8","0","690662.6","1183.4","6186.1","37650.7","1","4","4","6","2","-4","-4","0","0","0","1305.6","3000","-3015","[""down"",""right""]","{""num_key_presses"":8,""num_perfect"":3,""num_errors"":0,""num_randdir"":5,""num_randdir_good_moves"":2,""num_whilered"":0,""num_whileblue"":0,""num_blue"":2,""num_good_moves"":5}","[416.5714133126395,412.82142761775424,0.3,416.5714133126395,412.82142761775424,102.3,416.5714133126395,412.82142761775424,203.1,410.3214133126395,435.32142761775424,307.1,374.0714133126395,514.0714276177542,408,354.0714133126395,567.8214276177542,512.7,471.5714133126395,672.8214276177542,613.6,626.5714133126395,722.8214276177542,718.1,619.0714133126395,641.5714276177542,821.8,629.0714133126395,657.8214276177542,922.7,687.8214133126395,717.8214276177542,1027.3,705.3214133126395,726.5714276177542,1131.9,755.3214133126395,746.5714276177542,1233.2,770.3214133126395,756.5714276177542,1333.8,770.3214133126395,756.5714276177542,1437.1,761.5714133126395,775.3214276177542,1537.7,802.8214133126395,934.0714276177542,1637.8,945.3214133126395,960.3214276177542,1737.8,1092.8214133126396,932.8214276177542,1842,1122.8214133126396,865.3214276177542,1944.5,1134.0714133126396,850.3214276177542,2044.6,1139.0714133126396,841.5714276177542,2147.2,1140.3214133126396,841.5714276177542,2254.2,1140.3214133126396,841.5714276177542,2357.4,1140.3214133126396,841.5714276177542,2462.2,1140.3214133126396,841.5714276177542,2567.4,1140.3214133126396,841.5714276177542,2667.8,1140.3214133126396,841.5714276177542,2772.6,1140.3214133126396,841.5714276177542,2873.9,1140.3214133126396,841.5714276177542,2978.1,1140.3214133126396,841.5714276177542,3081.9,1140.3214133126396,841.5714276177542,3183.1,1140.3214133126396,841.5714276177542,3287.2,1140.3214133126396,841.5714276177542,3387.3,1140.3214133126396,841.5714276177542,3488.4,1140.3214133126396,841.5714276177542,3592.1,1140.3214133126396,841.5714276177542,3698,1140.3214133126396,841.5714276177542,3802.1,1140.3214133126396,841.5714276177542,3902.4,1140.3214133126396,841.5714276177542,4002.4,1140.3214133126396,841.5714276177542,4107.6,1140.3214133126396,841.5714276177542,4212.6,1140.3214133126396,841.5714276177542,4312.6,1140.3214133126396,841.5714276177542,4413.2,1140.3214133126396,841.5714276177542,4518.1,1140.3214133126396,841.5714276177542,4623.5,1140.3214133126396,841.5714276177542,4727.6,1140.3214133126396,841.5714276177542,4832.4,1140.3214133126396,841.5714276177542,4938.1]","[1427.6,1427.6,1000,0,427.6,""smooth"",""right"",""right"",""good_move"",4230.8,2802.7,2440.7,1428.1,362,""smooth"",""right"",""right"",""good_move"",11002.1,6771.2,2791.9,7800.2,410,""smooth"",""right"",""right"",""good_move"",14252.3,3249.8,2898.3,11002.5,351.5,""oops"",""down"",""down"",""good_move"",16792.3,2539.7,2208.8,14252.6,330.9,""oops"",""down"",""left"",""bad_move"",19236,2443.2,2079.2,16792.8,364,""oops"",""down"",""up"",""bad_move"",22130.5,2893.9,2597.8,19236.6,296.1,""oops"",""down"",""left"",""bad_move"",28718.5,6587.7,2538.7,25830.7,349.1,""oops"",""down"",""down"",""good_move""]","",""
"3702","","<div style=""width:500px;"">
  <p>What determined the result of this run?</p>
  </div>","5","html-slider-response","45","732468","0.0-5.0-1.7","113","1","2025-07-16 13:16:45","1f75c3e559b7213887762d5229550c2b","156.155.35.77","Mozilla/5.0 (Windows NT 10.0; Win64; x64) AppleWebKit/537.36 (KHTML, like Gecko) Chrome/138.0.0.0 Safari/537.36","WebKit","Chrome","138.0.0.0","Windows","10.0","https://app.prolific.com/","en-US,en;q=0.9","60aad516e34718d318bfb44d","686e379bc37a29ffa5cdc956","6877a618cec02404c9c08e5c","1","1","60aad516e34718d318bfb44d","1","1","2025-07-16T13:29:00.011Z","","","","","","","","","","","AttribQ","","50","","","","","","","","","","","","","","","","","","","","","","","","","","","","",""
"2834","","<div style=""width:500px;"">
  <p>How much control did you have over the ball?</p>
  </div>","3","html-slider-response","46","735303","0.0-5.0-2.7","113","1","2025-07-16 13:16:45","1f75c3e559b7213887762d5229550c2b","156.155.35.77","Mozilla/5.0 (Windows NT 10.0; Win64; x64) AppleWebKit/537.36 (KHTML, like Gecko) Chrome/138.0.0.0 Safari/537.36","WebKit","Chrome","138.0.0.0","Windows","10.0","https://app.prolific.com/","en-US,en;q=0.9","60aad516e34718d318bfb44d","686e379bc37a29ffa5cdc956","6877a618cec02404c9c08e5c","1","1","60aad516e34718d318bfb44d","1","1","2025-07-16T13:29:02.846Z","","","","","","","","","","","ControlQ","","50","","","","","","","","","","","","","","","","","","","","","","","","","","","","",""
"2917","","<div style=""width:500px;"">
  <p>How would you describe your current emotional state?</p>
  </div>","83","html-slider-response","47","738220","0.0-5.0-3.7","113","1","2025-07-16 13:16:45","1f75c3e559b7213887762d5229550c2b","156.155.35.77","Mozilla/5.0 (Windows NT 10.0; Win64; x64) AppleWebKit/537.36 (KHTML, like Gecko) Chrome/138.0.0.0 Safari/537.36","WebKit","Chrome","138.0.0.0","Windows","10.0","https://app.prolific.com/","en-US,en;q=0.9","60aad516e34718d318bfb44d","686e379bc37a29ffa5cdc956","6877a618cec02404c9c08e5c","1","1","60aad516e34718d318bfb44d","1","1","2025-07-16T13:29:05.763Z","","","","","","","","","","","StressQ","","50","","","","","","","","","","","","","","","","","","","","","","","","","","","","",""
"2706","","<div style=""width:500px;"">
  <p>What best describes how you currently feel?</p>
  </div>","40","html-slider-response","48","740927","0.0-5.0-4.7","113","1","2025-07-16 13:16:45","1f75c3e559b7213887762d5229550c2b","156.155.35.77","Mozilla/5.0 (Windows NT 10.0; Win64; x64) AppleWebKit/537.36 (KHTML, like Gecko) Chrome/138.0.0.0 Safari/537.36","WebKit","Chrome","138.0.0.0","Windows","10.0","https://app.prolific.com/","en-US,en;q=0.9","60aad516e34718d318bfb44d","686e379bc37a29ffa5cdc956","6877a618cec02404c9c08e5c","1","1","60aad516e34718d318bfb44d","1","1","2025-07-16T13:29:08.470Z","","","","","","","","","","","MotivationQ","","50","","","","","","","","","","","","","","","","","","","","","","","","","","","","",""
"","","","","ctl-task-cpt","49","776588","0.0-5.0-0.8","113","1","2025-07-16 13:16:45","1f75c3e559b7213887762d5229550c2b","156.155.35.77","Mozilla/5.0 (Windows NT 10.0; Win64; x64) AppleWebKit/537.36 (KHTML, like Gecko) Chrome/138.0.0.0 Safari/537.36","WebKit","Chrome","138.0.0.0","Windows","10.0","https://app.prolific.com/","en-US,en;q=0.9","60aad516e34718d318bfb44d","686e379bc37a29ffa5cdc956","6877a618cec02404c9c08e5c","1","1","60aad516e34718d318bfb44d","1","1","2025-07-16T13:29:44.131Z","","","","","","","","","","","","","","win-only","2","g1:SE,g2:NW","0.2","9","0","743493.6","1213.4","6216.1","32641.7","1","4","4","6","1","-1","-1","0","0","0","981.7","3000","-3005","[""down"",""right""]","{""num_key_presses"":7,""num_perfect"":2,""num_errors"":0,""num_randdir"":5,""num_randdir_good_moves"":2,""num_whilered"":0,""num_whileblue"":0,""num_blue"":2,""num_good_moves"":4}","[410.3214133126395,415.32142761775424,0.2,410.3214133126395,414.07142761775424,102.3,410.3214133126395,414.07142761775424,207.7,410.3214133126395,415.32142761775424,307.7,419.0714133126395,580.3214276177542,411.8,632.8214133126395,711.5714276177542,512.6,676.5714133126395,750.3214276177542,613.3,694.0714133126395,754.0714276177542,713.4,732.8214133126395,755.3214276177542,818.3,746.5714133126395,759.0714276177542,922,747.8214133126395,759.0714276177542,1022.5,747.8214133126395,759.0714276177542,1127.1,766.5714133126395,825.3214276177542,1228.6,936.5714133126395,951.5714276177542,1332,1039.0714133126396,937.8214276177542,1433.6,1060.3214133126396,881.5714276177542,1536.9,1072.8214133126396,841.5714276177542,1637.2,1076.5714133126396,826.5714276177542,1737.2,1076.5714133126396,824.0714276177542,1838.3,1076.5714133126396,822.8214276177542,1943,1076.5714133126396,822.8214276177542,2047.2,1076.5714133126396,822.8214276177542,2148.1,1076.5714133126396,822.8214276177542,2251.8,1076.5714133126396,822.8214276177542,2352.2,1076.5714133126396,822.8214276177542,2452.7,1076.5714133126396,822.8214276177542,2557,1076.5714133126396,822.8214276177542,2657.6,1076.5714133126396,822.8214276177542,2757.5,1076.5714133126396,822.8214276177542,2857.6,1076.5714133126396,822.8214276177542,2962.6,1076.5714133126396,822.8214276177542,3067.6,1076.5714133126396,822.8214276177542,3172.3,1076.5714133126396,822.8214276177542,3273,1076.5714133126396,822.8214276177542,3375.4,1076.5714133126396,822.8214276177542,3477.3,1076.5714133126396,822.8214276177542,3577.8,1076.5714133126396,822.8214276177542,3678.4,1076.5714133126396,822.8214276177542,3782.9,1076.5714133126396,822.8214276177542,3888.3,1076.5714133126396,822.8214276177542,3991.9,1076.5714133126396,822.8214276177542,4097,1076.5714133126396,822.8214276177542,4202.1,1076.5714133126396,822.8214276177542,4302.2,1076.5714133126396,822.8214276177542,4407.9,1076.5714133126396,822.8214276177542,4512,1076.5714133126396,822.8214276177542,4613.4,1076.5714133126396,822.8214276177542,4716.8,1076.5714133126396,822.8214276177542,4817.1,1076.5714133126396,822.8214276177542,4917.6]","[3785.2,3785.2,1240.8,2009.3,535.1,""oops"",""down"",""up"",""bad_move"",7072.7,3287.2,2937,3785.5,350.2,""oops"",""down"",""down"",""good_move"",9757.1,2684.3,2315.9,7072.8,368.6,""smooth"",""down"",""down"",""good_move"",12312.7,2555,2075.5,9757.7,479.5,""smooth"",""down"",""down"",""good_move"",18561.7,6248.8,2441.4,15695.6,424.7,""oops"",""right"",""left"",""bad_move"",21093,2530.9,2183.4,18562.1,347.5,""oops"",""right"",""right"",""good_move"",23618.4,2525,2222.9,21093.4,302.1,""oops"",""right"",""up"",""bad_move""]","",""
"2672","","<div style=""width:500px;"">
  <p>What determined the result of this run?</p>
  </div>","0","html-slider-response","50","779262","0.0-5.0-1.8","113","1","2025-07-16 13:16:45","1f75c3e559b7213887762d5229550c2b","156.155.35.77","Mozilla/5.0 (Windows NT 10.0; Win64; x64) AppleWebKit/537.36 (KHTML, like Gecko) Chrome/138.0.0.0 Safari/537.36","WebKit","Chrome","138.0.0.0","Windows","10.0","https://app.prolific.com/","en-US,en;q=0.9","60aad516e34718d318bfb44d","686e379bc37a29ffa5cdc956","6877a618cec02404c9c08e5c","1","1","60aad516e34718d318bfb44d","1","1","2025-07-16T13:29:46.805Z","","","","","","","","","","","AttribQ","","50","","","","","","","","","","","","","","","","","","","","","","","","","","","","",""
"3389","","<div style=""width:500px;"">
  <p>How much control did you have over the ball?</p>
  </div>","23","html-slider-response","51","782651","0.0-5.0-2.8","113","1","2025-07-16 13:16:45","1f75c3e559b7213887762d5229550c2b","156.155.35.77","Mozilla/5.0 (Windows NT 10.0; Win64; x64) AppleWebKit/537.36 (KHTML, like Gecko) Chrome/138.0.0.0 Safari/537.36","WebKit","Chrome","138.0.0.0","Windows","10.0","https://app.prolific.com/","en-US,en;q=0.9","60aad516e34718d318bfb44d","686e379bc37a29ffa5cdc956","6877a618cec02404c9c08e5c","1","1","60aad516e34718d318bfb44d","1","1","2025-07-16T13:29:50.194Z","","","","","","","","","","","ControlQ","","50","","","","","","","","","","","","","","","","","","","","","","","","","","","","",""
"3712","","<div style=""width:500px;"">
  <p>How would you describe your current emotional state?</p>
  </div>","74","html-slider-response","52","786365","0.0-5.0-3.8","113","1","2025-07-16 13:16:45","1f75c3e559b7213887762d5229550c2b","156.155.35.77","Mozilla/5.0 (Windows NT 10.0; Win64; x64) AppleWebKit/537.36 (KHTML, like Gecko) Chrome/138.0.0.0 Safari/537.36","WebKit","Chrome","138.0.0.0","Windows","10.0","https://app.prolific.com/","en-US,en;q=0.9","60aad516e34718d318bfb44d","686e379bc37a29ffa5cdc956","6877a618cec02404c9c08e5c","1","1","60aad516e34718d318bfb44d","1","1","2025-07-16T13:29:53.908Z","","","","","","","","","","","StressQ","","50","","","","","","","","","","","","","","","","","","","","","","","","","","","","",""
"2871","","<div style=""width:500px;"">
  <p>What best describes how you currently feel?</p>
  </div>","40","html-slider-response","53","789236","0.0-5.0-4.8","113","1","2025-07-16 13:16:45","1f75c3e559b7213887762d5229550c2b","156.155.35.77","Mozilla/5.0 (Windows NT 10.0; Win64; x64) AppleWebKit/537.36 (KHTML, like Gecko) Chrome/138.0.0.0 Safari/537.36","WebKit","Chrome","138.0.0.0","Windows","10.0","https://app.prolific.com/","en-US,en;q=0.9","60aad516e34718d318bfb44d","686e379bc37a29ffa5cdc956","6877a618cec02404c9c08e5c","1","1","60aad516e34718d318bfb44d","1","1","2025-07-16T13:29:56.779Z","","","","","","","","","","","MotivationQ","","50","","","","","","","","","","","","","","","","","","","","","","","","","","","","",""
"","","","","ctl-task-cpt","54","836189","0.0-5.0-0.9","113","1","2025-07-16 13:16:45","1f75c3e559b7213887762d5229550c2b","156.155.35.77","Mozilla/5.0 (Windows NT 10.0; Win64; x64) AppleWebKit/537.36 (KHTML, like Gecko) Chrome/138.0.0.0 Safari/537.36","WebKit","Chrome","138.0.0.0","Windows","10.0","https://app.prolific.com/","en-US,en;q=0.9","60aad516e34718d318bfb44d","686e379bc37a29ffa5cdc956","6877a618cec02404c9c08e5c","1","1","60aad516e34718d318bfb44d","1","1","2025-07-16T13:30:43.732Z","","","","","","","","","","","","","","win-only","0","g1:NW,g2:SE","0.4","10","0","791802.7","943.6","5945.6","43935.4","1","4","8","6","1","-1","-1","0","0","0","1049.7","3000","-3015","[""left"",""up""]","{""num_key_presses"":7,""num_perfect"":3,""num_errors"":0,""num_randdir"":4,""num_randdir_good_moves"":2,""num_whilered"":0,""num_whileblue"":0,""num_blue"":4,""num_good_moves"":5}","[422.8214133126395,414.07142761775424,0.1,422.8214133126395,414.07142761775424,102.5,422.8214133126395,415.32142761775424,203.3,422.8214133126395,451.57142761775424,307.7,466.5714133126395,531.5714276177542,412.9,495.3214133126395,557.8214276177542,517.3,241.5714133126395,226.57142761775424,622.1,187.8214133126395,160.32142761775424,727.5,146.5714133126395,136.57142761775424,832.5,105.3214133126395,107.82142761775425,937.9,101.5714133126395,96.57142761775425,1042.1,101.5714133126395,96.57142761775425,1147.7,99.0714133126395,101.57142761775425,1248.7,130.3214133126395,265.32142761775424,1352.1,242.8214133126395,457.82142761775424,1453.2,566.5714133126395,569.0714276177542,1558.1,876.5714133126395,506.57142761775424,1661.7,894.0714133126395,450.32142761775424,1762.8,901.5714133126395,425.32142761775424,1867.8,902.8214133126395,420.32142761775424,1973,902.8214133126395,420.32142761775424,2077.7,902.8214133126395,420.32142761775424,2183,902.8214133126395,420.32142761775424,2288.3,902.8214133126395,420.32142761775424,2391.6,902.8214133126395,420.32142761775424,2491.8,902.8214133126395,420.32142761775424,2592.1,902.8214133126395,420.32142761775424,2692.3,902.8214133126395,420.32142761775424,2797.1,902.8214133126395,420.32142761775424,2897.3,902.8214133126395,420.32142761775424,2998,902.8214133126395,420.32142761775424,3102.5,902.8214133126395,420.32142761775424,3207.3,902.8214133126395,420.32142761775424,3312.8,902.8214133126395,420.32142761775424,3417.5,902.8214133126395,420.32142761775424,3522.8,902.8214133126395,420.32142761775424,3627.1,902.8214133126395,420.32142761775424,3732.6,902.8214133126395,420.32142761775424,3838.8,902.8214133126395,420.32142761775424,3942.8,902.8214133126395,420.32142761775424,4043.2,902.8214133126395,420.32142761775424,4147.4,902.8214133126395,420.32142761775424,4247.8,902.8214133126395,420.32142761775424,4348.1,902.8214133126395,420.32142761775424,4448.2,902.8214133126395,420.32142761775424,4553.2,902.8214133126395,420.32142761775424,4657.7,902.8214133126395,420.32142761775424,4761.9,902.8214133126395,420.32142761775424,4862.7,902.8214133126395,420.32142761775424,4964]","[1496.4,1496.4,1000,0,496.4,""smooth"",""left"",""left"",""good_move"",8370.3,6873.6,2616.8,5325.4,428.1,""smooth"",""left"",""left"",""good_move"",19462.7,11092.2,2454.9,16442.1,565.7,""oops"",""up"",""down"",""bad_move"",26866.2,7403.3,2439,23984.9,442.3,""smooth"",""up"",""up"",""good_move"",29396.3,2529.7,2119.3,26866.6,410.4,""oops"",""up"",""up"",""good_move"",32592.6,3196.1,2891.5,29396.5,304.6,""oops"",""up"",""down"",""bad_move"",35800.3,3207.5,2849.3,32592.8,358.2,""oops"",""up"",""up"",""good_move""]","",""
"2870","","<div style=""width:500px;"">
  <p>What determined the result of this run?</p>
  </div>","1","html-slider-response","55","839060","0.0-5.0-1.9","113","1","2025-07-16 13:16:45","1f75c3e559b7213887762d5229550c2b","156.155.35.77","Mozilla/5.0 (Windows NT 10.0; Win64; x64) AppleWebKit/537.36 (KHTML, like Gecko) Chrome/138.0.0.0 Safari/537.36","WebKit","Chrome","138.0.0.0","Windows","10.0","https://app.prolific.com/","en-US,en;q=0.9","60aad516e34718d318bfb44d","686e379bc37a29ffa5cdc956","6877a618cec02404c9c08e5c","1","1","60aad516e34718d318bfb44d","1","1","2025-07-16T13:30:46.604Z","","","","","","","","","","","AttribQ","","50","","","","","","","","","","","","","","","","","","","","","","","","","","","","",""
"2841","","<div style=""width:500px;"">
  <p>How much control did you have over the ball?</p>
  </div>","4","html-slider-response","56","841902","0.0-5.0-2.9","113","1","2025-07-16 13:16:45","1f75c3e559b7213887762d5229550c2b","156.155.35.77","Mozilla/5.0 (Windows NT 10.0; Win64; x64) AppleWebKit/537.36 (KHTML, like Gecko) Chrome/138.0.0.0 Safari/537.36","WebKit","Chrome","138.0.0.0","Windows","10.0","https://app.prolific.com/","en-US,en;q=0.9","60aad516e34718d318bfb44d","686e379bc37a29ffa5cdc956","6877a618cec02404c9c08e5c","1","1","60aad516e34718d318bfb44d","1","1","2025-07-16T13:30:49.445Z","","","","","","","","","","","ControlQ","","50","","","","","","","","","","","","","","","","","","","","","","","","","","","","",""
"3232","","<div style=""width:500px;"">
  <p>How would you describe your current emotional state?</p>
  </div>","76","html-slider-response","57","845135","0.0-5.0-3.9","113","1","2025-07-16 13:16:45","1f75c3e559b7213887762d5229550c2b","156.155.35.77","Mozilla/5.0 (Windows NT 10.0; Win64; x64) AppleWebKit/537.36 (KHTML, like Gecko) Chrome/138.0.0.0 Safari/537.36","WebKit","Chrome","138.0.0.0","Windows","10.0","https://app.prolific.com/","en-US,en;q=0.9","60aad516e34718d318bfb44d","686e379bc37a29ffa5cdc956","6877a618cec02404c9c08e5c","1","1","60aad516e34718d318bfb44d","1","1","2025-07-16T13:30:52.678Z","","","","","","","","","","","StressQ","","50","","","","","","","","","","","","","","","","","","","","","","","","","","","","",""
"3779","","<div style=""width:500px;"">
  <p>What best describes how you currently feel?</p>
  </div>","20","html-slider-response","58","848915","0.0-5.0-4.9","113","1","2025-07-16 13:16:45","1f75c3e559b7213887762d5229550c2b","156.155.35.77","Mozilla/5.0 (Windows NT 10.0; Win64; x64) AppleWebKit/537.36 (KHTML, like Gecko) Chrome/138.0.0.0 Safari/537.36","WebKit","Chrome","138.0.0.0","Windows","10.0","https://app.prolific.com/","en-US,en;q=0.9","60aad516e34718d318bfb44d","686e379bc37a29ffa5cdc956","6877a618cec02404c9c08e5c","1","1","60aad516e34718d318bfb44d","1","1","2025-07-16T13:30:56.459Z","","","","","","","","","","","MotivationQ","","50","","","","","","","","","","","","","","","","","","","","","","","","","","","","",""
"","","","","ctl-task-cpt","59","884465","0.0-5.0-0.10","113","1","2025-07-16 13:16:45","1f75c3e559b7213887762d5229550c2b","156.155.35.77","Mozilla/5.0 (Windows NT 10.0; Win64; x64) AppleWebKit/537.36 (KHTML, like Gecko) Chrome/138.0.0.0 Safari/537.36","WebKit","Chrome","138.0.0.0","Windows","10.0","https://app.prolific.com/","en-US,en;q=0.9","60aad516e34718d318bfb44d","686e379bc37a29ffa5cdc956","6877a618cec02404c9c08e5c","1","1","60aad516e34718d318bfb44d","1","1","2025-07-16T13:31:32.008Z","","","","","","","","","","","","","","win-only","2","g1:SE,g2:NW","0.5","11","0","851481.8","1356.3","6360.6","32530.2","1","4","8","6","1","1","1","1","0","0.007575757575757576","1139.9","3000","595","[""down"",""right""]","{""num_key_presses"":6,""num_perfect"":2,""num_errors"":0,""num_randdir"":4,""num_randdir_good_moves"":3,""num_whilered"":0,""num_whileblue"":0,""num_blue"":2,""num_good_moves"":5}","[417.8214133126395,415.32142761775424,0.2,417.8214133126395,415.32142761775424,105.2,417.8214133126395,415.32142761775424,205.2,417.8214133126395,415.32142761775424,310.4,399.0714133126395,456.57142761775424,415.4,346.5714133126395,486.57142761775424,519.9,377.8214133126395,529.0714276177542,620.1,711.5714133126395,710.3214276177542,725.3,757.8214133126395,721.5714276177542,829.9,836.5714133126395,756.5714276177542,930.3,807.8214133126395,750.3214276177542,1034.8,791.5714133126395,747.8214276177542,1134.8,791.5714133126395,747.8214276177542,1235,791.5714133126395,747.8214276177542,1339.7,815.3214133126395,756.5714276177542,1440,939.0714133126395,776.5714276177542,1544.2,957.8214133126395,769.0714276177542,1645.3,960.3214133126395,764.0714276177542,1749.7,982.8214133126395,752.8214276177542,1854.5,1010.3214133126395,725.3214276177542,1955.3,992.8214133126395,686.5714276177542,2059.1,991.5714133126395,682.8214276177542,2159.2,991.5714133126395,680.3214276177542,2260.4,986.5714133126395,671.5714276177542,2364,980.3214133126395,666.5714276177542,2464.5,976.5714133126395,661.5714276177542,2564.6,972.8214133126395,659.0714276177542,2669.2,971.5714133126395,657.8214276177542,2769.2,971.5714133126395,657.8214276177542,2869.9,969.0714133126395,655.3214276177542,2974.2,967.8214133126395,652.8214276177542,3074.4,967.8214133126395,652.8214276177542,3174.7,967.8214133126395,652.8214276177542,3274.7,967.8214133126395,652.8214276177542,3379,967.8214133126395,652.8214276177542,3479.7,967.8214133126395,652.8214276177542,3585.1,967.8214133126395,652.8214276177542,3689.7,967.8214133126395,652.8214276177542,3794.8,967.8214133126395,652.8214276177542,3894.9,967.8214133126395,652.8214276177542,3998.9,967.8214133126395,652.8214276177542,4099.8,967.8214133126395,652.8214276177542,4199.8,967.8214133126395,652.8214276177542,4304.5,967.8214133126395,652.8214276177542,4409.5,967.8214133126395,652.8214276177542,4509.7,967.8214133126395,652.8214276177542,4615,967.8214133126395,652.8214276177542,4719.1,967.8214133126395,652.8214276177542,4824.3,967.8214133126395,652.8214276177542,4925.3]","[1470.9,1470.9,1000,0,470.9,""oops"",""down"",""down"",""good_move"",8979,7507.7,3271.2,5335.2,372.6,""smooth"",""right"",""right"",""good_move"",12200.3,3221.1,2706,8979.2,515.1,""oops"",""right"",""up"",""bad_move"",15841.2,3640.4,3299.7,12200.8,340.7,""smooth"",""right"",""right"",""good_move"",22714.6,6873.3,2713.2,19590.2,411.3,""oops"",""down"",""down"",""good_move"",26081.7,3366.8,3032.8,22714.9,334,""oops"",""down"",""down"",""good_move""]","",""
"5131","","<div style=""width:500px;"">
  <p>What determined the result of this run?</p>
  </div>","59","html-slider-response","60","889596","0.0-5.0-1.10","113","1","2025-07-16 13:16:45","1f75c3e559b7213887762d5229550c2b","156.155.35.77","Mozilla/5.0 (Windows NT 10.0; Win64; x64) AppleWebKit/537.36 (KHTML, like Gecko) Chrome/138.0.0.0 Safari/537.36","WebKit","Chrome","138.0.0.0","Windows","10.0","https://app.prolific.com/","en-US,en;q=0.9","60aad516e34718d318bfb44d","686e379bc37a29ffa5cdc956","6877a618cec02404c9c08e5c","1","1","60aad516e34718d318bfb44d","1","1","2025-07-16T13:31:37.139Z","","","","","","","","","","","AttribQ","","50","","","","","","","","","","","","","","","","","","","","","","","","","","","","",""
"5069","","<div style=""width:500px;"">
  <p>How much control did you have over the ball?</p>
  </div>","57","html-slider-response","61","894667","0.0-5.0-2.10","113","1","2025-07-16 13:16:45","1f75c3e559b7213887762d5229550c2b","156.155.35.77","Mozilla/5.0 (Windows NT 10.0; Win64; x64) AppleWebKit/537.36 (KHTML, like Gecko) Chrome/138.0.0.0 Safari/537.36","WebKit","Chrome","138.0.0.0","Windows","10.0","https://app.prolific.com/","en-US,en;q=0.9","60aad516e34718d318bfb44d","686e379bc37a29ffa5cdc956","6877a618cec02404c9c08e5c","1","1","60aad516e34718d318bfb44d","1","1","2025-07-16T13:31:42.210Z","","","","","","","","","","","ControlQ","","50","","","","","","","","","","","","","","","","","","","","","","","","","","","","",""
"4634","","<div style=""width:500px;"">
  <p>How would you describe your current emotional state?</p>
  </div>","67","html-slider-response","62","899302","0.0-5.0-3.10","113","1","2025-07-16 13:16:45","1f75c3e559b7213887762d5229550c2b","156.155.35.77","Mozilla/5.0 (Windows NT 10.0; Win64; x64) AppleWebKit/537.36 (KHTML, like Gecko) Chrome/138.0.0.0 Safari/537.36","WebKit","Chrome","138.0.0.0","Windows","10.0","https://app.prolific.com/","en-US,en;q=0.9","60aad516e34718d318bfb44d","686e379bc37a29ffa5cdc956","6877a618cec02404c9c08e5c","1","1","60aad516e34718d318bfb44d","1","1","2025-07-16T13:31:46.845Z","","","","","","","","","","","StressQ","","50","","","","","","","","","","","","","","","","","","","","","","","","","","","","",""
"5032","","<div style=""width:500px;"">
  <p>What best describes how you currently feel?</p>
  </div>","43","html-slider-response","63","904335","0.0-5.0-4.10","113","1","2025-07-16 13:16:45","1f75c3e559b7213887762d5229550c2b","156.155.35.77","Mozilla/5.0 (Windows NT 10.0; Win64; x64) AppleWebKit/537.36 (KHTML, like Gecko) Chrome/138.0.0.0 Safari/537.36","WebKit","Chrome","138.0.0.0","Windows","10.0","https://app.prolific.com/","en-US,en;q=0.9","60aad516e34718d318bfb44d","686e379bc37a29ffa5cdc956","6877a618cec02404c9c08e5c","1","1","60aad516e34718d318bfb44d","1","1","2025-07-16T13:31:51.878Z","","","","","","","","","","","MotivationQ","","50","","","","","","","","","","","","","","","","","","","","","","","","","","","","",""
"","","","","ctl-task-cpt","64","926975","0.0-5.0-0.11","113","1","2025-07-16 13:16:45","1f75c3e559b7213887762d5229550c2b","156.155.35.77","Mozilla/5.0 (Windows NT 10.0; Win64; x64) AppleWebKit/537.36 (KHTML, like Gecko) Chrome/138.0.0.0 Safari/537.36","WebKit","Chrome","138.0.0.0","Windows","10.0","https://app.prolific.com/","en-US,en;q=0.9","60aad516e34718d318bfb44d","686e379bc37a29ffa5cdc956","6877a618cec02404c9c08e5c","1","1","60aad516e34718d318bfb44d","1","1","2025-07-16T13:32:14.518Z","","","","","","","","","","","","","","win-only","0","g1:NW,g2:SE","0.6","12","0","906900.8","1685.4","6686.2","19621","1","4","4","6","1","1","1","2","1","0.015151515151515152","1058.5","3000","1320","[""left"",""up""]","{""num_key_presses"":4,""num_perfect"":4,""num_errors"":0,""num_randdir"":0,""num_randdir_good_moves"":0,""num_whilered"":0,""num_whileblue"":0,""num_blue"":1,""num_good_moves"":4}","[411.5714133126395,410.32142761775424,0.2,411.5714133126395,410.32142761775424,100.4,411.5714133126395,411.57142761775424,200.7,411.5714133126395,411.57142761775424,301.2,422.8214133126395,444.07142761775424,405.2,475.3214133126395,551.5714276177542,505.9,474.0714133126395,554.0714276177542,610.8,154.0714133126395,222.82142761775424,715.3,77.8214133126395,131.57142761775424,816.2,66.5714133126395,119.07142761775425,920.6,65.3214133126395,116.57142761775425,1021.1,65.3214133126395,116.57142761775425,1125.2,65.3214133126395,116.57142761775425,1228.3,81.5714133126395,156.57142761775424,1330.9,359.0714133126395,337.82142761775424,1430.9,616.5714133126395,406.57142761775424,1535.2,772.8214133126395,422.82142761775424,1636.4,879.0714133126395,411.57142761775424,1740.9,929.0714133126395,386.57142761775424,1845.2,934.0714133126395,381.57142761775424,1946.1,935.3214133126395,380.32142761775424,2046.6,935.3214133126395,380.32142761775424,2151.5,935.3214133126395,380.32142761775424,2256.8,935.3214133126395,380.32142761775424,2361.5,935.3214133126395,380.32142761775424,2466.5,935.3214133126395,380.32142761775424,2569.6,935.3214133126395,380.32142761775424,2670.3,935.3214133126395,380.32142761775424,2770.8,935.3214133126395,380.32142761775424,2870.8,935.3214133126395,380.32142761775424,2970.8,935.3214133126395,380.32142761775424,3070.8,935.3214133126395,380.32142761775424,3170.9,935.3214133126395,380.32142761775424,3275.5,935.3214133126395,380.32142761775424,3380.1,935.3214133126395,380.32142761775424,3481.9,935.3214133126395,380.32142761775424,3585.3,935.3214133126395,380.32142761775424,3686.5,935.3214133126395,380.32142761775424,3791.2,935.3214133126395,380.32142761775424,3892.3,935.3214133126395,380.32142761775424,3995.3,935.3214133126395,380.32142761775424,4096.3,935.3214133126395,380.32142761775424,4196.5,935.3214133126395,380.32142761775424,4301.2,935.3214133126395,380.32142761775424,4405.3,935.3214133126395,380.32142761775424,4511,935.3214133126395,380.32142761775424,4616,935.3214133126395,380.32142761775424,4720.4,935.3214133126395,380.32142761775424,4820.4,935.3214133126395,380.32142761775424,4920.5]","[5235.8,5235.8,2703.3,2004.1,528.4,""smooth"",""left"",""left"",""good_move"",7561.2,2325.1,1864.3,5236.2,460.8,""smooth"",""left"",""left"",""good_move"",9995.8,2434.2,2015.3,7561.6,418.9,""smooth"",""up"",""up"",""good_move"",12846.2,2850.3,2559.4,9996,290.8,""smooth"",""up"",""up"",""good_move""]","",""
"2619","","<div style=""width:500px;"">
  <p>What determined the result of this run?</p>
  </div>","3","html-slider-response","65","929595","0.0-5.0-1.11","113","1","2025-07-16 13:16:45","1f75c3e559b7213887762d5229550c2b","156.155.35.77","Mozilla/5.0 (Windows NT 10.0; Win64; x64) AppleWebKit/537.36 (KHTML, like Gecko) Chrome/138.0.0.0 Safari/537.36","WebKit","Chrome","138.0.0.0","Windows","10.0","https://app.prolific.com/","en-US,en;q=0.9","60aad516e34718d318bfb44d","686e379bc37a29ffa5cdc956","6877a618cec02404c9c08e5c","1","1","60aad516e34718d318bfb44d","1","1","2025-07-16T13:32:17.138Z","","","","","","","","","","","AttribQ","","50","","","","","","","","","","","","","","","","","","","","","","","","","","","","",""
"4034","","<div style=""width:500px;"">
  <p>How much control did you have over the ball?</p>
  </div>","100","html-slider-response","66","933630","0.0-5.0-2.11","113","1","2025-07-16 13:16:45","1f75c3e559b7213887762d5229550c2b","156.155.35.77","Mozilla/5.0 (Windows NT 10.0; Win64; x64) AppleWebKit/537.36 (KHTML, like Gecko) Chrome/138.0.0.0 Safari/537.36","WebKit","Chrome","138.0.0.0","Windows","10.0","https://app.prolific.com/","en-US,en;q=0.9","60aad516e34718d318bfb44d","686e379bc37a29ffa5cdc956","6877a618cec02404c9c08e5c","1","1","60aad516e34718d318bfb44d","1","1","2025-07-16T13:32:21.173Z","","","","","","","","","","","ControlQ","","50","","","","","","","","","","","","","","","","","","","","","","","","","","","","",""
"3815","","<div style=""width:500px;"">
  <p>How would you describe your current emotional state?</p>
  </div>","65","html-slider-response","67","937446","0.0-5.0-3.11","113","1","2025-07-16 13:16:45","1f75c3e559b7213887762d5229550c2b","156.155.35.77","Mozilla/5.0 (Windows NT 10.0; Win64; x64) AppleWebKit/537.36 (KHTML, like Gecko) Chrome/138.0.0.0 Safari/537.36","WebKit","Chrome","138.0.0.0","Windows","10.0","https://app.prolific.com/","en-US,en;q=0.9","60aad516e34718d318bfb44d","686e379bc37a29ffa5cdc956","6877a618cec02404c9c08e5c","1","1","60aad516e34718d318bfb44d","1","1","2025-07-16T13:32:24.989Z","","","","","","","","","","","StressQ","","50","","","","","","","","","","","","","","","","","","","","","","","","","","","","",""
"4155","","<div style=""width:500px;"">
  <p>What best describes how you currently feel?</p>
  </div>","46","html-slider-response","68","941602","0.0-5.0-4.11","113","1","2025-07-16 13:16:45","1f75c3e559b7213887762d5229550c2b","156.155.35.77","Mozilla/5.0 (Windows NT 10.0; Win64; x64) AppleWebKit/537.36 (KHTML, like Gecko) Chrome/138.0.0.0 Safari/537.36","WebKit","Chrome","138.0.0.0","Windows","10.0","https://app.prolific.com/","en-US,en;q=0.9","60aad516e34718d318bfb44d","686e379bc37a29ffa5cdc956","6877a618cec02404c9c08e5c","1","1","60aad516e34718d318bfb44d","1","1","2025-07-16T13:32:29.145Z","","","","","","","","","","","MotivationQ","","50","","","","","","","","","","","","","","","","","","","","","","","","","","","","",""
"","","","","ctl-task-cpt","69","974597","0.0-5.0-0.12","113","1","2025-07-16 13:16:45","1f75c3e559b7213887762d5229550c2b","156.155.35.77","Mozilla/5.0 (Windows NT 10.0; Win64; x64) AppleWebKit/537.36 (KHTML, like Gecko) Chrome/138.0.0.0 Safari/537.36","WebKit","Chrome","138.0.0.0","Windows","10.0","https://app.prolific.com/","en-US,en;q=0.9","60aad516e34718d318bfb44d","686e379bc37a29ffa5cdc956","6877a618cec02404c9c08e5c","1","1","60aad516e34718d318bfb44d","1","1","2025-07-16T13:33:02.141Z","","","","","","","","","","","","","","win-only","0","g1:NW,g2:SE","0.7","13","0","944168.9","1684.8","6685.7","29977","1","4","8","6","1","1","1","3","2","0.022727272727272728","1371.8","3000","625","[""left"",""up""]","{""num_key_presses"":6,""num_perfect"":3,""num_errors"":0,""num_randdir"":3,""num_randdir_good_moves"":2,""num_whilered"":0,""num_whileblue"":0,""num_blue"":2,""num_good_moves"":5}","[410.3214133126395,409.07142761775424,0.1,410.3214133126395,409.07142761775424,100.8,410.3214133126395,409.07142761775424,201.1,410.3214133126395,409.07142761775424,301.2,427.8214133126395,440.32142761775424,401.2,441.5714133126395,466.57142761775424,505.5,401.5714133126395,432.82142761775424,606.5,174.0714133126395,264.07142761775424,711.6,135.3214133126395,231.57142761775424,815.8,125.3214133126395,211.57142761775424,921.6,29.071413312639507,116.57142761775425,1025.9,16.571413312639507,104.07142761775425,1130.8,30.321413312639507,82.82142761775425,1235.8,60.32141331263951,67.82142761775425,1341,61.57141331263951,67.82142761775425,1446.8,64.0714133126395,81.57142761775425,1550.6,134.0714133126395,197.82142761775424,1650.8,411.5714133126395,387.82142761775424,1755.4,609.0714133126395,465.32142761775424,1855.9,689.0714133126395,466.57142761775424,1960.7,726.5714133126395,461.57142761775424,2061.2,769.0714133126395,437.82142761775424,2166.1,821.5714133126395,435.32142761775424,2266.2,952.8214133126395,441.57142761775424,2371.3,1007.8214133126395,437.82142761775424,2476,1021.5714133126395,437.82142761775424,2576.1,1021.5714133126395,437.82142761775424,2682.2,1019.0714133126395,437.82142761775424,2786,1016.5714133126395,436.57142761775424,2887,1016.5714133126395,436.57142761775424,2991.1,1016.5714133126395,436.57142761775424,3091.2,1015.3214133126395,434.07142761775424,3195.9,1014.0714133126395,432.82142761775424,3300.6,1014.0714133126395,432.82142761775424,3401.1,1014.0714133126395,432.82142761775424,3501.1,1014.0714133126395,432.82142761775424,3605.6,1015.3214133126395,432.82142761775424,3706.5,1015.3214133126395,432.82142761775424,3810.7,1015.3214133126395,432.82142761775424,3911.5,1015.3214133126395,432.82142761775424,4011.6,1015.3214133126395,432.82142761775424,4111.6,1001.5714133126395,430.32142761775424,4215.8,996.5714133126395,426.57142761775424,4316.2,996.5714133126395,426.57142761775424,4416.5,996.5714133126395,426.57142761775424,4516.9,996.5714133126395,426.57142761775424,4620.8,996.5714133126395,426.57142761775424,4720.8,996.5714133126395,426.57142761775424,4822.3,996.5714133126395,426.57142761775424,4926.3]","[1454.6,1454.6,1000,0,454.6,""oops"",""left"",""up"",""good_move"",8617.1,7162.1,2930,5300.4,386.7,""oops"",""left"",""down"",""bad_move"",11370.1,2752.7,2188.6,8617.4,564.1,""oops"",""left"",""left"",""good_move"",13868.5,2498,2134,11370.5,364,""smooth"",""left"",""left"",""good_move"",16918.3,3049.5,2794.7,13868.8,254.8,""smooth"",""up"",""up"",""good_move"",23203,6284.4,2479.4,20340.1,383.5,""smooth"",""up"",""up"",""good_move""]","",""
"3597","","<div style=""width:500px;"">
  <p>What determined the result of this run?</p>
  </div>","76","html-slider-response","70","978195","0.0-5.0-1.12","113","1","2025-07-16 13:16:45","1f75c3e559b7213887762d5229550c2b","156.155.35.77","Mozilla/5.0 (Windows NT 10.0; Win64; x64) AppleWebKit/537.36 (KHTML, like Gecko) Chrome/138.0.0.0 Safari/537.36","WebKit","Chrome","138.0.0.0","Windows","10.0","https://app.prolific.com/","en-US,en;q=0.9","60aad516e34718d318bfb44d","686e379bc37a29ffa5cdc956","6877a618cec02404c9c08e5c","1","1","60aad516e34718d318bfb44d","1","1","2025-07-16T13:33:05.738Z","","","","","","","","","","","AttribQ","","50","","","","","","","","","","","","","","","","","","","","","","","","","","","","",""
"5662","","<div style=""width:500px;"">
  <p>How much control did you have over the ball?</p>
  </div>","80","html-slider-response","71","983858","0.0-5.0-2.12","113","1","2025-07-16 13:16:45","1f75c3e559b7213887762d5229550c2b","156.155.35.77","Mozilla/5.0 (Windows NT 10.0; Win64; x64) AppleWebKit/537.36 (KHTML, like Gecko) Chrome/138.0.0.0 Safari/537.36","WebKit","Chrome","138.0.0.0","Windows","10.0","https://app.prolific.com/","en-US,en;q=0.9","60aad516e34718d318bfb44d","686e379bc37a29ffa5cdc956","6877a618cec02404c9c08e5c","1","1","60aad516e34718d318bfb44d","1","1","2025-07-16T13:33:11.401Z","","","","","","","","","","","ControlQ","","50","","","","","","","","","","","","","","","","","","","","","","","","","","","","",""
"4566","","<div style=""width:500px;"">
  <p>How would you describe your current emotional state?</p>
  </div>","69","html-slider-response","72","988426","0.0-5.0-3.12","113","1","2025-07-16 13:16:45","1f75c3e559b7213887762d5229550c2b","156.155.35.77","Mozilla/5.0 (Windows NT 10.0; Win64; x64) AppleWebKit/537.36 (KHTML, like Gecko) Chrome/138.0.0.0 Safari/537.36","WebKit","Chrome","138.0.0.0","Windows","10.0","https://app.prolific.com/","en-US,en;q=0.9","60aad516e34718d318bfb44d","686e379bc37a29ffa5cdc956","6877a618cec02404c9c08e5c","1","1","60aad516e34718d318bfb44d","1","1","2025-07-16T13:33:15.969Z","","","","","","","","","","","StressQ","","50","","","","","","","","","","","","","","","","","","","","","","","","","","","","",""
"5384","","<div style=""width:500px;"">
  <p>What best describes how you currently feel?</p>
  </div>","55","html-slider-response","73","993810","0.0-5.0-4.12","113","1","2025-07-16 13:16:45","1f75c3e559b7213887762d5229550c2b","156.155.35.77","Mozilla/5.0 (Windows NT 10.0; Win64; x64) AppleWebKit/537.36 (KHTML, like Gecko) Chrome/138.0.0.0 Safari/537.36","WebKit","Chrome","138.0.0.0","Windows","10.0","https://app.prolific.com/","en-US,en;q=0.9","60aad516e34718d318bfb44d","686e379bc37a29ffa5cdc956","6877a618cec02404c9c08e5c","1","1","60aad516e34718d318bfb44d","1","1","2025-07-16T13:33:21.353Z","","","","","","","","","","","MotivationQ","","50","","","","","","","","","","","","","","","","","","","","","","","","","","","","",""
"","","","","ctl-task-cpt","74","1047406","0.0-5.0-0.13","113","1","2025-07-16 13:16:45","1f75c3e559b7213887762d5229550c2b","156.155.35.77","Mozilla/5.0 (Windows NT 10.0; Win64; x64) AppleWebKit/537.36 (KHTML, like Gecko) Chrome/138.0.0.0 Safari/537.36","WebKit","Chrome","138.0.0.0","Windows","10.0","https://app.prolific.com/","en-US,en;q=0.9","60aad516e34718d318bfb44d","686e379bc37a29ffa5cdc956","6877a618cec02404c9c08e5c","1","1","60aad516e34718d318bfb44d","1","1","2025-07-16T13:34:14.949Z","","","","","","","","","","","","","","win-only","0","g1:NW,g2:SE","0.8","14","0","996376.6","1926","6931.1","50576.5","1","4","4","6","1","1","1","4","3","0.030303030303030304","884.7","3000","260","[""left"",""up""]","{""num_key_presses"":6,""num_perfect"":5,""num_errors"":0,""num_randdir"":1,""num_randdir_good_moves"":0,""num_whilered"":0,""num_whileblue"":0,""num_blue"":8,""num_good_moves"":5}","[414.0714133126395,416.57142761775424,0.2,414.0714133126395,416.57142761775424,101,414.0714133126395,416.57142761775424,204.9,414.0714133126395,416.57142761775424,305.3,416.5714133126395,422.82142761775424,409.7,227.8214133126395,217.82142761775424,510.2,112.8214133126395,105.32142761775425,614.6,111.5714133126395,101.57142761775425,720.1,116.5714133126395,96.57142761775425,820.2,116.5714133126395,96.57142761775425,924.2,116.5714133126395,96.57142761775425,1025.5,137.8214133126395,149.07142761775424,1130.3,462.8214133126395,410.32142761775424,1235.4,1056.5714133126396,577.8214276177542,1339.8,1169.0714133126396,591.5714276177542,1445.4,1172.8214133126396,585.3214276177542,1545.8,1172.8214133126396,585.3214276177542,1650.8,1172.8214133126396,585.3214276177542,1754.9,1172.8214133126396,585.3214276177542,1857.9,1172.8214133126396,585.3214276177542,1959.6,1172.8214133126396,585.3214276177542,2060.8,1172.8214133126396,585.3214276177542,2164.8,1172.8214133126396,585.3214276177542,2269.4,1172.8214133126396,585.3214276177542,2369.4,1172.8214133126396,585.3214276177542,2470.3,1172.8214133126396,585.3214276177542,2575.5,1172.8214133126396,585.3214276177542,2679.5,1172.8214133126396,585.3214276177542,2780.1,1172.8214133126396,585.3214276177542,2880.4,1172.8214133126396,585.3214276177542,2984.5,1172.8214133126396,585.3214276177542,3090.8,1172.8214133126396,585.3214276177542,3195.3,1172.8214133126396,585.3214276177542,3299.1,1172.8214133126396,585.3214276177542,3399.9,1172.8214133126396,585.3214276177542,3500.3,1172.8214133126396,585.3214276177542,3604.8,1172.8214133126396,585.3214276177542,3705.3,1172.8214133126396,585.3214276177542,3810.5,1172.8214133126396,585.3214276177542,3914.3,1172.8214133126396,585.3214276177542,4014.8,1172.8214133126396,585.3214276177542,4114.8,1172.8214133126396,585.3214276177542,4215.1,1172.8214133126396,585.3214276177542,4315.2,1172.8214133126396,585.3214276177542,4419.9,1172.8214133126396,585.3214276177542,4525.6,1172.8214133126396,585.3214276177542,4630.6,1172.8214133126396,585.3214276177542,4735.9,1172.8214133126396,585.3214276177542,4840.7,1172.8214133126396,585.3214276177542,4945]","[12203.6,12203.6,3119.5,8564.3,519.9,""oops"",""left"",""down"",""bad_move"",15264,3059.8,2644.5,12204.2,415.3,""smooth"",""left"",""left"",""good_move"",27821.3,12557.1,1652,25664.6,504.7,""smooth"",""left"",""left"",""good_move"",30561.1,2739.4,2285.2,27821.7,454.2,""smooth"",""up"",""up"",""good_move"",37227.1,6665.6,2828.3,33945.9,452.9,""smooth"",""up"",""up"",""good_move"",43555.3,6327.8,2653.9,40481,420.4,""smooth"",""up"",""up"",""good_move""]","",""
"9430","","<div style=""width:500px;"">
  <p>What determined the result of this run?</p>
  </div>","70","html-slider-response","75","1056836","0.0-5.0-1.13","113","1","2025-07-16 13:16:45","1f75c3e559b7213887762d5229550c2b","156.155.35.77","Mozilla/5.0 (Windows NT 10.0; Win64; x64) AppleWebKit/537.36 (KHTML, like Gecko) Chrome/138.0.0.0 Safari/537.36","WebKit","Chrome","138.0.0.0","Windows","10.0","https://app.prolific.com/","en-US,en;q=0.9","60aad516e34718d318bfb44d","686e379bc37a29ffa5cdc956","6877a618cec02404c9c08e5c","1","1","60aad516e34718d318bfb44d","1","1","2025-07-16T13:34:24.379Z","","","","","","","","","","","AttribQ","","50","","","","","","","","","","","","","","","","","","","","","","","","","","","","",""
"6442","","<div style=""width:500px;"">
  <p>How much control did you have over the ball?</p>
  </div>","61","html-slider-response","76","1063279","0.0-5.0-2.13","113","1","2025-07-16 13:16:45","1f75c3e559b7213887762d5229550c2b","156.155.35.77","Mozilla/5.0 (Windows NT 10.0; Win64; x64) AppleWebKit/537.36 (KHTML, like Gecko) Chrome/138.0.0.0 Safari/537.36","WebKit","Chrome","138.0.0.0","Windows","10.0","https://app.prolific.com/","en-US,en;q=0.9","60aad516e34718d318bfb44d","686e379bc37a29ffa5cdc956","6877a618cec02404c9c08e5c","1","1","60aad516e34718d318bfb44d","1","1","2025-07-16T13:34:30.822Z","","","","","","","","","","","ControlQ","","50","","","","","","","","","","","","","","","","","","","","","","","","","","","","",""
"10454","","<div style=""width:500px;"">
  <p>How would you describe your current emotional state?</p>
  </div>","73","html-slider-response","77","1073734","0.0-5.0-3.13","113","1","2025-07-16 13:16:45","1f75c3e559b7213887762d5229550c2b","156.155.35.77","Mozilla/5.0 (Windows NT 10.0; Win64; x64) AppleWebKit/537.36 (KHTML, like Gecko) Chrome/138.0.0.0 Safari/537.36","WebKit","Chrome","138.0.0.0","Windows","10.0","https://app.prolific.com/","en-US,en;q=0.9","60aad516e34718d318bfb44d","686e379bc37a29ffa5cdc956","6877a618cec02404c9c08e5c","1","1","60aad516e34718d318bfb44d","1","1","2025-07-16T13:34:41.277Z","","","","","","","","","","","StressQ","","50","","","","","","","","","","","","","","","","","","","","","","","","","","","","",""
"11144","","<div style=""width:500px;"">
  <p>What best describes how you currently feel?</p>
