"rt","response_timestamp","stimulus","response","trial_type","trial_index","time_elapsed","internal_node_id","run_id","condition","recorded_at","source_code_version","ip","user_agent","device","browser","browser_version","platform","platform_version","referer","accept_language","PROLIFIC_PID","STUDY_ID","SESSION_ID","WEEK","BATCH","prolific_id","week","batch","realtime","success","responses","item_order","radio_event_ids","radio_event_times","key_event_times","mouse_event_times","straightlining","zigzagging","honeypot","eventType","view_history","slider_start","which_type","canvas_config","goals_layout","control_level","trial_number","tutorial_trial_number","trial_start_time","phase1_start_time","phase2_start_time","phase3_start_time","goal_1_value","goal_1_distance","goal_2_value","goal_2_distance","goal_selected","outcome","outcome_total","participant_final_score","participant_initial_score","participant_final_score_prop","goal_choice_rt","allocated_time","allocated_time_remaining","goal_direction","counts","mouse_movements","key_presses","question_order","question_id"
"4904","1752654555211","<p style='font-size:40px;line-height:1.25'><strong>Welcome to the experiment!</strong></p><p style='font-size:1.1em;line-height:1.25'>Thank you for participanting in our experiment again! You will be asked to play the Dysfunctional Ball Game again. We will briefly recap the rules before we start.</p><p style='font-size:1.1em;line-height:1.25'>Press <strong>Next</strong> to continue.</p>","0","custom-html-button-response","0","4906","0.0-0.0","63","1","2025-07-16 08:29:09","1f75c3e559b7213887762d5229550c2b","51.36.175.8","Mozilla/5.0 (Windows NT 10.0; Win64; x64) AppleWebKit/537.36 (KHTML, like Gecko) Chrome/138.0.0.0 Safari/537.36","WebKit","Chrome","138.0.0.0","Windows","10.0","https://app.prolific.com/","en-US,en;q=0.9","65f19a1fe38352676f83d5f0","68764874ac79eee8c1d4cb03","687762c7e4222602df09e475","2","0","65f19a1fe38352676f83d5f0","2","0","2025-07-16T08:29:15.213Z","","","","","","","","","","","","","","","","","","","","","","","","","","","","","","","","","","","","","","","","","",""
"3403","","","","fullscreen","1","9319","0.0-1.0","63","1","2025-07-16 08:29:09","1f75c3e559b7213887762d5229550c2b","51.36.175.8","Mozilla/5.0 (Windows NT 10.0; Win64; x64) AppleWebKit/537.36 (KHTML, like Gecko) Chrome/138.0.0.0 Safari/537.36","WebKit","Chrome","138.0.0.0","Windows","10.0","https://app.prolific.com/","en-US,en;q=0.9","65f19a1fe38352676f83d5f0","68764874ac79eee8c1d4cb03","687762c7e4222602df09e475","2","0","65f19a1fe38352676f83d5f0","2","0","","true","","","","","","","","","","","","","","","","","","","","","","","","","","","","","","","","","","","","","","","","",""
"4000","1752654563626","<p style='font-size:1.1em;line-height:1.25'>In the following, we will ask you a few questions relating to your feelings in the last 24 hours.<br></p><p style='font-size:1.1em;line-height:1.25'>Press the <strong>Next</strong> button to continue.</p>","0","custom-html-button-response","2","13320","0.0-2.0-0.0","63","1","2025-07-16 08:29:09","1f75c3e559b7213887762d5229550c2b","51.36.175.8","Mozilla/5.0 (Windows NT 10.0; Win64; x64) AppleWebKit/537.36 (KHTML, like Gecko) Chrome/138.0.0.0 Safari/537.36","WebKit","Chrome","138.0.0.0","Windows","10.0","https://app.prolific.com/","en-US,en;q=0.9","65f19a1fe38352676f83d5f0","68764874ac79eee8c1d4cb03","687762c7e4222602df09e475","2","0","65f19a1fe38352676f83d5f0","2","0","2025-07-16T08:29:23.626Z","","","","","","","","","","","","","","","","","","","","","","","","","","","","","","","","","","","","","","","","","",""
"58728","","","","survey-template","3","72051","0.0-2.0-1.0","63","1","2025-07-16 08:29:09","1f75c3e559b7213887762d5229550c2b","51.36.175.8","Mozilla/5.0 (Windows NT 10.0; Win64; x64) AppleWebKit/537.36 (KHTML, like Gecko) Chrome/138.0.0.0 Safari/537.36","WebKit","Chrome","138.0.0.0","Windows","10.0","https://app.prolific.com/","en-US,en;q=0.9","65f19a1fe38352676f83d5f0","68764874ac79eee8c1d4cb03","687762c7e4222602df09e475","2","0","65f19a1fe38352676f83d5f0","2","0","2025-07-16T08:30:22.357Z","","{""Q01"":""5"",""Q02"":""5"",""Q03"":""5"",""Q04"":""4"",""Q05"":""5"",""Q06"":""5"",""Q07"":""5"",""Q08"":""5"",""Q09"":""5"",""Q10"":""4"",""Q11"":""5"",""Q12"":""0"",""Q13"":""5"",""Q14"":""0"",""Q15"":""3"",""Q16"":""3"",""Q17"":""4"",""Q18"":""4"",""Q19"":""0"",""Q20"":""5"",""Q21"":""4"",""Q22"":""4""}","[0,1,2,3,4,5,6,7,8,9,10,11,12,13,14,15,16,17,18,19,20,21]","[""Q01"",""Q02"",""Q03"",""Q04"",""Q05"",""Q06"",""Q07"",""Q08"",""Q09"",""Q10"",""Q11"",""Q12"",""Q13"",""Q14"",""Q15"",""Q15"",""Q16"",""Q17"",""Q18"",""Q19"",""Q20"",""Q20"",""Q21"",""Q22""]","[3526.5999999996275,5052.799999999814,6191.700000000186,7312.5999999996275,11529.900000000373,14054.799999999814,15193.900000000373,16281.099999999627,18108.700000000186,20993.599999999627,22492.299999999814,26015.900000000373,27415.299999999814,29223.299999999814,33340.09999999963,34448.40000000037,37296.09999999963,41470.40000000037,42808.700000000186,45879.299999999814,51383.40000000037,52346.40000000037,54449.40000000037,56358.5]","[]","[0.09999999962747097,2169.5999999996275,3124.4000000003725,3526.5999999996275,5052.799999999814,6191.700000000186,7312.5999999996275,8802.200000000186,11529.900000000373,12988.900000000373,14054.799999999814,15193.900000000373,16281.099999999627,18108.700000000186,20993.599999999627,22492.299999999814,25060.599999999627,26015.900000000373,27415.299999999814,29223.299999999814,33340.09999999963,34448.40000000037,37296.09999999963,41470.40000000037,42808.700000000186,45879.299999999814,51383.40000000037,52346.40000000037,54449.40000000037,56358.5,58720.59999999963]","0.5","0.47619047619047616","0","drsp","","","","","","","","","","","","","","","","","","","","","","","","","","","","","","",""
"14904.5","","","","survey-template","4","86957","0.0-2.0-2.0","63","1","2025-07-16 08:29:09","1f75c3e559b7213887762d5229550c2b","51.36.175.8","Mozilla/5.0 (Windows NT 10.0; Win64; x64) AppleWebKit/537.36 (KHTML, like Gecko) Chrome/138.0.0.0 Safari/537.36","WebKit","Chrome","138.0.0.0","Windows","10.0","https://app.prolific.com/","en-US,en;q=0.9","65f19a1fe38352676f83d5f0","68764874ac79eee8c1d4cb03","687762c7e4222602df09e475","2","0","65f19a1fe38352676f83d5f0","2","0","2025-07-16T08:30:37.263Z","","{""Q01"":""4"",""Q02"":""5"",""Q03"":""5""}","[0,1,2]","[""Q01"",""Q02"",""Q03"",""Q03""]","[4066.300000000745,6339.600000000559,13013.300000000745,14110.200000000186]","[]","[4066.300000000745,6339.600000000559,12220,13013.300000000745,14110.200000000186,14902.800000000745]","0.3333333333333333","0.5","0","stress","","","","","","","","","","","","","","","","","","","","","","","","","","","","","","",""
"73888","","","","instructions","5","160847","0.0-3.0-0.0","63","1","2025-07-16 08:29:09","1f75c3e559b7213887762d5229550c2b","51.36.175.8","Mozilla/5.0 (Windows NT 10.0; Win64; x64) AppleWebKit/537.36 (KHTML, like Gecko) Chrome/138.0.0.0 Safari/537.36","WebKit","Chrome","138.0.0.0","Windows","10.0","https://app.prolific.com/","en-US,en;q=0.9","65f19a1fe38352676f83d5f0","68764874ac79eee8c1d4cb03","687762c7e4222602df09e475","2","0","65f19a1fe38352676f83d5f0","2","0","","","","","","","","","","","","","[{""page_index"":0,""viewing_time"":73888}]","","","","","","","","","","","","","","","","","","","","","","","","","","","","","",""
"7641","","<p>Before you start with this game please answer the following three questions yourself. </p>
  <p>Through this game, we measure several aspects of your cognitive performance, such as reaction times, multi-tasking capabilities </p>
  <p>and the ability to assess the situation you are in.</p>
  <p></p>
  <p><b>How good do you usually are in such tasks?</b></p>","52","html-slider-response","6","168490","0.0-4.0-0.0","63","1","2025-07-16 08:29:09","1f75c3e559b7213887762d5229550c2b","51.36.175.8","Mozilla/5.0 (Windows NT 10.0; Win64; x64) AppleWebKit/537.36 (KHTML, like Gecko) Chrome/138.0.0.0 Safari/537.36","WebKit","Chrome","138.0.0.0","Windows","10.0","https://app.prolific.com/","en-US,en;q=0.9","65f19a1fe38352676f83d5f0","68764874ac79eee8c1d4cb03","687762c7e4222602df09e475","2","0","65f19a1fe38352676f83d5f0","2","0","2025-07-16T08:31:58.796Z","","","","","","","","","","","PreSkillQ","","50","","","","","","","","","","","","","","","","","","","","","","","","","","","","",""
"5200","","<div style=""width:500px;"">
  <p>How well do you think you will perform in this task compared to other participants?</p>
  </div>","52","html-slider-response","7","173692","0.0-4.0-1.0","63","1","2025-07-16 08:29:09","1f75c3e559b7213887762d5229550c2b","51.36.175.8","Mozilla/5.0 (Windows NT 10.0; Win64; x64) AppleWebKit/537.36 (KHTML, like Gecko) Chrome/138.0.0.0 Safari/537.36","WebKit","Chrome","138.0.0.0","Windows","10.0","https://app.prolific.com/","en-US,en;q=0.9","65f19a1fe38352676f83d5f0","68764874ac79eee8c1d4cb03","687762c7e4222602df09e475","2","0","65f19a1fe38352676f83d5f0","2","0","2025-07-16T08:32:03.998Z","","","","","","","","","","","PrePerfQ","","50","","","","","","","","","","","","","","","","","","","","","","","","","","","","",""
"4262","","<div style=""width:500px;"">
  <p>What best describes how you currently feel?</p>
  </div>","47","html-slider-response","8","177955","0.0-4.0-2.0","63","1","2025-07-16 08:29:09","1f75c3e559b7213887762d5229550c2b","51.36.175.8","Mozilla/5.0 (Windows NT 10.0; Win64; x64) AppleWebKit/537.36 (KHTML, like Gecko) Chrome/138.0.0.0 Safari/537.36","WebKit","Chrome","138.0.0.0","Windows","10.0","https://app.prolific.com/","en-US,en;q=0.9","65f19a1fe38352676f83d5f0","68764874ac79eee8c1d4cb03","687762c7e4222602df09e475","2","0","65f19a1fe38352676f83d5f0","2","0","2025-07-16T08:32:08.261Z","","","","","","","","","","","PreMotivationQ","","50","","","","","","","","","","","","","","","","","","","","","","","","","","","","",""
"","","","","ctl-task-cpt","9","211593","0.0-5.0-0.0","63","1","2025-07-16 08:29:09","1f75c3e559b7213887762d5229550c2b","51.36.175.8","Mozilla/5.0 (Windows NT 10.0; Win64; x64) AppleWebKit/537.36 (KHTML, like Gecko) Chrome/138.0.0.0 Safari/537.36","WebKit","Chrome","138.0.0.0","Windows","10.0","https://app.prolific.com/","en-US,en;q=0.9","65f19a1fe38352676f83d5f0","68764874ac79eee8c1d4cb03","687762c7e4222602df09e475","2","0","65f19a1fe38352676f83d5f0","2","0","2025-07-16T08:32:41.899Z","","","","","","","","","","","","","","win-only","2","g1:SE,g2:NW","1","1","0","180709","1250.8","6251.2","30629.6","1","4","4","6","2","4","4","4","0","0.030303030303030304","1669.9","3000","820","[""left"",""up""]","{""num_key_presses"":6,""num_perfect"":6,""num_errors"":0,""num_randdir"":0,""num_randdir_good_moves"":0,""num_whilered"":0,""num_whileblue"":0,""num_blue"":3,""num_good_moves"":6}","[415.3214133126395,415.32142761775424,0.2,415.3214133126395,415.32142761775424,100.6,415.3214133126395,415.32142761775424,200.9,415.3214133126395,415.32142761775424,305.1,415.3214133126395,415.32142761775424,405.3,415.3214133126395,415.32142761775424,505.4,415.3214133126395,415.32142761775424,605.4,577.8214133126395,466.57142761775424,705.5,881.5714133126395,820.3214276177542,805.6,881.5714133126395,820.3214276177542,909.7,776.5714133126395,754.0714276177542,1010.7,236.5714133126395,247.82142761775424,1114.8,22.821413312639507,-2.178572382245747,1215.8,-8.428586687360493,-35.92857238224575,1320.6,21.571413312639507,5.321427617754253,1424.8,69.0714133126395,51.57142761775425,1525.4,69.0714133126395,51.57142761775425,1630.2,69.0714133126395,51.57142761775425,1730.5,69.0714133126395,51.57142761775425,1835.2,69.0714133126395,51.57142761775425,1940.1,69.0714133126395,51.57142761775425,2045.1,-233.4285866873605,211.57142761775424,2146,-260.9285866873605,246.57142761775424,2249.9,-260.9285866873605,246.57142761775424,2355.3,-260.9285866873605,246.57142761775424,2460.2,-260.9285866873605,246.57142761775424,2560.2,-260.9285866873605,246.57142761775424,2660.8,-260.9285866873605,246.57142761775424,2764.9,-260.9285866873605,246.57142761775424,2865.4,-260.9285866873605,246.57142761775424,2966.4,-260.9285866873605,246.57142761775424,3070.7,-260.9285866873605,246.57142761775424,3170.7,-260.9285866873605,246.57142761775424,3275.1,-260.9285866873605,246.57142761775424,3375.5,-260.9285866873605,246.57142761775424,3480.8,-260.9285866873605,246.57142761775424,3584.7,-260.9285866873605,246.57142761775424,3685.2,-260.9285866873605,246.57142761775424,3790.5,-260.9285866873605,246.57142761775424,3895.7,-260.9285866873605,246.57142761775424,4000.2,-260.9285866873605,246.57142761775424,4105.4,-260.9285866873605,246.57142761775424,4209.9,-260.9285866873605,246.57142761775424,4310.4,-260.9285866873605,246.57142761775424,4415,-260.9285866873605,246.57142761775424,4515.5,-260.9285866873605,246.57142761775424,4619.6,-260.9285866873605,246.57142761775424,4720.2,-260.9285866873605,246.57142761775424,4820.4,-260.9285866873605,246.57142761775424,4924.5]","[4881.5,4881.4,2511.6,2004.9,365,""smooth"",""up"",""up"",""good_move"",13961.3,9079.3,2714.3,10849.2,397.8,""smooth"",""up"",""up"",""good_move"",16498.1,2536.6,2152.7,13961.5,383.9,""smooth"",""up"",""up"",""good_move"",19104,2605.8,2254.4,16498.3,351.3,""smooth"",""left"",""left"",""good_move"",22023.4,2919.1,2519.6,19104.3,399.5,""smooth"",""left"",""left"",""good_move"",24288.5,2264.7,1916,22023.8,348.7,""smooth"",""left"",""left"",""good_move""]","",""
"4225","","<div style=""width:500px;"">
  <p>What determined the result of this run?</p>
  </div>","53","html-slider-response","10","215820","0.0-5.0-1.0","63","1","2025-07-16 08:29:09","1f75c3e559b7213887762d5229550c2b","51.36.175.8","Mozilla/5.0 (Windows NT 10.0; Win64; x64) AppleWebKit/537.36 (KHTML, like Gecko) Chrome/138.0.0.0 Safari/537.36","WebKit","Chrome","138.0.0.0","Windows","10.0","https://app.prolific.com/","en-US,en;q=0.9","65f19a1fe38352676f83d5f0","68764874ac79eee8c1d4cb03","687762c7e4222602df09e475","2","0","65f19a1fe38352676f83d5f0","2","0","2025-07-16T08:32:46.126Z","","","","","","","","","","","AttribQ","","50","","","","","","","","","","","","","","","","","","","","","","","","","","","","",""
"3372","","<div style=""width:500px;"">
  <p>How much control did you have over the ball?</p>
  </div>","51","html-slider-response","11","219193","0.0-5.0-2.0","63","1","2025-07-16 08:29:09","1f75c3e559b7213887762d5229550c2b","51.36.175.8","Mozilla/5.0 (Windows NT 10.0; Win64; x64) AppleWebKit/537.36 (KHTML, like Gecko) Chrome/138.0.0.0 Safari/537.36","WebKit","Chrome","138.0.0.0","Windows","10.0","https://app.prolific.com/","en-US,en;q=0.9","65f19a1fe38352676f83d5f0","68764874ac79eee8c1d4cb03","687762c7e4222602df09e475","2","0","65f19a1fe38352676f83d5f0","2","0","2025-07-16T08:32:49.499Z","","","","","","","","","","","ControlQ","","50","","","","","","","","","","","","","","","","","","","","","","","","","","","","",""
"3403","","<div style=""width:500px;"">
  <p>How would you describe your current emotional state?</p>
  </div>","48","html-slider-response","12","222598","0.0-5.0-3.0","63","1","2025-07-16 08:29:09","1f75c3e559b7213887762d5229550c2b","51.36.175.8","Mozilla/5.0 (Windows NT 10.0; Win64; x64) AppleWebKit/537.36 (KHTML, like Gecko) Chrome/138.0.0.0 Safari/537.36","WebKit","Chrome","138.0.0.0","Windows","10.0","https://app.prolific.com/","en-US,en;q=0.9","65f19a1fe38352676f83d5f0","68764874ac79eee8c1d4cb03","687762c7e4222602df09e475","2","0","65f19a1fe38352676f83d5f0","2","0","2025-07-16T08:32:52.904Z","","","","","","","","","","","StressQ","","50","","","","","","","","","","","","","","","","","","","","","","","","","","","","",""
"9638","","<div style=""width:500px;"">
  <p>What best describes how you currently feel?</p>
  </div>","45","html-slider-response","13","232238","0.0-5.0-4.0","63","1","2025-07-16 08:29:09","1f75c3e559b7213887762d5229550c2b","51.36.175.8","Mozilla/5.0 (Windows NT 10.0; Win64; x64) AppleWebKit/537.36 (KHTML, like Gecko) Chrome/138.0.0.0 Safari/537.36","WebKit","Chrome","138.0.0.0","Windows","10.0","https://app.prolific.com/","en-US,en;q=0.9","65f19a1fe38352676f83d5f0","68764874ac79eee8c1d4cb03","687762c7e4222602df09e475","2","0","65f19a1fe38352676f83d5f0","2","0","2025-07-16T08:33:02.544Z","","","","","","","","","","","MotivationQ","","50","","","","","","","","","","","","","","","","","","","","","","","","","","","","",""
"","","","","ctl-task-cpt","14","267641","0.0-5.0-0.1","63","1","2025-07-16 08:29:09","1f75c3e559b7213887762d5229550c2b","51.36.175.8","Mozilla/5.0 (Windows NT 10.0; Win64; x64) AppleWebKit/537.36 (KHTML, like Gecko) Chrome/138.0.0.0 Safari/537.36","WebKit","Chrome","138.0.0.0","Windows","10.0","https://app.prolific.com/","en-US,en;q=0.9","65f19a1fe38352676f83d5f0","68764874ac79eee8c1d4cb03","687762c7e4222602df09e475","2","0","65f19a1fe38352676f83d5f0","2","0","2025-07-16T08:33:37.947Z","","","","","","","","","","","","","","win-only","3","g1:SW,g2:NE","0.9","2","0","234989.3","1217.6","6221.6","32386","1","4","8","6","1","1","1","5","4","0.03787878787878788","1097.1","3000","1395","[""down"",""left""]","{""num_key_presses"":4,""num_perfect"":3,""num_errors"":0,""num_randdir"":1,""num_randdir_good_moves"":1,""num_whilered"":0,""num_whileblue"":0,""num_blue"":4,""num_good_moves"":4}","[420.3214133126395,421.57142761775424,0.2,420.3214133126395,421.57142761775424,103.1,420.3214133126395,421.57142761775424,203.4,420.3214133126395,421.57142761775424,303.9,420.3214133126395,421.57142761775424,408.1,422.8214133126395,416.57142761775424,508.6,422.8214133126395,415.32142761775424,613.7,197.8214133126395,660.3214276177542,718.5,60.32141331263951,812.8214276177542,824,59.07141331263951,815.3214276177542,928.1,59.07141331263951,815.3214276177542,1028.2,59.07141331263951,815.3214276177542,1129,59.07141331263951,815.3214276177542,1233.9,59.07141331263951,815.3214276177542,1334.1,59.07141331263951,815.3214276177542,1434.3,-124.6785866873605,709.0714276177542,1538,-138.4285866873605,700.3214276177542,1638.1,-138.4285866873605,700.3214276177542,1738.4,-138.4285866873605,700.3214276177542,1844.2,-138.4285866873605,700.3214276177542,1949.2,-138.4285866873605,700.3214276177542,2054.1,-138.4285866873605,700.3214276177542,2158.1,-138.4285866873605,700.3214276177542,2258.4,-138.4285866873605,700.3214276177542,2358.7,-138.4285866873605,700.3214276177542,2458.7,-138.4285866873605,700.3214276177542,2563,-138.4285866873605,700.3214276177542,2664.7,-138.4285866873605,700.3214276177542,2768.2,-138.4285866873605,700.3214276177542,2873.1,-138.4285866873605,700.3214276177542,2974.4,-138.4285866873605,700.3214276177542,3078.2,-138.4285866873605,700.3214276177542,3178.9,-138.4285866873605,700.3214276177542,3279.2,-138.4285866873605,700.3214276177542,3383.7,-138.4285866873605,700.3214276177542,3483.9,-138.4285866873605,700.3214276177542,3584,-138.4285866873605,700.3214276177542,3687.8,-138.4285866873605,700.3214276177542,3788.6,-138.4285866873605,700.3214276177542,3893.5,-138.4285866873605,700.3214276177542,3998.9,-138.4285866873605,700.3214276177542,4102.7,-138.4285866873605,700.3214276177542,4202.9,-138.4285866873605,700.3214276177542,4303.5,-138.4285866873605,700.3214276177542,4408.5,-138.4285866873605,700.3214276177542,4512.9,-138.4285866873605,700.3214276177542,4613.7,-138.4285866873605,700.3214276177542,4714.2,-138.4285866873605,700.3214276177542,4818.8,-138.4285866873605,700.3214276177542,4919.3]","[4774.8,4774.8,2335.7,2009.1,430,""smooth"",""down"",""down"",""good_move"",8654.8,3879.8,3492.3,4775,387.5,""oops"",""down"",""left"",""good_move"",19714.7,11059.5,2884.2,16419.4,411.1,""smooth"",""down"",""down"",""good_move"",26073,6358.2,2713.9,22954.7,404.4,""smooth"",""left"",""left"",""good_move""]","",""
"3806","","<div style=""width:500px;"">
  <p>What determined the result of this run?</p>
  </div>","52","html-slider-response","15","271449","0.0-5.0-1.1","63","1","2025-07-16 08:29:09","1f75c3e559b7213887762d5229550c2b","51.36.175.8","Mozilla/5.0 (Windows NT 10.0; Win64; x64) AppleWebKit/537.36 (KHTML, like Gecko) Chrome/138.0.0.0 Safari/537.36","WebKit","Chrome","138.0.0.0","Windows","10.0","https://app.prolific.com/","en-US,en;q=0.9","65f19a1fe38352676f83d5f0","68764874ac79eee8c1d4cb03","687762c7e4222602df09e475","2","0","65f19a1fe38352676f83d5f0","2","0","2025-07-16T08:33:41.755Z","","","","","","","","","","","AttribQ","","50","","","","","","","","","","","","","","","","","","","","","","","","","","","","",""
"3312","","<div style=""width:500px;"">
  <p>How much control did you have over the ball?</p>
  </div>","52","html-slider-response","16","274761","0.0-5.0-2.1","63","1","2025-07-16 08:29:09","1f75c3e559b7213887762d5229550c2b","51.36.175.8","Mozilla/5.0 (Windows NT 10.0; Win64; x64) AppleWebKit/537.36 (KHTML, like Gecko) Chrome/138.0.0.0 Safari/537.36","WebKit","Chrome","138.0.0.0","Windows","10.0","https://app.prolific.com/","en-US,en;q=0.9","65f19a1fe38352676f83d5f0","68764874ac79eee8c1d4cb03","687762c7e4222602df09e475","2","0","65f19a1fe38352676f83d5f0","2","0","2025-07-16T08:33:45.067Z","","","","","","","","","","","ControlQ","","50","","","","","","","","","","","","","","","","","","","","","","","","","","","","",""
"3179","","<div style=""width:500px;"">
  <p>How would you describe your current emotional state?</p>
  </div>","48","html-slider-response","17","277941","0.0-5.0-3.1","63","1","2025-07-16 08:29:09","1f75c3e559b7213887762d5229550c2b","51.36.175.8","Mozilla/5.0 (Windows NT 10.0; Win64; x64) AppleWebKit/537.36 (KHTML, like Gecko) Chrome/138.0.0.0 Safari/537.36","WebKit","Chrome","138.0.0.0","Windows","10.0","https://app.prolific.com/","en-US,en;q=0.9","65f19a1fe38352676f83d5f0","68764874ac79eee8c1d4cb03","687762c7e4222602df09e475","2","0","65f19a1fe38352676f83d5f0","2","0","2025-07-16T08:33:48.247Z","","","","","","","","","","","StressQ","","50","","","","","","","","","","","","","","","","","","","","","","","","","","","","",""
"2666","","<div style=""width:500px;"">
  <p>What best describes how you currently feel?</p>
  </div>","47","html-slider-response","18","280608","0.0-5.0-4.1","63","1","2025-07-16 08:29:09","1f75c3e559b7213887762d5229550c2b","51.36.175.8","Mozilla/5.0 (Windows NT 10.0; Win64; x64) AppleWebKit/537.36 (KHTML, like Gecko) Chrome/138.0.0.0 Safari/537.36","WebKit","Chrome","138.0.0.0","Windows","10.0","https://app.prolific.com/","en-US,en;q=0.9","65f19a1fe38352676f83d5f0","68764874ac79eee8c1d4cb03","687762c7e4222602df09e475","2","0","65f19a1fe38352676f83d5f0","2","0","2025-07-16T08:33:50.914Z","","","","","","","","","","","MotivationQ","","50","","","","","","","","","","","","","","","","","","","","","","","","","","","","",""
"","","","","ctl-task-cpt","19","305626","0.0-5.0-0.2","63","1","2025-07-16 08:29:09","1f75c3e559b7213887762d5229550c2b","51.36.175.8","Mozilla/5.0 (Windows NT 10.0; Win64; x64) AppleWebKit/537.36 (KHTML, like Gecko) Chrome/138.0.0.0 Safari/537.36","WebKit","Chrome","138.0.0.0","Windows","10.0","https://app.prolific.com/","en-US,en;q=0.9","65f19a1fe38352676f83d5f0","68764874ac79eee8c1d4cb03","687762c7e4222602df09e475","2","0","65f19a1fe38352676f83d5f0","2","0","2025-07-16T08:34:15.932Z","","","","","","","","","","","","","","win-only","2","g1:SE,g2:NW","0.8","3","0","283359.8","871.2","5876","22000.9","1","4","4","6","2","-4","-4","1","5","0.007575757575757576","1628.7","3000","-3015","[""left"",""up""]","{""num_key_presses"":5,""num_perfect"":4,""num_errors"":0,""num_randdir"":1,""num_randdir_good_moves"":0,""num_whilered"":0,""num_whileblue"":0,""num_blue"":0,""num_good_moves"":4}","[421.5714133126395,411.57142761775424,0.2,421.5714133126395,411.57142761775424,104.2,421.5714133126395,411.57142761775424,204.6,421.5714133126395,411.57142761775424,304.7,421.5714133126395,411.57142761775424,409.1,401.5714133126395,391.57142761775424,509.4,186.5714133126395,184.07142761775424,609.4,147.8214133126395,101.57142761775425,709.7,146.5714133126395,101.57142761775425,814.2,146.5714133126395,101.57142761775425,914.3,146.5714133126395,101.57142761775425,1014.5,146.5714133126395,101.57142761775425,1114.6,146.5714133126395,101.57142761775425,1219.2,146.5714133126395,101.57142761775425,1324.4,146.5714133126395,101.57142761775425,1424.4,111.5714133126395,97.82142761775425,1524.7,111.5714133126395,97.82142761775425,1634.1,111.5714133126395,97.82142761775425,1734.1,111.5714133126395,97.82142761775425,1834.4,111.5714133126395,97.82142761775425,1939.3,-88.4285866873605,187.82142761775424,2039.5,-308.4285866873605,304.07142761775424,2140.3,-308.4285866873605,304.07142761775424,2244.8,-308.4285866873605,304.07142761775424,2349.5,-308.4285866873605,304.07142761775424,2454.3,-308.4285866873605,304.07142761775424,2559,-308.4285866873605,304.07142761775424,2659.3,-308.4285866873605,304.07142761775424,2759.6,-308.4285866873605,304.07142761775424,2864.3,-308.4285866873605,304.07142761775424,2964.4,-308.4285866873605,304.07142761775424,3069.7,-308.4285866873605,304.07142761775424,3174.6,-308.4285866873605,304.07142761775424,3279.7,-308.4285866873605,304.07142761775424,3379.9,-308.4285866873605,304.07142761775424,3484,-308.4285866873605,304.07142761775424,3585.2,-308.4285866873605,304.07142761775424,3689.4,-308.4285866873605,304.07142761775424,3789.6,-308.4285866873605,304.07142761775424,3894.8,-308.4285866873605,304.07142761775424,3999.7,-308.4285866873605,304.07142761775424,4100.6,-308.4285866873605,304.07142761775424,4204.6,-308.4285866873605,304.07142761775424,4309.2,-308.4285866873605,304.07142761775424,4409.5,-308.4285866873605,304.07142761775424,4514.1,-308.4285866873605,304.07142761775424,4615.1,-308.4285866873605,304.07142761775424,4718.9,-308.4285866873605,304.07142761775424,4820.2,-308.4285866873605,304.07142761775424,4924.8]","[1710.9,1710.9,1000,0,710.9,""smooth"",""left"",""left"",""good_move"",4791.5,3079.7,2256.8,1711.8,822.9,""smooth"",""left"",""left"",""good_move"",8025.5,3233.7,2718.3,4791.8,515.4,""smooth"",""left"",""left"",""good_move"",10148.2,2122.6,1645.5,8025.6,477.2,""oops"",""up"",""down"",""bad_move"",13689.3,3540.9,3136.3,10148.4,404.6,""smooth"",""up"",""up"",""good_move""]","",""
"3886","","<div style=""width:500px;"">
  <p>What determined the result of this run?</p>
  </div>","40","html-slider-response","20","309512","0.0-5.0-1.2","63","1","2025-07-16 08:29:09","1f75c3e559b7213887762d5229550c2b","51.36.175.8","Mozilla/5.0 (Windows NT 10.0; Win64; x64) AppleWebKit/537.36 (KHTML, like Gecko) Chrome/138.0.0.0 Safari/537.36","WebKit","Chrome","138.0.0.0","Windows","10.0","https://app.prolific.com/","en-US,en;q=0.9","65f19a1fe38352676f83d5f0","68764874ac79eee8c1d4cb03","687762c7e4222602df09e475","2","0","65f19a1fe38352676f83d5f0","2","0","2025-07-16T08:34:19.818Z","","","","","","","","","","","AttribQ","","50","","","","","","","","","","","","","","","","","","","","","","","","","","","","",""
"2832","","<div style=""width:500px;"">
  <p>How much control did you have over the ball?</p>
  </div>","9","html-slider-response","21","312346","0.0-5.0-2.2","63","1","2025-07-16 08:29:09","1f75c3e559b7213887762d5229550c2b","51.36.175.8","Mozilla/5.0 (Windows NT 10.0; Win64; x64) AppleWebKit/537.36 (KHTML, like Gecko) Chrome/138.0.0.0 Safari/537.36","WebKit","Chrome","138.0.0.0","Windows","10.0","https://app.prolific.com/","en-US,en;q=0.9","65f19a1fe38352676f83d5f0","68764874ac79eee8c1d4cb03","687762c7e4222602df09e475","2","0","65f19a1fe38352676f83d5f0","2","0","2025-07-16T08:34:22.652Z","","","","","","","","","","","ControlQ","","50","","","","","","","","","","","","","","","","","","","","","","","","","","","","",""
"2973","","<div style=""width:500px;"">
  <p>How would you describe your current emotional state?</p>
  </div>","52","html-slider-response","22","315319","0.0-5.0-3.2","63","1","2025-07-16 08:29:09","1f75c3e559b7213887762d5229550c2b","51.36.175.8","Mozilla/5.0 (Windows NT 10.0; Win64; x64) AppleWebKit/537.36 (KHTML, like Gecko) Chrome/138.0.0.0 Safari/537.36","WebKit","Chrome","138.0.0.0","Windows","10.0","https://app.prolific.com/","en-US,en;q=0.9","65f19a1fe38352676f83d5f0","68764874ac79eee8c1d4cb03","687762c7e4222602df09e475","2","0","65f19a1fe38352676f83d5f0","2","0","2025-07-16T08:34:25.625Z","","","","","","","","","","","StressQ","","50","","","","","","","","","","","","","","","","","","","","","","","","","","","","",""
"2276","","<div style=""width:500px;"">
  <p>What best describes how you currently feel?</p>
  </div>","47","html-slider-response","23","317596","0.0-5.0-4.2","63","1","2025-07-16 08:29:09","1f75c3e559b7213887762d5229550c2b","51.36.175.8","Mozilla/5.0 (Windows NT 10.0; Win64; x64) AppleWebKit/537.36 (KHTML, like Gecko) Chrome/138.0.0.0 Safari/537.36","WebKit","Chrome","138.0.0.0","Windows","10.0","https://app.prolific.com/","en-US,en;q=0.9","65f19a1fe38352676f83d5f0","68764874ac79eee8c1d4cb03","687762c7e4222602df09e475","2","0","65f19a1fe38352676f83d5f0","2","0","2025-07-16T08:34:27.902Z","","","","","","","","","","","MotivationQ","","50","","","","","","","","","","","","","","","","","","","","","","","","","","","","",""
"","","","","ctl-task-cpt","24","345375","0.0-5.0-0.3","63","1","2025-07-16 08:29:09","1f75c3e559b7213887762d5229550c2b","51.36.175.8","Mozilla/5.0 (Windows NT 10.0; Win64; x64) AppleWebKit/537.36 (KHTML, like Gecko) Chrome/138.0.0.0 Safari/537.36","WebKit","Chrome","138.0.0.0","Windows","10.0","https://app.prolific.com/","en-US,en;q=0.9","65f19a1fe38352676f83d5f0","68764874ac79eee8c1d4cb03","687762c7e4222602df09e475","2","0","65f19a1fe38352676f83d5f0","2","0","2025-07-16T08:34:55.681Z","","","","","","","","","","","","","","win-only","3","g1:SW,g2:NE","0.7","4","0","320347.9","975.5","5975.8","24760.2","1","4","8","6","1","1","1","2","1","0.015151515151515152","1082.7","3000","1110","[""down"",""left""]","{""num_key_presses"":4,""num_perfect"":2,""num_errors"":0,""num_randdir"":2,""num_randdir_good_moves"":2,""num_whilered"":0,""num_whileblue"":0,""num_blue"":2,""num_good_moves"":4}","[411.5714133126395,411.57142761775424,0.1,411.5714133126395,411.57142761775424,100,411.5714133126395,411.57142761775424,200.3,411.5714133126395,411.57142761775424,305.7,411.5714133126395,411.57142761775424,410.4,411.5714133126395,411.57142761775424,514.7,406.5714133126395,415.32142761775424,615.5,229.0714133126395,587.8214276177542,720.5,119.0714133126395,699.0714276177542,825.6,114.0714133126395,740.3214276177542,925.8,114.0714133126395,741.5714276177542,1030.2,114.0714133126395,741.5714276177542,1130.5,114.0714133126395,741.5714276177542,1235.1,114.0714133126395,741.5714276177542,1335.9,114.0714133126395,741.5714276177542,1440.3,-28.428586687360493,726.5714276177542,1540.4,-208.4285866873605,702.8214276177542,1645.3,-208.4285866873605,702.8214276177542,1745.6,-208.4285866873605,702.8214276177542,1850.7,-208.4285866873605,702.8214276177542,1956.7,-208.4285866873605,702.8214276177542,2060.2,-208.4285866873605,702.8214276177542,2162.3,-208.4285866873605,702.8214276177542,2266.3,-208.4285866873605,702.8214276177542,2370.2,-208.4285866873605,702.8214276177542,2475.3,-208.4285866873605,702.8214276177542,2575.3,-208.4285866873605,702.8214276177542,2680.3,-208.4285866873605,702.8214276177542,2786.1,-208.4285866873605,702.8214276177542,2890.5,-208.4285866873605,702.8214276177542,2995.3,-208.4285866873605,702.8214276177542,3100.7,-208.4285866873605,702.8214276177542,3205.2,-208.4285866873605,702.8214276177542,3306.3,-208.4285866873605,702.8214276177542,3410.4,-208.4285866873605,702.8214276177542,3510.4,-208.4285866873605,702.8214276177542,3614.7,-208.4285866873605,702.8214276177542,3715,-208.4285866873605,702.8214276177542,3815.9,-208.4285866873605,702.8214276177542,3916,-208.4285866873605,702.8214276177542,4019.9,-208.4285866873605,702.8214276177542,4120.3,-208.4285866873605,702.8214276177542,4225,-208.4285866873605,702.8214276177542,4325.3,-208.4285866873605,702.8214276177542,4425.4,-208.4285866873605,702.8214276177542,4526.1,-208.4285866873605,702.8214276177542,4626.3,-208.4285866873605,702.8214276177542,4726.4,-208.4285866873605,702.8214276177542,4829.8,-208.4285866873605,702.8214276177542,4929.8]","[5232.1,5232.2,2817.5,2010.4,404.3,""smooth"",""down"",""down"",""good_move"",8101,2868.6,2369.9,5232.4,498.7,""oops"",""down"",""left"",""good_move"",15400.5,7299.2,2728.1,12094.4,578,""oops"",""down"",""down"",""good_move"",18691.8,3291.1,2858.2,15400.7,432.9,""smooth"",""left"",""left"",""good_move""]","",""
"3715","","<div style=""width:500px;"">
  <p>What determined the result of this run?</p>
  </div>","25","html-slider-response","25","349091","0.0-5.0-1.3","63","1","2025-07-16 08:29:09","1f75c3e559b7213887762d5229550c2b","51.36.175.8","Mozilla/5.0 (Windows NT 10.0; Win64; x64) AppleWebKit/537.36 (KHTML, like Gecko) Chrome/138.0.0.0 Safari/537.36","WebKit","Chrome","138.0.0.0","Windows","10.0","https://app.prolific.com/","en-US,en;q=0.9","65f19a1fe38352676f83d5f0","68764874ac79eee8c1d4cb03","687762c7e4222602df09e475","2","0","65f19a1fe38352676f83d5f0","2","0","2025-07-16T08:34:59.397Z","","","","","","","","","","","AttribQ","","50","","","","","","","","","","","","","","","","","","","","","","","","","","","","",""
"2743","","<div style=""width:500px;"">
  <p>How much control did you have over the ball?</p>
  </div>","33","html-slider-response","26","351834","0.0-5.0-2.3","63","1","2025-07-16 08:29:09","1f75c3e559b7213887762d5229550c2b","51.36.175.8","Mozilla/5.0 (Windows NT 10.0; Win64; x64) AppleWebKit/537.36 (KHTML, like Gecko) Chrome/138.0.0.0 Safari/537.36","WebKit","Chrome","138.0.0.0","Windows","10.0","https://app.prolific.com/","en-US,en;q=0.9","65f19a1fe38352676f83d5f0","68764874ac79eee8c1d4cb03","687762c7e4222602df09e475","2","0","65f19a1fe38352676f83d5f0","2","0","2025-07-16T08:35:02.140Z","","","","","","","","","","","ControlQ","","50","","","","","","","","","","","","","","","","","","","","","","","","","","","","",""
"4234","","<div style=""width:500px;"">
  <p>How would you describe your current emotional state?</p>
  </div>","46","html-slider-response","27","356069","0.0-5.0-3.3","63","1","2025-07-16 08:29:09","1f75c3e559b7213887762d5229550c2b","51.36.175.8","Mozilla/5.0 (Windows NT 10.0; Win64; x64) AppleWebKit/537.36 (KHTML, like Gecko) Chrome/138.0.0.0 Safari/537.36","WebKit","Chrome","138.0.0.0","Windows","10.0","https://app.prolific.com/","en-US,en;q=0.9","65f19a1fe38352676f83d5f0","68764874ac79eee8c1d4cb03","687762c7e4222602df09e475","2","0","65f19a1fe38352676f83d5f0","2","0","2025-07-16T08:35:06.375Z","","","","","","","","","","","StressQ","","50","","","","","","","","","","","","","","","","","","","","","","","","","","","","",""
"2920","","<div style=""width:500px;"">
  <p>What best describes how you currently feel?</p>
  </div>","46","html-slider-response","28","358990","0.0-5.0-4.3","63","1","2025-07-16 08:29:09","1f75c3e559b7213887762d5229550c2b","51.36.175.8","Mozilla/5.0 (Windows NT 10.0; Win64; x64) AppleWebKit/537.36 (KHTML, like Gecko) Chrome/138.0.0.0 Safari/537.36","WebKit","Chrome","138.0.0.0","Windows","10.0","https://app.prolific.com/","en-US,en;q=0.9","65f19a1fe38352676f83d5f0","68764874ac79eee8c1d4cb03","687762c7e4222602df09e475","2","0","65f19a1fe38352676f83d5f0","2","0","2025-07-16T08:35:09.296Z","","","","","","","","","","","MotivationQ","","50","","","","","","","","","","","","","","","","","","","","","","","","","","","","",""
"","","","","ctl-task-cpt","29","385824","0.0-5.0-0.4","63","1","2025-07-16 08:29:09","1f75c3e559b7213887762d5229550c2b","51.36.175.8","Mozilla/5.0 (Windows NT 10.0; Win64; x64) AppleWebKit/537.36 (KHTML, like Gecko) Chrome/138.0.0.0 Safari/537.36","WebKit","Chrome","138.0.0.0","Windows","10.0","https://app.prolific.com/","en-US,en;q=0.9","65f19a1fe38352676f83d5f0","68764874ac79eee8c1d4cb03","687762c7e4222602df09e475","2","0","65f19a1fe38352676f83d5f0","2","0","2025-07-16T08:35:36.130Z","","","","","","","","","","","","","","win-only","1","g1:NE,g2:SW","0.6","5","0","361741.1","926.9","5930.8","23821.6","1","4","4","6","1","-1","-1","1","2","0.007575757575757576","1292","3000","-3005","[""up"",""right""]","{""num_key_presses"":4,""num_perfect"":2,""num_errors"":0,""num_randdir"":2,""num_randdir_good_moves"":1,""num_whilered"":0,""num_whileblue"":0,""num_blue"":1,""num_good_moves"":3}","[414.0714133126395,424.07142761775424,0.2,414.0714133126395,424.07142761775424,103.6,414.0714133126395,424.07142761775424,209.2,414.0714133126395,424.07142761775424,309.3,414.0714133126395,424.07142761775424,413.2,365.3214133126395,461.57142761775424,513.5,61.57141331263951,732.8214276177542,614.9,56.57141331263951,771.5714276177542,718.3,497.8214133126395,182.82142761775424,819,716.5714133126395,22.821427617754253,919,769.0714133126395,14.071427617754253,1024,771.5714133126395,20.321427617754253,1129.2,771.5714133126395,25.321427617754253,1233.8,771.5714133126395,25.321427617754253,1334.2,771.5714133126395,25.321427617754253,1438.4,771.5714133126395,25.321427617754253,1539,771.5714133126395,25.321427617754253,1639.7,-103.4285866873605,166.57142761775424,1745,-282.1785866873605,230.32142761775424,1850.7,-282.1785866873605,230.32142761775424,1950.8,-282.1785866873605,230.32142761775424,2053.9,-282.1785866873605,230.32142761775424,2158.7,-282.1785866873605,230.32142761775424,2258.9,-282.1785866873605,230.32142761775424,2364,-282.1785866873605,230.32142761775424,2464.2,-282.1785866873605,230.32142761775424,2569.1,-282.1785866873605,230.32142761775424,2673.8,-282.1785866873605,230.32142761775424,2773.8,-282.1785866873605,230.32142761775424,2878.9,-282.1785866873605,230.32142761775424,2979.7,-282.1785866873605,230.32142761775424,3083.4,-282.1785866873605,230.32142761775424,3183.4,-282.1785866873605,230.32142761775424,3284.3,-282.1785866873605,230.32142761775424,3389,-282.1785866873605,230.32142761775424,3493.6,-282.1785866873605,230.32142761775424,3599,-282.1785866873605,230.32142761775424,3704,-282.1785866873605,230.32142761775424,3804.4,-282.1785866873605,230.32142761775424,3908.6,-282.1785866873605,230.32142761775424,4008.9,-282.1785866873605,230.32142761775424,4109.3,-282.1785866873605,230.32142761775424,4213.5,-282.1785866873605,230.32142761775424,4315.8,-282.1785866873605,230.32142761775424,4419.4,-282.1785866873605,230.32142761775424,4523.8,-282.1785866873605,230.32142761775424,4628.8,-282.1785866873605,230.32142761775424,4729,-282.1785866873605,230.32142761775424,4834.9,-282.1785866873605,230.32142761775424,4938.2]","[1871.8,1871.8,1000,0,871.8,""smooth"",""right"",""right"",""good_move"",8591.6,6719.6,3017.4,5090.8,483.4,""oops"",""right"",""left"",""bad_move"",11370.9,2779.2,1660.1,8591.8,1119.1,""smooth"",""right"",""right"",""good_move"",14471.3,3100.2,2736.8,11371.2,363.3,""oops"",""right"",""right"",""good_move""]","",""
"2984","","<div style=""width:500px;"">
  <p>What determined the result of this run?</p>
  </div>","29","html-slider-response","30","388810","0.0-5.0-1.4","63","1","2025-07-16 08:29:09","1f75c3e559b7213887762d5229550c2b","51.36.175.8","Mozilla/5.0 (Windows NT 10.0; Win64; x64) AppleWebKit/537.36 (KHTML, like Gecko) Chrome/138.0.0.0 Safari/537.36","WebKit","Chrome","138.0.0.0","Windows","10.0","https://app.prolific.com/","en-US,en;q=0.9","65f19a1fe38352676f83d5f0","68764874ac79eee8c1d4cb03","687762c7e4222602df09e475","2","0","65f19a1fe38352676f83d5f0","2","0","2025-07-16T08:35:39.116Z","","","","","","","","","","","AttribQ","","50","","","","","","","","","","","","","","","","","","","","","","","","","","","","",""
"3355","","<div style=""width:500px;"">
  <p>How much control did you have over the ball?</p>
  </div>","30","html-slider-response","31","392166","0.0-5.0-2.4","63","1","2025-07-16 08:29:09","1f75c3e559b7213887762d5229550c2b","51.36.175.8","Mozilla/5.0 (Windows NT 10.0; Win64; x64) AppleWebKit/537.36 (KHTML, like Gecko) Chrome/138.0.0.0 Safari/537.36","WebKit","Chrome","138.0.0.0","Windows","10.0","https://app.prolific.com/","en-US,en;q=0.9","65f19a1fe38352676f83d5f0","68764874ac79eee8c1d4cb03","687762c7e4222602df09e475","2","0","65f19a1fe38352676f83d5f0","2","0","2025-07-16T08:35:42.472Z","","","","","","","","","","","ControlQ","","50","","","","","","","","","","","","","","","","","","","","","","","","","","","","",""
"3198","","<div style=""width:500px;"">
  <p>How would you describe your current emotional state?</p>
  </div>","52","html-slider-response","32","395364","0.0-5.0-3.4","63","1","2025-07-16 08:29:09","1f75c3e559b7213887762d5229550c2b","51.36.175.8","Mozilla/5.0 (Windows NT 10.0; Win64; x64) AppleWebKit/537.36 (KHTML, like Gecko) Chrome/138.0.0.0 Safari/537.36","WebKit","Chrome","138.0.0.0","Windows","10.0","https://app.prolific.com/","en-US,en;q=0.9","65f19a1fe38352676f83d5f0","68764874ac79eee8c1d4cb03","687762c7e4222602df09e475","2","0","65f19a1fe38352676f83d5f0","2","0","2025-07-16T08:35:45.671Z","","","","","","","","","","","StressQ","","50","","","","","","","","","","","","","","","","","","","","","","","","","","","","",""
"2692","","<div style=""width:500px;"">
  <p>What best describes how you currently feel?</p>
  </div>","35","html-slider-response","33","398057","0.0-5.0-4.4","63","1","2025-07-16 08:29:09","1f75c3e559b7213887762d5229550c2b","51.36.175.8","Mozilla/5.0 (Windows NT 10.0; Win64; x64) AppleWebKit/537.36 (KHTML, like Gecko) Chrome/138.0.0.0 Safari/537.36","WebKit","Chrome","138.0.0.0","Windows","10.0","https://app.prolific.com/","en-US,en;q=0.9","65f19a1fe38352676f83d5f0","68764874ac79eee8c1d4cb03","687762c7e4222602df09e475","2","0","65f19a1fe38352676f83d5f0","2","0","2025-07-16T08:35:48.363Z","","","","","","","","","","","MotivationQ","","50","","","","","","","","","","","","","","","","","","","","","","","","","","","","",""
"","","","","ctl-task-cpt","34","445577","0.0-5.0-0.5","63","1","2025-07-16 08:29:09","1f75c3e559b7213887762d5229550c2b","51.36.175.8","Mozilla/5.0 (Windows NT 10.0; Win64; x64) AppleWebKit/537.36 (KHTML, like Gecko) Chrome/138.0.0.0 Safari/537.36","WebKit","Chrome","138.0.0.0","Windows","10.0","https://app.prolific.com/","en-US,en;q=0.9","65f19a1fe38352676f83d5f0","68764874ac79eee8c1d4cb03","687762c7e4222602df09e475","2","0","65f19a1fe38352676f83d5f0","2","0","2025-07-16T08:36:35.883Z","","","","","","","","","","","","","","win-only","3","g1:SW,g2:NE","0.5","6","0","400809","963.5","5966.4","44501.4","1","4","8","6","1","-1","-1","0","1","0","964.5","3000","-3000","[""down"",""left""]","{""num_key_presses"":6,""num_perfect"":2,""num_errors"":0,""num_randdir"":4,""num_randdir_good_moves"":0,""num_whilered"":0,""num_whileblue"":0,""num_blue"":5,""num_good_moves"":2}","[422.8214133126395,415.32142761775424,0.1,422.8214133126395,415.32142761775424,103.7,422.8214133126395,415.32142761775424,208.9,422.8214133126395,415.32142761775424,309.4,422.8214133126395,415.32142761775424,409.6,246.5714133126395,617.8214276177542,512,69.0714133126395,836.5714276177542,612.1,69.0714133126395,836.5714276177542,712.2,76.5714133126395,776.5714276177542,817,76.5714133126395,776.5714276177542,918,76.5714133126395,776.5714276177542,1022.6,76.5714133126395,776.5714276177542,1130.4,76.5714133126395,776.5714276177542,1232.6,76.5714133126395,776.5714276177542,1332.6,-340.9285866873605,691.5714276177542,1437.1,-343.4285866873605,687.8214276177542,1542.5,-343.4285866873605,687.8214276177542,1642.7,-343.4285866873605,687.8214276177542,1743.2,-343.4285866873605,687.8214276177542,1846.9,-343.4285866873605,687.8214276177542,1947.7,-343.4285866873605,687.8214276177542,2052.5,-343.4285866873605,687.8214276177542,2152.6,-343.4285866873605,687.8214276177542,2252.9,-343.4285866873605,687.8214276177542,2357,-343.4285866873605,687.8214276177542,2458.1,-343.4285866873605,687.8214276177542,2561.7,-343.4285866873605,687.8214276177542,2662.2,-343.4285866873605,687.8214276177542,2767.5,-343.4285866873605,687.8214276177542,2867.8,-343.4285866873605,687.8214276177542,2973.1,-343.4285866873605,687.8214276177542,3077.4,-343.4285866873605,687.8214276177542,3183.3,-343.4285866873605,687.8214276177542,3287.3,-343.4285866873605,687.8214276177542,3392.7,-343.4285866873605,687.8214276177542,3497.5,-343.4285866873605,687.8214276177542,3597.5,-343.4285866873605,687.8214276177542,3702.5,-343.4285866873605,687.8214276177542,3807,-343.4285866873605,687.8214276177542,3909.8,-343.4285866873605,687.8214276177542,4012.3,-343.4285866873605,687.8214276177542,4113.3,-343.4285866873605,687.8214276177542,4216.9,-343.4285866873605,687.8214276177542,4317.4,-343.4285866873605,687.8214276177542,4417.9,-343.4285866873605,687.8214276177542,4523.2,-343.4285866873605,687.8214276177542,4628.1,-343.4285866873605,687.8214276177542,4732.6,-343.4285866873605,687.8214276177542,4833.3,-343.4285866873605,687.8214276177542,4937.7]","[1466.8,1466.8,1000,0,466.8,""smooth"",""down"",""down"",""good_move"",4288.6,2821.5,2377.8,1467.1,443.7,""smooth"",""down"",""down"",""good_move"",7270.6,2981.9,2618,4288.7,363.9,""oops"",""left"",""right"",""bad_move"",13430.2,6159.3,2851.5,10169.8,408.9,""oops"",""left"",""right"",""bad_move"",28210,14779.6,2774.1,24979.3,456.6,""oops"",""left"",""up"",""bad_move"",35539.6,7329.2,2950.4,32142.4,446.8,""oops"",""left"",""up"",""bad_move""]","",""
"2983","","<div style=""width:500px;"">
  <p>What determined the result of this run?</p>
  </div>","40","html-slider-response","35","448561","0.0-5.0-1.5","63","1","2025-07-16 08:29:09","1f75c3e559b7213887762d5229550c2b","51.36.175.8","Mozilla/5.0 (Windows NT 10.0; Win64; x64) AppleWebKit/537.36 (KHTML, like Gecko) Chrome/138.0.0.0 Safari/537.36","WebKit","Chrome","138.0.0.0","Windows","10.0","https://app.prolific.com/","en-US,en;q=0.9","65f19a1fe38352676f83d5f0","68764874ac79eee8c1d4cb03","687762c7e4222602df09e475","2","0","65f19a1fe38352676f83d5f0","2","0","2025-07-16T08:36:38.867Z","","","","","","","","","","","AttribQ","","50","","","","","","","","","","","","","","","","","","","","","","","","","","","","",""
"2271","","<div style=""width:500px;"">
  <p>How much control did you have over the ball?</p>
  </div>","34","html-slider-response","36","450832","0.0-5.0-2.5","63","1","2025-07-16 08:29:09","1f75c3e559b7213887762d5229550c2b","51.36.175.8","Mozilla/5.0 (Windows NT 10.0; Win64; x64) AppleWebKit/537.36 (KHTML, like Gecko) Chrome/138.0.0.0 Safari/537.36","WebKit","Chrome","138.0.0.0","Windows","10.0","https://app.prolific.com/","en-US,en;q=0.9","65f19a1fe38352676f83d5f0","68764874ac79eee8c1d4cb03","687762c7e4222602df09e475","2","0","65f19a1fe38352676f83d5f0","2","0","2025-07-16T08:36:41.138Z","","","","","","","","","","","ControlQ","","50","","","","","","","","","","","","","","","","","","","","","","","","","","","","",""
"3798","","<div style=""width:500px;"">
  <p>How would you describe your current emotional state?</p>
  </div>","69","html-slider-response","37","454631","0.0-5.0-3.5","63","1","2025-07-16 08:29:09","1f75c3e559b7213887762d5229550c2b","51.36.175.8","Mozilla/5.0 (Windows NT 10.0; Win64; x64) AppleWebKit/537.36 (KHTML, like Gecko) Chrome/138.0.0.0 Safari/537.36","WebKit","Chrome","138.0.0.0","Windows","10.0","https://app.prolific.com/","en-US,en;q=0.9","65f19a1fe38352676f83d5f0","68764874ac79eee8c1d4cb03","687762c7e4222602df09e475","2","0","65f19a1fe38352676f83d5f0","2","0","2025-07-16T08:36:44.937Z","","","","","","","","","","","StressQ","","50","","","","","","","","","","","","","","","","","","","","","","","","","","","","",""
"3285","","<div style=""width:500px;"">
  <p>What best describes how you currently feel?</p>
  </div>","22","html-slider-response","38","457917","0.0-5.0-4.5","63","1","2025-07-16 08:29:09","1f75c3e559b7213887762d5229550c2b","51.36.175.8","Mozilla/5.0 (Windows NT 10.0; Win64; x64) AppleWebKit/537.36 (KHTML, like Gecko) Chrome/138.0.0.0 Safari/537.36","WebKit","Chrome","138.0.0.0","Windows","10.0","https://app.prolific.com/","en-US,en;q=0.9","65f19a1fe38352676f83d5f0","68764874ac79eee8c1d4cb03","687762c7e4222602df09e475","2","0","65f19a1fe38352676f83d5f0","2","0","2025-07-16T08:36:48.223Z","","","","","","","","","","","MotivationQ","","50","","","","","","","","","","","","","","","","","","","","","","","","","","","","",""
"","","","","ctl-task-cpt","39","486861","0.0-5.0-0.6","63","1","2025-07-16 08:29:09","1f75c3e559b7213887762d5229550c2b","51.36.175.8","Mozilla/5.0 (Windows NT 10.0; Win64; x64) AppleWebKit/537.36 (KHTML, like Gecko) Chrome/138.0.0.0 Safari/537.36","WebKit","Chrome","138.0.0.0","Windows","10.0","https://app.prolific.com/","en-US,en;q=0.9","65f19a1fe38352676f83d5f0","68764874ac79eee8c1d4cb03","687762c7e4222602df09e475","2","0","65f19a1fe38352676f83d5f0","2","0","2025-07-16T08:37:17.167Z","","","","","","","","","","","","","","win-only","0","g1:NW,g2:SE","0.4","7","0","460668","953.3","5957.3","25925.5","1","4","4","6","1","-1","-1","0","0","0","1296.6","3000","-3005","[""left"",""up""]","{""num_key_presses"":5,""num_perfect"":1,""num_errors"":0,""num_randdir"":4,""num_randdir_good_moves"":1,""num_whilered"":0,""num_whileblue"":0,""num_blue"":1,""num_good_moves"":2}","[406.5714133126395,425.32142761775424,0.2,406.5714133126395,425.32142761775424,103,406.5714133126395,425.32142761775424,203.4,406.5714133126395,425.32142761775424,303.4,406.5714133126395,425.32142761775424,407,364.0714133126395,399.07142761775424,507.9,166.5714133126395,215.32142761775424,608,131.5714133126395,172.82142761775424,712,127.8214133126395,159.07142761775424,812.5,127.8214133126395,152.82142761775424,912.7,127.8214133126395,152.82142761775424,1014.3,106.5714133126395,117.82142761775425,1117.9,104.0714133126395,114.07142761775425,1222.2,104.0714133126395,114.07142761775425,1322.7,104.0714133126395,114.07142761775425,1427.5,104.0714133126395,114.07142761775425,1528.3,104.0714133126395,114.07142761775425,1632.6,-364.6785866873605,239.07142761775424,1734.9,-374.6785866873605,242.82142761775424,1838.1,-374.6785866873605,242.82142761775424,1942.6,-374.6785866873605,242.82142761775424,2042.6,-374.6785866873605,242.82142761775424,2142.8,-374.6785866873605,242.82142761775424,2247.8,-374.6785866873605,242.82142761775424,2348.7,-374.6785866873605,242.82142761775424,2453.1,-374.6785866873605,242.82142761775424,2553.8,-374.6785866873605,242.82142761775424,2657.4,-374.6785866873605,242.82142761775424,2757.4,-374.6785866873605,242.82142761775424,2858.5,-374.6785866873605,242.82142761775424,2963,-374.6785866873605,242.82142761775424,3068,-374.6785866873605,242.82142761775424,3172.4,-374.6785866873605,242.82142761775424,3272.9,-374.6785866873605,242.82142761775424,3377.5,-374.6785866873605,242.82142761775424,3478.2,-374.6785866873605,242.82142761775424,3582.4,-374.6785866873605,242.82142761775424,3683.1,-374.6785866873605,242.82142761775424,3783.8,-374.6785866873605,242.82142761775424,3887.4,-374.6785866873605,242.82142761775424,3988,-374.6785866873605,242.82142761775424,4092.2,-374.6785866873605,242.82142761775424,4192.3,-374.6785866873605,242.82142761775424,4297.2,-374.6785866873605,242.82142761775424,4400.6,-374.6785866873605,242.82142761775424,4502.9,-374.6785866873605,242.82142761775424,4607.9,-374.6785866873605,242.82142761775424,4707.9,-374.6785866873605,242.82142761775424,4808,-374.6785866873605,242.82142761775424,4912.7]","[1500.7,1500.7,1000,0,500.7,""smooth"",""left"",""left"",""good_move"",7928.5,6427.6,2140.3,5268.1,520.1,""oops"",""left"",""left"",""good_move"",11204.6,3276,2684.9,7928.6,591.1,""oops"",""up"",""down"",""bad_move"",13907.3,2702.4,2088,11204.9,614.4,""oops"",""up"",""right"",""bad_move"",17368.5,3461,2764.6,13907.5,696.4,""oops"",""left"",""right"",""bad_move""]","",""
"2479","","<div style=""width:500px;"">
  <p>What determined the result of this run?</p>
  </div>","26","html-slider-response","40","489341","0.0-5.0-1.6","63","1","2025-07-16 08:29:09","1f75c3e559b7213887762d5229550c2b","51.36.175.8","Mozilla/5.0 (Windows NT 10.0; Win64; x64) AppleWebKit/537.36 (KHTML, like Gecko) Chrome/138.0.0.0 Safari/537.36","WebKit","Chrome","138.0.0.0","Windows","10.0","https://app.prolific.com/","en-US,en;q=0.9","65f19a1fe38352676f83d5f0","68764874ac79eee8c1d4cb03","687762c7e4222602df09e475","2","0","65f19a1fe38352676f83d5f0","2","0","2025-07-16T08:37:19.647Z","","","","","","","","","","","AttribQ","","50","","","","","","","","","","","","","","","","","","","","","","","","","","","","",""
"2260","","<div style=""width:500px;"">
  <p>How much control did you have over the ball?</p>
  </div>","14","html-slider-response","41","491602","0.0-5.0-2.6","63","1","2025-07-16 08:29:09","1f75c3e559b7213887762d5229550c2b","51.36.175.8","Mozilla/5.0 (Windows NT 10.0; Win64; x64) AppleWebKit/537.36 (KHTML, like Gecko) Chrome/138.0.0.0 Safari/537.36","WebKit","Chrome","138.0.0.0","Windows","10.0","https://app.prolific.com/","en-US,en;q=0.9","65f19a1fe38352676f83d5f0","68764874ac79eee8c1d4cb03","687762c7e4222602df09e475","2","0","65f19a1fe38352676f83d5f0","2","0","2025-07-16T08:37:21.908Z","","","","","","","","","","","ControlQ","","50","","","","","","","","","","","","","","","","","","","","","","","","","","","","",""
"2488","","<div style=""width:500px;"">
  <p>How would you describe your current emotional state?</p>
  </div>","69","html-slider-response","42","494091","0.0-5.0-3.6","63","1","2025-07-16 08:29:09","1f75c3e559b7213887762d5229550c2b","51.36.175.8","Mozilla/5.0 (Windows NT 10.0; Win64; x64) AppleWebKit/537.36 (KHTML, like Gecko) Chrome/138.0.0.0 Safari/537.36","WebKit","Chrome","138.0.0.0","Windows","10.0","https://app.prolific.com/","en-US,en;q=0.9","65f19a1fe38352676f83d5f0","68764874ac79eee8c1d4cb03","687762c7e4222602df09e475","2","0","65f19a1fe38352676f83d5f0","2","0","2025-07-16T08:37:24.397Z","","","","","","","","","","","StressQ","","50","","","","","","","","","","","","","","","","","","","","","","","","","","","","",""
"1795","","<div style=""width:500px;"">
  <p>What best describes how you currently feel?</p>
  </div>","19","html-slider-response","43","495887","0.0-5.0-4.6","63","1","2025-07-16 08:29:09","1f75c3e559b7213887762d5229550c2b","51.36.175.8","Mozilla/5.0 (Windows NT 10.0; Win64; x64) AppleWebKit/537.36 (KHTML, like Gecko) Chrome/138.0.0.0 Safari/537.36","WebKit","Chrome","138.0.0.0","Windows","10.0","https://app.prolific.com/","en-US,en;q=0.9","65f19a1fe38352676f83d5f0","68764874ac79eee8c1d4cb03","687762c7e4222602df09e475","2","0","65f19a1fe38352676f83d5f0","2","0","2025-07-16T08:37:26.193Z","","","","","","","","","","","MotivationQ","","50","","","","","","","","","","","","","","","","","","","","","","","","","","","","",""
"","","","","ctl-task-cpt","44","526491","0.0-5.0-0.7","63","1","2025-07-16 08:29:09","1f75c3e559b7213887762d5229550c2b","51.36.175.8","Mozilla/5.0 (Windows NT 10.0; Win64; x64) AppleWebKit/537.36 (KHTML, like Gecko) Chrome/138.0.0.0 Safari/537.36","WebKit","Chrome","138.0.0.0","Windows","10.0","https://app.prolific.com/","en-US,en;q=0.9","65f19a1fe38352676f83d5f0","68764874ac79eee8c1d4cb03","687762c7e4222602df09e475","2","0","65f19a1fe38352676f83d5f0","2","0","2025-07-16T08:37:56.797Z","","","","","","","","","","","","","","win-only","2","g1:SE,g2:NW","0.3","8","0","498638.1","885.4","5886.8","27586","1","4","8","6","1","-1","-1","0","0","0","1179.2","3000","-2955","[""down"",""right""]","{""num_key_presses"":7,""num_perfect"":3,""num_errors"":0,""num_randdir"":4,""num_randdir_good_moves"":1,""num_whilered"":0,""num_whileblue"":0,""num_blue"":0,""num_good_moves"":4}","[417.8214133126395,410.32142761775424,0.1,417.8214133126395,410.32142761775424,100.9,417.8214133126395,410.32142761775424,206.3,417.8214133126395,410.32142761775424,306.3,417.8214133126395,410.32142761775424,406.3,130.3214133126395,201.57142761775424,506.7,54.07141331263951,81.57142761775425,609.2,147.8214133126395,131.57142761775424,710.6,614.0714133126395,666.5714276177542,815.7,719.0714133126395,745.3214276177542,918.2,751.5714133126395,747.8214276177542,1020.4,751.5714133126395,747.8214276177542,1121,751.5714133126395,747.8214276177542,1227.2,751.5714133126395,747.8214276177542,1330.9,751.5714133126395,747.8214276177542,1435.4,751.5714133126395,747.8214276177542,1536.3,6.571413312639507,579.0714276177542,1640.2,-34.67858668736049,562.8214276177542,1741.3,-34.67858668736049,562.8214276177542,1847,-34.67858668736049,562.8214276177542,1947.3,-34.67858668736049,562.8214276177542,2052.1,-34.67858668736049,562.8214276177542,2155.4,-34.67858668736049,562.8214276177542,2261.8,-34.67858668736049,562.8214276177542,2365.3,-34.67858668736049,562.8214276177542,2467.1,-34.67858668736049,562.8214276177542,2567.1,-34.67858668736049,562.8214276177542,2667.3,-34.67858668736049,562.8214276177542,2769.5,-34.67858668736049,562.8214276177542,2870.5,-34.67858668736049,562.8214276177542,2974.9,-34.67858668736049,562.8214276177542,3075.7,-34.67858668736049,562.8214276177542,3175.7,-34.67858668736049,562.8214276177542,3276.4,-34.67858668736049,562.8214276177542,3381.2,-34.67858668736049,562.8214276177542,3481.2,-34.67858668736049,562.8214276177542,3585.5,-34.67858668736049,562.8214276177542,3689.9,-34.67858668736049,562.8214276177542,3795.5,-34.67858668736049,562.8214276177542,3896.3,-34.67858668736049,562.8214276177542,3997.1,-34.67858668736049,562.8214276177542,4100.5,-34.67858668736049,562.8214276177542,4205.6,-34.67858668736049,562.8214276177542,4313.1,-34.67858668736049,562.8214276177542,4415.6,-34.67858668736049,562.8214276177542,4516.6,-34.67858668736049,562.8214276177542,4616.7,-34.67858668736049,562.8214276177542,4721,-34.67858668736049,562.8214276177542,4825.2,-34.67858668736049,562.8214276177542,4925.3]","[1479.6,1479.6,1000,0,479.6,""oops"",""down"",""left"",""bad_move"",5500.7,4020.8,3587.4,1479.9,433.4,""smooth"",""down"",""down"",""good_move"",8617.7,3116.7,2770.6,5501,346.1,""oops"",""down"",""right"",""good_move"",11210.4,2592.5,2148.2,8617.9,444.3,""smooth"",""down"",""down"",""good_move"",13763.4,2552.9,2157.1,11210.5,395.8,""oops"",""right"",""left"",""bad_move"",16082.9,2319.1,1922.5,13763.8,396.6,""oops"",""right"",""left"",""bad_move"",18944.3,2861.2,2453.7,16083.1,407.5,""smooth"",""right"",""right"",""good_move""]","",""
"3474","","<div style=""width:500px;"">
  <p>What determined the result of this run?</p>
  </div>","1","html-slider-response","45","529966","0.0-5.0-1.7","63","1","2025-07-16 08:29:09","1f75c3e559b7213887762d5229550c2b","51.36.175.8","Mozilla/5.0 (Windows NT 10.0; Win64; x64) AppleWebKit/537.36 (KHTML, like Gecko) Chrome/138.0.0.0 Safari/537.36","WebKit","Chrome","138.0.0.0","Windows","10.0","https://app.prolific.com/","en-US,en;q=0.9","65f19a1fe38352676f83d5f0","68764874ac79eee8c1d4cb03","687762c7e4222602df09e475","2","0","65f19a1fe38352676f83d5f0","2","0","2025-07-16T08:38:00.272Z","","","","","","","","","","","AttribQ","","50","","","","","","","","","","","","","","","","","","","","","","","","","","","","",""
"3239","","<div style=""width:500px;"">
  <p>How much control did you have over the ball?</p>
  </div>","0","html-slider-response","46","533206","0.0-5.0-2.7","63","1","2025-07-16 08:29:09","1f75c3e559b7213887762d5229550c2b","51.36.175.8","Mozilla/5.0 (Windows NT 10.0; Win64; x64) AppleWebKit/537.36 (KHTML, like Gecko) Chrome/138.0.0.0 Safari/537.36","WebKit","Chrome","138.0.0.0","Windows","10.0","https://app.prolific.com/","en-US,en;q=0.9","65f19a1fe38352676f83d5f0","68764874ac79eee8c1d4cb03","687762c7e4222602df09e475","2","0","65f19a1fe38352676f83d5f0","2","0","2025-07-16T08:38:03.512Z","","","","","","","","","","","ControlQ","","50","","","","","","","","","","","","","","","","","","","","","","","","","","","","",""
"2996","","<div style=""width:500px;"">
  <p>How would you describe your current emotional state?</p>
  </div>","68","html-slider-response","47","536202","0.0-5.0-3.7","63","1","2025-07-16 08:29:09","1f75c3e559b7213887762d5229550c2b","51.36.175.8","Mozilla/5.0 (Windows NT 10.0; Win64; x64) AppleWebKit/537.36 (KHTML, like Gecko) Chrome/138.0.0.0 Safari/537.36","WebKit","Chrome","138.0.0.0","Windows","10.0","https://app.prolific.com/","en-US,en;q=0.9","65f19a1fe38352676f83d5f0","68764874ac79eee8c1d4cb03","687762c7e4222602df09e475","2","0","65f19a1fe38352676f83d5f0","2","0","2025-07-16T08:38:06.508Z","","","","","","","","","","","StressQ","","50","","","","","","","","","","","","","","","","","","","","","","","","","","","","",""
"1977","","<div style=""width:500px;"">
  <p>What best describes how you currently feel?</p>
  </div>","22","html-slider-response","48","538180","0.0-5.0-4.7","63","1","2025-07-16 08:29:09","1f75c3e559b7213887762d5229550c2b","51.36.175.8","Mozilla/5.0 (Windows NT 10.0; Win64; x64) AppleWebKit/537.36 (KHTML, like Gecko) Chrome/138.0.0.0 Safari/537.36","WebKit","Chrome","138.0.0.0","Windows","10.0","https://app.prolific.com/","en-US,en;q=0.9","65f19a1fe38352676f83d5f0","68764874ac79eee8c1d4cb03","687762c7e4222602df09e475","2","0","65f19a1fe38352676f83d5f0","2","0","2025-07-16T08:38:08.486Z","","","","","","","","","","","MotivationQ","","50","","","","","","","","","","","","","","","","","","","","","","","","","","","","",""
"","","","","ctl-task-cpt","49","571876","0.0-5.0-0.8","63","1","2025-07-16 08:29:09","1f75c3e559b7213887762d5229550c2b","51.36.175.8","Mozilla/5.0 (Windows NT 10.0; Win64; x64) AppleWebKit/537.36 (KHTML, like Gecko) Chrome/138.0.0.0 Safari/537.36","WebKit","Chrome","138.0.0.0","Windows","10.0","https://app.prolific.com/","en-US,en;q=0.9","65f19a1fe38352676f83d5f0","68764874ac79eee8c1d4cb03","687762c7e4222602df09e475","2","0","65f19a1fe38352676f83d5f0","2","0","2025-07-16T08:38:42.182Z","","","","","","","","","","","","","","win-only","2","g1:SE,g2:NW","0.2","9","0","540931.3","1027.6","6030.5","30677.6","1","4","4","6","1","-1","-1","0","0","0","958.2","3000","-2975","[""down"",""right""]","{""num_key_presses"":7,""num_perfect"":2,""num_errors"":0,""num_randdir"":5,""num_randdir_good_moves"":1,""num_whilered"":0,""num_whileblue"":0,""num_blue"":1,""num_good_moves"":3}","[422.8214133126395,412.82142761775424,0.1,422.8214133126395,412.82142761775424,102.4,422.8214133126395,412.82142761775424,203,422.8214133126395,412.82142761775424,309.4,422.8214133126395,412.82142761775424,413.6,422.8214133126395,412.82142761775424,515.3,632.8214133126395,596.5714276177542,617.8,800.3214133126395,732.8214276177542,717.9,812.8214133126395,757.8214276177542,823.2,812.8214133126395,757.8214276177542,923.6,812.8214133126395,757.8214276177542,1028.1,812.8214133126395,757.8214276177542,1130.9,812.8214133126395,757.8214276177542,1233.3,812.8214133126395,757.8214276177542,1338.7,-45.92858668736049,496.57142761775424,1443.9,-285.9285866873605,436.57142761775424,1548.5,-285.9285866873605,436.57142761775424,1648.6,-285.9285866873605,436.57142761775424,1748.7,-285.9285866873605,436.57142761775424,1852.9,-285.9285866873605,436.57142761775424,1953.3,-285.9285866873605,436.57142761775424,2058.5,-285.9285866873605,436.57142761775424,2163.7,-285.9285866873605,436.57142761775424,2267.8,-285.9285866873605,436.57142761775424,2368.7,-285.9285866873605,436.57142761775424,2472.9,-285.9285866873605,436.57142761775424,2574.5,-285.9285866873605,436.57142761775424,2680.1,-285.9285866873605,436.57142761775424,2783.4,-285.9285866873605,436.57142761775424,2887.9,-285.9285866873605,436.57142761775424,2989.1,-285.9285866873605,436.57142761775424,3095.6,-285.9285866873605,436.57142761775424,3196,-285.9285866873605,436.57142761775424,3298,-285.9285866873605,436.57142761775424,3403.3,-285.9285866873605,436.57142761775424,3504,-285.9285866873605,436.57142761775424,3610.2,-285.9285866873605,436.57142761775424,3710.4,-285.9285866873605,436.57142761775424,3813.7,-285.9285866873605,436.57142761775424,3918.5,-285.9285866873605,436.57142761775424,4023.6,-285.9285866873605,436.57142761775424,4124.3,-285.9285866873605,436.57142761775424,4224.8,-285.9285866873605,436.57142761775424,4330.7,-285.9285866873605,436.57142761775424,4433.3,-285.9285866873605,436.57142761775424,4537.7,-285.9285866873605,436.57142761775424,4643.9,-285.9285866873605,436.57142761775424,4744.9,-285.9285866873605,436.57142761775424,4848.2,-285.9285866873605,436.57142761775424,4948.6]","[1423,1423,1000,0,423,""smooth"",""down"",""down"",""good_move"",4520.8,3097.5,2688,1423.3,409.5,""oops"",""down"",""left"",""bad_move"",7527.3,3006.1,2489.5,4521.2,516.6,""oops"",""down"",""right"",""good_move"",10161.9,2634.4,2210.2,7527.5,424.2,""oops"",""down"",""up"",""bad_move"",12942.2,2780.1,2367.2,10162.1,412.9,""oops"",""down"",""left"",""bad_move"",15756.9,2814.4,2449.4,12942.5,365,""oops"",""down"",""up"",""bad_move"",18467.7,2710.6,2323.1,15757.1,387.5,""smooth"",""down"",""down"",""good_move""]","",""
"3339","","<div style=""width:500px;"">
  <p>What determined the result of this run?</p>
  </div>","20","html-slider-response","50","575216","0.0-5.0-1.8","63","1","2025-07-16 08:29:09","1f75c3e559b7213887762d5229550c2b","51.36.175.8","Mozilla/5.0 (Windows NT 10.0; Win64; x64) AppleWebKit/537.36 (KHTML, like Gecko) Chrome/138.0.0.0 Safari/537.36","WebKit","Chrome","138.0.0.0","Windows","10.0","https://app.prolific.com/","en-US,en;q=0.9","65f19a1fe38352676f83d5f0","68764874ac79eee8c1d4cb03","687762c7e4222602df09e475","2","0","65f19a1fe38352676f83d5f0","2","0","2025-07-16T08:38:45.522Z","","","","","","","","","","","AttribQ","","50","","","","","","","","","","","","","","","","","","","","","","","","","","","","",""
"3504","","<div style=""width:500px;"">
  <p>How much control did you have over the ball?</p>
  </div>","0","html-slider-response","51","578720","0.0-5.0-2.8","63","1","2025-07-16 08:29:09","1f75c3e559b7213887762d5229550c2b","51.36.175.8","Mozilla/5.0 (Windows NT 10.0; Win64; x64) AppleWebKit/537.36 (KHTML, like Gecko) Chrome/138.0.0.0 Safari/537.36","WebKit","Chrome","138.0.0.0","Windows","10.0","https://app.prolific.com/","en-US,en;q=0.9","65f19a1fe38352676f83d5f0","68764874ac79eee8c1d4cb03","687762c7e4222602df09e475","2","0","65f19a1fe38352676f83d5f0","2","0","2025-07-16T08:38:49.026Z","","","","","","","","","","","ControlQ","","50","","","","","","","","","","","","","","","","","","","","","","","","","","","","",""
"2284","","<div style=""width:500px;"">
  <p>How would you describe your current emotional state?</p>
  </div>","72","html-slider-response","52","581005","0.0-5.0-3.8","63","1","2025-07-16 08:29:09","1f75c3e559b7213887762d5229550c2b","51.36.175.8","Mozilla/5.0 (Windows NT 10.0; Win64; x64) AppleWebKit/537.36 (KHTML, like Gecko) Chrome/138.0.0.0 Safari/537.36","WebKit","Chrome","138.0.0.0","Windows","10.0","https://app.prolific.com/","en-US,en;q=0.9","65f19a1fe38352676f83d5f0","68764874ac79eee8c1d4cb03","687762c7e4222602df09e475","2","0","65f19a1fe38352676f83d5f0","2","0","2025-07-16T08:38:51.311Z","","","","","","","","","","","StressQ","","50","","","","","","","","","","","","","","","","","","","","","","","","","","","","",""
"2851","","<div style=""width:500px;"">
  <p>What best describes how you currently feel?</p>
  </div>","22","html-slider-response","53","583858","0.0-5.0-4.8","63","1","2025-07-16 08:29:09","1f75c3e559b7213887762d5229550c2b","51.36.175.8","Mozilla/5.0 (Windows NT 10.0; Win64; x64) AppleWebKit/537.36 (KHTML, like Gecko) Chrome/138.0.0.0 Safari/537.36","WebKit","Chrome","138.0.0.0","Windows","10.0","https://app.prolific.com/","en-US,en;q=0.9","65f19a1fe38352676f83d5f0","68764874ac79eee8c1d4cb03","687762c7e4222602df09e475","2","0","65f19a1fe38352676f83d5f0","2","0","2025-07-16T08:38:54.164Z","","","","","","","","","","","MotivationQ","","50","","","","","","","","","","","","","","","","","","","","","","","","","","","","",""
"","","","","ctl-task-cpt","54","609622","0.0-5.0-0.9","63","1","2025-07-16 08:29:09","1f75c3e559b7213887762d5229550c2b","51.36.175.8","Mozilla/5.0 (Windows NT 10.0; Win64; x64) AppleWebKit/537.36 (KHTML, like Gecko) Chrome/138.0.0.0 Safari/537.36","WebKit","Chrome","138.0.0.0","Windows","10.0","https://app.prolific.com/","en-US,en;q=0.9","65f19a1fe38352676f83d5f0","68764874ac79eee8c1d4cb03","687762c7e4222602df09e475","2","0","65f19a1fe38352676f83d5f0","2","0","2025-07-16T08:39:19.928Z","","","","","","","","","","","","","","win-only","2","g1:SE,g2:NW","0.4","10","0","586608.9","1112.7","6115.7","22746.6","1","4","8","6","1","1","1","1","0","0.007575757575757576","1165.5","3000","460","[""down"",""right""]","{""num_key_presses"":6,""num_perfect"":2,""num_errors"":0,""num_randdir"":4,""num_randdir_good_moves"":3,""num_whilered"":0,""num_whileblue"":0,""num_blue"":0,""num_good_moves"":5}","[417.8214133126395,427.82142761775424,0.1,417.8214133126395,427.82142761775424,102.5,417.8214133126395,427.82142761775424,202.8,417.8214133126395,427.82142761775424,308.2,417.8214133126395,427.82142761775424,408.5,464.0714133126395,474.07142761775424,515.1,701.5714133126395,682.8214276177542,617.5,721.5714133126395,697.8214276177542,717.8,721.5714133126395,697.8214276177542,818.2,721.5714133126395,697.8214276177542,918.6,751.5714133126395,741.5714276177542,1018.6,751.5714133126395,741.5714276177542,1123.4,751.5714133126395,741.5714276177542,1225.5,751.5714133126395,741.5714276177542,1328,751.5714133126395,741.5714276177542,1428,751.5714133126395,741.5714276177542,1528,406.5714133126395,625.3214276177542,1629.3,-147.1785866873605,477.82142761775424,1730.6,-148.4285866873605,474.07142761775424,1832.7,-148.4285866873605,474.07142761775424,1932.7,-148.4285866873605,474.07142761775424,2038.5,-148.4285866873605,474.07142761775424,2138.8,-148.4285866873605,474.07142761775424,2246,-148.4285866873605,474.07142761775424,2348,-148.4285866873605,474.07142761775424,2452.9,-148.4285866873605,474.07142761775424,2557.7,-148.4285866873605,474.07142761775424,2657.7,-148.4285866873605,474.07142761775424,2758.2,-148.4285866873605,474.07142761775424,2859.7,-148.4285866873605,474.07142761775424,2960.9,-148.4285866873605,474.07142761775424,3063.4,-148.4285866873605,474.07142761775424,3163.5,-148.4285866873605,474.07142761775424,3263.9,-148.4285866873605,474.07142761775424,3367.6,-148.4285866873605,474.07142761775424,3468.7,-148.4285866873605,474.07142761775424,3572.7,-148.4285866873605,474.07142761775424,3673.5,-148.4285866873605,474.07142761775424,3778.7,-148.4285866873605,474.07142761775424,3880.6,-148.4285866873605,474.07142761775424,3982.7,-148.4285866873605,474.07142761775424,4083.1,-148.4285866873605,474.07142761775424,4188.8,-148.4285866873605,474.07142761775424,4292.6,-148.4285866873605,474.07142761775424,4397.7,-148.4285866873605,474.07142761775424,4498,-148.4285866873605,474.07142761775424,4598.8,-148.4285866873605,474.07142761775424,4703.4,-148.4285866873605,474.07142761775424,4807.7,-148.4285866873605,474.07142761775424,4907.7]","[1482.2,1482.2,1000,0,482.2,""oops"",""down"",""left"",""bad_move"",4608.6,3126.1,2650.4,1482.5,475.7,""oops"",""down"",""down"",""good_move"",7832.1,3223.1,2811.6,4609,411.5,""oops"",""down"",""right"",""good_move"",10605.7,2773.3,2320.4,7832.4,452.9,""smooth"",""down"",""down"",""good_move"",13951.5,3345.4,2972,10606.1,373.4,""oops"",""right"",""right"",""good_move"",16535.2,2583.4,2189.1,13951.8,394.3,""smooth"",""right"",""right"",""good_move""]","",""
"2882","","<div style=""width:500px;"">
  <p>What determined the result of this run?</p>
  </div>","13","html-slider-response","55","612505","0.0-5.0-1.9","63","1","2025-07-16 08:29:09","1f75c3e559b7213887762d5229550c2b","51.36.175.8","Mozilla/5.0 (Windows NT 10.0; Win64; x64) AppleWebKit/537.36 (KHTML, like Gecko) Chrome/138.0.0.0 Safari/537.36","WebKit","Chrome","138.0.0.0","Windows","10.0","https://app.prolific.com/","en-US,en;q=0.9","65f19a1fe38352676f83d5f0","68764874ac79eee8c1d4cb03","687762c7e4222602df09e475","2","0","65f19a1fe38352676f83d5f0","2","0","2025-07-16T08:39:22.811Z","","","","","","","","","","","AttribQ","","50","","","","","","","","","","","","","","","","","","","","","","","","","","","","",""
"4378","","<div style=""width:500px;"">
  <p>How much control did you have over the ball?</p>
  </div>","0","html-slider-response","56","616883","0.0-5.0-2.9","63","1","2025-07-16 08:29:09","1f75c3e559b7213887762d5229550c2b","51.36.175.8","Mozilla/5.0 (Windows NT 10.0; Win64; x64) AppleWebKit/537.36 (KHTML, like Gecko) Chrome/138.0.0.0 Safari/537.36","WebKit","Chrome","138.0.0.0","Windows","10.0","https://app.prolific.com/","en-US,en;q=0.9","65f19a1fe38352676f83d5f0","68764874ac79eee8c1d4cb03","687762c7e4222602df09e475","2","0","65f19a1fe38352676f83d5f0","2","0","2025-07-16T08:39:27.189Z","","","","","","","","","","","ControlQ","","50","","","","","","","","","","","","","","","","","","","","","","","","","","","","",""
"2535","","<div style=""width:500px;"">
  <p>How would you describe your current emotional state?</p>
  </div>","64","html-slider-response","57","619419","0.0-5.0-3.9","63","1","2025-07-16 08:29:09","1f75c3e559b7213887762d5229550c2b","51.36.175.8","Mozilla/5.0 (Windows NT 10.0; Win64; x64) AppleWebKit/537.36 (KHTML, like Gecko) Chrome/138.0.0.0 Safari/537.36","WebKit","Chrome","138.0.0.0","Windows","10.0","https://app.prolific.com/","en-US,en;q=0.9","65f19a1fe38352676f83d5f0","68764874ac79eee8c1d4cb03","687762c7e4222602df09e475","2","0","65f19a1fe38352676f83d5f0","2","0","2025-07-16T08:39:29.725Z","","","","","","","","","","","StressQ","","50","","","","","","","","","","","","","","","","","","","","","","","","","","","","",""
"2192","","<div style=""width:500px;"">
  <p>What best describes how you currently feel?</p>
  </div>","25","html-slider-response","58","621611","0.0-5.0-4.9","63","1","2025-07-16 08:29:09","1f75c3e559b7213887762d5229550c2b","51.36.175.8","Mozilla/5.0 (Windows NT 10.0; Win64; x64) AppleWebKit/537.36 (KHTML, like Gecko) Chrome/138.0.0.0 Safari/537.36","WebKit","Chrome","138.0.0.0","Windows","10.0","https://app.prolific.com/","en-US,en;q=0.9","65f19a1fe38352676f83d5f0","68764874ac79eee8c1d4cb03","687762c7e4222602df09e475","2","0","65f19a1fe38352676f83d5f0","2","0","2025-07-16T08:39:31.918Z","","","","","","","","","","","MotivationQ","","50","","","","","","","","","","","","","","","","","","","","","","","","","","","","",""
"","","","","ctl-task-cpt","59","655040","0.0-5.0-0.10","63","1","2025-07-16 08:29:09","1f75c3e559b7213887762d5229550c2b","51.36.175.8","Mozilla/5.0 (Windows NT 10.0; Win64; x64) AppleWebKit/537.36 (KHTML, like Gecko) Chrome/138.0.0.0 Safari/537.36","WebKit","Chrome","138.0.0.0","Windows","10.0","https://app.prolific.com/","en-US,en;q=0.9","65f19a1fe38352676f83d5f0","68764874ac79eee8c1d4cb03","687762c7e4222602df09e475","2","0","65f19a1fe38352676f83d5f0","2","0","2025-07-16T08:40:05.346Z","","","","","","","","","","","","","","win-only","1","g1:NE,g2:SW","0.5","11","0","624362.9","913.2","5917.5","30410.2","1","4","8","6","1","-1","-1","0","1","0","952.6","3000","-2980","[""up"",""right""]","{""num_key_presses"":7,""num_perfect"":2,""num_errors"":0,""num_randdir"":5,""num_randdir_good_moves"":3,""num_whilered"":0,""num_whileblue"":0,""num_blue"":1,""num_good_moves"":5}","[412.8214133126395,420.32142761775424,0.2,412.8214133126395,420.32142761775424,102.6,412.8214133126395,420.32142761775424,208.2,412.8214133126395,420.32142761775424,312.9,412.8214133126395,420.32142761775424,413.1,412.8214133126395,420.32142761775424,517.3,721.5714133126395,96.57142761775425,623.2,725.3214133126395,87.82142761775425,728.5,725.3214133126395,87.82142761775425,833.1,725.3214133126395,87.82142761775425,938.7,725.3214133126395,87.82142761775425,1042.1,725.3214133126395,87.82142761775425,1147.1,725.3214133126395,87.82142761775425,1247.2,725.3214133126395,87.82142761775425,1347.5,387.8214133126395,176.57142761775424,1451.1,-253.4285866873605,512.8214276177542,1552.9,-259.6785866873605,514.0714276177542,1657.9,-259.6785866873605,514.0714276177542,1758.4,-259.6785866873605,514.0714276177542,1860.6,-259.6785866873605,514.0714276177542,1966.4,-259.6785866873605,514.0714276177542,2067.7,-259.6785866873605,514.0714276177542,2168.1,-259.6785866873605,514.0714276177542,2272.3,-259.6785866873605,514.0714276177542,2373.2,-259.6785866873605,514.0714276177542,2475.6,-259.6785866873605,514.0714276177542,2578,-259.6785866873605,514.0714276177542,2682.5,-259.6785866873605,514.0714276177542,2782.7,-259.6785866873605,514.0714276177542,2887.2,-259.6785866873605,514.0714276177542,2987.3,-259.6785866873605,514.0714276177542,3092.6,-259.6785866873605,514.0714276177542,3197,-259.6785866873605,514.0714276177542,3297.9,-259.6785866873605,514.0714276177542,3402.4,-259.6785866873605,514.0714276177542,3502.4,-259.6785866873605,514.0714276177542,3602.8,-259.6785866873605,514.0714276177542,3703.3,-259.6785866873605,514.0714276177542,3808,-259.6785866873605,514.0714276177542,3912.7,-259.6785866873605,514.0714276177542,4013.1,-259.6785866873605,514.0714276177542,4118.1,-259.6785866873605,514.0714276177542,4222.4,-259.6785866873605,514.0714276177542,4323.1,-259.6785866873605,514.0714276177542,4427.5,-259.6785866873605,514.0714276177542,4528.2,-259.6785866873605,514.0714276177542,4632.6,-259.6785866873605,514.0714276177542,4733,-259.6785866873605,514.0714276177542,4837.2,-259.6785866873605,514.0714276177542,4937.3]","[1453.4,1453.4,1000,0,453.4,""smooth"",""right"",""right"",""good_move"",4656.8,3202.8,2871.5,1454,331.3,""oops"",""right"",""up"",""good_move"",7355.9,2698.9,2065.3,4657,633.6,""oops"",""right"",""up"",""good_move"",13934.8,6578.8,2767.5,10812.8,354.5,""oops"",""right"",""down"",""bad_move"",16388.5,2453.6,2021.2,13934.9,432.4,""oops"",""right"",""left"",""bad_move"",19277.1,2888.5,2499,16388.6,389.5,""smooth"",""right"",""right"",""good_move"",22015.2,2737.9,2392.3,19277.3,345.6,""oops"",""right"",""up"",""good_move""]","",""
"3446","","<div style=""width:500px;"">
  <p>What determined the result of this run?</p>
  </div>","10","html-slider-response","60","658488","0.0-5.0-1.10","63","1","2025-07-16 08:29:09","1f75c3e559b7213887762d5229550c2b","51.36.175.8","Mozilla/5.0 (Windows NT 10.0; Win64; x64) AppleWebKit/537.36 (KHTML, like Gecko) Chrome/138.0.0.0 Safari/537.36","WebKit","Chrome","138.0.0.0","Windows","10.0","https://app.prolific.com/","en-US,en;q=0.9","65f19a1fe38352676f83d5f0","68764874ac79eee8c1d4cb03","687762c7e4222602df09e475","2","0","65f19a1fe38352676f83d5f0","2","0","2025-07-16T08:40:08.794Z","","","","","","","","","","","AttribQ","","50","","","","","","","","","","","","","","","","","","","","","","","","","","","","",""
"2323","","<div style=""width:500px;"">
  <p>How much control did you have over the ball?</p>
  </div>","11","html-slider-response","61","660812","0.0-5.0-2.10","63","1","2025-07-16 08:29:09","1f75c3e559b7213887762d5229550c2b","51.36.175.8","Mozilla/5.0 (Windows NT 10.0; Win64; x64) AppleWebKit/537.36 (KHTML, like Gecko) Chrome/138.0.0.0 Safari/537.36","WebKit","Chrome","138.0.0.0","Windows","10.0","https://app.prolific.com/","en-US,en;q=0.9","65f19a1fe38352676f83d5f0","68764874ac79eee8c1d4cb03","687762c7e4222602df09e475","2","0","65f19a1fe38352676f83d5f0","2","0","2025-07-16T08:40:11.118Z","","","","","","","","","","","ControlQ","","50","","","","","","","","","","","","","","","","","","","","","","","","","","","","",""
"2775","","<div style=""width:500px;"">
  <p>How would you describe your current emotional state?</p>
  </div>","72","html-slider-response","62","663587","0.0-5.0-3.10","63","1","2025-07-16 08:29:09","1f75c3e559b7213887762d5229550c2b","51.36.175.8","Mozilla/5.0 (Windows NT 10.0; Win64; x64) AppleWebKit/537.36 (KHTML, like Gecko) Chrome/138.0.0.0 Safari/537.36","WebKit","Chrome","138.0.0.0","Windows","10.0","https://app.prolific.com/","en-US,en;q=0.9","65f19a1fe38352676f83d5f0","68764874ac79eee8c1d4cb03","687762c7e4222602df09e475","2","0","65f19a1fe38352676f83d5f0","2","0","2025-07-16T08:40:13.893Z","","","","","","","","","","","StressQ","","50","","","","","","","","","","","","","","","","","","","","","","","","","","","","",""
"2594","","<div style=""width:500px;"">
  <p>What best describes how you currently feel?</p>
  </div>","18","html-slider-response","63","666182","0.0-5.0-4.10","63","1","2025-07-16 08:29:09","1f75c3e559b7213887762d5229550c2b","51.36.175.8","Mozilla/5.0 (Windows NT 10.0; Win64; x64) AppleWebKit/537.36 (KHTML, like Gecko) Chrome/138.0.0.0 Safari/537.36","WebKit","Chrome","138.0.0.0","Windows","10.0","https://app.prolific.com/","en-US,en;q=0.9","65f19a1fe38352676f83d5f0","68764874ac79eee8c1d4cb03","687762c7e4222602df09e475","2","0","65f19a1fe38352676f83d5f0","2","0","2025-07-16T08:40:16.488Z","","","","","","","","","","","MotivationQ","","50","","","","","","","","","","","","","","","","","","","","","","","","","","","","",""
"","","","","ctl-task-cpt","64","702582","0.0-5.0-0.11","63","1","2025-07-16 08:29:09","1f75c3e559b7213887762d5229550c2b","51.36.175.8","Mozilla/5.0 (Windows NT 10.0; Win64; x64) AppleWebKit/537.36 (KHTML, like Gecko) Chrome/138.0.0.0 Safari/537.36","WebKit","Chrome","138.0.0.0","Windows","10.0","https://app.prolific.com/","en-US,en;q=0.9","65f19a1fe38352676f83d5f0","68764874ac79eee8c1d4cb03","687762c7e4222602df09e475","2","0","65f19a1fe38352676f83d5f0","2","0","2025-07-16T08:40:52.888Z","","","","","","","","","","","","","","win-only","2","g1:SE,g2:NW","0.6","12","0","668933.2","1380.6","6381.2","33381.4","1","4","4","6","1","-1","-1","0","0","0","867.1","3000","-2850","[""down"",""right""]","{""num_key_presses"":7,""num_perfect"":4,""num_errors"":0,""num_randdir"":3,""num_randdir_good_moves"":1,""num_whilered"":0,""num_whileblue"":0,""num_blue"":2,""num_good_moves"":5}","[415.3214133126395,416.57142761775424,0.3,415.3214133126395,416.57142761775424,101.5,415.3214133126395,416.57142761775424,205.7,415.3214133126395,416.57142761775424,305.8,415.3214133126395,416.57142761775424,406.1,525.3214133126395,544.0714276177542,510.3,706.5714133126395,745.3214276177542,611.1,721.5714133126395,760.3214276177542,717.6,721.5714133126395,761.5714276177542,821.9,721.5714133126395,761.5714276177542,925.6,721.5714133126395,761.5714276177542,1026.8,721.5714133126395,761.5714276177542,1130.9,721.5714133126395,761.5714276177542,1236,391.5714133126395,632.8214276177542,1336.4,-243.4285866873605,575.3214276177542,1436.4,-248.4285866873605,571.5714276177542,1540.3,-248.4285866873605,571.5714276177542,1641.9,-248.4285866873605,571.5714276177542,1745.5,-248.4285866873605,571.5714276177542,1845.8,-248.4285866873605,571.5714276177542,1951.2,-248.4285866873605,571.5714276177542,2052,-248.4285866873605,571.5714276177542,2154.7,-248.4285866873605,571.5714276177542,2254.8,-248.4285866873605,571.5714276177542,2356.6,-248.4285866873605,571.5714276177542,2461.8,-248.4285866873605,571.5714276177542,2565.8,-248.4285866873605,571.5714276177542,2666.3,-248.4285866873605,571.5714276177542,2770.9,-248.4285866873605,571.5714276177542,2872,-248.4285866873605,571.5714276177542,2975.4,-248.4285866873605,571.5714276177542,3076.6,-248.4285866873605,571.5714276177542,3185.3,-248.4285866873605,571.5714276177542,3286,-248.4285866873605,571.5714276177542,3386,-248.4285866873605,571.5714276177542,3491.8,-248.4285866873605,571.5714276177542,3596.8,-248.4285866873605,571.5714276177542,3704,-248.4285866873605,571.5714276177542,3804.3,-248.4285866873605,571.5714276177542,3905.5,-248.4285866873605,571.5714276177542,4011.6,-248.4285866873605,571.5714276177542,4118.4,-248.4285866873605,571.5714276177542,4220.3,-248.4285866873605,571.5714276177542,4320.5,-248.4285866873605,571.5714276177542,4421,-248.4285866873605,571.5714276177542,4521.4,-248.4285866873605,571.5714276177542,4625.4,-248.4285866873605,571.5714276177542,4730.5,-248.4285866873605,571.5714276177542,4836.2,-248.4285866873605,571.5714276177542,4940.6]","[1457.4,1457.4,1000,0,457.4,""oops"",""down"",""right"",""good_move"",4699.6,3241.6,2730.1,1458,511.5,""smooth"",""down"",""down"",""good_move"",7570.2,2870.4,2235.6,4699.8,634.8,""oops"",""down"",""up"",""bad_move"",10406.3,2835.9,2490.9,7570.4,345,""oops"",""down"",""left"",""bad_move"",13078.5,2672,2258.1,10406.5,413.9,""smooth"",""down"",""down"",""good_move"",15590.5,2511.7,2135.7,13078.8,376,""smooth"",""down"",""down"",""good_move"",17931.3,2340.5,1959.2,15590.8,381.3,""smooth"",""right"",""right"",""good_move""]","",""
"3085","","<div style=""width:500px;"">
  <p>What determined the result of this run?</p>
  </div>","1","html-slider-response","65","705668","0.0-5.0-1.11","63","1","2025-07-16 08:29:09","1f75c3e559b7213887762d5229550c2b","51.36.175.8","Mozilla/5.0 (Windows NT 10.0; Win64; x64) AppleWebKit/537.36 (KHTML, like Gecko) Chrome/138.0.0.0 Safari/537.36","WebKit","Chrome","138.0.0.0","Windows","10.0","https://app.prolific.com/","en-US,en;q=0.9","65f19a1fe38352676f83d5f0","68764874ac79eee8c1d4cb03","687762c7e4222602df09e475","2","0","65f19a1fe38352676f83d5f0","2","0","2025-07-16T08:40:55.974Z","","","","","","","","","","","AttribQ","","50","","","","","","","","","","","","","","","","","","","","","","","","","","","","",""
"2209","","<div style=""width:500px;"">
  <p>How much control did you have over the ball?</p>
  </div>","0","html-slider-response","66","707878","0.0-5.0-2.11","63","1","2025-07-16 08:29:09","1f75c3e559b7213887762d5229550c2b","51.36.175.8","Mozilla/5.0 (Windows NT 10.0; Win64; x64) AppleWebKit/537.36 (KHTML, like Gecko) Chrome/138.0.0.0 Safari/537.36","WebKit","Chrome","138.0.0.0","Windows","10.0","https://app.prolific.com/","en-US,en;q=0.9","65f19a1fe38352676f83d5f0","68764874ac79eee8c1d4cb03","687762c7e4222602df09e475","2","0","65f19a1fe38352676f83d5f0","2","0","2025-07-16T08:40:58.184Z","","","","","","","","","","","ControlQ","","50","","","","","","","","","","","","","","","","","","","","","","","","","","","","",""
"2084","","<div style=""width:500px;"">
  <p>How would you describe your current emotional state?</p>
  </div>","73","html-slider-response","67","709963","0.0-5.0-3.11","63","1","2025-07-16 08:29:09","1f75c3e559b7213887762d5229550c2b","51.36.175.8","Mozilla/5.0 (Windows NT 10.0; Win64; x64) AppleWebKit/537.36 (KHTML, like Gecko) Chrome/138.0.0.0 Safari/537.36","WebKit","Chrome","138.0.0.0","Windows","10.0","https://app.prolific.com/","en-US,en;q=0.9","65f19a1fe38352676f83d5f0","68764874ac79eee8c1d4cb03","687762c7e4222602df09e475","2","0","65f19a1fe38352676f83d5f0","2","0","2025-07-16T08:41:00.269Z","","","","","","","","","","","StressQ","","50","","","","","","","","","","","","","","","","","","","","","","","","","","","","",""
"1952","","<div style=""width:500px;"">
  <p>What best describes how you currently feel?</p>
  </div>","15","html-slider-response","68","711916","0.0-5.0-4.11","63","1","2025-07-16 08:29:09","1f75c3e559b7213887762d5229550c2b","51.36.175.8","Mozilla/5.0 (Windows NT 10.0; Win64; x64) AppleWebKit/537.36 (KHTML, like Gecko) Chrome/138.0.0.0 Safari/537.36","WebKit","Chrome","138.0.0.0","Windows","10.0","https://app.prolific.com/","en-US,en;q=0.9","65f19a1fe38352676f83d5f0","68764874ac79eee8c1d4cb03","687762c7e4222602df09e475","2","0","65f19a1fe38352676f83d5f0","2","0","2025-07-16T08:41:02.222Z","","","","","","","","","","","MotivationQ","","50","","","","","","","","","","","","","","","","","","","","","","","","","","","","",""
"","","","","ctl-task-cpt","69","746351","0.0-5.0-0.12","63","1","2025-07-16 08:29:09","1f75c3e559b7213887762d5229550c2b","51.36.175.8","Mozilla/5.0 (Windows NT 10.0; Win64; x64) AppleWebKit/537.36 (KHTML, like Gecko) Chrome/138.0.0.0 Safari/537.36","WebKit","Chrome","138.0.0.0","Windows","10.0","https://app.prolific.com/","en-US,en;q=0.9","65f19a1fe38352676f83d5f0","68764874ac79eee8c1d4cb03","687762c7e4222602df09e475","2","0","65f19a1fe38352676f83d5f0","2","0","2025-07-16T08:41:36.657Z","","","","","","","","","","","","","","win-only","0","g1:NW,g2:SE","0.7","13","0","714667.1","974.9","5979.3","31412.1","1","4","4","6","1","1","1","1","0","0.007575757575757576","1195.1","3000","470","[""left"",""up""]","{""num_key_presses"":6,""num_perfect"":4,""num_errors"":0,""num_randdir"":2,""num_randdir_good_moves"":1,""num_whilered"":0,""num_whileblue"":0,""num_blue"":2,""num_good_moves"":5}","[412.8214133126395,409.07142761775424,0.1,412.8214133126395,409.07142761775424,104.5,412.8214133126395,409.07142761775424,204.6,412.8214133126395,409.07142761775424,306.1,412.8214133126395,409.07142761775424,406.5,294.0714133126395,321.57142761775424,510.8,144.0714133126395,195.32142761775424,611,139.0714133126395,154.07142761775424,711.4,134.0714133126395,141.57142761775424,815.6,134.0714133126395,141.57142761775424,915.6,110.3214133126395,86.57142761775425,1015.9,105.3214133126395,77.82142761775425,1121,105.3214133126395,77.82142761775425,1225.8,105.3214133126395,77.82142761775425,1325.9,105.3214133126395,77.82142761775425,1433.7,105.3214133126395,77.82142761775425,1535.8,-135.9285866873605,159.07142761775424,1636.3,-137.1785866873605,160.32142761775424,1739.8,-137.1785866873605,160.32142761775424,1841.3,-137.1785866873605,160.32142761775424,1946.4,-137.1785866873605,160.32142761775424,2056.6,-137.1785866873605,160.32142761775424,2161.1,-137.1785866873605,160.32142761775424,2270.8,-137.1785866873605,160.32142761775424,2370.8,-137.1785866873605,160.32142761775424,2475.4,-137.1785866873605,160.32142761775424,2576.3,-137.1785866873605,160.32142761775424,2680.6,-137.1785866873605,160.32142761775424,2780.8,-137.1785866873605,160.32142761775424,2881.2,-137.1785866873605,160.32142761775424,2981.7,-137.1785866873605,160.32142761775424,3085.6,-137.1785866873605,160.32142761775424,3186.8,-137.1785866873605,160.32142761775424,3290.9,-137.1785866873605,160.32142761775424,3395.4,-137.1785866873605,160.32142761775424,3495.7,-137.1785866873605,160.32142761775424,3596,-137.1785866873605,160.32142761775424,3696.6,-137.1785866873605,160.32142761775424,3801.1,-137.1785866873605,160.32142761775424,3905,-137.1785866873605,160.32142761775424,4005.5,-137.1785866873605,160.32142761775424,4106,-137.1785866873605,160.32142761775424,4211.4,-137.1785866873605,160.32142761775424,4315.5,-137.1785866873605,160.32142761775424,4415.8,-137.1785866873605,160.32142761775424,4516.7,-137.1785866873605,160.32142761775424,4619.3,-137.1785866873605,160.32142761775424,4722,-137.1785866873605,160.32142761775424,4826.6,-137.1785866873605,160.32142761775424,4931.3]","[1459,1459,1000,0,459,""oops"",""left"",""right"",""bad_move"",4311,2851.6,2377.4,1459.4,474.2,""smooth"",""left"",""left"",""good_move"",11278.7,6967.1,2665.7,8236.3,376.7,""smooth"",""left"",""left"",""good_move"",14803.5,3524.5,3108,11279,416.5,""oops"",""left"",""left"",""good_move"",22907.7,8104,2958.6,19406.9,542.2,""smooth"",""up"",""up"",""good_move"",25336.4,2428.4,2039.3,22908,389.1,""smooth"",""up"",""up"",""good_move""]","",""
"2268","","<div style=""width:500px;"">
  <p>What determined the result of this run?</p>
  </div>","4","html-slider-response","70","748620","0.0-5.0-1.12","63","1","2025-07-16 08:29:09","1f75c3e559b7213887762d5229550c2b","51.36.175.8","Mozilla/5.0 (Windows NT 10.0; Win64; x64) AppleWebKit/537.36 (KHTML, like Gecko) Chrome/138.0.0.0 Safari/537.36","WebKit","Chrome","138.0.0.0","Windows","10.0","https://app.prolific.com/","en-US,en;q=0.9","65f19a1fe38352676f83d5f0","68764874ac79eee8c1d4cb03","687762c7e4222602df09e475","2","0","65f19a1fe38352676f83d5f0","2","0","2025-07-16T08:41:38.926Z","","","","","","","","","","","AttribQ","","50","","","","","","","","","","","","","","","","","","","","","","","","","","","","",""
"4653","","<div style=""width:500px;"">
  <p>How much control did you have over the ball?</p>
  </div>","1","html-slider-response","71","753274","0.0-5.0-2.12","63","1","2025-07-16 08:29:09","1f75c3e559b7213887762d5229550c2b","51.36.175.8","Mozilla/5.0 (Windows NT 10.0; Win64; x64) AppleWebKit/537.36 (KHTML, like Gecko) Chrome/138.0.0.0 Safari/537.36","WebKit","Chrome","138.0.0.0","Windows","10.0","https://app.prolific.com/","en-US,en;q=0.9","65f19a1fe38352676f83d5f0","68764874ac79eee8c1d4cb03","687762c7e4222602df09e475","2","0","65f19a1fe38352676f83d5f0","2","0","2025-07-16T08:41:43.580Z","","","","","","","","","","","ControlQ","","50","","","","","","","","","","","","","","","","","","","","","","","","","","","","",""
"2923","","<div style=""width:500px;"">
  <p>How would you describe your current emotional state?</p>
  </div>","68","html-slider-response","72","756197","0.0-5.0-3.12","63","1","2025-07-16 08:29:09","1f75c3e559b7213887762d5229550c2b","51.36.175.8","Mozilla/5.0 (Windows NT 10.0; Win64; x64) AppleWebKit/537.36 (KHTML, like Gecko) Chrome/138.0.0.0 Safari/537.36","WebKit","Chrome","138.0.0.0","Windows","10.0","https://app.prolific.com/","en-US,en;q=0.9","65f19a1fe38352676f83d5f0","68764874ac79eee8c1d4cb03","687762c7e4222602df09e475","2","0","65f19a1fe38352676f83d5f0","2","0","2025-07-16T08:41:46.504Z","","","","","","","","","","","StressQ","","50","","","","","","","","","","","","","","","","","","","","","","","","","","","","",""
"1686","","<div style=""width:500px;"">
  <p>What best describes how you currently feel?</p>
  </div>","22","html-slider-response","73","757885","0.0-5.0-4.12","63","1","2025-07-16 08:29:09","1f75c3e559b7213887762d5229550c2b","51.36.175.8","Mozilla/5.0 (Windows NT 10.0; Win64; x64) AppleWebKit/537.36 (KHTML, like Gecko) Chrome/138.0.0.0 Safari/537.36","WebKit","Chrome","138.0.0.0","Windows","10.0","https://app.prolific.com/","en-US,en;q=0.9","65f19a1fe38352676f83d5f0","68764874ac79eee8c1d4cb03","687762c7e4222602df09e475","2","0","65f19a1fe38352676f83d5f0","2","0","2025-07-16T08:41:48.191Z","","","","","","","","","","","MotivationQ","","50","","","","","","","","","","","","","","","","","","","","","","","","","","","","",""
"","","","","ctl-task-cpt","74","781534","0.0-5.0-0.13","63","1","2025-07-16 08:29:09","1f75c3e559b7213887762d5229550c2b","51.36.175.8","Mozilla/5.0 (Windows NT 10.0; Win64; x64) AppleWebKit/537.36 (KHTML, like Gecko) Chrome/138.0.0.0 Safari/537.36","WebKit","Chrome","138.0.0.0","Windows","10.0","https://app.prolific.com/","en-US,en;q=0.9","65f19a1fe38352676f83d5f0","68764874ac79eee8c1d4cb03","687762c7e4222602df09e475","2","0","65f19a1fe38352676f83d5f0","2","0","2025-07-16T08:42:11.840Z","","","","","","","","","","","","","","win-only","1","g1:NE,g2:SW","0.8","14","0","760636","904.1","5905.8","20640.6","1","4","8","6","1","1","1","2","1","0.015151515151515152","954","3000","1455","[""up"",""right""]","{""num_key_presses"":4,""num_perfect"":4,""num_errors"":0,""num_randdir"":0,""num_randdir_good_moves"":0,""num_whilered"":0,""num_whileblue"":0,""num_blue"":1,""num_good_moves"":4}","[421.5714133126395,416.57142761775424,0.3,421.5714133126395,416.57142761775424,101.9,421.5714133126395,416.57142761775424,202.1,421.5714133126395,416.57142761775424,305,421.5714133126395,416.57142761775424,406.4,490.3214133126395,382.82142761775424,508.1,640.3214133126395,161.57142761775424,611,725.3214133126395,95.32142761775425,711.9,766.5714133126395,76.57142761775425,818,766.5714133126395,76.57142761775425,920,766.5714133126395,76.57142761775425,1021.4,766.5714133126395,76.57142761775425,1121.5,766.5714133126395,76.57142761775425,1222.3,766.5714133126395,76.57142761775425,1323.3,-94.6785866873605,257.82142761775424,1426.3,-110.9285866873605,266.57142761775424,1526.7,-110.9285866873605,266.57142761775424,1627.6,-110.9285866873605,266.57142761775424,1731.7,-110.9285866873605,266.57142761775424,1831.7,-110.9285866873605,266.57142761775424,1936.5,-110.9285866873605,266.57142761775424,2041.5,-110.9285866873605,266.57142761775424,2142.3,-110.9285866873605,266.57142761775424,2247,-110.9285866873605,266.57142761775424,2351.6,-110.9285866873605,266.57142761775424,2451.8,-110.9285866873605,266.57142761775424,2551.8,-110.9285866873605,266.57142761775424,2652.1,-110.9285866873605,266.57142761775424,2757,-110.9285866873605,266.57142761775424,2861.4,-110.9285866873605,266.57142761775424,2962.3,-110.9285866873605,266.57142761775424,3065.7,-110.9285866873605,266.57142761775424,3167.3,-110.9285866873605,266.57142761775424,3272,-110.9285866873605,266.57142761775424,3376.3,-110.9285866873605,266.57142761775424,3479.8,-110.9285866873605,266.57142761775424,3586.3,-110.9285866873605,266.57142761775424,3687.4,-110.9285866873605,266.57142761775424,3791.4,-110.9285866873605,266.57142761775424,3896.1,-110.9285866873605,266.57142761775424,4000.9,-110.9285866873605,266.57142761775424,4101.8,-110.9285866873605,266.57142761775424,4206.1,-110.9285866873605,266.57142761775424,4306.2,-110.9285866873605,266.57142761775424,4406.5,-110.9285866873605,266.57142761775424,4506.8,-110.9285866873605,266.57142761775424,4607,-110.9285866873605,266.57142761775424,4717.7,-110.9285866873605,266.57142761775424,4823,-110.9285866873605,266.57142761775424,4926.8]","[4764.8,4764.8,2343.1,2000.2,421.5,""smooth"",""up"",""up"",""good_move"",7831.6,3066.2,2483.9,4765.4,582.3,""smooth"",""up"",""up"",""good_move"",11261.2,3429.4,3058.7,7831.8,370.7,""smooth"",""right"",""right"",""good_move"",14641.3,3379.9,3025.9,11261.4,354,""smooth"",""right"",""right"",""good_move""]","",""
"3968","","<div style=""width:500px;"">
  <p>What determined the result of this run?</p>
  </div>","5","html-slider-response","75","785503","0.0-5.0-1.13","63","1","2025-07-16 08:29:09","1f75c3e559b7213887762d5229550c2b","51.36.175.8","Mozilla/5.0 (Windows NT 10.0; Win64; x64) AppleWebKit/537.36 (KHTML, like Gecko) Chrome/138.0.0.0 Safari/537.36","WebKit","Chrome","138.0.0.0","Windows","10.0","https://app.prolific.com/","en-US,en;q=0.9","65f19a1fe38352676f83d5f0","68764874ac79eee8c1d4cb03","687762c7e4222602df09e475","2","0","65f19a1fe38352676f83d5f0","2","0","2025-07-16T08:42:15.809Z","","","","","","","","","","","AttribQ","","50","","","","","","","","","","","","","","","","","","","","","","","","","","","","",""
"3078","","<div style=""width:500px;"">
  <p>How much control did you have over the ball?</p>
  </div>","2","html-slider-response","76","788583","0.0-5.0-2.13","63","1","2025-07-16 08:29:09","1f75c3e559b7213887762d5229550c2b","51.36.175.8","Mozilla/5.0 (Windows NT 10.0; Win64; x64) AppleWebKit/537.36 (KHTML, like Gecko) Chrome/138.0.0.0 Safari/537.36","WebKit","Chrome","138.0.0.0","Windows","10.0","https://app.prolific.com/","en-US,en;q=0.9","65f19a1fe38352676f83d5f0","68764874ac79eee8c1d4cb03","687762c7e4222602df09e475","2","0","65f19a1fe38352676f83d5f0","2","0","2025-07-16T08:42:18.889Z","","","","","","","","","","","ControlQ","","50","","","","","","","","","","","","","","","","","","","","","","","","","","","","",""
"2938","","<div style=""width:500px;"">
  <p>How would you describe your current emotional state?</p>
  </div>","65","html-slider-response","77","791521","0.0-5.0-3.13","63","1","2025-07-16 08:29:09","1f75c3e559b7213887762d5229550c2b","51.36.175.8","Mozilla/5.0 (Windows NT 10.0; Win64; x64) AppleWebKit/537.36 (KHTML, like Gecko) Chrome/138.0.0.0 Safari/537.36","WebKit","Chrome","138.0.0.0","Windows","10.0","https://app.prolific.com/","en-US,en;q=0.9","65f19a1fe38352676f83d5f0","68764874ac79eee8c1d4cb03","687762c7e4222602df09e475","2","0","65f19a1fe38352676f83d5f0","2","0","2025-07-16T08:42:21.827Z","","","","","","","","","","","StressQ","","50","","","","","","","","","","","","","","","","","","","","","","","","","","","","",""
"2043","","<div style=""width:500px;"">
  <p>What best describes how you currently feel?</p>
  </div>","26","html-slider-response","78","793565","0.0-5.0-4.13","63","1","2025-07-16 08:29:09","1f75c3e559b7213887762d5229550c2b","51.36.175.8","Mozilla/5.0 (Windows NT 10.0; Win64; x64) AppleWebKit/537.36 (KHTML, like Gecko) Chrome/138.0.0.0 Safari/537.36","WebKit","Chrome","138.0.0.0","Windows","10.0","https://app.prolific.com/","en-US,en;q=0.9","65f19a1fe38352676f83d5f0","68764874ac79eee8c1d4cb03","687762c7e4222602df09e475","2","0","65f19a1fe38352676f83d5f0","2","0","2025-07-16T08:42:23.871Z","","","","","","","","","","","MotivationQ","","50","","","","","","","","","","","","","","","","","","","","","","","","","","","","",""
