"rt","response_timestamp","stimulus","response","trial_type","trial_index","time_elapsed","internal_node_id","run_id","condition","recorded_at","source_code_version","ip","user_agent","device","browser","browser_version","platform","platform_version","referer","accept_language","PROLIFIC_PID","STUDY_ID","SESSION_ID","WEEK","BATCH","prolific_id","week","batch","realtime","success","responses","item_order","radio_event_ids","radio_event_times","key_event_times","mouse_event_times","straightlining","zigzagging","honeypot","eventType","view_history","slider_start","which_type","canvas_config","goals_layout","control_level","trial_number","tutorial_trial_number","trial_start_time","phase1_start_time","phase2_start_time","phase3_start_time","goal_1_value","goal_1_distance","goal_2_value","goal_2_distance","goal_selected","outcome","outcome_total","participant_final_score","participant_initial_score","participant_final_score_prop","goal_choice_rt","allocated_time","allocated_time_remaining","goal_direction","counts","mouse_movements","key_presses","question_order","question_id"
"10193","1752653852398","<p style='font-size:40px;line-height:1.25'><strong>Welcome to the experiment!</strong></p><p style='font-size:1.1em;line-height:1.25'>Thank you for participanting in our experiment again! You will be asked to play the Dysfunctional Ball Game again. We will briefly recap the rules before we start.</p><p style='font-size:1.1em;line-height:1.25'>Press <strong>Next</strong> to continue.</p>","0","custom-html-button-response","0","10197","0.0-0.0","39","1","2025-07-16 08:17:20","1f75c3e559b7213887762d5229550c2b","197.245.162.70","Mozilla/5.0 (Windows NT 10.0; Win64; x64) AppleWebKit/537.36 (KHTML, like Gecko) Chrome/138.0.0.0 Safari/537.36","WebKit","Chrome","138.0.0.0","Windows","10.0","https://app.prolific.com/","en-ZA,en-GB;q=0.9,en-US;q=0.8,en;q=0.7","614e1c414dff2e589169f360","686e379bc37a29ffa5cdc956","6877600a1b30321509059d9b","1","1","614e1c414dff2e589169f360","1","1","2025-07-16T08:17:32.400Z","","","","","","","","","","","","","","","","","","","","","","","","","","","","","","","","","","","","","","","","","",""
"10691","","","","fullscreen","1","21901","0.0-1.0","39","1","2025-07-16 08:17:20","1f75c3e559b7213887762d5229550c2b","197.245.162.70","Mozilla/5.0 (Windows NT 10.0; Win64; x64) AppleWebKit/537.36 (KHTML, like Gecko) Chrome/138.0.0.0 Safari/537.36","WebKit","Chrome","138.0.0.0","Windows","10.0","https://app.prolific.com/","en-ZA,en-GB;q=0.9,en-US;q=0.8,en;q=0.7","614e1c414dff2e589169f360","686e379bc37a29ffa5cdc956","6877600a1b30321509059d9b","1","1","614e1c414dff2e589169f360","1","1","","true","","","","","","","","","","","","","","","","","","","","","","","","","","","","","","","","","","","","","","","","",""
"12315","1752653876422","<p style='font-size:1.1em;line-height:1.25'>In the following, we will ask you a few questions relating to your feelings in the last 24 hours.<br></p><p style='font-size:1.1em;line-height:1.25'>Press the <strong>Next</strong> button to continue.</p>","0","custom-html-button-response","2","34219","0.0-2.0-0.0","39","1","2025-07-16 08:17:20","1f75c3e559b7213887762d5229550c2b","197.245.162.70","Mozilla/5.0 (Windows NT 10.0; Win64; x64) AppleWebKit/537.36 (KHTML, like Gecko) Chrome/138.0.0.0 Safari/537.36","WebKit","Chrome","138.0.0.0","Windows","10.0","https://app.prolific.com/","en-ZA,en-GB;q=0.9,en-US;q=0.8,en;q=0.7","614e1c414dff2e589169f360","686e379bc37a29ffa5cdc956","6877600a1b30321509059d9b","1","1","614e1c414dff2e589169f360","1","1","2025-07-16T08:17:56.422Z","","","","","","","","","","","","","","","","","","","","","","","","","","","","","","","","","","","","","","","","","",""
"937354.2000000002","","","","survey-template","3","971585","0.0-2.0-1.0","39","1","2025-07-16 08:17:20","1f75c3e559b7213887762d5229550c2b","197.245.162.70","Mozilla/5.0 (Windows NT 10.0; Win64; x64) AppleWebKit/537.36 (KHTML, like Gecko) Chrome/138.0.0.0 Safari/537.36","WebKit","Chrome","138.0.0.0","Windows","10.0","https://app.prolific.com/","en-ZA,en-GB;q=0.9,en-US;q=0.8,en;q=0.7","614e1c414dff2e589169f360","686e379bc37a29ffa5cdc956","6877600a1b30321509059d9b","1","1","614e1c414dff2e589169f360","1","1","2025-07-16T08:33:33.789Z","","{""Q01"":""3"",""Q02"":""1"",""Q03"":""0"",""Q04"":""3"",""Q05"":""4"",""Q06"":""1"",""Q07"":""0"",""Q08"":""3"",""Q09"":""1"",""Q10"":""1"",""Q11"":""1"",""Q12"":""2"",""Q13"":""5"",""Q14"":""0"",""Q15"":""2"",""Q16"":""0"",""Q17"":""1"",""Q18"":""0"",""Q19"":""0"",""Q20"":""0"",""Q21"":""0"",""Q22"":""0""}","[0,1,2,3,4,5,6,7,8,9,10,11,12,13,14,15,16,17,18,19,20,21]","[""Q01"",""Q02"",""Q03"",""Q04"",""Q05"",""Q06"",""Q07"",""Q08"",""Q09"",""Q10"",""Q11"",""Q12"",""Q13"",""Q14"",""Q15"",""Q16"",""Q17"",""Q18"",""Q17"",""Q19"",""Q20"",""Q21"",""Q22""]","[17133.799999999814,90786,137809.3999999999,138788.8999999999,140660.1000000001,144456.3999999999,146018.2000000002,202187.2999999998,222807.2999999998,224191.2999999998,226137.2000000002,228834,250475,252784,263710.2000000002,399133.1000000001,400477.7000000002,403233.2999999998,404551.8999999999,414628.8999999999,551274.6000000001,595478.2999999998,765475.8999999999]","[]","[0.10000000009313226,17133.799999999814,90786,136146.2999999998,137809.3999999999,138788.8999999999,140660.1000000001,144456.3999999999,146018.2000000002,202187.2999999998,222807.2999999998,224191.2999999998,226137.2000000002,228834,250475,252784,263710.2000000002,399133.1000000001,400477.7000000002,401521.1000000001,402360.6000000001,403233.2999999998,404551.8999999999,413266.8999999999,414053.3999999999,414628.8999999999,551274.6000000001,595478.2999999998,765475.8999999999,937344.6000000001]","0.4090909090909091","0.3333333333333333","0","drsp","","","","","","","","","","","","","","","","","","","","","","","","","","","","","","",""
"20150.5","","","","survey-template","4","991739","0.0-2.0-2.0","39","1","2025-07-16 08:17:20","1f75c3e559b7213887762d5229550c2b","197.245.162.70","Mozilla/5.0 (Windows NT 10.0; Win64; x64) AppleWebKit/537.36 (KHTML, like Gecko) Chrome/138.0.0.0 Safari/537.36","WebKit","Chrome","138.0.0.0","Windows","10.0","https://app.prolific.com/","en-ZA,en-GB;q=0.9,en-US;q=0.8,en;q=0.7","614e1c414dff2e589169f360","686e379bc37a29ffa5cdc956","6877600a1b30321509059d9b","1","1","614e1c414dff2e589169f360","1","1","2025-07-16T08:33:53.942Z","","{""Q01"":""1"",""Q02"":""3"",""Q03"":""0""}","[0,1,2]","[""Q01"",""Q02"",""Q03""]","[3734.3000000002794,6838,19076]","[]","[3734.3000000002794,6334.100000000093,6838,18393,19076,20149.399999999907]","0.3333333333333333","0.5","0","stress","","","","","","","","","","","","","","","","","","","","","","","","","","","","","","",""
"59140","","","","instructions","5","1050880","0.0-3.0-0.0","39","1","2025-07-16 08:17:20","1f75c3e559b7213887762d5229550c2b","197.245.162.70","Mozilla/5.0 (Windows NT 10.0; Win64; x64) AppleWebKit/537.36 (KHTML, like Gecko) Chrome/138.0.0.0 Safari/537.36","WebKit","Chrome","138.0.0.0","Windows","10.0","https://app.prolific.com/","en-ZA,en-GB;q=0.9,en-US;q=0.8,en;q=0.7","614e1c414dff2e589169f360","686e379bc37a29ffa5cdc956","6877600a1b30321509059d9b","1","1","614e1c414dff2e589169f360","1","1","","","","","","","","","","","","","[{""page_index"":0,""viewing_time"":59140}]","","","","","","","","","","","","","","","","","","","","","","","","","","","","","",""
"5813","","<p>Before you start with this game please answer the following three questions yourself. </p>
  <p>Through this game, we measure several aspects of your cognitive performance, such as reaction times, multi-tasking capabilities </p>
  <p>and the ability to assess the situation you are in.</p>
  <p></p>
  <p><b>How good do you usually are in such tasks?</b></p>","70","html-slider-response","6","1056699","0.0-4.0-0.0","39","1","2025-07-16 08:17:20","1f75c3e559b7213887762d5229550c2b","197.245.162.70","Mozilla/5.0 (Windows NT 10.0; Win64; x64) AppleWebKit/537.36 (KHTML, like Gecko) Chrome/138.0.0.0 Safari/537.36","WebKit","Chrome","138.0.0.0","Windows","10.0","https://app.prolific.com/","en-ZA,en-GB;q=0.9,en-US;q=0.8,en;q=0.7","614e1c414dff2e589169f360","686e379bc37a29ffa5cdc956","6877600a1b30321509059d9b","1","1","614e1c414dff2e589169f360","1","1","2025-07-16T08:34:58.902Z","","","","","","","","","","","PreSkillQ","","50","","","","","","","","","","","","","","","","","","","","","","","","","","","","",""
"6364","","<div style=""width:500px;"">
  <p>How well do you think you will perform in this task compared to other participants?</p>
  </div>","67","html-slider-response","7","1063064","0.0-4.0-1.0","39","1","2025-07-16 08:17:20","1f75c3e559b7213887762d5229550c2b","197.245.162.70","Mozilla/5.0 (Windows NT 10.0; Win64; x64) AppleWebKit/537.36 (KHTML, like Gecko) Chrome/138.0.0.0 Safari/537.36","WebKit","Chrome","138.0.0.0","Windows","10.0","https://app.prolific.com/","en-ZA,en-GB;q=0.9,en-US;q=0.8,en;q=0.7","614e1c414dff2e589169f360","686e379bc37a29ffa5cdc956","6877600a1b30321509059d9b","1","1","614e1c414dff2e589169f360","1","1","2025-07-16T08:35:05.267Z","","","","","","","","","","","PrePerfQ","","50","","","","","","","","","","","","","","","","","","","","","","","","","","","","",""
"3406","","<div style=""width:500px;"">
  <p>What best describes how you currently feel?</p>
  </div>","66","html-slider-response","8","1066471","0.0-4.0-2.0","39","1","2025-07-16 08:17:20","1f75c3e559b7213887762d5229550c2b","197.245.162.70","Mozilla/5.0 (Windows NT 10.0; Win64; x64) AppleWebKit/537.36 (KHTML, like Gecko) Chrome/138.0.0.0 Safari/537.36","WebKit","Chrome","138.0.0.0","Windows","10.0","https://app.prolific.com/","en-ZA,en-GB;q=0.9,en-US;q=0.8,en;q=0.7","614e1c414dff2e589169f360","686e379bc37a29ffa5cdc956","6877600a1b30321509059d9b","1","1","614e1c414dff2e589169f360","1","1","2025-07-16T08:35:08.675Z","","","","","","","","","","","PreMotivationQ","","50","","","","","","","","","","","","","","","","","","","","","","","","","","","","",""
"","","","","ctl-task-cpt","9","1097709","0.0-5.0-0.0","39","1","2025-07-16 08:17:20","1f75c3e559b7213887762d5229550c2b","197.245.162.70","Mozilla/5.0 (Windows NT 10.0; Win64; x64) AppleWebKit/537.36 (KHTML, like Gecko) Chrome/138.0.0.0 Safari/537.36","WebKit","Chrome","138.0.0.0","Windows","10.0","https://app.prolific.com/","en-ZA,en-GB;q=0.9,en-US;q=0.8,en;q=0.7","614e1c414dff2e589169f360","686e379bc37a29ffa5cdc956","6877600a1b30321509059d9b","1","1","614e1c414dff2e589169f360","1","1","2025-07-16T08:35:39.912Z","","","","","","","","","","","","","","win-only","3","g1:SW,g2:NE","1","1","0","1069507.3","8809.2","13813.2","28229.6","1","4","8","6","1","1","1","1","0","0.007575757575757576","5003.8","3000","1255","[""down"",""left""]","{""num_key_presses"":4,""num_perfect"":4,""num_errors"":0,""num_randdir"":0,""num_randdir_good_moves"":0,""num_whilered"":0,""num_whileblue"":0,""num_blue"":1,""num_good_moves"":4}","[343.14285714285717,351.04910714285717,0.4,343.14285714285717,350.04910714285717,102.4,343.14285714285717,350.04910714285717,209.3,343.14285714285717,349.04910714285717,309.4,342.14285714285717,351.04910714285717,409.4,342.14285714285717,354.04910714285717,509.6,356.14285714285717,383.04910714285717,612.9,417.14285714285717,443.04910714285717,717.2,433.14285714285717,459.04910714285717,826,473.14285714285717,490.04910714285717,926.1,667.1428571428571,586.0491071428571,1026.2,875.1428571428571,655.0491071428571,1131.3,953.1428571428571,671.0491071428571,1232.1,958.1428571428571,671.0491071428571,1336.7,959.1428571428571,671.0491071428571,1436.7,960.1428571428571,680.0491071428571,1536.8,966.1428571428571,684.0491071428571,1636.9,970.1428571428571,689.0491071428571,1739,970.1428571428571,693.0491071428571,1843.3,970.1428571428571,699.0491071428571,1946.7,970.1428571428571,701.0491071428571,2047.3,968.1428571428571,710.0491071428571,2160.2,968.1428571428571,710.0491071428571,2260.4,989.1428571428571,711.0491071428571,2360.5,997.1428571428571,709.0491071428571,2461.1,1001.1428571428571,709.0491071428571,2561.1,1001.1428571428571,709.0491071428571,2661.3,1001.1428571428571,709.0491071428571,2761.3,1001.1428571428571,709.0491071428571,2861.6,1001.1428571428571,709.0491071428571,2968.2,1002.1428571428571,709.0491071428571,3077.2,1003.1428571428571,709.0491071428571,3178,1003.1428571428571,709.0491071428571,3281.2,1003.1428571428571,709.0491071428571,3382,1003.1428571428571,709.0491071428571,3482.1,1003.1428571428571,709.0491071428571,3586.6,1003.1428571428571,709.0491071428571,3694.4,1003.1428571428571,709.0491071428571,3796.9,1004.1428571428571,709.0491071428571,3897.2,1004.1428571428571,709.0491071428571,4001.7,1004.1428571428571,709.0491071428571,4112.2,1004.1428571428571,709.0491071428571,4212.5,1004.1428571428571,709.0491071428571,4316.8,1004.1428571428571,709.0491071428571,4418,1004.1428571428571,709.0491071428571,4527.3,1004.1428571428571,709.0491071428571,4627.8,1005.1428571428571,709.0491071428571,4727.9,1005.1428571428571,709.0491071428571,4829.1,1005.1428571428571,709.0491071428571,4931.7]","[1170.2,1170.2,1000,0,170.2,""smooth"",""down"",""down"",""good_move"",7529.3,6358.4,2233.2,4873.5,422.7,""smooth"",""left"",""left"",""good_move"",10493.9,2964.1,2365.2,7529.8,598.9,""smooth"",""left"",""left"",""good_move"",14316.5,3822.4,2973,10494.1,849.4,""smooth"",""down"",""down"",""good_move""]","",""
"21030","","<div style=""width:500px;"">
  <p>What determined the result of this run?</p>
  </div>","84","html-slider-response","10","1118741","0.0-5.0-1.0","39","1","2025-07-16 08:17:20","1f75c3e559b7213887762d5229550c2b","197.245.162.70","Mozilla/5.0 (Windows NT 10.0; Win64; x64) AppleWebKit/537.36 (KHTML, like Gecko) Chrome/138.0.0.0 Safari/537.36","WebKit","Chrome","138.0.0.0","Windows","10.0","https://app.prolific.com/","en-ZA,en-GB;q=0.9,en-US;q=0.8,en;q=0.7","614e1c414dff2e589169f360","686e379bc37a29ffa5cdc956","6877600a1b30321509059d9b","1","1","614e1c414dff2e589169f360","1","1","2025-07-16T08:36:00.944Z","","","","","","","","","","","AttribQ","","50","","","","","","","","","","","","","","","","","","","","","","","","","","","","",""
"29803","","<div style=""width:500px;"">
  <p>How much control did you have over the ball?</p>
  </div>","82","html-slider-response","11","1148545","0.0-5.0-2.0","39","1","2025-07-16 08:17:20","1f75c3e559b7213887762d5229550c2b","197.245.162.70","Mozilla/5.0 (Windows NT 10.0; Win64; x64) AppleWebKit/537.36 (KHTML, like Gecko) Chrome/138.0.0.0 Safari/537.36","WebKit","Chrome","138.0.0.0","Windows","10.0","https://app.prolific.com/","en-ZA,en-GB;q=0.9,en-US;q=0.8,en;q=0.7","614e1c414dff2e589169f360","686e379bc37a29ffa5cdc956","6877600a1b30321509059d9b","1","1","614e1c414dff2e589169f360","1","1","2025-07-16T08:36:30.749Z","","","","","","","","","","","ControlQ","","50","","","","","","","","","","","","","","","","","","","","","","","","","","","","",""
"11316","","<div style=""width:500px;"">
  <p>How would you describe your current emotional state?</p>
  </div>","30","html-slider-response","12","1159863","0.0-5.0-3.0","39","1","2025-07-16 08:17:20","1f75c3e559b7213887762d5229550c2b","197.245.162.70","Mozilla/5.0 (Windows NT 10.0; Win64; x64) AppleWebKit/537.36 (KHTML, like Gecko) Chrome/138.0.0.0 Safari/537.36","WebKit","Chrome","138.0.0.0","Windows","10.0","https://app.prolific.com/","en-ZA,en-GB;q=0.9,en-US;q=0.8,en;q=0.7","614e1c414dff2e589169f360","686e379bc37a29ffa5cdc956","6877600a1b30321509059d9b","1","1","614e1c414dff2e589169f360","1","1","2025-07-16T08:36:42.067Z","","","","","","","","","","","StressQ","","50","","","","","","","","","","","","","","","","","","","","","","","","","","","","",""
"3394","","<div style=""width:500px;"">
  <p>What best describes how you currently feel?</p>
  </div>","60","html-slider-response","13","1163259","0.0-5.0-4.0","39","1","2025-07-16 08:17:20","1f75c3e559b7213887762d5229550c2b","197.245.162.70","Mozilla/5.0 (Windows NT 10.0; Win64; x64) AppleWebKit/537.36 (KHTML, like Gecko) Chrome/138.0.0.0 Safari/537.36","WebKit","Chrome","138.0.0.0","Windows","10.0","https://app.prolific.com/","en-ZA,en-GB;q=0.9,en-US;q=0.8,en;q=0.7","614e1c414dff2e589169f360","686e379bc37a29ffa5cdc956","6877600a1b30321509059d9b","1","1","614e1c414dff2e589169f360","1","1","2025-07-16T08:36:45.463Z","","","","","","","","","","","MotivationQ","","50","","","","","","","","","","","","","","","","","","","","","","","","","","","","",""
"","","","","ctl-task-cpt","14","1185560","0.0-5.0-0.1","39","1","2025-07-16 08:17:20","1f75c3e559b7213887762d5229550c2b","197.245.162.70","Mozilla/5.0 (Windows NT 10.0; Win64; x64) AppleWebKit/537.36 (KHTML, like Gecko) Chrome/138.0.0.0 Safari/537.36","WebKit","Chrome","138.0.0.0","Windows","10.0","https://app.prolific.com/","en-ZA,en-GB;q=0.9,en-US;q=0.8,en;q=0.7","614e1c414dff2e589169f360","686e379bc37a29ffa5cdc956","6877600a1b30321509059d9b","1","1","614e1c414dff2e589169f360","1","1","2025-07-16T08:37:07.764Z","","","","","","","","","","","","","","win-only","2","g1:SE,g2:NW","0.9","2","0","1166292.6","2424.7","7427.5","19291","1","4","4","6","1","1","0","1","1","0.007575757575757576","5002.8","3000","1680","[""down"",""right""]","{""num_key_presses"":4,""num_perfect"":3,""num_errors"":1,""num_randdir"":0,""num_randdir_good_moves"":0,""num_whilered"":0,""num_whileblue"":1,""num_blue"":1,""num_good_moves"":4}","[349.14285714285717,353.04910714285717,0.2,349.14285714285717,353.04910714285717,101.2,349.14285714285717,353.04910714285717,206.5,371.14285714285717,376.04910714285717,313.1,671.1428571428571,404.04910714285717,416.5,889.1428571428571,440.04910714285717,516.5,936.1428571428571,452.04910714285717,617.1,1004.1428571428571,470.04910714285717,717.5,1028.142857142857,476.04910714285717,821.1,1031.142857142857,477.04910714285717,921.4,1032.142857142857,478.04910714285717,1021.8,1033.142857142857,479.04910714285717,1126.4,1034.142857142857,480.04910714285717,1227.6,1034.142857142857,480.04910714285717,1331.2,1035.142857142857,480.04910714285717,1432.1,1035.142857142857,480.04910714285717,1535.9,1035.142857142857,480.04910714285717,1637.6,1035.142857142857,480.04910714285717,1742.7,1035.142857142857,480.04910714285717,1847.4,1035.142857142857,480.04910714285717,1947.5,1035.142857142857,480.04910714285717,2047.5,1035.142857142857,480.04910714285717,2149.5,1035.142857142857,480.04910714285717,2251.5,1035.142857142857,480.04910714285717,2351.6,1035.142857142857,480.04910714285717,2456.7,1035.142857142857,480.04910714285717,2557.4,1035.142857142857,480.04910714285717,2662.9,1035.142857142857,480.04910714285717,2766.8,1035.142857142857,480.04910714285717,2872.4,1035.142857142857,480.04910714285717,2977.5,1035.142857142857,480.04910714285717,3080.8,1035.142857142857,480.04910714285717,3181.7,1035.142857142857,480.04910714285717,3286.5,1035.142857142857,480.04910714285717,3386.8,1035.142857142857,480.04910714285717,3491,1035.142857142857,480.04910714285717,3591.3,1035.142857142857,480.04910714285717,3691.6,1035.142857142857,480.04910714285717,3792.9,1035.142857142857,480.04910714285717,3898.9,1035.142857142857,480.04910714285717,4000.9,1035.142857142857,480.04910714285717,4102.1,1035.142857142857,480.04910714285717,4207.8,1035.142857142857,480.04910714285717,4312.6,1035.142857142857,480.04910714285717,4416.4,1036.142857142857,480.04910714285717,4516.7,1036.142857142857,480.04910714285717,4616.7,933.1428571428571,239.04910714285714,4716.8,867.1428571428571,52.049107142857146,4822.7,787.1428571428571,-87.95089285714286,4928.3]","[1393.9,1393.9,1000,0,393.9,""smooth"",""right"",""right"",""good_move"",5809,4414.7,3653.6,1394.3,761.1,""smooth"",""right"",""right"",""good_move"",9038.1,3228.9,2869.2,5809.2,359.7,""while_blue"",""down"",""down"",""good_move"",11722,2683.3,2264,9038.7,419.3,""smooth"",""down"",""down"",""good_move""]","",""
"5105","","<div style=""width:500px;"">
  <p>What determined the result of this run?</p>
  </div>","84","html-slider-response","15","1190667","0.0-5.0-1.1","39","1","2025-07-16 08:17:20","1f75c3e559b7213887762d5229550c2b","197.245.162.70","Mozilla/5.0 (Windows NT 10.0; Win64; x64) AppleWebKit/537.36 (KHTML, like Gecko) Chrome/138.0.0.0 Safari/537.36","WebKit","Chrome","138.0.0.0","Windows","10.0","https://app.prolific.com/","en-ZA,en-GB;q=0.9,en-US;q=0.8,en;q=0.7","614e1c414dff2e589169f360","686e379bc37a29ffa5cdc956","6877600a1b30321509059d9b","1","1","614e1c414dff2e589169f360","1","1","2025-07-16T08:37:12.870Z","","","","","","","","","","","AttribQ","","50","","","","","","","","","","","","","","","","","","","","","","","","","","","","",""
"4533","","<div style=""width:500px;"">
  <p>How much control did you have over the ball?</p>
  </div>","58","html-slider-response","16","1195203","0.0-5.0-2.1","39","1","2025-07-16 08:17:20","1f75c3e559b7213887762d5229550c2b","197.245.162.70","Mozilla/5.0 (Windows NT 10.0; Win64; x64) AppleWebKit/537.36 (KHTML, like Gecko) Chrome/138.0.0.0 Safari/537.36","WebKit","Chrome","138.0.0.0","Windows","10.0","https://app.prolific.com/","en-ZA,en-GB;q=0.9,en-US;q=0.8,en;q=0.7","614e1c414dff2e589169f360","686e379bc37a29ffa5cdc956","6877600a1b30321509059d9b","1","1","614e1c414dff2e589169f360","1","1","2025-07-16T08:37:17.406Z","","","","","","","","","","","ControlQ","","50","","","","","","","","","","","","","","","","","","","","","","","","","","","","",""
"16897","","<div style=""width:500px;"">
  <p>How would you describe your current emotional state?</p>
  </div>","58","html-slider-response","17","1212101","0.0-5.0-3.1","39","1","2025-07-16 08:17:20","1f75c3e559b7213887762d5229550c2b","197.245.162.70","Mozilla/5.0 (Windows NT 10.0; Win64; x64) AppleWebKit/537.36 (KHTML, like Gecko) Chrome/138.0.0.0 Safari/537.36","WebKit","Chrome","138.0.0.0","Windows","10.0","https://app.prolific.com/","en-ZA,en-GB;q=0.9,en-US;q=0.8,en;q=0.7","614e1c414dff2e589169f360","686e379bc37a29ffa5cdc956","6877600a1b30321509059d9b","1","1","614e1c414dff2e589169f360","1","1","2025-07-16T08:37:34.304Z","","","","","","","","","","","StressQ","","50","","","","","","","","","","","","","","","","","","","","","","","","","","","","",""
"2988","","<div style=""width:500px;"">
  <p>What best describes how you currently feel?</p>
  </div>","75","html-slider-response","18","1215090","0.0-5.0-4.1","39","1","2025-07-16 08:17:20","1f75c3e559b7213887762d5229550c2b","197.245.162.70","Mozilla/5.0 (Windows NT 10.0; Win64; x64) AppleWebKit/537.36 (KHTML, like Gecko) Chrome/138.0.0.0 Safari/537.36","WebKit","Chrome","138.0.0.0","Windows","10.0","https://app.prolific.com/","en-ZA,en-GB;q=0.9,en-US;q=0.8,en;q=0.7","614e1c414dff2e589169f360","686e379bc37a29ffa5cdc956","6877600a1b30321509059d9b","1","1","614e1c414dff2e589169f360","1","1","2025-07-16T08:37:37.293Z","","","","","","","","","","","MotivationQ","","50","","","","","","","","","","","","","","","","","","","","","","","","","","","","",""
"","","","","ctl-task-cpt","19","1245678","0.0-5.0-0.2","39","1","2025-07-16 08:17:20","1f75c3e559b7213887762d5229550c2b","197.245.162.70","Mozilla/5.0 (Windows NT 10.0; Win64; x64) AppleWebKit/537.36 (KHTML, like Gecko) Chrome/138.0.0.0 Safari/537.36","WebKit","Chrome","138.0.0.0","Windows","10.0","https://app.prolific.com/","en-ZA,en-GB;q=0.9,en-US;q=0.8,en;q=0.7","614e1c414dff2e589169f360","686e379bc37a29ffa5cdc956","6877600a1b30321509059d9b","1","1","614e1c414dff2e589169f360","1","1","2025-07-16T08:38:07.881Z","","","","","","","","","","","","","","win-only","3","g1:SW,g2:NE","0.8","3","0","1218123.6","5792.4","10793.1","27575.2","1","4","8","6","2","8","8","9","1","0.06818181818181818","1215.2","3000","1120","[""up"",""right""]","{""num_key_presses"":6,""num_perfect"":5,""num_errors"":0,""num_randdir"":1,""num_randdir_good_moves"":1,""num_whilered"":0,""num_whileblue"":0,""num_blue"":0,""num_good_moves"":6}","[349.14285714285717,350.04910714285717,0.3,349.14285714285717,350.04910714285717,101.6,349.14285714285717,354.04910714285717,203.2,349.14285714285717,366.04910714285717,308.5,349.14285714285717,366.04910714285717,408.9,345.14285714285717,369.04910714285717,515.2,345.14285714285717,370.04910714285717,616,348.14285714285717,368.04910714285717,716.9,514.1428571428571,224.04910714285714,818.2,565.1428571428571,171.04910714285714,919.2,579.1428571428571,152.04910714285714,1024,621.1428571428571,86.04910714285714,1133.6,624.1428571428571,65.04910714285714,1239.1,624.1428571428571,65.04910714285714,1343.1,628.1428571428571,94.04910714285714,1450.5,729.1428571428571,235.04910714285714,1554.7,794.1428571428571,347.04910714285717,1655.4,796.1428571428571,356.04910714285717,1758.8,796.1428571428571,356.04910714285717,1866.6,796.1428571428571,356.04910714285717,1967.9,796.1428571428571,356.04910714285717,2069.1,796.1428571428571,356.04910714285717,2173.2,796.1428571428571,356.04910714285717,2282.8,796.1428571428571,356.04910714285717,2383.5,797.1428571428571,357.04910714285717,2489.1,798.1428571428571,357.04910714285717,2593.1,798.1428571428571,357.04910714285717,2693.2,799.1428571428571,357.04910714285717,2793.5,799.1428571428571,358.04910714285717,2900.3,799.1428571428571,358.04910714285717,3000.9,799.1428571428571,358.04910714285717,3103.4,799.1428571428571,358.04910714285717,3208.8,799.1428571428571,358.04910714285717,3316,799.1428571428571,359.04910714285717,3416.9,799.1428571428571,359.04910714285717,3519.1,799.1428571428571,359.04910714285717,3619.4,799.1428571428571,359.04910714285717,3723.4,799.1428571428571,360.04910714285717,3823.5,799.1428571428571,360.04910714285717,3924,799.1428571428571,363.04910714285717,4024,799.1428571428571,365.04910714285717,4132.9,799.1428571428571,365.04910714285717,4235.3,799.1428571428571,365.04910714285717,4338.3,799.1428571428571,365.04910714285717,4438.7,799.1428571428571,365.04910714285717,4543,799.1428571428571,367.04910714285717,4650.4,799.1428571428571,369.04910714285717,4750.4,799.1428571428571,369.04910714285717,4851.8,799.1428571428571,369.04910714285717,4952.9]","[1466.2,1466.2,1000,0,466.2,""smooth"",""up"",""up"",""good_move"",4824.4,3357.6,2948.5,1466.9,409,""smooth"",""up"",""up"",""good_move"",6692.4,1867.8,1425.4,4824.6,442.4,""smooth"",""right"",""right"",""good_move"",9757,3064.3,2691.7,6692.7,372.6,""smooth"",""right"",""right"",""good_move"",13189,3431.7,3062.6,9757.3,369.1,""oops"",""right"",""up"",""good_move"",16675.9,3486.4,3123.8,13189.5,362.6,""smooth"",""right"",""right"",""good_move""]","",""
"18174","","<div style=""width:500px;"">
  <p>What determined the result of this run?</p>
  </div>","12","html-slider-response","20","1263853","0.0-5.0-1.2","39","1","2025-07-16 08:17:20","1f75c3e559b7213887762d5229550c2b","197.245.162.70","Mozilla/5.0 (Windows NT 10.0; Win64; x64) AppleWebKit/537.36 (KHTML, like Gecko) Chrome/138.0.0.0 Safari/537.36","WebKit","Chrome","138.0.0.0","Windows","10.0","https://app.prolific.com/","en-ZA,en-GB;q=0.9,en-US;q=0.8,en;q=0.7","614e1c414dff2e589169f360","686e379bc37a29ffa5cdc956","6877600a1b30321509059d9b","1","1","614e1c414dff2e589169f360","1","1","2025-07-16T08:38:26.056Z","","","","","","","","","","","AttribQ","","50","","","","","","","","","","","","","","","","","","","","","","","","","","","","",""
"14538","","<div style=""width:500px;"">
  <p>How much control did you have over the ball?</p>
  </div>","27","html-slider-response","21","1278393","0.0-5.0-2.2","39","1","2025-07-16 08:17:20","1f75c3e559b7213887762d5229550c2b","197.245.162.70","Mozilla/5.0 (Windows NT 10.0; Win64; x64) AppleWebKit/537.36 (KHTML, like Gecko) Chrome/138.0.0.0 Safari/537.36","WebKit","Chrome","138.0.0.0","Windows","10.0","https://app.prolific.com/","en-ZA,en-GB;q=0.9,en-US;q=0.8,en;q=0.7","614e1c414dff2e589169f360","686e379bc37a29ffa5cdc956","6877600a1b30321509059d9b","1","1","614e1c414dff2e589169f360","1","1","2025-07-16T08:38:40.596Z","","","","","","","","","","","ControlQ","","50","","","","","","","","","","","","","","","","","","","","","","","","","","","","",""
"13550","","<div style=""width:500px;"">
  <p>How would you describe your current emotional state?</p>
  </div>","28","html-slider-response","22","1291945","0.0-5.0-3.2","39","1","2025-07-16 08:17:20","1f75c3e559b7213887762d5229550c2b","197.245.162.70","Mozilla/5.0 (Windows NT 10.0; Win64; x64) AppleWebKit/537.36 (KHTML, like Gecko) Chrome/138.0.0.0 Safari/537.36","WebKit","Chrome","138.0.0.0","Windows","10.0","https://app.prolific.com/","en-ZA,en-GB;q=0.9,en-US;q=0.8,en;q=0.7","614e1c414dff2e589169f360","686e379bc37a29ffa5cdc956","6877600a1b30321509059d9b","1","1","614e1c414dff2e589169f360","1","1","2025-07-16T08:38:54.148Z","","","","","","","","","","","StressQ","","50","","","","","","","","","","","","","","","","","","","","","","","","","","","","",""
"2995","","<div style=""width:500px;"">
  <p>What best describes how you currently feel?</p>
  </div>","64","html-slider-response","23","1294941","0.0-5.0-4.2","39","1","2025-07-16 08:17:20","1f75c3e559b7213887762d5229550c2b","197.245.162.70","Mozilla/5.0 (Windows NT 10.0; Win64; x64) AppleWebKit/537.36 (KHTML, like Gecko) Chrome/138.0.0.0 Safari/537.36","WebKit","Chrome","138.0.0.0","Windows","10.0","https://app.prolific.com/","en-ZA,en-GB;q=0.9,en-US;q=0.8,en;q=0.7","614e1c414dff2e589169f360","686e379bc37a29ffa5cdc956","6877600a1b30321509059d9b","1","1","614e1c414dff2e589169f360","1","1","2025-07-16T08:38:57.144Z","","","","","","","","","","","MotivationQ","","50","","","","","","","","","","","","","","","","","","","","","","","","","","","","",""
"","","","","ctl-task-cpt","24","1333493","0.0-5.0-0.3","39","1","2025-07-16 08:17:20","1f75c3e559b7213887762d5229550c2b","197.245.162.70","Mozilla/5.0 (Windows NT 10.0; Win64; x64) AppleWebKit/537.36 (KHTML, like Gecko) Chrome/138.0.0.0 Safari/537.36","WebKit","Chrome","138.0.0.0","Windows","10.0","https://app.prolific.com/","en-ZA,en-GB;q=0.9,en-US;q=0.8,en;q=0.7","614e1c414dff2e589169f360","686e379bc37a29ffa5cdc956","6877600a1b30321509059d9b","1","1","614e1c414dff2e589169f360","1","1","2025-07-16T08:39:35.696Z","","","","","","","","","","","","","","win-only","2","g1:SE,g2:NW","0.7","4","0","1297974.2","1780.7","6781.6","35531.3","1","4","4","6","2","-4","-5","4","9","0.030303030303030304","1087.6","3000","-2195","[""left"",""up""]","{""num_key_presses"":6,""num_perfect"":3,""num_errors"":1,""num_randdir"":2,""num_randdir_good_moves"":0,""num_whilered"":0,""num_whileblue"":1,""num_blue"":3,""num_good_moves"":3}","[350.14285714285717,349.04910714285717,0.2,350.14285714285717,349.04910714285717,100.1,350.14285714285717,349.04910714285717,205.6,386.14285714285717,382.04910714285717,309.6,571.1428571428571,501.04910714285717,410,644.1428571428571,537.0491071428571,510.3,645.1428571428571,537.0491071428571,610.8,339.14285714285717,359.04910714285717,716.4,117.14285714285714,120.04910714285714,819.9,54.142857142857146,70.04910714285714,920.5,52.142857142857146,86.04910714285714,1020.6,53.142857142857146,84.04910714285714,1125.7,53.142857142857146,83.04910714285714,1226.1,119.14285714285714,94.04910714285714,1334.7,668.1428571428571,286.04910714285717,1439.8,790.1428571428571,323.04910714285717,1540.1,790.1428571428571,323.04910714285717,1640.4,791.1428571428571,324.04910714285717,1748.1,791.1428571428571,327.04910714285717,1850.3,791.1428571428571,328.04910714285717,1950.4,791.1428571428571,330.04910714285717,2054.6,792.1428571428571,339.04910714285717,2154.9,792.1428571428571,343.04910714285717,2259.6,792.1428571428571,343.04910714285717,2360.4,792.1428571428571,345.04910714285717,2462.6,792.1428571428571,345.04910714285717,2563.9,792.1428571428571,345.04910714285717,2664.7,792.1428571428571,345.04910714285717,2765.6,792.1428571428571,345.04910714285717,2871.4,792.1428571428571,345.04910714285717,2975.1,792.1428571428571,345.04910714285717,3075.5,792.1428571428571,345.04910714285717,3180.1,792.1428571428571,346.04910714285717,3282,792.1428571428571,346.04910714285717,3384.9,793.1428571428571,346.04910714285717,3484.9,793.1428571428571,346.04910714285717,3585.2,793.1428571428571,346.04910714285717,3685.7,793.1428571428571,346.04910714285717,3789.9,793.1428571428571,346.04910714285717,3895.2,793.1428571428571,346.04910714285717,3999.8,793.1428571428571,346.04910714285717,4100.2,793.1428571428571,346.04910714285717,4204.8,793.1428571428571,346.04910714285717,4304.8,793.1428571428571,346.04910714285717,4405.8,793.1428571428571,346.04910714285717,4512.3,793.1428571428571,346.04910714285717,4615.6,793.1428571428571,346.04910714285717,4719.9,793.1428571428571,346.04910714285717,4820.3,793.1428571428571,346.04910714285717,4928.3]","[4774.8,4774.8,2295.5,2012.6,466.7,""smooth"",""left"",""left"",""good_move"",8755.6,3980.4,3559.3,4775.3,421.1,""while_blue"",""left"",""down"",""bad_move"",11922.1,3166,2785.1,8756.1,380.9,""oops"",""left"",""right"",""bad_move"",15608.7,3686.4,3085.3,11922.3,601.1,""smooth"",""up"",""up"",""good_move"",21584.3,5975.2,2364.8,18700,519.5,""oops"",""up"",""down"",""bad_move"",25630.4,4046,2852.6,21584.5,1193.3,""smooth"",""up"",""up"",""good_move""]","",""
"3766","","<div style=""width:500px;"">
  <p>What determined the result of this run?</p>
  </div>","3","html-slider-response","25","1337261","0.0-5.0-1.3","39","1","2025-07-16 08:17:20","1f75c3e559b7213887762d5229550c2b","197.245.162.70","Mozilla/5.0 (Windows NT 10.0; Win64; x64) AppleWebKit/537.36 (KHTML, like Gecko) Chrome/138.0.0.0 Safari/537.36","WebKit","Chrome","138.0.0.0","Windows","10.0","https://app.prolific.com/","en-ZA,en-GB;q=0.9,en-US;q=0.8,en;q=0.7","614e1c414dff2e589169f360","686e379bc37a29ffa5cdc956","6877600a1b30321509059d9b","1","1","614e1c414dff2e589169f360","1","1","2025-07-16T08:39:39.464Z","","","","","","","","","","","AttribQ","","50","","","","","","","","","","","","","","","","","","","","","","","","","","","","",""
"5376","","<div style=""width:500px;"">
  <p>How much control did you have over the ball?</p>
  </div>","21","html-slider-response","26","1342638","0.0-5.0-2.3","39","1","2025-07-16 08:17:20","1f75c3e559b7213887762d5229550c2b","197.245.162.70","Mozilla/5.0 (Windows NT 10.0; Win64; x64) AppleWebKit/537.36 (KHTML, like Gecko) Chrome/138.0.0.0 Safari/537.36","WebKit","Chrome","138.0.0.0","Windows","10.0","https://app.prolific.com/","en-ZA,en-GB;q=0.9,en-US;q=0.8,en;q=0.7","614e1c414dff2e589169f360","686e379bc37a29ffa5cdc956","6877600a1b30321509059d9b","1","1","614e1c414dff2e589169f360","1","1","2025-07-16T08:39:44.841Z","","","","","","","","","","","ControlQ","","50","","","","","","","","","","","","","","","","","","","","","","","","","","","","",""
"8187","","<div style=""width:500px;"">
  <p>How would you describe your current emotional state?</p>
  </div>","14","html-slider-response","27","1350826","0.0-5.0-3.3","39","1","2025-07-16 08:17:20","1f75c3e559b7213887762d5229550c2b","197.245.162.70","Mozilla/5.0 (Windows NT 10.0; Win64; x64) AppleWebKit/537.36 (KHTML, like Gecko) Chrome/138.0.0.0 Safari/537.36","WebKit","Chrome","138.0.0.0","Windows","10.0","https://app.prolific.com/","en-ZA,en-GB;q=0.9,en-US;q=0.8,en;q=0.7","614e1c414dff2e589169f360","686e379bc37a29ffa5cdc956","6877600a1b30321509059d9b","1","1","614e1c414dff2e589169f360","1","1","2025-07-16T08:39:53.029Z","","","","","","","","","","","StressQ","","50","","","","","","","","","","","","","","","","","","","","","","","","","","","","",""
"7501","","<div style=""width:500px;"">
  <p>What best describes how you currently feel?</p>
  </div>","21","html-slider-response","28","1358328","0.0-5.0-4.3","39","1","2025-07-16 08:17:20","1f75c3e559b7213887762d5229550c2b","197.245.162.70","Mozilla/5.0 (Windows NT 10.0; Win64; x64) AppleWebKit/537.36 (KHTML, like Gecko) Chrome/138.0.0.0 Safari/537.36","WebKit","Chrome","138.0.0.0","Windows","10.0","https://app.prolific.com/","en-ZA,en-GB;q=0.9,en-US;q=0.8,en;q=0.7","614e1c414dff2e589169f360","686e379bc37a29ffa5cdc956","6877600a1b30321509059d9b","1","1","614e1c414dff2e589169f360","1","1","2025-07-16T08:40:00.531Z","","","","","","","","","","","MotivationQ","","50","","","","","","","","","","","","","","","","","","","","","","","","","","","","",""
"","","","","ctl-task-cpt","29","1390082","0.0-5.0-0.4","39","1","2025-07-16 08:17:20","1f75c3e559b7213887762d5229550c2b","197.245.162.70","Mozilla/5.0 (Windows NT 10.0; Win64; x64) AppleWebKit/537.36 (KHTML, like Gecko) Chrome/138.0.0.0 Safari/537.36","WebKit","Chrome","138.0.0.0","Windows","10.0","https://app.prolific.com/","en-ZA,en-GB;q=0.9,en-US;q=0.8,en;q=0.7","614e1c414dff2e589169f360","686e379bc37a29ffa5cdc956","6877600a1b30321509059d9b","1","1","614e1c414dff2e589169f360","1","1","2025-07-16T08:40:32.285Z","","","","","","","","","","","","","","win-only","3","g1:SW,g2:NE","0.6","5","0","1361360.6","1990.3","6990.9","28738.4","1","4","4","6","2","-4","-4","0","4","0","1215.2","3000","-2725","[""up"",""right""]","{""num_key_presses"":6,""num_perfect"":3,""num_errors"":0,""num_randdir"":3,""num_randdir_good_moves"":1,""num_whilered"":0,""num_whileblue"":0,""num_blue"":1,""num_good_moves"":4}","[355.14285714285717,342.04910714285717,0.3,355.14285714285717,342.04910714285717,101.6,355.14285714285717,342.04910714285717,203.2,355.14285714285717,342.04910714285717,305.4,355.14285714285717,342.04910714285717,405.9,355.14285714285717,342.04910714285717,505.9,355.14285714285717,342.04910714285717,611.9,355.14285714285717,342.04910714285717,715.7,397.14285714285717,306.04910714285717,817.3,549.1428571428571,177.04910714285714,917.4,602.1428571428571,142.04910714285714,1020,607.1428571428571,99.04910714285714,1120.6,610.1428571428571,81.04910714285714,1229.7,611.1428571428571,80.04910714285714,1330.1,613.1428571428571,95.04910714285714,1435.4,627.1428571428571,236.04910714285714,1536.4,673.1428571428571,378.04910714285717,1640.6,673.1428571428571,381.04910714285717,1740.8,673.1428571428571,381.04910714285717,1845.6,673.1428571428571,381.04910714285717,1946.2,675.1428571428571,386.04910714285717,2050.9,675.1428571428571,387.04910714285717,2150.9,676.1428571428571,390.04910714285717,2251.1,676.1428571428571,393.04910714285717,2351.1,676.1428571428571,393.04910714285717,2451.3,676.1428571428571,393.04910714285717,2555.4,676.1428571428571,393.04910714285717,2656.2,677.1428571428571,400.04910714285717,2760.9,699.1428571428571,418.04910714285717,2865.8,931.1428571428571,472.04910714285717,2966.6,964.1428571428571,477.04910714285717,3070.8,964.1428571428571,477.04910714285717,3178.1,980.1428571428571,467.04910714285717,3280.6,985.1428571428571,460.04910714285717,3386.2,985.1428571428571,460.04910714285717,3495.6,985.1428571428571,460.04910714285717,3600.7,985.1428571428571,460.04910714285717,3705.1,985.1428571428571,460.04910714285717,3810.5,985.1428571428571,460.04910714285717,3911.2,985.1428571428571,460.04910714285717,4015.8,985.1428571428571,460.04910714285717,4120.3,985.1428571428571,460.04910714285717,4220.3,985.1428571428571,460.04910714285717,4320.9,985.1428571428571,460.04910714285717,4430,985.1428571428571,460.04910714285717,4531.1,985.1428571428571,460.04910714285717,4631.4,985.1428571428571,460.04910714285717,4736.1,985.1428571428571,460.04910714285717,4843.8,985.1428571428571,460.04910714285717,4945.8]","[1512.8,1512.8,1000,0,512.8,""smooth"",""right"",""right"",""good_move"",4485.9,2972.7,2461.7,1513.2,511,""oops"",""right"",""left"",""bad_move"",9973.9,5487.1,1746.9,7760.1,466.9,""oops"",""up"",""down"",""bad_move"",12656.7,2682.5,2193.9,9974.2,488.6,""smooth"",""right"",""right"",""good_move"",15892.3,3235.5,2601.7,12656.9,633.7,""oops"",""right"",""right"",""good_move"",19080.3,3187.9,2441,15892.4,746.9,""smooth"",""right"",""right"",""good_move""]","",""
"4446","","<div style=""width:500px;"">
  <p>What determined the result of this run?</p>
  </div>","12","html-slider-response","30","1394528","0.0-5.0-1.4","39","1","2025-07-16 08:17:20","1f75c3e559b7213887762d5229550c2b","197.245.162.70","Mozilla/5.0 (Windows NT 10.0; Win64; x64) AppleWebKit/537.36 (KHTML, like Gecko) Chrome/138.0.0.0 Safari/537.36","WebKit","Chrome","138.0.0.0","Windows","10.0","https://app.prolific.com/","en-ZA,en-GB;q=0.9,en-US;q=0.8,en;q=0.7","614e1c414dff2e589169f360","686e379bc37a29ffa5cdc956","6877600a1b30321509059d9b","1","1","614e1c414dff2e589169f360","1","1","2025-07-16T08:40:36.731Z","","","","","","","","","","","AttribQ","","50","","","","","","","","","","","","","","","","","","","","","","","","","","","","",""
"27121","","<div style=""width:500px;"">
  <p>How much control did you have over the ball?</p>
  </div>","14","html-slider-response","31","1421650","0.0-5.0-2.4","39","1","2025-07-16 08:17:20","1f75c3e559b7213887762d5229550c2b","197.245.162.70","Mozilla/5.0 (Windows NT 10.0; Win64; x64) AppleWebKit/537.36 (KHTML, like Gecko) Chrome/138.0.0.0 Safari/537.36","WebKit","Chrome","138.0.0.0","Windows","10.0","https://app.prolific.com/","en-ZA,en-GB;q=0.9,en-US;q=0.8,en;q=0.7","614e1c414dff2e589169f360","686e379bc37a29ffa5cdc956","6877600a1b30321509059d9b","1","1","614e1c414dff2e589169f360","1","1","2025-07-16T08:41:03.854Z","","","","","","","","","","","ControlQ","","50","","","","","","","","","","","","","","","","","","","","","","","","","","","","",""
"15072","","<div style=""width:500px;"">
  <p>How would you describe your current emotional state?</p>
  </div>","73","html-slider-response","32","1436725","0.0-5.0-3.4","39","1","2025-07-16 08:17:20","1f75c3e559b7213887762d5229550c2b","197.245.162.70","Mozilla/5.0 (Windows NT 10.0; Win64; x64) AppleWebKit/537.36 (KHTML, like Gecko) Chrome/138.0.0.0 Safari/537.36","WebKit","Chrome","138.0.0.0","Windows","10.0","https://app.prolific.com/","en-ZA,en-GB;q=0.9,en-US;q=0.8,en;q=0.7","614e1c414dff2e589169f360","686e379bc37a29ffa5cdc956","6877600a1b30321509059d9b","1","1","614e1c414dff2e589169f360","1","1","2025-07-16T08:41:18.928Z","","","","","","","","","","","StressQ","","50","","","","","","","","","","","","","","","","","","","","","","","","","","","","",""
"37220","","<div style=""width:500px;"">
  <p>What best describes how you currently feel?</p>
  </div>","59","html-slider-response","33","1473946","0.0-5.0-4.4","39","1","2025-07-16 08:17:20","1f75c3e559b7213887762d5229550c2b","197.245.162.70","Mozilla/5.0 (Windows NT 10.0; Win64; x64) AppleWebKit/537.36 (KHTML, like Gecko) Chrome/138.0.0.0 Safari/537.36","WebKit","Chrome","138.0.0.0","Windows","10.0","https://app.prolific.com/","en-ZA,en-GB;q=0.9,en-US;q=0.8,en;q=0.7","614e1c414dff2e589169f360","686e379bc37a29ffa5cdc956","6877600a1b30321509059d9b","1","1","614e1c414dff2e589169f360","1","1","2025-07-16T08:41:56.149Z","","","","","","","","","","","MotivationQ","","50","","","","","","","","","","","","","","","","","","","","","","","","","","","","",""
"","","","","ctl-task-cpt","34","1521536","0.0-5.0-0.5","39","1","2025-07-16 08:17:20","1f75c3e559b7213887762d5229550c2b","197.245.162.70","Mozilla/5.0 (Windows NT 10.0; Win64; x64) AppleWebKit/537.36 (KHTML, like Gecko) Chrome/138.0.0.0 Safari/537.36","WebKit","Chrome","138.0.0.0","Windows","10.0","https://app.prolific.com/","en-ZA,en-GB;q=0.9,en-US;q=0.8,en;q=0.7","614e1c414dff2e589169f360","686e379bc37a29ffa5cdc956","6877600a1b30321509059d9b","1","1","614e1c414dff2e589169f360","1","1","2025-07-16T08:42:43.739Z","","","","","","","","","","","","","","win-only","0","g1:NW,g2:SE","0.5","6","0","1476978.8","12123.9","17126","44565.4","1","4","8","6","2","-8","-8","0","0","0","1210.7","3000","-1910","[""down"",""right""]","{""num_key_presses"":9,""num_perfect"":4,""num_errors"":0,""num_randdir"":5,""num_randdir_good_moves"":3,""num_whilered"":0,""num_whileblue"":0,""num_blue"":0,""num_good_moves"":7}","[351.14285714285717,354.04910714285717,0.3,351.14285714285717,354.04910714285717,113.1,351.14285714285717,354.04910714285717,217.8,352.14285714285717,355.04910714285717,322.9,352.14285714285717,355.04910714285717,423.1,352.14285714285717,331.04910714285717,523.7,241.14285714285714,196.04910714285714,627.6,480.14285714285717,524.0491071428571,745.6,697.1428571428571,782.0491071428571,847.4,686.1428571428571,737.0491071428571,951.7,657.1428571428571,667.0491071428571,1051.8,648.1428571428571,649.0491071428571,1152.7,650.1428571428571,646.0491071428571,1257.7,652.1428571428571,645.0491071428571,1363.4,655.1428571428571,655.0491071428571,1467.2,659.1428571428571,683.0491071428571,1573.7,659.1428571428571,693.0491071428571,1677.9,659.1428571428571,693.0491071428571,1781.4,659.1428571428571,693.0491071428571,1887,659.1428571428571,693.0491071428571,1987.9,659.1428571428571,693.0491071428571,2092.4,659.1428571428571,693.0491071428571,2202.5,659.1428571428571,693.0491071428571,2304.3,659.1428571428571,693.0491071428571,2404.8,659.1428571428571,693.0491071428571,2506.9,659.1428571428571,693.0491071428571,2607.1,660.1428571428571,692.0491071428571,2707.5,660.1428571428571,692.0491071428571,2816,660.1428571428571,692.0491071428571,2918.5,660.1428571428571,692.0491071428571,3022.6,660.1428571428571,692.0491071428571,3127.2,660.1428571428571,692.0491071428571,3231.7,660.1428571428571,692.0491071428571,3332.2,660.1428571428571,692.0491071428571,3436.3,660.1428571428571,692.0491071428571,3536.5,660.1428571428571,692.0491071428571,3636.7,660.1428571428571,692.0491071428571,3737,660.1428571428571,692.0491071428571,3841.8,660.1428571428571,692.0491071428571,3941.8,660.1428571428571,692.0491071428571,4041.9,660.1428571428571,692.0491071428571,4150.6,660.1428571428571,692.0491071428571,4253.1,660.1428571428571,692.0491071428571,4356.8,660.1428571428571,692.0491071428571,4465,660.1428571428571,692.0491071428571,4570.4,660.1428571428571,692.0491071428571,4672.4,660.1428571428571,692.0491071428571,4781.2,660.1428571428571,692.0491071428571,4881.9,660.1428571428571,692.0491071428571,4981.9]","[1519.5,1519.5,1000,0,519.5,""smooth"",""down"",""down"",""good_move"",3967.5,2447.6,2004.3,1519.9,443.3,""smooth"",""down"",""down"",""good_move"",6503.1,2535.4,2126.4,3967.7,409,""oops"",""down"",""left"",""bad_move"",9586.2,3082.8,2700.8,6503.4,382,""smooth"",""down"",""down"",""good_move"",12630.6,3044,2699,9586.6,345,""oops"",""right"",""left"",""bad_move"",16122.6,3491.9,3072.1,12630.7,419.8,""smooth"",""right"",""right"",""good_move"",19063.5,2940.6,2599.2,16122.9,341.4,""oops"",""right"",""right"",""good_move"",21739.1,2674.3,2313.2,19064.9,361,""oops"",""right"",""right"",""good_move"",24647.9,2908.5,2549.4,21739.4,359.1,""oops"",""right"",""right"",""good_move""]","",""
"13324","","<div style=""width:500px;"">
  <p>What determined the result of this run?</p>
  </div>","4","html-slider-response","35","1534862","0.0-5.0-1.5","39","1","2025-07-16 08:17:20","1f75c3e559b7213887762d5229550c2b","197.245.162.70","Mozilla/5.0 (Windows NT 10.0; Win64; x64) AppleWebKit/537.36 (KHTML, like Gecko) Chrome/138.0.0.0 Safari/537.36","WebKit","Chrome","138.0.0.0","Windows","10.0","https://app.prolific.com/","en-ZA,en-GB;q=0.9,en-US;q=0.8,en;q=0.7","614e1c414dff2e589169f360","686e379bc37a29ffa5cdc956","6877600a1b30321509059d9b","1","1","614e1c414dff2e589169f360","1","1","2025-07-16T08:42:57.065Z","","","","","","","","","","","AttribQ","","50","","","","","","","","","","","","","","","","","","","","","","","","","","","","",""
"166711","","<div style=""width:500px;"">
  <p>How much control did you have over the ball?</p>
  </div>","10","html-slider-response","36","1701576","0.0-5.0-2.5","39","1","2025-07-16 08:17:20","1f75c3e559b7213887762d5229550c2b","197.245.162.70","Mozilla/5.0 (Windows NT 10.0; Win64; x64) AppleWebKit/537.36 (KHTML, like Gecko) Chrome/138.0.0.0 Safari/537.36","WebKit","Chrome","138.0.0.0","Windows","10.0","https://app.prolific.com/","en-ZA,en-GB;q=0.9,en-US;q=0.8,en;q=0.7","614e1c414dff2e589169f360","686e379bc37a29ffa5cdc956","6877600a1b30321509059d9b","1","1","614e1c414dff2e589169f360","1","1","2025-07-16T08:45:43.779Z","","","","","","","","","","","ControlQ","","50","","","","","","","","","","","","","","","","","","","","","","","","","","","","",""
"3398","","<div style=""width:500px;"">
  <p>How would you describe your current emotional state?</p>
  </div>","70","html-slider-response","37","1704975","0.0-5.0-3.5","39","1","2025-07-16 08:17:20","1f75c3e559b7213887762d5229550c2b","197.245.162.70","Mozilla/5.0 (Windows NT 10.0; Win64; x64) AppleWebKit/537.36 (KHTML, like Gecko) Chrome/138.0.0.0 Safari/537.36","WebKit","Chrome","138.0.0.0","Windows","10.0","https://app.prolific.com/","en-ZA,en-GB;q=0.9,en-US;q=0.8,en;q=0.7","614e1c414dff2e589169f360","686e379bc37a29ffa5cdc956","6877600a1b30321509059d9b","1","1","614e1c414dff2e589169f360","1","1","2025-07-16T08:45:47.178Z","","","","","","","","","","","StressQ","","50","","","","","","","","","","","","","","","","","","","","","","","","","","","","",""
"10277","","<div style=""width:500px;"">
  <p>What best describes how you currently feel?</p>
  </div>","66","html-slider-response","38","1715253","0.0-5.0-4.5","39","1","2025-07-16 08:17:20","1f75c3e559b7213887762d5229550c2b","197.245.162.70","Mozilla/5.0 (Windows NT 10.0; Win64; x64) AppleWebKit/537.36 (KHTML, like Gecko) Chrome/138.0.0.0 Safari/537.36","WebKit","Chrome","138.0.0.0","Windows","10.0","https://app.prolific.com/","en-ZA,en-GB;q=0.9,en-US;q=0.8,en;q=0.7","614e1c414dff2e589169f360","686e379bc37a29ffa5cdc956","6877600a1b30321509059d9b","1","1","614e1c414dff2e589169f360","1","1","2025-07-16T08:45:57.456Z","","","","","","","","","","","MotivationQ","","50","","","","","","","","","","","","","","","","","","","","","","","","","","","","",""
"","","","","ctl-task-cpt","39","1757117","0.0-5.0-0.6","39","1","2025-07-16 08:17:20","1f75c3e559b7213887762d5229550c2b","197.245.162.70","Mozilla/5.0 (Windows NT 10.0; Win64; x64) AppleWebKit/537.36 (KHTML, like Gecko) Chrome/138.0.0.0 Safari/537.36","WebKit","Chrome","138.0.0.0","Windows","10.0","https://app.prolific.com/","en-ZA,en-GB;q=0.9,en-US;q=0.8,en;q=0.7","614e1c414dff2e589169f360","686e379bc37a29ffa5cdc956","6877600a1b30321509059d9b","1","1","614e1c414dff2e589169f360","1","1","2025-07-16T08:46:39.320Z","","","","","","","","","","","","","","win-only","3","g1:SW,g2:NE","0.4","7","0","1718285","5127.6","10135.3","38840.7","1","4","4","6","2","-4","-5","0","0","0","1082.9","3000","-1965","[""up"",""right""]","{""num_key_presses"":9,""num_perfect"":3,""num_errors"":1,""num_randdir"":5,""num_randdir_good_moves"":1,""num_whilered"":0,""num_whileblue"":1,""num_blue"":1,""num_good_moves"":5}","[342.14285714285717,349.04910714285717,0.4,342.14285714285717,349.04910714285717,101.2,344.14285714285717,349.04910714285717,203.6,344.14285714285717,349.04910714285717,314.6,344.14285714285717,347.04910714285717,418.1,345.14285714285717,339.04910714285717,522.1,337.14285714285717,346.04910714285717,625.9,406.14285714285717,316.04910714285717,730,576.1428571428571,133.04910714285714,834.5,613.1428571428571,90.04910714285714,938.6,619.1428571428571,80.04910714285714,1038.6,619.1428571428571,80.04910714285714,1138.9,620.1428571428571,81.04910714285714,1244.4,603.1428571428571,106.04910714285714,1352.4,569.1428571428571,190.04910714285714,1453.5,605.1428571428571,261.04910714285717,1554.5,608.1428571428571,291.04910714285717,1661.6,609.1428571428571,292.04910714285717,1766.4,609.1428571428571,292.04910714285717,1868.5,609.1428571428571,292.04910714285717,1969.4,609.1428571428571,292.04910714285717,2078.2,609.1428571428571,292.04910714285717,2178.2,609.1428571428571,292.04910714285717,2278.2,609.1428571428571,292.04910714285717,2379.1,609.1428571428571,292.04910714285717,2483.8,609.1428571428571,292.04910714285717,2584,609.1428571428571,292.04910714285717,2684,609.1428571428571,292.04910714285717,2788.3,609.1428571428571,292.04910714285717,2889.1,609.1428571428571,292.04910714285717,2992.7,609.1428571428571,292.04910714285717,3100.3,609.1428571428571,292.04910714285717,3203.2,609.1428571428571,292.04910714285717,3311.9,609.1428571428571,292.04910714285717,3414.9,609.1428571428571,292.04910714285717,3515.1,609.1428571428571,292.04910714285717,3618.4,609.1428571428571,292.04910714285717,3720.4,609.1428571428571,292.04910714285717,3827.9,609.1428571428571,292.04910714285717,3929.4,609.1428571428571,292.04910714285717,4033.1,609.1428571428571,292.04910714285717,4138.3,609.1428571428571,292.04910714285717,4242.7,609.1428571428571,292.04910714285717,4348.2,609.1428571428571,292.04910714285717,4453.6,609.1428571428571,292.04910714285717,4565.8,609.1428571428571,292.04910714285717,4666.2,609.1428571428571,292.04910714285717,4769.5,609.1428571428571,292.04910714285717,4873.4,609.1428571428571,292.04910714285717,4974.5]","[1479.1,1479.1,1000,0,479.1,""oops"",""up"",""left"",""bad_move"",4974.8,3495.3,3047.8,1479.5,447.5,""smooth"",""up"",""up"",""good_move"",8216.4,3241.1,2792.7,4975.3,448.4,""smooth"",""up"",""up"",""good_move"",11685.4,3468.8,3005,8216.6,463.8,""oops"",""up"",""left"",""bad_move"",14883,3197.2,2760.2,11685.8,437,""smooth"",""up"",""up"",""good_move"",17894.3,3011.1,2485.8,14883.2,525.3,""oops"",""right"",""down"",""bad_move"",20410.7,2515.8,2154.7,17894.9,361.1,""oops"",""right"",""up"",""good_move"",23273.2,2862.2,2441,20411,421.2,""oops"",""right"",""down"",""bad_move"",25710.3,2436.2,2036.4,23274.1,399.8,""while_blue"",""right"",""up"",""good_move""]","",""
"9266","","<div style=""width:500px;"">
  <p>What determined the result of this run?</p>
  </div>","7","html-slider-response","40","1766384","0.0-5.0-1.6","39","1","2025-07-16 08:17:20","1f75c3e559b7213887762d5229550c2b","197.245.162.70","Mozilla/5.0 (Windows NT 10.0; Win64; x64) AppleWebKit/537.36 (KHTML, like Gecko) Chrome/138.0.0.0 Safari/537.36","WebKit","Chrome","138.0.0.0","Windows","10.0","https://app.prolific.com/","en-ZA,en-GB;q=0.9,en-US;q=0.8,en;q=0.7","614e1c414dff2e589169f360","686e379bc37a29ffa5cdc956","6877600a1b30321509059d9b","1","1","614e1c414dff2e589169f360","1","1","2025-07-16T08:46:48.587Z","","","","","","","","","","","AttribQ","","50","","","","","","","","","","","","","","","","","","","","","","","","","","","","",""
"3048","","<div style=""width:500px;"">
  <p>How much control did you have over the ball?</p>
  </div>","3","html-slider-response","41","1769434","0.0-5.0-2.6","39","1","2025-07-16 08:17:20","1f75c3e559b7213887762d5229550c2b","197.245.162.70","Mozilla/5.0 (Windows NT 10.0; Win64; x64) AppleWebKit/537.36 (KHTML, like Gecko) Chrome/138.0.0.0 Safari/537.36","WebKit","Chrome","138.0.0.0","Windows","10.0","https://app.prolific.com/","en-ZA,en-GB;q=0.9,en-US;q=0.8,en;q=0.7","614e1c414dff2e589169f360","686e379bc37a29ffa5cdc956","6877600a1b30321509059d9b","1","1","614e1c414dff2e589169f360","1","1","2025-07-16T08:46:51.637Z","","","","","","","","","","","ControlQ","","50","","","","","","","","","","","","","","","","","","","","","","","","","","","","",""
"35046","","<div style=""width:500px;"">
  <p>How would you describe your current emotional state?</p>
  </div>","10","html-slider-response","42","1804480","0.0-5.0-3.6","39","1","2025-07-16 08:17:20","1f75c3e559b7213887762d5229550c2b","197.245.162.70","Mozilla/5.0 (Windows NT 10.0; Win64; x64) AppleWebKit/537.36 (KHTML, like Gecko) Chrome/138.0.0.0 Safari/537.36","WebKit","Chrome","138.0.0.0","Windows","10.0","https://app.prolific.com/","en-ZA,en-GB;q=0.9,en-US;q=0.8,en;q=0.7","614e1c414dff2e589169f360","686e379bc37a29ffa5cdc956","6877600a1b30321509059d9b","1","1","614e1c414dff2e589169f360","1","1","2025-07-16T08:47:26.683Z","","","","","","","","","","","StressQ","","50","","","","","","","","","","","","","","","","","","","","","","","","","","","","",""
"32414","","<div style=""width:500px;"">
  <p>What best describes how you currently feel?</p>
  </div>","73","html-slider-response","43","1836895","0.0-5.0-4.6","39","1","2025-07-16 08:17:20","1f75c3e559b7213887762d5229550c2b","197.245.162.70","Mozilla/5.0 (Windows NT 10.0; Win64; x64) AppleWebKit/537.36 (KHTML, like Gecko) Chrome/138.0.0.0 Safari/537.36","WebKit","Chrome","138.0.0.0","Windows","10.0","https://app.prolific.com/","en-ZA,en-GB;q=0.9,en-US;q=0.8,en;q=0.7","614e1c414dff2e589169f360","686e379bc37a29ffa5cdc956","6877600a1b30321509059d9b","1","1","614e1c414dff2e589169f360","1","1","2025-07-16T08:47:59.098Z","","","","","","","","","","","MotivationQ","","50","","","","","","","","","","","","","","","","","","","","","","","","","","","","",""
"","","","","ctl-task-cpt","44","1887599","0.0-5.0-0.7","39","1","2025-07-16 08:17:20","1f75c3e559b7213887762d5229550c2b","197.245.162.70","Mozilla/5.0 (Windows NT 10.0; Win64; x64) AppleWebKit/537.36 (KHTML, like Gecko) Chrome/138.0.0.0 Safari/537.36","WebKit","Chrome","138.0.0.0","Windows","10.0","https://app.prolific.com/","en-ZA,en-GB;q=0.9,en-US;q=0.8,en;q=0.7","614e1c414dff2e589169f360","686e379bc37a29ffa5cdc956","6877600a1b30321509059d9b","1","1","614e1c414dff2e589169f360","1","1","2025-07-16T08:48:49.802Z","","","","","","","","","","","","","","win-only","3","g1:SW,g2:NE","0.3","8","0","1839927.1","5290.2","10291.8","47677.3","1","4","8","6","2","-8","-9","0","0","0","1200.1","3000","-2345","[""up"",""right""]","{""num_key_presses"":7,""num_perfect"":2,""num_errors"":1,""num_randdir"":4,""num_randdir_good_moves"":0,""num_whilered"":0,""num_whileblue"":0,""num_blue"":5,""num_good_moves"":2}","[341.14285714285717,350.04910714285717,0.2,341.14285714285717,350.04910714285717,100.2,341.14285714285717,350.04910714285717,201,341.14285714285717,350.04910714285717,305.2,341.14285714285717,350.04910714285717,406.1,339.14285714285717,350.04910714285717,506.7,329.14285714285717,354.04910714285717,615.3,404.14285714285717,282.04910714285717,716.3,550.1428571428571,107.04910714285714,818.8,550.1428571428571,104.04910714285714,921.7,567.1428571428571,96.04910714285714,1025.9,601.1428571428571,73.04910714285714,1125.9,607.1428571428571,68.04910714285714,1231.1,608.1428571428571,67.04910714285714,1332.3,605.1428571428571,81.04910714285714,1436.8,642.1428571428571,151.04910714285714,1542.1,669.1428571428571,178.04910714285714,1648.2,669.1428571428571,178.04910714285714,1750.5,669.1428571428571,178.04910714285714,1850.6,669.1428571428571,178.04910714285714,1951.4,669.1428571428571,178.04910714285714,2056.7,669.1428571428571,178.04910714285714,2160.6,669.1428571428571,178.04910714285714,2263.8,669.1428571428571,178.04910714285714,2365.4,669.1428571428571,178.04910714285714,2467.4,669.1428571428571,178.04910714285714,2570.4,669.1428571428571,178.04910714285714,2671.5,669.1428571428571,178.04910714285714,2771.9,669.1428571428571,178.04910714285714,2875.8,669.1428571428571,178.04910714285714,2986.9,669.1428571428571,178.04910714285714,3090.1,669.1428571428571,178.04910714285714,3190.9,669.1428571428571,178.04910714285714,3295.5,669.1428571428571,178.04910714285714,3397.1,669.1428571428571,178.04910714285714,3500.5,669.1428571428571,178.04910714285714,3601.9,669.1428571428571,178.04910714285714,3702.2,669.1428571428571,178.04910714285714,3806.9,669.1428571428571,178.04910714285714,3910.1,669.1428571428571,178.04910714285714,4011.2,669.1428571428571,178.04910714285714,4113.2,669.1428571428571,178.04910714285714,4217.4,669.1428571428571,178.04910714285714,4321.1,669.1428571428571,178.04910714285714,4421.1,669.1428571428571,178.04910714285714,4522,669.1428571428571,178.04910714285714,4629.9,669.1428571428571,178.04910714285714,4730.7,669.1428571428571,178.04910714285714,4835.5,669.1428571428571,178.04910714285714,4942.1]","[1493.3,1493.3,1000,0,493.3,""oops"",""right"",""left"",""bad_move"",4528.2,3034.6,2553.8,1493.6,480.8,""oops"",""up"",""left"",""bad_move"",12888.2,8359.8,1992.8,10453.9,441.5,""smooth"",""up"",""up"",""good_move"",15670.7,2782.1,2303.6,12888.6,478.5,""oops"",""up"",""down"",""bad_move"",25787.7,10116.5,2569.6,22574.2,643.9,""smooth"",""up"",""up"",""good_move"",30695.5,4907.4,2896.7,29585.3,-1786.5,""error"",""-"",""-"",""no_move"",34907.8,4212.1,2749.6,31703.2,455,""oops"",""up"",""down"",""bad_move""]","",""
"3482","","<div style=""width:500px;"">
  <p>What determined the result of this run?</p>
  </div>","1","html-slider-response","45","1891082","0.0-5.0-1.7","39","1","2025-07-16 08:17:20","1f75c3e559b7213887762d5229550c2b","197.245.162.70","Mozilla/5.0 (Windows NT 10.0; Win64; x64) AppleWebKit/537.36 (KHTML, like Gecko) Chrome/138.0.0.0 Safari/537.36","WebKit","Chrome","138.0.0.0","Windows","10.0","https://app.prolific.com/","en-ZA,en-GB;q=0.9,en-US;q=0.8,en;q=0.7","614e1c414dff2e589169f360","686e379bc37a29ffa5cdc956","6877600a1b30321509059d9b","1","1","614e1c414dff2e589169f360","1","1","2025-07-16T08:48:53.286Z","","","","","","","","","","","AttribQ","","50","","","","","","","","","","","","","","","","","","","","","","","","","","","","",""
"3134","","<div style=""width:500px;"">
  <p>How much control did you have over the ball?</p>
  </div>","5","html-slider-response","46","1894217","0.0-5.0-2.7","39","1","2025-07-16 08:17:20","1f75c3e559b7213887762d5229550c2b","197.245.162.70","Mozilla/5.0 (Windows NT 10.0; Win64; x64) AppleWebKit/537.36 (KHTML, like Gecko) Chrome/138.0.0.0 Safari/537.36","WebKit","Chrome","138.0.0.0","Windows","10.0","https://app.prolific.com/","en-ZA,en-GB;q=0.9,en-US;q=0.8,en;q=0.7","614e1c414dff2e589169f360","686e379bc37a29ffa5cdc956","6877600a1b30321509059d9b","1","1","614e1c414dff2e589169f360","1","1","2025-07-16T08:48:56.420Z","","","","","","","","","","","ControlQ","","50","","","","","","","","","","","","","","","","","","","","","","","","","","","","",""
"4907","","<div style=""width:500px;"">
  <p>How would you describe your current emotional state?</p>
  </div>","87","html-slider-response","47","1899125","0.0-5.0-3.7","39","1","2025-07-16 08:17:20","1f75c3e559b7213887762d5229550c2b","197.245.162.70","Mozilla/5.0 (Windows NT 10.0; Win64; x64) AppleWebKit/537.36 (KHTML, like Gecko) Chrome/138.0.0.0 Safari/537.36","WebKit","Chrome","138.0.0.0","Windows","10.0","https://app.prolific.com/","en-ZA,en-GB;q=0.9,en-US;q=0.8,en;q=0.7","614e1c414dff2e589169f360","686e379bc37a29ffa5cdc956","6877600a1b30321509059d9b","1","1","614e1c414dff2e589169f360","1","1","2025-07-16T08:49:01.329Z","","","","","","","","","","","StressQ","","50","","","","","","","","","","","","","","","","","","","","","","","","","","","","",""
"24017","","<div style=""width:500px;"">
  <p>What best describes how you currently feel?</p>
  </div>","72","html-slider-response","48","1923143","0.0-5.0-4.7","39","1","2025-07-16 08:17:20","1f75c3e559b7213887762d5229550c2b","197.245.162.70","Mozilla/5.0 (Windows NT 10.0; Win64; x64) AppleWebKit/537.36 (KHTML, like Gecko) Chrome/138.0.0.0 Safari/537.36","WebKit","Chrome","138.0.0.0","Windows","10.0","https://app.prolific.com/","en-ZA,en-GB;q=0.9,en-US;q=0.8,en;q=0.7","614e1c414dff2e589169f360","686e379bc37a29ffa5cdc956","6877600a1b30321509059d9b","1","1","614e1c414dff2e589169f360","1","1","2025-07-16T08:49:25.346Z","","","","","","","","","","","MotivationQ","","50","","","","","","","","","","","","","","","","","","","","","","","","","","","","",""
"","","","","ctl-task-cpt","49","1983851","0.0-5.0-0.8","39","1","2025-07-16 08:17:20","1f75c3e559b7213887762d5229550c2b","197.245.162.70","Mozilla/5.0 (Windows NT 10.0; Win64; x64) AppleWebKit/537.36 (KHTML, like Gecko) Chrome/138.0.0.0 Safari/537.36","WebKit","Chrome","138.0.0.0","Windows","10.0","https://app.prolific.com/","en-ZA,en-GB;q=0.9,en-US;q=0.8,en;q=0.7","614e1c414dff2e589169f360","686e379bc37a29ffa5cdc956","6877600a1b30321509059d9b","1","1","614e1c414dff2e589169f360","1","1","2025-07-16T08:50:26.054Z","","","","","","","","","","","","","","win-only","3","g1:SW,g2:NE","0.2","9","0","1926174.8","1278.8","6281.4","57680.2","1","4","4","6","2","-4","-5","0","0","0","834","3000","-2390","[""up"",""right""]","{""num_key_presses"":9,""num_perfect"":2,""num_errors"":1,""num_randdir"":6,""num_randdir_good_moves"":3,""num_whilered"":0,""num_whileblue"":1,""num_blue"":7,""num_good_moves"":6}","[346.14285714285717,355.04910714285717,0.1,346.14285714285717,354.04910714285717,100.6,346.14285714285717,354.04910714285717,203.2,346.14285714285717,354.04910714285717,309.9,346.14285714285717,354.04910714285717,414.6,406.14285714285717,320.04910714285717,518.7,581.1428571428571,151.04910714285714,620,641.1428571428571,67.04910714285714,720,645.1428571428571,51.049107142857146,822.3,645.1428571428571,51.049107142857146,922.3,645.1428571428571,51.049107142857146,1028.9,643.1428571428571,67.04910714285714,1141.1,636.1428571428571,140.04910714285714,1245.5,663.1428571428571,197.04910714285714,1346.6,668.1428571428571,202.04910714285714,1451.6,668.1428571428571,202.04910714285714,1557.3,668.1428571428571,202.04910714285714,1665.2,668.1428571428571,202.04910714285714,1768.4,668.1428571428571,202.04910714285714,1869,668.1428571428571,202.04910714285714,1974.1,668.1428571428571,202.04910714285714,2081.3,668.1428571428571,202.04910714285714,2183.3,668.1428571428571,202.04910714285714,2287.1,668.1428571428571,202.04910714285714,2396.6,668.1428571428571,202.04910714285714,2497.2,668.1428571428571,202.04910714285714,2597.9,668.1428571428571,202.04910714285714,2704.8,668.1428571428571,202.04910714285714,2807.3,668.1428571428571,202.04910714285714,2908.6,668.1428571428571,202.04910714285714,3009.5,668.1428571428571,202.04910714285714,3110.6,668.1428571428571,202.04910714285714,3216,668.1428571428571,202.04910714285714,3326.2,668.1428571428571,202.04910714285714,3427,668.1428571428571,202.04910714285714,3535,668.1428571428571,202.04910714285714,3637.4,668.1428571428571,202.04910714285714,3752.2,668.1428571428571,202.04910714285714,3864.1,668.1428571428571,202.04910714285714,3971.7,668.1428571428571,202.04910714285714,4075.8,668.1428571428571,202.04910714285714,4191.2,668.1428571428571,202.04910714285714,4294.4,668.1428571428571,202.04910714285714,4397.3,668.1428571428571,202.04910714285714,4510.6,668.1428571428571,202.04910714285714,4614.5,668.1428571428571,202.04910714285714,4717.3,668.1428571428571,202.04910714285714,4823,668.1428571428571,202.04910714285714,4926.2]","[5359,5359,2944.4,2008.3,406.3,""while_blue"",""right"",""up"",""good_move"",12375.7,7016.4,2939.1,8943.8,492.8,""smooth"",""right"",""right"",""good_move"",19602.1,7225.8,2918.9,16276.4,406.8,""oops"",""right"",""down"",""bad_move"",23231.7,3629.3,3033,19602.4,596.3,""oops"",""right"",""up"",""good_move"",25728.5,2496.4,1867.6,23232.1,628.8,""oops"",""right"",""right"",""good_move"",28986.9,3257.8,2721.3,25729.1,536.5,""smooth"",""right"",""right"",""good_move"",32790.2,3803.1,3362.3,28987.2,440.7,""oops"",""up"",""up"",""good_move"",39817.2,7026.6,2776.4,36619.3,421.5,""oops"",""up"",""left"",""bad_move"",45101.8,5284.3,1733.9,42871,496.9,""oops"",""up"",""down"",""bad_move""]","",""
"2562","","<div style=""width:500px;"">
  <p>What determined the result of this run?</p>
  </div>","9","html-slider-response","50","1986415","0.0-5.0-1.8","39","1","2025-07-16 08:17:20","1f75c3e559b7213887762d5229550c2b","197.245.162.70","Mozilla/5.0 (Windows NT 10.0; Win64; x64) AppleWebKit/537.36 (KHTML, like Gecko) Chrome/138.0.0.0 Safari/537.36","WebKit","Chrome","138.0.0.0","Windows","10.0","https://app.prolific.com/","en-ZA,en-GB;q=0.9,en-US;q=0.8,en;q=0.7","614e1c414dff2e589169f360","686e379bc37a29ffa5cdc956","6877600a1b30321509059d9b","1","1","614e1c414dff2e589169f360","1","1","2025-07-16T08:50:28.618Z","","","","","","","","","","","AttribQ","","50","","","","","","","","","","","","","","","","","","","","","","","","","","","","",""
"27003","","<div style=""width:500px;"">
  <p>How much control did you have over the ball?</p>
  </div>","2","html-slider-response","51","2013418","0.0-5.0-2.8","39","1","2025-07-16 08:17:20","1f75c3e559b7213887762d5229550c2b","197.245.162.70","Mozilla/5.0 (Windows NT 10.0; Win64; x64) AppleWebKit/537.36 (KHTML, like Gecko) Chrome/138.0.0.0 Safari/537.36","WebKit","Chrome","138.0.0.0","Windows","10.0","https://app.prolific.com/","en-ZA,en-GB;q=0.9,en-US;q=0.8,en;q=0.7","614e1c414dff2e589169f360","686e379bc37a29ffa5cdc956","6877600a1b30321509059d9b","1","1","614e1c414dff2e589169f360","1","1","2025-07-16T08:50:55.621Z","","","","","","","","","","","ControlQ","","50","","","","","","","","","","","","","","","","","","","","","","","","","","","","",""
"3395","","<div style=""width:500px;"">
  <p>How would you describe your current emotional state?</p>
  </div>","78","html-slider-response","52","2016815","0.0-5.0-3.8","39","1","2025-07-16 08:17:20","1f75c3e559b7213887762d5229550c2b","197.245.162.70","Mozilla/5.0 (Windows NT 10.0; Win64; x64) AppleWebKit/537.36 (KHTML, like Gecko) Chrome/138.0.0.0 Safari/537.36","WebKit","Chrome","138.0.0.0","Windows","10.0","https://app.prolific.com/","en-ZA,en-GB;q=0.9,en-US;q=0.8,en;q=0.7","614e1c414dff2e589169f360","686e379bc37a29ffa5cdc956","6877600a1b30321509059d9b","1","1","614e1c414dff2e589169f360","1","1","2025-07-16T08:50:59.018Z","","","","","","","","","","","StressQ","","50","","","","","","","","","","","","","","","","","","","","","","","","","","","","",""
"3932","","<div style=""width:500px;"">
  <p>What best describes how you currently feel?</p>
  </div>","16","html-slider-response","53","2020748","0.0-5.0-4.8","39","1","2025-07-16 08:17:20","1f75c3e559b7213887762d5229550c2b","197.245.162.70","Mozilla/5.0 (Windows NT 10.0; Win64; x64) AppleWebKit/537.36 (KHTML, like Gecko) Chrome/138.0.0.0 Safari/537.36","WebKit","Chrome","138.0.0.0","Windows","10.0","https://app.prolific.com/","en-ZA,en-GB;q=0.9,en-US;q=0.8,en;q=0.7","614e1c414dff2e589169f360","686e379bc37a29ffa5cdc956","6877600a1b30321509059d9b","1","1","614e1c414dff2e589169f360","1","1","2025-07-16T08:51:02.951Z","","","","","","","","","","","MotivationQ","","50","","","","","","","","","","","","","","","","","","","","","","","","","","","","",""
"","","","","ctl-task-cpt","54","2068168","0.0-5.0-0.9","39","1","2025-07-16 08:17:20","1f75c3e559b7213887762d5229550c2b","197.245.162.70","Mozilla/5.0 (Windows NT 10.0; Win64; x64) AppleWebKit/537.36 (KHTML, like Gecko) Chrome/138.0.0.0 Safari/537.36","WebKit","Chrome","138.0.0.0","Windows","10.0","https://app.prolific.com/","en-ZA,en-GB;q=0.9,en-US;q=0.8,en;q=0.7","614e1c414dff2e589169f360","686e379bc37a29ffa5cdc956","6877600a1b30321509059d9b","1","1","614e1c414dff2e589169f360","1","1","2025-07-16T08:51:50.371Z","","","","","","","","","","","","","","win-only","0","g1:NW,g2:SE","0.4","10","0","2023780.4","6291.1","11292.5","44398.2","1","4","8","6","2","-8","-8","0","0","0","1231.9","3000","-2240","[""down"",""right""]","{""num_key_presses"":7,""num_perfect"":4,""num_errors"":0,""num_randdir"":3,""num_randdir_good_moves"":2,""num_whilered"":0,""num_whileblue"":0,""num_blue"":3,""num_good_moves"":6}","[347.14285714285717,347.04910714285717,0.2,347.14285714285717,347.04910714285717,100,347.14285714285717,347.04910714285717,203.2,347.14285714285717,347.04910714285717,307.9,347.14285714285717,347.04910714285717,412.9,347.14285714285717,347.04910714285717,519.6,347.14285714285717,347.04910714285717,621.4,347.14285714285717,347.04910714285717,721.7,673.1428571428571,566.0491071428571,824.1,746.1428571428571,659.0491071428571,930.9,730.1428571428571,636.0491071428571,1037.1,659.1428571428571,628.0491071428571,1137.4,654.1428571428571,632.0491071428571,1239.6,653.1428571428571,632.0491071428571,1350.4,652.1428571428571,636.0491071428571,1452.3,641.1428571428571,651.0491071428571,1554,636.1428571428571,662.0491071428571,1670.5,634.1428571428571,683.0491071428571,1770.6,670.1428571428571,726.0491071428571,1874.6,711.1428571428571,752.0491071428571,1984.2,711.1428571428571,752.0491071428571,2087,712.1428571428571,749.0491071428571,2189.9,712.1428571428571,747.0491071428571,2290.1,711.1428571428571,740.0491071428571,2390.5,710.1428571428571,739.0491071428571,2502,710.1428571428571,739.0491071428571,2603.7,710.1428571428571,739.0491071428571,2704,710.1428571428571,739.0491071428571,2806.1,709.1428571428571,736.0491071428571,2916.6,709.1428571428571,735.0491071428571,3021.4,709.1428571428571,735.0491071428571,3126.2,709.1428571428571,735.0491071428571,3231.2,709.1428571428571,735.0491071428571,3332.1,709.1428571428571,735.0491071428571,3434.8,698.1428571428571,723.0491071428571,3537.3,686.1428571428571,716.0491071428571,3638,684.1428571428571,728.0491071428571,3739.5,683.1428571428571,735.0491071428571,3841.2,683.1428571428571,742.0491071428571,3943.3,682.1428571428571,747.0491071428571,4047.4,682.1428571428571,747.0491071428571,4152,682.1428571428571,747.0491071428571,4252.8,682.1428571428571,748.0491071428571,4355.1,682.1428571428571,748.0491071428571,4460.4,682.1428571428571,748.0491071428571,4562.3,682.1428571428571,748.0491071428571,4667.7,682.1428571428571,748.0491071428571,4769.1,682.1428571428571,749.0491071428571,4869.5,682.1428571428571,751.0491071428571,4975.7]","[1489.7,1489.7,1000,0,489.7,""oops"",""down"",""right"",""good_move"",7497.5,6007.5,2406.9,4683.1,407.5,""smooth"",""down"",""down"",""good_move"",11460.5,3962.8,2987.6,7497.7,975.2,""smooth"",""down"",""down"",""good_move"",14330.4,2869.6,2124.1,11460.8,745.5,""oops"",""down"",""left"",""bad_move"",20973.5,6642.4,2809.5,17778.8,385.2,""smooth"",""down"",""down"",""good_move"",24837.1,3863.3,3390.2,20973.8,473.1,""smooth"",""right"",""right"",""good_move"",30822.4,5984.4,2409,28004,409.4,""oops"",""right"",""right"",""good_move""]","",""
"2212","","<div style=""width:500px;"">
  <p>What determined the result of this run?</p>
  </div>","9","html-slider-response","55","2070382","0.0-5.0-1.9","39","1","2025-07-16 08:17:20","1f75c3e559b7213887762d5229550c2b","197.245.162.70","Mozilla/5.0 (Windows NT 10.0; Win64; x64) AppleWebKit/537.36 (KHTML, like Gecko) Chrome/138.0.0.0 Safari/537.36","WebKit","Chrome","138.0.0.0","Windows","10.0","https://app.prolific.com/","en-ZA,en-GB;q=0.9,en-US;q=0.8,en;q=0.7","614e1c414dff2e589169f360","686e379bc37a29ffa5cdc956","6877600a1b30321509059d9b","1","1","614e1c414dff2e589169f360","1","1","2025-07-16T08:51:52.585Z","","","","","","","","","","","AttribQ","","50","","","","","","","","","","","","","","","","","","","","","","","","","","","","",""
"3060","","<div style=""width:500px;"">
  <p>How much control did you have over the ball?</p>
  </div>","4","html-slider-response","56","2073442","0.0-5.0-2.9","39","1","2025-07-16 08:17:20","1f75c3e559b7213887762d5229550c2b","197.245.162.70","Mozilla/5.0 (Windows NT 10.0; Win64; x64) AppleWebKit/537.36 (KHTML, like Gecko) Chrome/138.0.0.0 Safari/537.36","WebKit","Chrome","138.0.0.0","Windows","10.0","https://app.prolific.com/","en-ZA,en-GB;q=0.9,en-US;q=0.8,en;q=0.7","614e1c414dff2e589169f360","686e379bc37a29ffa5cdc956","6877600a1b30321509059d9b","1","1","614e1c414dff2e589169f360","1","1","2025-07-16T08:51:55.645Z","","","","","","","","","","","ControlQ","","50","","","","","","","","","","","","","","","","","","","","","","","","","","","","",""
"8346","","<div style=""width:500px;"">
  <p>How would you describe your current emotional state?</p>
  </div>","79","html-slider-response","57","2081789","0.0-5.0-3.9","39","1","2025-07-16 08:17:20","1f75c3e559b7213887762d5229550c2b","197.245.162.70","Mozilla/5.0 (Windows NT 10.0; Win64; x64) AppleWebKit/537.36 (KHTML, like Gecko) Chrome/138.0.0.0 Safari/537.36","WebKit","Chrome","138.0.0.0","Windows","10.0","https://app.prolific.com/","en-ZA,en-GB;q=0.9,en-US;q=0.8,en;q=0.7","614e1c414dff2e589169f360","686e379bc37a29ffa5cdc956","6877600a1b30321509059d9b","1","1","614e1c414dff2e589169f360","1","1","2025-07-16T08:52:03.993Z","","","","","","","","","","","StressQ","","50","","","","","","","","","","","","","","","","","","","","","","","","","","","","",""
"2033","","<div style=""width:500px;"">
  <p>What best describes how you currently feel?</p>
  </div>","72","html-slider-response","58","2083824","0.0-5.0-4.9","39","1","2025-07-16 08:17:20","1f75c3e559b7213887762d5229550c2b","197.245.162.70","Mozilla/5.0 (Windows NT 10.0; Win64; x64) AppleWebKit/537.36 (KHTML, like Gecko) Chrome/138.0.0.0 Safari/537.36","WebKit","Chrome","138.0.0.0","Windows","10.0","https://app.prolific.com/","en-ZA,en-GB;q=0.9,en-US;q=0.8,en;q=0.7","614e1c414dff2e589169f360","686e379bc37a29ffa5cdc956","6877600a1b30321509059d9b","1","1","614e1c414dff2e589169f360","1","1","2025-07-16T08:52:06.027Z","","","","","","","","","","","MotivationQ","","50","","","","","","","","","","","","","","","","","","","","","","","","","","","","",""
"","","","","ctl-task-cpt","59","2125105","0.0-5.0-0.10","39","1","2025-07-16 08:17:20","1f75c3e559b7213887762d5229550c2b","197.245.162.70","Mozilla/5.0 (Windows NT 10.0; Win64; x64) AppleWebKit/537.36 (KHTML, like Gecko) Chrome/138.0.0.0 Safari/537.36","WebKit","Chrome","138.0.0.0","Windows","10.0","https://app.prolific.com/","en-ZA,en-GB;q=0.9,en-US;q=0.8,en;q=0.7","614e1c414dff2e589169f360","686e379bc37a29ffa5cdc956","6877600a1b30321509059d9b","1","1","614e1c414dff2e589169f360","1","1","2025-07-16T08:52:47.308Z","","","","","","","","","","","","","","win-only","2","g1:SE,g2:NW","0.5","11","0","2086854.8","1735.5","6735.8","38254.8","1","4","4","6","1","-1","-2","0","0","0","1808.5","3000","-2080","[""down"",""right""]","{""num_key_presses"":7,""num_perfect"":2,""num_errors"":1,""num_randdir"":4,""num_randdir_good_moves"":2,""num_whilered"":0,""num_whileblue"":1,""num_blue"":3,""num_good_moves"":4}","[353.14285714285717,345.04910714285717,0.4,353.14285714285717,345.04910714285717,100.3,353.14285714285717,345.04910714285717,201.4,353.14285714285717,345.04910714285717,315.1,353.14285714285717,345.04910714285717,416.1,353.14285714285717,345.04910714285717,516.1,353.14285714285717,345.04910714285717,630.8,273.14285714285717,245.04910714285714,738.4,104.14285714285714,85.04910714285714,839,78.14285714285714,63.049107142857146,946.6,68.14285714285714,59.049107142857146,1050.7,68.14285714285714,59.049107142857146,1151.9,68.14285714285714,65.04910714285714,1252.1,206.14285714285714,225.04910714285714,1352.2,519.1428571428571,558.0491071428571,1453.9,561.1428571428571,587.0491071428571,1557.5,566.1428571428571,595.0491071428571,1666,588.1428571428571,607.0491071428571,1773.3,589.1428571428571,607.0491071428571,1882,590.1428571428571,607.0491071428571,1986.2,592.1428571428571,609.0491071428571,2088.2,592.1428571428571,609.0491071428571,2200.7,594.1428571428571,609.0491071428571,2300.8,594.1428571428571,609.0491071428571,2400.8,594.1428571428571,609.0491071428571,2505.2,594.1428571428571,609.0491071428571,2608.7,583.1428571428571,603.0491071428571,2718.2,583.1428571428571,603.0491071428571,2832,583.1428571428571,603.0491071428571,2935.5,583.1428571428571,603.0491071428571,3039.2,583.1428571428571,603.0491071428571,3142.3,583.1428571428571,603.0491071428571,3243.6,583.1428571428571,603.0491071428571,3347.1,583.1428571428571,603.0491071428571,3448.6,583.1428571428571,603.0491071428571,3549.8,583.1428571428571,604.0491071428571,3649.9,583.1428571428571,604.0491071428571,3750.4,583.1428571428571,604.0491071428571,3850.7,583.1428571428571,604.0491071428571,3959,583.1428571428571,604.0491071428571,4061.8,583.1428571428571,604.0491071428571,4162,583.1428571428571,604.0491071428571,4262.3,583.1428571428571,604.0491071428571,4365.9,583.1428571428571,604.0491071428571,4478.8,583.1428571428571,604.0491071428571,4580.7,583.1428571428571,604.0491071428571,4686.7,583.1428571428571,604.0491071428571,4788.2,583.1428571428571,604.0491071428571,4899.7]","[1624.9,1624.9,1000,0,624.9,""oops"",""down"",""left"",""bad_move"",4761.4,3135.2,2733.1,1626.2,402.1,""oops"",""down"",""right"",""good_move"",8621.6,3859.4,3414.9,4762.3,444.4,""smooth"",""down"",""down"",""good_move"",11719.6,3097.5,2644.3,8622.1,453.2,""oops"",""down"",""down"",""good_move"",15284.8,3564.9,3023.6,11720,541.3,""smooth"",""right"",""right"",""good_move"",21185.7,5900.2,2181.7,18661.1,342.9,""while_blue"",""right"",""up"",""bad_move"",27658,6472,2784,24505.9,368.1,""oops"",""down"",""up"",""bad_move""]","",""
"5677","","<div style=""width:500px;"">
  <p>What determined the result of this run?</p>
  </div>","9","html-slider-response","60","2130783","0.0-5.0-1.10","39","1","2025-07-16 08:17:20","1f75c3e559b7213887762d5229550c2b","197.245.162.70","Mozilla/5.0 (Windows NT 10.0; Win64; x64) AppleWebKit/537.36 (KHTML, like Gecko) Chrome/138.0.0.0 Safari/537.36","WebKit","Chrome","138.0.0.0","Windows","10.0","https://app.prolific.com/","en-ZA,en-GB;q=0.9,en-US;q=0.8,en;q=0.7","614e1c414dff2e589169f360","686e379bc37a29ffa5cdc956","6877600a1b30321509059d9b","1","1","614e1c414dff2e589169f360","1","1","2025-07-16T08:52:52.986Z","","","","","","","","","","","AttribQ","","50","","","","","","","","","","","","","","","","","","","","","","","","","","","","",""
"10255","","<div style=""width:500px;"">
  <p>How much control did you have over the ball?</p>
  </div>","12","html-slider-response","61","2141040","0.0-5.0-2.10","39","1","2025-07-16 08:17:20","1f75c3e559b7213887762d5229550c2b","197.245.162.70","Mozilla/5.0 (Windows NT 10.0; Win64; x64) AppleWebKit/537.36 (KHTML, like Gecko) Chrome/138.0.0.0 Safari/537.36","WebKit","Chrome","138.0.0.0","Windows","10.0","https://app.prolific.com/","en-ZA,en-GB;q=0.9,en-US;q=0.8,en;q=0.7","614e1c414dff2e589169f360","686e379bc37a29ffa5cdc956","6877600a1b30321509059d9b","1","1","614e1c414dff2e589169f360","1","1","2025-07-16T08:53:03.243Z","","","","","","","","","","","ControlQ","","50","","","","","","","","","","","","","","","","","","","","","","","","","","","","",""
"30411","","<div style=""width:500px;"">
  <p>How would you describe your current emotional state?</p>
  </div>","87","html-slider-response","62","2171452","0.0-5.0-3.10","39","1","2025-07-16 08:17:20","1f75c3e559b7213887762d5229550c2b","197.245.162.70","Mozilla/5.0 (Windows NT 10.0; Win64; x64) AppleWebKit/537.36 (KHTML, like Gecko) Chrome/138.0.0.0 Safari/537.36","WebKit","Chrome","138.0.0.0","Windows","10.0","https://app.prolific.com/","en-ZA,en-GB;q=0.9,en-US;q=0.8,en;q=0.7","614e1c414dff2e589169f360","686e379bc37a29ffa5cdc956","6877600a1b30321509059d9b","1","1","614e1c414dff2e589169f360","1","1","2025-07-16T08:53:33.656Z","","","","","","","","","","","StressQ","","50","","","","","","","","","","","","","","","","","","","","","","","","","","","","",""
"9807","","<div style=""width:500px;"">
  <p>What best describes how you currently feel?</p>
  </div>","71","html-slider-response","63","2181262","0.0-5.0-4.10","39","1","2025-07-16 08:17:20","1f75c3e559b7213887762d5229550c2b","197.245.162.70","Mozilla/5.0 (Windows NT 10.0; Win64; x64) AppleWebKit/537.36 (KHTML, like Gecko) Chrome/138.0.0.0 Safari/537.36","WebKit","Chrome","138.0.0.0","Windows","10.0","https://app.prolific.com/","en-ZA,en-GB;q=0.9,en-US;q=0.8,en;q=0.7","614e1c414dff2e589169f360","686e379bc37a29ffa5cdc956","6877600a1b30321509059d9b","1","1","614e1c414dff2e589169f360","1","1","2025-07-16T08:53:43.465Z","","","","","","","","","","","MotivationQ","","50","","","","","","","","","","","","","","","","","","","","","","","","","","","","",""
"","","","","ctl-task-cpt","64","2211102","0.0-5.0-0.11","39","1","2025-07-16 08:17:20","1f75c3e559b7213887762d5229550c2b","197.245.162.70","Mozilla/5.0 (Windows NT 10.0; Win64; x64) AppleWebKit/537.36 (KHTML, like Gecko) Chrome/138.0.0.0 Safari/537.36","WebKit","Chrome","138.0.0.0","Windows","10.0","https://app.prolific.com/","en-ZA,en-GB;q=0.9,en-US;q=0.8,en;q=0.7","614e1c414dff2e589169f360","686e379bc37a29ffa5cdc956","6877600a1b30321509059d9b","1","1","614e1c414dff2e589169f360","1","1","2025-07-16T08:54:13.305Z","","","","","","","","","","","","","","win-only","2","g1:SE,g2:NW","0.6","12","0","2184293.1","3847.5","8851.9","26818.8","1","4","8","6","2","-8","-8","0","0","0","1131.6","3000","-1965","[""left"",""up""]","{""num_key_presses"":5,""num_perfect"":3,""num_errors"":0,""num_randdir"":2,""num_randdir_good_moves"":0,""num_whilered"":0,""num_whileblue"":0,""num_blue"":0,""num_good_moves"":3}","[348.14285714285717,351.04910714285717,0.3,348.14285714285717,351.04910714285717,103.2,348.14285714285717,351.04910714285717,203.3,348.14285714285717,351.04910714285717,308.6,348.14285714285717,351.04910714285717,420.9,348.14285714285717,351.04910714285717,521.4,348.14285714285717,351.04910714285717,627.2,256.14285714285717,322.04910714285717,736.4,131.14285714285714,212.04910714285714,838,73.14285714285714,136.04910714285714,953.5,73.14285714285714,106.04910714285714,1056.5,72.14285714285714,96.04910714285714,1164.6,72.14285714285714,96.04910714285714,1267.8,75.14285714285714,98.04910714285714,1369.5,132.14285714285714,164.04910714285714,1474,384.14285714285717,365.04910714285717,1588.5,496.14285714285717,467.04910714285717,1696.2,609.1428571428571,552.0491071428571,1802.4,701.1428571428571,631.0491071428571,1904.4,704.1428571428571,638.0491071428571,2010.4,705.1428571428571,638.0491071428571,2111.1,709.1428571428571,638.0491071428571,2216,710.1428571428571,638.0491071428571,2317.8,710.1428571428571,638.0491071428571,2424.8,712.1428571428571,636.0491071428571,2538,713.1428571428571,636.0491071428571,2639.4,714.1428571428571,647.0491071428571,2749,716.1428571428571,650.0491071428571,2850.9,721.1428571428571,642.0491071428571,2953.5,724.1428571428571,637.0491071428571,3053.9,725.1428571428571,639.0491071428571,3154.3,749.1428571428571,647.0491071428571,3258.4,752.1428571428571,648.0491071428571,3358.6,752.1428571428571,648.0491071428571,3459.3,767.1428571428571,657.0491071428571,3571.8,845.1428571428571,673.0491071428571,3679.8,862.1428571428571,674.0491071428571,3782,862.1428571428571,674.0491071428571,3887.5,862.1428571428571,674.0491071428571,3988.9,862.1428571428571,674.0491071428571,4103,862.1428571428571,674.0491071428571,4214.8,862.1428571428571,674.0491071428571,4320.6,862.1428571428571,674.0491071428571,4425.2,865.1428571428571,669.0491071428571,4527.9,864.1428571428571,662.0491071428571,4628.9,864.1428571428571,662.0491071428571,4733.8,864.1428571428571,662.0491071428571,4836.7,864.1428571428571,662.0491071428571,4941.1]","[1594.2,1594.2,1000,0,594.2,""smooth"",""left"",""left"",""good_move"",5042.1,3446.8,2699.9,1595.3,746.9,""oops"",""left"",""right"",""bad_move"",8142.6,3099.6,1511.9,5043,1587.7,""smooth"",""up"",""up"",""good_move"",11976.7,3833.4,3271.3,8143.3,562.1,""oops"",""up"",""right"",""bad_move"",15336.4,3359.2,2802.8,11977.2,556.4,""smooth"",""up"",""up"",""good_move""]","",""
"5411","","<div style=""width:500px;"">
  <p>What determined the result of this run?</p>
  </div>","3","html-slider-response","65","2216514","0.0-5.0-1.11","39","1","2025-07-16 08:17:20","1f75c3e559b7213887762d5229550c2b","197.245.162.70","Mozilla/5.0 (Windows NT 10.0; Win64; x64) AppleWebKit/537.36 (KHTML, like Gecko) Chrome/138.0.0.0 Safari/537.36","WebKit","Chrome","138.0.0.0","Windows","10.0","https://app.prolific.com/","en-ZA,en-GB;q=0.9,en-US;q=0.8,en;q=0.7","614e1c414dff2e589169f360","686e379bc37a29ffa5cdc956","6877600a1b30321509059d9b","1","1","614e1c414dff2e589169f360","1","1","2025-07-16T08:54:18.717Z","","","","","","","","","","","AttribQ","","50","","","","","","","","","","","","","","","","","","","","","","","","","","","","",""
"2940","","<div style=""width:500px;"">
  <p>How much control did you have over the ball?</p>
  </div>","2","html-slider-response","66","2219455","0.0-5.0-2.11","39","1","2025-07-16 08:17:20","1f75c3e559b7213887762d5229550c2b","197.245.162.70","Mozilla/5.0 (Windows NT 10.0; Win64; x64) AppleWebKit/537.36 (KHTML, like Gecko) Chrome/138.0.0.0 Safari/537.36","WebKit","Chrome","138.0.0.0","Windows","10.0","https://app.prolific.com/","en-ZA,en-GB;q=0.9,en-US;q=0.8,en;q=0.7","614e1c414dff2e589169f360","686e379bc37a29ffa5cdc956","6877600a1b30321509059d9b","1","1","614e1c414dff2e589169f360","1","1","2025-07-16T08:54:21.659Z","","","","","","","","","","","ControlQ","","50","","","","","","","","","","","","","","","","","","","","","","","","","","","","",""
"2319","","<div style=""width:500px;"">
  <p>How would you describe your current emotional state?</p>
  </div>","88","html-slider-response","67","2221777","0.0-5.0-3.11","39","1","2025-07-16 08:17:20","1f75c3e559b7213887762d5229550c2b","197.245.162.70","Mozilla/5.0 (Windows NT 10.0; Win64; x64) AppleWebKit/537.36 (KHTML, like Gecko) Chrome/138.0.0.0 Safari/537.36","WebKit","Chrome","138.0.0.0","Windows","10.0","https://app.prolific.com/","en-ZA,en-GB;q=0.9,en-US;q=0.8,en;q=0.7","614e1c414dff2e589169f360","686e379bc37a29ffa5cdc956","6877600a1b30321509059d9b","1","1","614e1c414dff2e589169f360","1","1","2025-07-16T08:54:23.980Z","","","","","","","","","","","StressQ","","50","","","","","","","","","","","","","","","","","","","","","","","","","","","","",""
"3664","","<div style=""width:500px;"">
  <p>What best describes how you currently feel?</p>
  </div>","91","html-slider-response","68","2225442","0.0-5.0-4.11","39","1","2025-07-16 08:17:20","1f75c3e559b7213887762d5229550c2b","197.245.162.70","Mozilla/5.0 (Windows NT 10.0; Win64; x64) AppleWebKit/537.36 (KHTML, like Gecko) Chrome/138.0.0.0 Safari/537.36","WebKit","Chrome","138.0.0.0","Windows","10.0","https://app.prolific.com/","en-ZA,en-GB;q=0.9,en-US;q=0.8,en;q=0.7","614e1c414dff2e589169f360","686e379bc37a29ffa5cdc956","6877600a1b30321509059d9b","1","1","614e1c414dff2e589169f360","1","1","2025-07-16T08:54:27.645Z","","","","","","","","","","","MotivationQ","","50","","","","","","","","","","","","","","","","","","","","","","","","","","","","",""
"","","","","ctl-task-cpt","69","2277927","0.0-5.0-0.12","39","1","2025-07-16 08:17:20","1f75c3e559b7213887762d5229550c2b","197.245.162.70","Mozilla/5.0 (Windows NT 10.0; Win64; x64) AppleWebKit/537.36 (KHTML, like Gecko) Chrome/138.0.0.0 Safari/537.36","WebKit","Chrome","138.0.0.0","Windows","10.0","https://app.prolific.com/","en-ZA,en-GB;q=0.9,en-US;q=0.8,en;q=0.7","614e1c414dff2e589169f360","686e379bc37a29ffa5cdc956","6877600a1b30321509059d9b","1","1","614e1c414dff2e589169f360","1","1","2025-07-16T08:55:20.130Z","","","","","","","","","","","","","","win-only","1","g1:NE,g2:SW","0.7","13","0","2228475.7","1651.5","6660.9","49454.5","1","4","4","6","2","4","4","4","0","0.030303030303030304","1099.2","3000","20","[""down"",""left""]","{""num_key_presses"":12,""num_perfect"":8,""num_errors"":0,""num_randdir"":4,""num_randdir_good_moves"":1,""num_whilered"":0,""num_whileblue"":0,""num_blue"":3,""num_good_moves"":9}","[350.14285714285717,339.04910714285717,0.2,350.14285714285717,339.04910714285717,112.5,350.14285714285717,339.04910714285717,224.3,350.14285714285717,339.04910714285717,332.4,354.14285714285717,357.04910714285717,450.6,397.14285714285717,428.04910714285717,559.5,371.14285714285717,429.04910714285717,663.1,95.14285714285714,527.0491071428571,771.3,79.14285714285714,615.0491071428571,877.2,77.14285714285714,620.0491071428571,977.2,77.14285714285714,621.0491071428571,1085.5,77.14285714285714,621.0491071428571,1189,80.14285714285714,622.0491071428571,1298.5,115.14285714285714,637.0491071428571,1410.5,277.14285714285717,686.0491071428571,1524,423.14285714285717,715.0491071428571,1626.7,442.14285714285717,718.0491071428571,1732.6,442.14285714285717,718.0491071428571,1837.7,442.14285714285717,718.0491071428571,1941.1,442.14285714285717,718.0491071428571,2044.4,444.14285714285717,720.0491071428571,2150.3,449.14285714285717,720.0491071428571,2256.2,452.14285714285717,720.0491071428571,2362.7,456.14285714285717,723.0491071428571,2475.6,460.14285714285717,729.0491071428571,2581.4,460.14285714285717,729.0491071428571,2684.7,462.14285714285717,730.0491071428571,2785.1,475.14285714285717,730.0491071428571,2893.3,558.1428571428571,742.0491071428571,2993.4,730.1428571428571,772.0491071428571,3102.6,772.1428571428571,773.0491071428571,3219.6,772.1428571428571,773.0491071428571,3320.1,766.1428571428571,766.0491071428571,3425.6,766.1428571428571,766.0491071428571,3534.7,766.1428571428571,766.0491071428571,3637.7,766.1428571428571,766.0491071428571,3739.2,766.1428571428571,766.0491071428571,3839.4,766.1428571428571,766.0491071428571,3942.9,766.1428571428571,766.0491071428571,4043.1,766.1428571428571,766.0491071428571,4147.5,766.1428571428571,766.0491071428571,4250.5,766.1428571428571,766.0491071428571,4357.5,765.1428571428571,766.0491071428571,4460,765.1428571428571,766.0491071428571,4564.4,766.1428571428571,766.0491071428571,4673.5,766.1428571428571,767.0491071428571,4773.9,766.1428571428571,767.0491071428571,4875.4,766.1428571428571,767.0491071428571,4988.8]","[1465.7,1465.7,1000,0,465.7,""smooth"",""down"",""down"",""good_move"",4363.1,2897.1,2421.7,1466.1,475.3,""smooth"",""down"",""down"",""good_move"",6943.6,2580.2,2027.4,4363.4,552.8,""smooth"",""down"",""down"",""good_move"",15973,9028.5,2371.4,13097.7,503.9,""oops"",""left"",""up"",""bad_move"",18844.6,2871.3,2239.5,15973.4,631.8,""smooth"",""left"",""left"",""good_move"",25875.1,7029.5,2299.7,23111.5,463.9,""smooth"",""down"",""down"",""good_move"",29203.8,3328.3,2903.5,25875.5,424.8,""oops"",""left"",""right"",""bad_move"",31337.8,2133.7,1713.9,29204.1,419.8,""smooth"",""left"",""left"",""good_move"",34133.5,2795,2340.4,31338.5,454.6,""smooth"",""left"",""left"",""good_move"",37196.4,3062.1,2611.6,34134.3,450.5,""oops"",""left"",""up"",""bad_move"",39919.1,2720.3,2288.7,37198.8,431.6,""smooth"",""left"",""left"",""good_move"",42650.8,2731.3,2430.8,39919.5,300.5,""oops"",""down"",""down"",""good_move""]","",""
"3999","","<div style=""width:500px;"">
  <p>What determined the result of this run?</p>
  </div>","19","html-slider-response","70","2281928","0.0-5.0-1.12","39","1","2025-07-16 08:17:20","1f75c3e559b7213887762d5229550c2b","197.245.162.70","Mozilla/5.0 (Windows NT 10.0; Win64; x64) AppleWebKit/537.36 (KHTML, like Gecko) Chrome/138.0.0.0 Safari/537.36","WebKit","Chrome","138.0.0.0","Windows","10.0","https://app.prolific.com/","en-ZA,en-GB;q=0.9,en-US;q=0.8,en;q=0.7","614e1c414dff2e589169f360","686e379bc37a29ffa5cdc956","6877600a1b30321509059d9b","1","1","614e1c414dff2e589169f360","1","1","2025-07-16T08:55:24.132Z","","","","","","","","","","","AttribQ","","50","","","","","","","","","","","","","","","","","","","","","","","","","","","","",""
"5203","","<div style=""width:500px;"">
  <p>How much control did you have over the ball?</p>
  </div>","11","html-slider-response","71","2287134","0.0-5.0-2.12","39","1","2025-07-16 08:17:20","1f75c3e559b7213887762d5229550c2b","197.245.162.70","Mozilla/5.0 (Windows NT 10.0; Win64; x64) AppleWebKit/537.36 (KHTML, like Gecko) Chrome/138.0.0.0 Safari/537.36","WebKit","Chrome","138.0.0.0","Windows","10.0","https://app.prolific.com/","en-ZA,en-GB;q=0.9,en-US;q=0.8,en;q=0.7","614e1c414dff2e589169f360","686e379bc37a29ffa5cdc956","6877600a1b30321509059d9b","1","1","614e1c414dff2e589169f360","1","1","2025-07-16T08:55:29.337Z","","","","","","","","","","","ControlQ","","50","","","","","","","","","","","","","","","","","","","","","","","","","","","","",""
"2194","","<div style=""width:500px;"">
  <p>How would you describe your current emotional state?</p>
  </div>","68","html-slider-response","72","2289329","0.0-5.0-3.12","39","1","2025-07-16 08:17:20","1f75c3e559b7213887762d5229550c2b","197.245.162.70","Mozilla/5.0 (Windows NT 10.0; Win64; x64) AppleWebKit/537.36 (KHTML, like Gecko) Chrome/138.0.0.0 Safari/537.36","WebKit","Chrome","138.0.0.0","Windows","10.0","https://app.prolific.com/","en-ZA,en-GB;q=0.9,en-US;q=0.8,en;q=0.7","614e1c414dff2e589169f360","686e379bc37a29ffa5cdc956","6877600a1b30321509059d9b","1","1","614e1c414dff2e589169f360","1","1","2025-07-16T08:55:31.532Z","","","","","","","","","","","StressQ","","50","","","","","","","","","","","","","","","","","","","","","","","","","","","","",""
"2831","","<div style=""width:500px;"">
  <p>What best describes how you currently feel?</p>
  </div>","22","html-slider-response","73","2292160","0.0-5.0-4.12","39","1","2025-07-16 08:17:20","1f75c3e559b7213887762d5229550c2b","197.245.162.70","Mozilla/5.0 (Windows NT 10.0; Win64; x64) AppleWebKit/537.36 (KHTML, like Gecko) Chrome/138.0.0.0 Safari/537.36","WebKit","Chrome","138.0.0.0","Windows","10.0","https://app.prolific.com/","en-ZA,en-GB;q=0.9,en-US;q=0.8,en;q=0.7","614e1c414dff2e589169f360","686e379bc37a29ffa5cdc956","6877600a1b30321509059d9b","1","1","614e1c414dff2e589169f360","1","1","2025-07-16T08:55:34.364Z","","","","","","","","","","","MotivationQ","","50","","","","","","","","","","","","","","","","","","","","","","","","","","","","",""
"","","","","ctl-task-cpt","74","2333232","0.0-5.0-0.13","39","1","2025-07-16 08:17:20","1f75c3e559b7213887762d5229550c2b","197.245.162.70","Mozilla/5.0 (Windows NT 10.0; Win64; x64) AppleWebKit/537.36 (KHTML, like Gecko) Chrome/138.0.0.0 Safari/537.36","WebKit","Chrome","138.0.0.0","Windows","10.0","https://app.prolific.com/","en-ZA,en-GB;q=0.9,en-US;q=0.8,en;q=0.7","614e1c414dff2e589169f360","686e379bc37a29ffa5cdc956","6877600a1b30321509059d9b","1","1","614e1c414dff2e589169f360","1","1","2025-07-16T08:56:15.435Z","","","","","","","","","","","","","","win-only","2","g1:SE,g2:NW","0.8","14","0","2295191.6","1071","6075.6","38044.4","1","4","8","6","2","8","8","12","4","0.09090909090909091","1234.3","3000","990","[""left"",""up""]","{""num_key_presses"":8,""num_perfect"":7,""num_errors"":0,""num_randdir"":1,""num_randdir_good_moves"":0,""num_whilered"":0,""num_whileblue"":0,""num_blue"":3,""num_good_moves"":7}","[344.14285714285717,350.04910714285717,0.2,343.14285714285717,351.04910714285717,109.6,343.14285714285717,352.04910714285717,214.5,343.14285714285717,355.04910714285717,317.9,343.14285714285717,355.04910714285717,426.4,343.14285714285717,355.04910714285717,529.4,296.14285714285717,317.04910714285717,630.7,185.14285714285714,254.04910714285714,732.9,164.14285714285714,230.04910714285714,839.2,70.14285714285714,108.04910714285714,947.3,63.142857142857146,78.04910714285714,1052.4,72.14285714285714,61.049107142857146,1165.8,72.14285714285714,61.049107142857146,1267,72.14285714285714,61.049107142857146,1373.7,105.14285714285714,104.04910714285714,1479,377.14285714285717,530.0491071428571,1588.7,481.14285714285717,697.0491071428571,1689.5,493.14285714285717,711.0491071428571,1797.6,498.14285714285717,715.0491071428571,1897.9,498.14285714285717,716.0491071428571,1999.4,505.14285714285717,716.0491071428571,2112.4,510.14285714285717,718.0491071428571,2216.5,517.1428571428571,710.0491071428571,2318,520.1428571428571,708.0491071428571,2425.5,527.1428571428571,721.0491071428571,2532.5,530.1428571428571,720.0491071428571,2633.7,532.1428571428571,720.0491071428571,2734.4,534.1428571428571,719.0491071428571,2841.9,539.1428571428571,713.0491071428571,2947.7,539.1428571428571,713.0491071428571,3060.9,540.1428571428571,714.0491071428571,3162.8,540.1428571428571,714.0491071428571,3266.3,540.1428571428571,708.0491071428571,3368,540.1428571428571,684.0491071428571,3468.1,540.1428571428571,684.0491071428571,3574,540.1428571428571,684.0491071428571,3674.1,540.1428571428571,684.0491071428571,3781.2,540.1428571428571,684.0491071428571,3891.3,540.1428571428571,684.0491071428571,3997.4,540.1428571428571,684.0491071428571,4105.5,540.1428571428571,684.0491071428571,4206.6,540.1428571428571,684.0491071428571,4316.5,540.1428571428571,684.0491071428571,4428.2,540.1428571428571,684.0491071428571,4532.2,540.1428571428571,684.0491071428571,4639.5,540.1428571428571,684.0491071428571,4740.5,540.1428571428571,684.0491071428571,4843.1,540.1428571428571,684.0491071428571,4946.6]","[1474.6,1474.6,1000,0,474.6,""smooth"",""left"",""left"",""good_move"",10485.2,9010.1,2406.1,7573.7,505.4,""smooth"",""left"",""left"",""good_move"",16814.1,6328.6,2242.8,14106.9,464.4,""oops"",""left"",""down"",""bad_move"",20225.2,3410.8,2927.6,16814.5,483.2,""smooth"",""left"",""left"",""good_move"",22793.8,2568.1,2076.4,20225.7,491.7,""smooth"",""up"",""up"",""good_move"",26447.3,3652.8,3139.1,22794.5,513.7,""smooth"",""up"",""up"",""good_move"",29269.9,2822.4,2227.2,26447.5,595.2,""smooth"",""up"",""up"",""good_move"",31771.1,2500.9,2110.8,29270.2,390.1,""smooth"",""up"",""up"",""good_move""]","",""
"6873","","<div style=""width:500px;"">
  <p>What determined the result of this run?</p>
