"rt","response_timestamp","stimulus","response","trial_type","trial_index","time_elapsed","internal_node_id","run_id","condition","recorded_at","source_code_version","ip","user_agent","device","browser","browser_version","platform","platform_version","referer","accept_language","PROLIFIC_PID","STUDY_ID","SESSION_ID","WEEK","BATCH","prolific_id","week","batch","realtime","success","responses","item_order","radio_event_ids","radio_event_times","key_event_times","mouse_event_times","straightlining","zigzagging","honeypot","eventType","view_history","slider_start","which_type","canvas_config","goals_layout","control_level","trial_number","tutorial_trial_number","trial_start_time","phase1_start_time","phase2_start_time","phase3_start_time","goal_1_value","goal_1_distance","goal_2_value","goal_2_distance","goal_selected","outcome","outcome_total","participant_final_score","participant_initial_score","participant_final_score_prop","goal_choice_rt","allocated_time","allocated_time_remaining","goal_direction","counts","mouse_movements","key_presses","question_order","question_id"
"250112","1752667031165","<p style='font-size:40px;line-height:1.25'><strong>Welcome to the experiment!</strong></p><p style='font-size:1.1em;line-height:1.25'>Thank you for participanting in our experiment again! You will be asked to play the Dysfunctional Ball Game again. We will briefly recap the rules before we start.</p><p style='font-size:1.1em;line-height:1.25'>Press <strong>Next</strong> to continue.</p>","0","custom-html-button-response","0","250114","0.0-0.0","107","1","2025-07-16 11:52:53","1f75c3e559b7213887762d5229550c2b","107.180.168.139","Mozilla/5.0 (Windows NT 10.0; Win64; x64) AppleWebKit/537.36 (KHTML, like Gecko) Chrome/134.0.0.0 Safari/537.36","WebKit","Chrome","134.0.0.0","Windows","10.0","https://app.prolific.com/","en-US,en;q=0.9","67eab317b6f969b3df440160","686e379bc37a29ffa5cdc956","68779091fd9f5319770910a5","1","1","67eab317b6f969b3df440160","1","1","2025-07-16T11:57:11.166Z","","","","","","","","","","","","","","","","","","","","","","","","","","","","","","","","","","","","","","","","","",""
"149166","","","","fullscreen","1","398613","0.0-1.0","107","1","2025-07-16 11:52:53","1f75c3e559b7213887762d5229550c2b","107.180.168.139","Mozilla/5.0 (Windows NT 10.0; Win64; x64) AppleWebKit/537.36 (KHTML, like Gecko) Chrome/134.0.0.0 Safari/537.36","WebKit","Chrome","134.0.0.0","Windows","10.0","https://app.prolific.com/","en-US,en;q=0.9","67eab317b6f969b3df440160","686e379bc37a29ffa5cdc956","68779091fd9f5319770910a5","1","1","67eab317b6f969b3df440160","1","1","","true","","","","","","","","","","","","","","","","","","","","","","","","","","","","","","","","","","","","","","","","",""
"25539","1752667205206","<p style='font-size:1.1em;line-height:1.25'>In the following, we will ask you a few questions relating to your feelings in the last 24 hours.<br></p><p style='font-size:1.1em;line-height:1.25'>Press the <strong>Next</strong> button to continue.</p>","0","custom-html-button-response","2","424154","0.0-2.0-0.0","107","1","2025-07-16 11:52:53","1f75c3e559b7213887762d5229550c2b","107.180.168.139","Mozilla/5.0 (Windows NT 10.0; Win64; x64) AppleWebKit/537.36 (KHTML, like Gecko) Chrome/134.0.0.0 Safari/537.36","WebKit","Chrome","134.0.0.0","Windows","10.0","https://app.prolific.com/","en-US,en;q=0.9","67eab317b6f969b3df440160","686e379bc37a29ffa5cdc956","68779091fd9f5319770910a5","1","1","67eab317b6f969b3df440160","1","1","2025-07-16T12:00:05.207Z","","","","","","","","","","","","","","","","","","","","","","","","","","","","","","","","","","","","","","","","","",""
"92128.30000001192","","","","survey-template","3","516286","0.0-2.0-1.0","107","1","2025-07-16 11:52:53","1f75c3e559b7213887762d5229550c2b","107.180.168.139","Mozilla/5.0 (Windows NT 10.0; Win64; x64) AppleWebKit/537.36 (KHTML, like Gecko) Chrome/134.0.0.0 Safari/537.36","WebKit","Chrome","134.0.0.0","Windows","10.0","https://app.prolific.com/","en-US,en;q=0.9","67eab317b6f969b3df440160","686e379bc37a29ffa5cdc956","68779091fd9f5319770910a5","1","1","67eab317b6f969b3df440160","1","1","2025-07-16T12:01:37.338Z","","{""Q01"":""0"",""Q02"":""1"",""Q03"":""0"",""Q04"":""1"",""Q05"":""0"",""Q06"":""0"",""Q07"":""0"",""Q08"":""0"",""Q09"":""1"",""Q10"":""1"",""Q11"":""0"",""Q12"":""0"",""Q13"":""5"",""Q14"":""2"",""Q15"":""2"",""Q16"":""0"",""Q17"":""0"",""Q18"":""0"",""Q19"":""1"",""Q20"":""1"",""Q21"":""0"",""Q22"":""0""}","[0,1,2,3,4,5,6,7,8,9,10,11,12,13,14,15,16,17,18,19,20,21]","[""Q01"",""Q03"",""Q02"",""Q04"",""Q05"",""Q06"",""Q07"",""Q08"",""Q09"",""Q11"",""Q10"",""Q12"",""Q13"",""Q14"",""Q15"",""Q16"",""Q16"",""Q17"",""Q18"",""Q19"",""Q20"",""Q21"",""Q22""]","[5013.600000023842,8173.800000011921,10037.700000017881,12390.100000023842,17981.70000001788,20085.70000001788,21933.80000001192,25053.70000001788,33957.70000001788,36661.70000001788,37837.60000002384,42053.70000001788,43789.70000001788,46589.60000002384,48773.60000002384,51773.5,52789.60000002384,56493.70000001788,65077.70000001788,78549.80000001192,81773.5,87445.70000001788,90749.5]","[]","[0.10000002384185791,5013.600000023842,7013.800000011921,8173.800000011921,9141.90000000596,10037.700000017881,12390.100000023842,14421.800000011921,17981.70000001788,20085.70000001788,21933.80000001192,23533.80000001192,25053.70000001788,33957.70000001788,36661.70000001788,37837.60000002384,42053.70000001788,43789.70000001788,46589.60000002384,48773.60000002384,51773.5,52789.60000002384,56493.70000001788,65077.70000001788,68869.70000001788,72653.80000001192,74237.80000001192,76605.80000001192,77469.90000000596,78549.80000001192,81773.5,87445.70000001788,90749.5,92125.60000002384]","0.5909090909090909","0.42857142857142855","0","drsp","","","","","","","","","","","","","","","","","","","","","","","","","","","","","","",""
"16763.100000023842","","","","survey-template","4","533051","0.0-2.0-2.0","107","1","2025-07-16 11:52:53","1f75c3e559b7213887762d5229550c2b","107.180.168.139","Mozilla/5.0 (Windows NT 10.0; Win64; x64) AppleWebKit/537.36 (KHTML, like Gecko) Chrome/134.0.0.0 Safari/537.36","WebKit","Chrome","134.0.0.0","Windows","10.0","https://app.prolific.com/","en-US,en;q=0.9","67eab317b6f969b3df440160","686e379bc37a29ffa5cdc956","68779091fd9f5319770910a5","1","1","67eab317b6f969b3df440160","1","1","2025-07-16T12:01:54.103Z","","{""Q01"":""1"",""Q02"":""2"",""Q03"":""1""}","[0,1,2]","[""Q01"",""Q02"",""Q03""]","[9682.40000000596,12506.40000000596,15170.5]","[]","[7738.5,9682.40000000596,12506.40000000596,15170.5,16762.600000023842]","0.6666666666666666","0","0","stress","","","","","","","","","","","","","","","","","","","","","","","","","","","","","","",""
"175543","","","","instructions","5","708594","0.0-3.0-0.0","107","1","2025-07-16 11:52:53","1f75c3e559b7213887762d5229550c2b","107.180.168.139","Mozilla/5.0 (Windows NT 10.0; Win64; x64) AppleWebKit/537.36 (KHTML, like Gecko) Chrome/134.0.0.0 Safari/537.36","WebKit","Chrome","134.0.0.0","Windows","10.0","https://app.prolific.com/","en-US,en;q=0.9","67eab317b6f969b3df440160","686e379bc37a29ffa5cdc956","68779091fd9f5319770910a5","1","1","67eab317b6f969b3df440160","1","1","","","","","","","","","","","","","[{""page_index"":0,""viewing_time"":175542}]","","","","","","","","","","","","","","","","","","","","","","","","","","","","","",""
"16671","","<p>Before you start with this game please answer the following three questions yourself. </p>
  <p>Through this game, we measure several aspects of your cognitive performance, such as reaction times, multi-tasking capabilities </p>
  <p>and the ability to assess the situation you are in.</p>
  <p></p>
  <p><b>How good do you usually are in such tasks?</b></p>","76","html-slider-response","6","725267","0.0-4.0-0.0","107","1","2025-07-16 11:52:53","1f75c3e559b7213887762d5229550c2b","107.180.168.139","Mozilla/5.0 (Windows NT 10.0; Win64; x64) AppleWebKit/537.36 (KHTML, like Gecko) Chrome/134.0.0.0 Safari/537.36","WebKit","Chrome","134.0.0.0","Windows","10.0","https://app.prolific.com/","en-US,en;q=0.9","67eab317b6f969b3df440160","686e379bc37a29ffa5cdc956","68779091fd9f5319770910a5","1","1","67eab317b6f969b3df440160","1","1","2025-07-16T12:05:06.319Z","","","","","","","","","","","PreSkillQ","","50","","","","","","","","","","","","","","","","","","","","","","","","","","","","",""
"6374","","<div style=""width:500px;"">
  <p>How well do you think you will perform in this task compared to other participants?</p>
  </div>","75","html-slider-response","7","731642","0.0-4.0-1.0","107","1","2025-07-16 11:52:53","1f75c3e559b7213887762d5229550c2b","107.180.168.139","Mozilla/5.0 (Windows NT 10.0; Win64; x64) AppleWebKit/537.36 (KHTML, like Gecko) Chrome/134.0.0.0 Safari/537.36","WebKit","Chrome","134.0.0.0","Windows","10.0","https://app.prolific.com/","en-US,en;q=0.9","67eab317b6f969b3df440160","686e379bc37a29ffa5cdc956","68779091fd9f5319770910a5","1","1","67eab317b6f969b3df440160","1","1","2025-07-16T12:05:12.694Z","","","","","","","","","","","PrePerfQ","","50","","","","","","","","","","","","","","","","","","","","","","","","","","","","",""
"5071","","<div style=""width:500px;"">
  <p>What best describes how you currently feel?</p>
  </div>","93","html-slider-response","8","736714","0.0-4.0-2.0","107","1","2025-07-16 11:52:53","1f75c3e559b7213887762d5229550c2b","107.180.168.139","Mozilla/5.0 (Windows NT 10.0; Win64; x64) AppleWebKit/537.36 (KHTML, like Gecko) Chrome/134.0.0.0 Safari/537.36","WebKit","Chrome","134.0.0.0","Windows","10.0","https://app.prolific.com/","en-US,en;q=0.9","67eab317b6f969b3df440160","686e379bc37a29ffa5cdc956","68779091fd9f5319770910a5","1","1","67eab317b6f969b3df440160","1","1","2025-07-16T12:05:17.766Z","","","","","","","","","","","PreMotivationQ","","50","","","","","","","","","","","","","","","","","","","","","","","","","","","","",""
"","","","","ctl-task-cpt","9","771318","0.0-5.0-0.0","107","1","2025-07-16 11:52:53","1f75c3e559b7213887762d5229550c2b","107.180.168.139","Mozilla/5.0 (Windows NT 10.0; Win64; x64) AppleWebKit/537.36 (KHTML, like Gecko) Chrome/134.0.0.0 Safari/537.36","WebKit","Chrome","134.0.0.0","Windows","10.0","https://app.prolific.com/","en-US,en;q=0.9","67eab317b6f969b3df440160","686e379bc37a29ffa5cdc956","68779091fd9f5319770910a5","1","1","67eab317b6f969b3df440160","1","1","2025-07-16T12:05:52.370Z","","","","","","","","","","","","","","win-only","0","g1:NW,g2:SE","1","1","0","746286.3","17448.8","22451.9","31598.3","1","4","4","6","2","-4","-4","0","0","0","5003.1","3000","-3000","[""down"",""right""]","{""num_key_presses"":2,""num_perfect"":2,""num_errors"":0,""num_randdir"":0,""num_randdir_good_moves"":0,""num_whilered"":0,""num_whileblue"":0,""num_blue"":0,""num_good_moves"":2}","[337.09909188406806,340.1928561891828,0.5,337.09909188406806,340.1928561891828,102.3,337.09909188406806,340.1928561891828,202.6,337.09909188406806,340.1928561891828,307,337.09909188406806,340.1928561891828,407.7,337.09909188406806,340.1928561891828,508.1,337.09909188406806,340.1928561891828,612.5,337.09909188406806,340.1928561891828,717.2,337.09909188406806,340.1928561891828,823,337.09909188406806,340.1928561891828,923,337.09909188406806,340.1928561891828,1023.1,337.09909188406806,340.1928561891828,1126.6,337.09909188406806,340.1928561891828,1227.3,337.09909188406806,340.1928561891828,1332.1,337.09909188406806,340.1928561891828,1432.9,337.09909188406806,340.1928561891828,1537,337.09909188406806,340.1928561891828,1637,337.09909188406806,340.1928561891828,1738.1,337.09909188406806,340.1928561891828,1842.7,337.09909188406806,340.1928561891828,1942.7,337.09909188406806,340.1928561891828,2048.3,337.09909188406806,340.1928561891828,2152.4,337.09909188406806,340.1928561891828,2257.9,337.09909188406806,340.1928561891828,2362.7,337.09909188406806,340.1928561891828,2462.6,337.09909188406806,340.1928561891828,2566.8,337.09909188406806,340.1928561891828,2666.9,337.09909188406806,340.1928561891828,2772.7,337.09909188406806,340.1928561891828,2876.8,337.09909188406806,340.1928561891828,2981.9,337.09909188406806,340.1928561891828,3081.9,337.09909188406806,340.1928561891828,3181.9,337.09909188406806,340.1928561891828,3287.2,337.09909188406806,340.1928561891828,3392.7,337.09909188406806,340.1928561891828,3492.7,337.09909188406806,340.1928561891828,3596.9,337.09909188406806,340.1928561891828,3697,337.09909188406806,340.1928561891828,3802.4,337.09909188406806,340.1928561891828,3906.7,337.09909188406806,340.1928561891828,4008,337.09909188406806,340.1928561891828,4112,337.09909188406806,340.1928561891828,4212.4,337.09909188406806,340.1928561891828,4316.6,337.09909188406806,340.1928561891828,4416.6,337.09909188406806,340.1928561891828,4517,337.09909188406806,340.1928561891828,4622.7,337.09909188406806,340.1928561891828,4726.8,337.09909188406806,340.1928561891828,4826.9,337.09909188406806,340.1928561891828,4931.7]","[2170.1,2170.1,1000,0,1170.1,""smooth"",""right"",""right"",""good_move"",6074.2,3903.4,2417.7,2170.8,1485.7,""smooth"",""down"",""down"",""good_move""]","",""
"10082","","<div style=""width:500px;"">
  <p>What determined the result of this run?</p>
  </div>","80","html-slider-response","10","781402","0.0-5.0-1.0","107","1","2025-07-16 11:52:53","1f75c3e559b7213887762d5229550c2b","107.180.168.139","Mozilla/5.0 (Windows NT 10.0; Win64; x64) AppleWebKit/537.36 (KHTML, like Gecko) Chrome/134.0.0.0 Safari/537.36","WebKit","Chrome","134.0.0.0","Windows","10.0","https://app.prolific.com/","en-US,en;q=0.9","67eab317b6f969b3df440160","686e379bc37a29ffa5cdc956","68779091fd9f5319770910a5","1","1","67eab317b6f969b3df440160","1","1","2025-07-16T12:06:02.454Z","","","","","","","","","","","AttribQ","","50","","","","","","","","","","","","","","","","","","","","","","","","","","","","",""
"5943","","<div style=""width:500px;"">
  <p>How much control did you have over the ball?</p>
  </div>","73","html-slider-response","11","787346","0.0-5.0-2.0","107","1","2025-07-16 11:52:53","1f75c3e559b7213887762d5229550c2b","107.180.168.139","Mozilla/5.0 (Windows NT 10.0; Win64; x64) AppleWebKit/537.36 (KHTML, like Gecko) Chrome/134.0.0.0 Safari/537.36","WebKit","Chrome","134.0.0.0","Windows","10.0","https://app.prolific.com/","en-US,en;q=0.9","67eab317b6f969b3df440160","686e379bc37a29ffa5cdc956","68779091fd9f5319770910a5","1","1","67eab317b6f969b3df440160","1","1","2025-07-16T12:06:08.398Z","","","","","","","","","","","ControlQ","","50","","","","","","","","","","","","","","","","","","","","","","","","","","","","",""
"6856","","<div style=""width:500px;"">
  <p>How would you describe your current emotional state?</p>
  </div>","66","html-slider-response","12","794203","0.0-5.0-3.0","107","1","2025-07-16 11:52:53","1f75c3e559b7213887762d5229550c2b","107.180.168.139","Mozilla/5.0 (Windows NT 10.0; Win64; x64) AppleWebKit/537.36 (KHTML, like Gecko) Chrome/134.0.0.0 Safari/537.36","WebKit","Chrome","134.0.0.0","Windows","10.0","https://app.prolific.com/","en-US,en;q=0.9","67eab317b6f969b3df440160","686e379bc37a29ffa5cdc956","68779091fd9f5319770910a5","1","1","67eab317b6f969b3df440160","1","1","2025-07-16T12:06:15.255Z","","","","","","","","","","","StressQ","","50","","","","","","","","","","","","","","","","","","","","","","","","","","","","",""
"8422","","<div style=""width:500px;"">
  <p>What best describes how you currently feel?</p>
  </div>","66","html-slider-response","13","802626","0.0-5.0-4.0","107","1","2025-07-16 11:52:53","1f75c3e559b7213887762d5229550c2b","107.180.168.139","Mozilla/5.0 (Windows NT 10.0; Win64; x64) AppleWebKit/537.36 (KHTML, like Gecko) Chrome/134.0.0.0 Safari/537.36","WebKit","Chrome","134.0.0.0","Windows","10.0","https://app.prolific.com/","en-US,en;q=0.9","67eab317b6f969b3df440160","686e379bc37a29ffa5cdc956","68779091fd9f5319770910a5","1","1","67eab317b6f969b3df440160","1","1","2025-07-16T12:06:23.678Z","","","","","","","","","","","MotivationQ","","50","","","","","","","","","","","","","","","","","","","","","","","","","","","","",""
"","","","","ctl-task-cpt","14","847471","0.0-5.0-0.1","107","1","2025-07-16 11:52:53","1f75c3e559b7213887762d5229550c2b","107.180.168.139","Mozilla/5.0 (Windows NT 10.0; Win64; x64) AppleWebKit/537.36 (KHTML, like Gecko) Chrome/134.0.0.0 Safari/537.36","WebKit","Chrome","134.0.0.0","Windows","10.0","https://app.prolific.com/","en-US,en;q=0.9","67eab317b6f969b3df440160","686e379bc37a29ffa5cdc956","68779091fd9f5319770910a5","1","1","67eab317b6f969b3df440160","1","1","2025-07-16T12:07:08.523Z","","","","","","","","","","","","","","win-only","2","g1:SE,g2:NW","0.9","2","0","812198.1","7002.2","12009.7","41825.5","1","4","8","6","1","-1","-4","0","0","0","5007.5","3000","-3010","[""down"",""right""]","{""num_key_presses"":8,""num_perfect"":3,""num_errors"":3,""num_randdir"":1,""num_randdir_good_moves"":0,""num_whilered"":1,""num_whileblue"":0,""num_blue"":3,""num_good_moves"":3}","[335.59909188406806,338.6928561891828,0.4,335.59909188406806,338.6928561891828,100.8,335.59909188406806,338.6928561891828,204.6,271.09909188406806,367.1928561891828,308.7,232.09909188406806,391.1928561891828,413.6,233.59909188406806,392.6928561891828,520.9,233.59909188406806,392.6928561891828,624.1,233.59909188406806,392.6928561891828,729.2,233.59909188406806,392.6928561891828,829.4,233.59909188406806,392.6928561891828,933.5,233.59909188406806,392.6928561891828,1033.9,233.59909188406806,392.6928561891828,1139.5,233.59909188406806,392.6928561891828,1239.9,233.59909188406806,392.6928561891828,1343,233.59909188406806,392.6928561891828,1443.7,233.59909188406806,392.6928561891828,1544,233.59909188406806,392.6928561891828,1649.9,233.59909188406806,392.6928561891828,1754.3,233.59909188406806,392.6928561891828,1859.4,233.59909188406806,392.6928561891828,1959.4,233.59909188406806,392.6928561891828,2059.4,233.59909188406806,392.6928561891828,2159.8,233.59909188406806,392.6928561891828,2260,233.59909188406806,392.6928561891828,2363.7,233.59909188406806,392.6928561891828,2463.9,233.59909188406806,392.6928561891828,2563.9,233.59909188406806,392.6928561891828,2668.7,233.59909188406806,392.6928561891828,2773.2,233.59909188406806,392.6928561891828,2875,233.59909188406806,392.6928561891828,2979.4,233.59909188406806,392.6928561891828,3079.4,233.59909188406806,392.6928561891828,3183.6,233.59909188406806,392.6928561891828,3284.9,233.59909188406806,392.6928561891828,3388.2,233.59909188406806,392.6928561891828,3488.6,233.59909188406806,392.6928561891828,3589.9,233.59909188406806,392.6928561891828,3693.1,233.59909188406806,392.6928561891828,3793.8,233.59909188406806,392.6928561891828,3893.8,233.59909188406806,392.6928561891828,3999.4,233.59909188406806,392.6928561891828,4106.1,233.59909188406806,392.6928561891828,4206.5,233.59909188406806,392.6928561891828,4308.5,233.59909188406806,392.6928561891828,4408.7,233.59909188406806,392.6928561891828,4509.5,233.59909188406806,392.6928561891828,4609.5,233.59909188406806,392.6928561891828,4713.3,233.59909188406806,392.6928561891828,4813.7,233.59909188406806,392.6928561891828,4918.8]","[580.6,580.6,1000,0,-419.4,""error"",""-"",""-"",""no_move"",860.7,279.9,1000,0,-139.3,""while_red"",""-"",""-"",""no_move"",2588.1,2007.3,2606.9,1580.9,-1599.7,""error"",""-"",""-"",""no_move"",7284.3,4696.1,3185,3591.9,507.5,""smooth"",""down"",""down"",""good_move"",7652.2,367.5,2835,7284.8,-2467.5,""error"",""-"",""-"",""no_move"",11078.4,3425.7,1766.9,8656,655.5,""smooth"",""down"",""down"",""good_move"",17188.2,6109.5,2171.5,14437.9,578.8,""oops"",""right"",""up"",""bad_move"",20428.1,3239.7,2248.2,17188.4,991.5,""smooth"",""right"",""right"",""good_move""]","",""
"4467","","<div style=""width:500px;"">
  <p>What determined the result of this run?</p>
  </div>","75","html-slider-response","15","851938","0.0-5.0-1.1","107","1","2025-07-16 11:52:53","1f75c3e559b7213887762d5229550c2b","107.180.168.139","Mozilla/5.0 (Windows NT 10.0; Win64; x64) AppleWebKit/537.36 (KHTML, like Gecko) Chrome/134.0.0.0 Safari/537.36","WebKit","Chrome","134.0.0.0","Windows","10.0","https://app.prolific.com/","en-US,en;q=0.9","67eab317b6f969b3df440160","686e379bc37a29ffa5cdc956","68779091fd9f5319770910a5","1","1","67eab317b6f969b3df440160","1","1","2025-07-16T12:07:12.990Z","","","","","","","","","","","AttribQ","","50","","","","","","","","","","","","","","","","","","","","","","","","","","","","",""
"4424","","<div style=""width:500px;"">
  <p>How much control did you have over the ball?</p>
  </div>","61","html-slider-response","16","856363","0.0-5.0-2.1","107","1","2025-07-16 11:52:53","1f75c3e559b7213887762d5229550c2b","107.180.168.139","Mozilla/5.0 (Windows NT 10.0; Win64; x64) AppleWebKit/537.36 (KHTML, like Gecko) Chrome/134.0.0.0 Safari/537.36","WebKit","Chrome","134.0.0.0","Windows","10.0","https://app.prolific.com/","en-US,en;q=0.9","67eab317b6f969b3df440160","686e379bc37a29ffa5cdc956","68779091fd9f5319770910a5","1","1","67eab317b6f969b3df440160","1","1","2025-07-16T12:07:17.415Z","","","","","","","","","","","ControlQ","","50","","","","","","","","","","","","","","","","","","","","","","","","","","","","",""
"3702","","<div style=""width:500px;"">
  <p>How would you describe your current emotional state?</p>
  </div>","83","html-slider-response","17","860066","0.0-5.0-3.1","107","1","2025-07-16 11:52:53","1f75c3e559b7213887762d5229550c2b","107.180.168.139","Mozilla/5.0 (Windows NT 10.0; Win64; x64) AppleWebKit/537.36 (KHTML, like Gecko) Chrome/134.0.0.0 Safari/537.36","WebKit","Chrome","134.0.0.0","Windows","10.0","https://app.prolific.com/","en-US,en;q=0.9","67eab317b6f969b3df440160","686e379bc37a29ffa5cdc956","68779091fd9f5319770910a5","1","1","67eab317b6f969b3df440160","1","1","2025-07-16T12:07:21.118Z","","","","","","","","","","","StressQ","","50","","","","","","","","","","","","","","","","","","","","","","","","","","","","",""
"3072","","<div style=""width:500px;"">
  <p>What best describes how you currently feel?</p>
  </div>","59","html-slider-response","18","863139","0.0-5.0-4.1","107","1","2025-07-16 11:52:53","1f75c3e559b7213887762d5229550c2b","107.180.168.139","Mozilla/5.0 (Windows NT 10.0; Win64; x64) AppleWebKit/537.36 (KHTML, like Gecko) Chrome/134.0.0.0 Safari/537.36","WebKit","Chrome","134.0.0.0","Windows","10.0","https://app.prolific.com/","en-US,en;q=0.9","67eab317b6f969b3df440160","686e379bc37a29ffa5cdc956","68779091fd9f5319770910a5","1","1","67eab317b6f969b3df440160","1","1","2025-07-16T12:07:24.191Z","","","","","","","","","","","MotivationQ","","50","","","","","","","","","","","","","","","","","","","","","","","","","","","","",""
"","","","","ctl-task-cpt","19","960102","0.0-5.0-0.2","107","1","2025-07-16 11:52:53","1f75c3e559b7213887762d5229550c2b","107.180.168.139","Mozilla/5.0 (Windows NT 10.0; Win64; x64) AppleWebKit/537.36 (KHTML, like Gecko) Chrome/134.0.0.0 Safari/537.36","WebKit","Chrome","134.0.0.0","Windows","10.0","https://app.prolific.com/","en-US,en;q=0.9","67eab317b6f969b3df440160","686e379bc37a29ffa5cdc956","68779091fd9f5319770910a5","1","1","67eab317b6f969b3df440160","1","1","2025-07-16T12:09:01.154Z","","","","","","","","","","","","","","win-only","2","g1:SE,g2:NW","0.8","3","0","872711","68846.8","73850.6","93951.1","1","4","8","6","1","1","1","1","0","0.007575757575757576","5003.8","3000","245","[""down"",""right""]","{""num_key_presses"":4,""num_perfect"":2,""num_errors"":0,""num_randdir"":2,""num_randdir_good_moves"":2,""num_whilered"":0,""num_whileblue"":0,""num_blue"":3,""num_good_moves"":4}","[337.09909188406806,337.1928561891828,0.4,337.09909188406806,337.1928561891828,100.1,337.09909188406806,332.6928561891828,204.5,337.09909188406806,332.6928561891828,308.9,337.09909188406806,332.6928561891828,409.6,337.09909188406806,332.6928561891828,515.7,337.09909188406806,332.6928561891828,618.5,337.09909188406806,332.6928561891828,719,337.09909188406806,332.6928561891828,819.8,337.09909188406806,332.6928561891828,924.9,337.09909188406806,332.6928561891828,1025,337.09909188406806,332.6928561891828,1128.9,337.09909188406806,332.6928561891828,1234,337.09909188406806,332.6928561891828,1339.3,337.09909188406806,332.6928561891828,1439.4,337.09909188406806,332.6928561891828,1539.3,337.09909188406806,332.6928561891828,1643.6,337.09909188406806,332.6928561891828,1743.9,337.09909188406806,332.6928561891828,1844.1,337.09909188406806,332.6928561891828,1944.8,337.09909188406806,332.6928561891828,2048.5,337.09909188406806,332.6928561891828,2149.5,337.09909188406806,332.6928561891828,2255.1,337.09909188406806,332.6928561891828,2358.7,337.09909188406806,332.6928561891828,2459.3,337.09909188406806,332.6928561891828,2559.3,337.09909188406806,332.6928561891828,2665.4,337.09909188406806,332.6928561891828,2769.8,337.09909188406806,332.6928561891828,2874.9,337.09909188406806,332.6928561891828,2980.2,337.09909188406806,332.6928561891828,3084.8,337.09909188406806,332.6928561891828,3185.1,337.09909188406806,332.6928561891828,3289,337.09909188406806,332.6928561891828,3393.9,337.09909188406806,332.6928561891828,3495.5,337.09909188406806,332.6928561891828,3600.1,337.09909188406806,332.6928561891828,3705.5,337.09909188406806,332.6928561891828,3808.7,337.09909188406806,332.6928561891828,3909.4,337.09909188406806,332.6928561891828,4016.1,337.09909188406806,332.6928561891828,4118.9,337.09909188406806,332.6928561891828,4219.2,337.09909188406806,332.6928561891828,4320.2,337.09909188406806,332.6928561891828,4420.9,337.09909188406806,332.6928561891828,4524.9,337.09909188406806,332.6928561891828,4629.4,337.09909188406806,332.6928561891828,4733.8,337.09909188406806,332.6928561891828,4833.9,337.09909188406806,332.6928561891828,4933.9]","[1474.7,1474.7,1000,0,474.7,""smooth"",""down"",""down"",""good_move"",10964.4,9489.1,3102.2,7385,477.2,""oops"",""down"",""right"",""good_move"",14418.3,3453,2080.1,10965.3,1372.9,""oops"",""right"",""down"",""good_move"",20010.2,5591.6,2234.2,17280.4,495.6,""smooth"",""right"",""right"",""good_move""]","",""
"4379","","<div style=""width:500px;"">
  <p>What determined the result of this run?</p>
  </div>","37","html-slider-response","20","964482","0.0-5.0-1.2","107","1","2025-07-16 11:52:53","1f75c3e559b7213887762d5229550c2b","107.180.168.139","Mozilla/5.0 (Windows NT 10.0; Win64; x64) AppleWebKit/537.36 (KHTML, like Gecko) Chrome/134.0.0.0 Safari/537.36","WebKit","Chrome","134.0.0.0","Windows","10.0","https://app.prolific.com/","en-US,en;q=0.9","67eab317b6f969b3df440160","686e379bc37a29ffa5cdc956","68779091fd9f5319770910a5","1","1","67eab317b6f969b3df440160","1","1","2025-07-16T12:09:05.534Z","","","","","","","","","","","AttribQ","","50","","","","","","","","","","","","","","","","","","","","","","","","","","","","",""
"7127","","<div style=""width:500px;"">
  <p>How much control did you have over the ball?</p>
  </div>","33","html-slider-response","21","971610","0.0-5.0-2.2","107","1","2025-07-16 11:52:53","1f75c3e559b7213887762d5229550c2b","107.180.168.139","Mozilla/5.0 (Windows NT 10.0; Win64; x64) AppleWebKit/537.36 (KHTML, like Gecko) Chrome/134.0.0.0 Safari/537.36","WebKit","Chrome","134.0.0.0","Windows","10.0","https://app.prolific.com/","en-US,en;q=0.9","67eab317b6f969b3df440160","686e379bc37a29ffa5cdc956","68779091fd9f5319770910a5","1","1","67eab317b6f969b3df440160","1","1","2025-07-16T12:09:12.662Z","","","","","","","","","","","ControlQ","","50","","","","","","","","","","","","","","","","","","","","","","","","","","","","",""
"3383","","<div style=""width:500px;"">
  <p>How would you describe your current emotional state?</p>
  </div>","53","html-slider-response","22","974994","0.0-5.0-3.2","107","1","2025-07-16 11:52:53","1f75c3e559b7213887762d5229550c2b","107.180.168.139","Mozilla/5.0 (Windows NT 10.0; Win64; x64) AppleWebKit/537.36 (KHTML, like Gecko) Chrome/134.0.0.0 Safari/537.36","WebKit","Chrome","134.0.0.0","Windows","10.0","https://app.prolific.com/","en-US,en;q=0.9","67eab317b6f969b3df440160","686e379bc37a29ffa5cdc956","68779091fd9f5319770910a5","1","1","67eab317b6f969b3df440160","1","1","2025-07-16T12:09:16.046Z","","","","","","","","","","","StressQ","","50","","","","","","","","","","","","","","","","","","","","","","","","","","","","",""
"5472","","<div style=""width:500px;"">
  <p>What best describes how you currently feel?</p>
  </div>","60","html-slider-response","23","980467","0.0-5.0-4.2","107","1","2025-07-16 11:52:53","1f75c3e559b7213887762d5229550c2b","107.180.168.139","Mozilla/5.0 (Windows NT 10.0; Win64; x64) AppleWebKit/537.36 (KHTML, like Gecko) Chrome/134.0.0.0 Safari/537.36","WebKit","Chrome","134.0.0.0","Windows","10.0","https://app.prolific.com/","en-US,en;q=0.9","67eab317b6f969b3df440160","686e379bc37a29ffa5cdc956","68779091fd9f5319770910a5","1","1","67eab317b6f969b3df440160","1","1","2025-07-16T12:09:21.519Z","","","","","","","","","","","MotivationQ","","50","","","","","","","","","","","","","","","","","","","","","","","","","","","","",""
"","","","","ctl-task-cpt","24","1007581","0.0-5.0-0.3","107","1","2025-07-16 11:52:53","1f75c3e559b7213887762d5229550c2b","107.180.168.139","Mozilla/5.0 (Windows NT 10.0; Win64; x64) AppleWebKit/537.36 (KHTML, like Gecko) Chrome/134.0.0.0 Safari/537.36","WebKit","Chrome","134.0.0.0","Windows","10.0","https://app.prolific.com/","en-US,en;q=0.9","67eab317b6f969b3df440160","686e379bc37a29ffa5cdc956","68779091fd9f5319770910a5","1","1","67eab317b6f969b3df440160","1","1","2025-07-16T12:09:48.633Z","","","","","","","","","","","","","","win-only","0","g1:NW,g2:SE","0.7","4","0","990039.7","1956.3","6961.9","24102.2","1","4","4","6","2","4","4","5","1","0.03787878787878788","5005.6","3000","30","[""down"",""right""]","{""num_key_presses"":6,""num_perfect"":4,""num_errors"":0,""num_randdir"":2,""num_randdir_good_moves"":2,""num_whilered"":0,""num_whileblue"":0,""num_blue"":0,""num_good_moves"":6}","[343.09909188406806,338.6928561891828,0.2,343.09909188406806,338.6928561891828,100,344.59909188406806,340.1928561891828,200.3,344.59909188406806,340.1928561891828,306,344.59909188406806,340.1928561891828,410,344.59909188406806,340.1928561891828,510.2,344.59909188406806,340.1928561891828,615.4,344.59909188406806,340.1928561891828,719.2,344.59909188406806,340.1928561891828,819.3,344.59909188406806,340.1928561891828,919.8,344.59909188406806,340.1928561891828,1019.8,344.59909188406806,340.1928561891828,1119.8,344.59909188406806,340.1928561891828,1219.8,344.59909188406806,340.1928561891828,1330.2,344.59909188406806,340.1928561891828,1434.9,344.59909188406806,340.1928561891828,1535.9,344.59909188406806,340.1928561891828,1638.9,344.59909188406806,340.1928561891828,1739.8,344.59909188406806,340.1928561891828,1840,344.59909188406806,340.1928561891828,1944.5,344.59909188406806,340.1928561891828,2048.8,344.59909188406806,340.1928561891828,2149.8,344.59909188406806,340.1928561891828,2249.9,344.59909188406806,340.1928561891828,2354.1,344.59909188406806,340.1928561891828,2455.2,344.59909188406806,340.1928561891828,2559.1,344.59909188406806,340.1928561891828,2660.5,344.59909188406806,340.1928561891828,2764.3,344.59909188406806,340.1928561891828,2864.9,344.59909188406806,340.1928561891828,2964.9,344.59909188406806,340.1928561891828,3069.8,344.59909188406806,340.1928561891828,3176.4,344.59909188406806,340.1928561891828,3283,344.59909188406806,340.1928561891828,3385.8,344.59909188406806,340.1928561891828,3489.7,344.59909188406806,340.1928561891828,3590,344.59909188406806,340.1928561891828,3694.9,344.59909188406806,340.1928561891828,3799.3,344.59909188406806,340.1928561891828,3900.5,344.59909188406806,340.1928561891828,4005.9,344.59909188406806,340.1928561891828,4115,344.59909188406806,340.1928561891828,4215.4,344.59909188406806,340.1928561891828,4319.3,344.59909188406806,340.1928561891828,4419.9,344.59909188406806,340.1928561891828,4520.2,344.59909188406806,340.1928561891828,4624.6,344.59909188406806,340.1928561891828,4724.8,344.59909188406806,340.1928561891828,4829.3,344.59909188406806,340.1928561891828,4930.9]","[1562.5,1562.5,1000,0,562.5,""oops"",""right"",""down"",""good_move"",4450.3,2887.5,2316.8,1562.8,570.7,""oops"",""right"",""down"",""good_move"",7327.2,2876.7,2413.5,4450.5,463.2,""smooth"",""down"",""down"",""good_move"",10626.3,3298.7,2801.6,7327.6,497.1,""smooth"",""right"",""right"",""good_move"",13378.4,2751.6,2189.2,10626.8,562.4,""smooth"",""right"",""right"",""good_move"",17042.3,3663.8,3094.4,13378.6,569.4,""smooth"",""right"",""right"",""good_move""]","",""
"14852","","<div style=""width:500px;"">
  <p>What determined the result of this run?</p>
  </div>","65","html-slider-response","25","1022434","0.0-5.0-1.3","107","1","2025-07-16 11:52:53","1f75c3e559b7213887762d5229550c2b","107.180.168.139","Mozilla/5.0 (Windows NT 10.0; Win64; x64) AppleWebKit/537.36 (KHTML, like Gecko) Chrome/134.0.0.0 Safari/537.36","WebKit","Chrome","134.0.0.0","Windows","10.0","https://app.prolific.com/","en-US,en;q=0.9","67eab317b6f969b3df440160","686e379bc37a29ffa5cdc956","68779091fd9f5319770910a5","1","1","67eab317b6f969b3df440160","1","1","2025-07-16T12:10:03.486Z","","","","","","","","","","","AttribQ","","50","","","","","","","","","","","","","","","","","","","","","","","","","","","","",""
"3711","","<div style=""width:500px;"">
  <p>How much control did you have over the ball?</p>
  </div>","37","html-slider-response","26","1026146","0.0-5.0-2.3","107","1","2025-07-16 11:52:53","1f75c3e559b7213887762d5229550c2b","107.180.168.139","Mozilla/5.0 (Windows NT 10.0; Win64; x64) AppleWebKit/537.36 (KHTML, like Gecko) Chrome/134.0.0.0 Safari/537.36","WebKit","Chrome","134.0.0.0","Windows","10.0","https://app.prolific.com/","en-US,en;q=0.9","67eab317b6f969b3df440160","686e379bc37a29ffa5cdc956","68779091fd9f5319770910a5","1","1","67eab317b6f969b3df440160","1","1","2025-07-16T12:10:07.198Z","","","","","","","","","","","ControlQ","","50","","","","","","","","","","","","","","","","","","","","","","","","","","","","",""
"4703","","<div style=""width:500px;"">
  <p>How would you describe your current emotional state?</p>
  </div>","55","html-slider-response","27","1030850","0.0-5.0-3.3","107","1","2025-07-16 11:52:53","1f75c3e559b7213887762d5229550c2b","107.180.168.139","Mozilla/5.0 (Windows NT 10.0; Win64; x64) AppleWebKit/537.36 (KHTML, like Gecko) Chrome/134.0.0.0 Safari/537.36","WebKit","Chrome","134.0.0.0","Windows","10.0","https://app.prolific.com/","en-US,en;q=0.9","67eab317b6f969b3df440160","686e379bc37a29ffa5cdc956","68779091fd9f5319770910a5","1","1","67eab317b6f969b3df440160","1","1","2025-07-16T12:10:11.902Z","","","","","","","","","","","StressQ","","50","","","","","","","","","","","","","","","","","","","","","","","","","","","","",""
"12455","","<div style=""width:500px;"">
  <p>What best describes how you currently feel?</p>
  </div>","79","html-slider-response","28","1043306","0.0-5.0-4.3","107","1","2025-07-16 11:52:53","1f75c3e559b7213887762d5229550c2b","107.180.168.139","Mozilla/5.0 (Windows NT 10.0; Win64; x64) AppleWebKit/537.36 (KHTML, like Gecko) Chrome/134.0.0.0 Safari/537.36","WebKit","Chrome","134.0.0.0","Windows","10.0","https://app.prolific.com/","en-US,en;q=0.9","67eab317b6f969b3df440160","686e379bc37a29ffa5cdc956","68779091fd9f5319770910a5","1","1","67eab317b6f969b3df440160","1","1","2025-07-16T12:10:24.358Z","","","","","","","","","","","MotivationQ","","50","","","","","","","","","","","","","","","","","","","","","","","","","","","","",""
"","","","","ctl-task-cpt","29","1089920","0.0-5.0-0.4","107","1","2025-07-16 11:52:53","1f75c3e559b7213887762d5229550c2b","107.180.168.139","Mozilla/5.0 (Windows NT 10.0; Win64; x64) AppleWebKit/537.36 (KHTML, like Gecko) Chrome/134.0.0.0 Safari/537.36","WebKit","Chrome","134.0.0.0","Windows","10.0","https://app.prolific.com/","en-US,en;q=0.9","67eab317b6f969b3df440160","686e379bc37a29ffa5cdc956","68779091fd9f5319770910a5","1","1","67eab317b6f969b3df440160","1","1","2025-07-16T12:11:10.972Z","","","","","","","","","","","","","","win-only","0","g1:NW,g2:SE","0.6","5","0","1052877.9","3383.3","8386.1","43594.7","1","4","8","6","2","-8","-8","0","5","0","5002.8","3000","-2735","[""down"",""right""]","{""num_key_presses"":6,""num_perfect"":4,""num_errors"":0,""num_randdir"":2,""num_randdir_good_moves"":1,""num_whilered"":0,""num_whileblue"":0,""num_blue"":4,""num_good_moves"":5}","[352.09909188406806,343.1928561891828,0.3,349.09909188406806,343.1928561891828,102.7,332.59909188406806,286.1928561891828,203.5,332.59909188406806,286.1928561891828,307.1,332.59909188406806,286.1928561891828,407.3,332.59909188406806,286.1928561891828,508.1,332.59909188406806,286.1928561891828,612,332.59909188406806,286.1928561891828,719.8,332.59909188406806,286.1928561891828,823,332.59909188406806,286.1928561891828,927,332.59909188406806,286.1928561891828,1027.1,332.59909188406806,286.1928561891828,1127.5,332.59909188406806,286.1928561891828,1227.5,332.59909188406806,286.1928561891828,1338.1,332.59909188406806,286.1928561891828,1443.6,332.59909188406806,286.1928561891828,1547.4,332.59909188406806,286.1928561891828,1652.4,332.59909188406806,286.1928561891828,1752.4,332.59909188406806,286.1928561891828,1852.6,332.59909188406806,286.1928561891828,1958.1,332.59909188406806,286.1928561891828,2062.3,332.59909188406806,286.1928561891828,2171.6,332.59909188406806,286.1928561891828,2272.5,332.59909188406806,286.1928561891828,2373.5,332.59909188406806,286.1928561891828,2477.4,332.59909188406806,286.1928561891828,2589.1,332.59909188406806,286.1928561891828,2692.2,332.59909188406806,286.1928561891828,2792.3,332.59909188406806,286.1928561891828,2892.7,332.59909188406806,286.1928561891828,2997.8,332.59909188406806,286.1928561891828,3102.7,332.59909188406806,286.1928561891828,3204.4,332.59909188406806,286.1928561891828,3307.3,332.59909188406806,286.1928561891828,3407.9,332.59909188406806,286.1928561891828,3518.5,332.59909188406806,286.1928561891828,3622.4,332.59909188406806,286.1928561891828,3727.7,332.59909188406806,286.1928561891828,3827.7,332.59909188406806,286.1928561891828,3932.9,332.59909188406806,286.1928561891828,4037.9,332.59909188406806,286.1928561891828,4142.6,332.59909188406806,286.1928561891828,4255.7,332.59909188406806,286.1928561891828,4357,332.59909188406806,286.1928561891828,4457,332.59909188406806,286.1928561891828,4558.7,332.59909188406806,286.1928561891828,4661.9,332.59909188406806,286.1928561891828,4765.2,332.59909188406806,286.1928561891828,4870.4,332.59909188406806,286.1928561891828,4972.7]","[1484.2,1484.2,1000,0,484.2,""smooth"",""down"",""down"",""good_move"",19213.8,17729.2,2588.6,15939.7,685.5,""smooth"",""down"",""down"",""good_move"",21861,2646.6,2055.2,19214.4,591.4,""oops"",""down"",""up"",""bad_move"",25407.8,3546.3,3032.3,21861.5,514,""oops"",""right"",""down"",""good_move"",29260,3851.8,3299.9,25408.2,551.9,""smooth"",""right"",""right"",""good_move"",32780.4,3520,2951.6,29260.4,568.4,""smooth"",""right"",""right"",""good_move""]","",""
"6105","","<div style=""width:500px;"">
  <p>What determined the result of this run?</p>
  </div>","35","html-slider-response","30","1096026","0.0-5.0-1.4","107","1","2025-07-16 11:52:53","1f75c3e559b7213887762d5229550c2b","107.180.168.139","Mozilla/5.0 (Windows NT 10.0; Win64; x64) AppleWebKit/537.36 (KHTML, like Gecko) Chrome/134.0.0.0 Safari/537.36","WebKit","Chrome","134.0.0.0","Windows","10.0","https://app.prolific.com/","en-US,en;q=0.9","67eab317b6f969b3df440160","686e379bc37a29ffa5cdc956","68779091fd9f5319770910a5","1","1","67eab317b6f969b3df440160","1","1","2025-07-16T12:11:17.078Z","","","","","","","","","","","AttribQ","","50","","","","","","","","","","","","","","","","","","","","","","","","","","","","",""
"3303","","<div style=""width:500px;"">
  <p>How much control did you have over the ball?</p>
  </div>","8","html-slider-response","31","1099330","0.0-5.0-2.4","107","1","2025-07-16 11:52:53","1f75c3e559b7213887762d5229550c2b","107.180.168.139","Mozilla/5.0 (Windows NT 10.0; Win64; x64) AppleWebKit/537.36 (KHTML, like Gecko) Chrome/134.0.0.0 Safari/537.36","WebKit","Chrome","134.0.0.0","Windows","10.0","https://app.prolific.com/","en-US,en;q=0.9","67eab317b6f969b3df440160","686e379bc37a29ffa5cdc956","68779091fd9f5319770910a5","1","1","67eab317b6f969b3df440160","1","1","2025-07-16T12:11:20.382Z","","","","","","","","","","","ControlQ","","50","","","","","","","","","","","","","","","","","","","","","","","","","","","","",""
"2927","","<div style=""width:500px;"">
  <p>How would you describe your current emotional state?</p>
  </div>","90","html-slider-response","32","1102258","0.0-5.0-3.4","107","1","2025-07-16 11:52:53","1f75c3e559b7213887762d5229550c2b","107.180.168.139","Mozilla/5.0 (Windows NT 10.0; Win64; x64) AppleWebKit/537.36 (KHTML, like Gecko) Chrome/134.0.0.0 Safari/537.36","WebKit","Chrome","134.0.0.0","Windows","10.0","https://app.prolific.com/","en-US,en;q=0.9","67eab317b6f969b3df440160","686e379bc37a29ffa5cdc956","68779091fd9f5319770910a5","1","1","67eab317b6f969b3df440160","1","1","2025-07-16T12:11:23.311Z","","","","","","","","","","","StressQ","","50","","","","","","","","","","","","","","","","","","","","","","","","","","","","",""
"5151","","<div style=""width:500px;"">
  <p>What best describes how you currently feel?</p>
  </div>","43","html-slider-response","33","1107410","0.0-5.0-4.4","107","1","2025-07-16 11:52:53","1f75c3e559b7213887762d5229550c2b","107.180.168.139","Mozilla/5.0 (Windows NT 10.0; Win64; x64) AppleWebKit/537.36 (KHTML, like Gecko) Chrome/134.0.0.0 Safari/537.36","WebKit","Chrome","134.0.0.0","Windows","10.0","https://app.prolific.com/","en-US,en;q=0.9","67eab317b6f969b3df440160","686e379bc37a29ffa5cdc956","68779091fd9f5319770910a5","1","1","67eab317b6f969b3df440160","1","1","2025-07-16T12:11:28.462Z","","","","","","","","","","","MotivationQ","","50","","","","","","","","","","","","","","","","","","","","","","","","","","","","",""
"","","","","ctl-task-cpt","34","1155664","0.0-5.0-0.5","107","1","2025-07-16 11:52:53","1f75c3e559b7213887762d5229550c2b","107.180.168.139","Mozilla/5.0 (Windows NT 10.0; Win64; x64) AppleWebKit/537.36 (KHTML, like Gecko) Chrome/134.0.0.0 Safari/537.36","WebKit","Chrome","134.0.0.0","Windows","10.0","https://app.prolific.com/","en-US,en;q=0.9","67eab317b6f969b3df440160","686e379bc37a29ffa5cdc956","68779091fd9f5319770910a5","1","1","67eab317b6f969b3df440160","1","1","2025-07-16T12:12:16.716Z","","","","","","","","","","","","","","win-only","3","g1:SW,g2:NE","0.5","6","0","1116982.2","4727","9730.6","45246","1","4","4","6","2","-4","-4","0","0","0","5003.6","3000","-2445","[""up"",""right""]","{""num_key_presses"":7,""num_perfect"":4,""num_errors"":0,""num_randdir"":3,""num_randdir_good_moves"":2,""num_whilered"":0,""num_whileblue"":0,""num_blue"":4,""num_good_moves"":6}","[349.09909188406806,341.6928561891828,0.4,349.09909188406806,341.6928561891828,103.2,350.59909188406806,340.1928561891828,203.2,350.59909188406806,337.1928561891828,303.5,350.59909188406806,337.1928561891828,409.1,350.59909188406806,337.1928561891828,513.9,350.59909188406806,337.1928561891828,614.1,350.59909188406806,337.1928561891828,718.4,350.59909188406806,337.1928561891828,826.6,350.59909188406806,337.1928561891828,926.7,350.59909188406806,337.1928561891828,1027.8,350.59909188406806,337.1928561891828,1128.2,350.59909188406806,337.1928561891828,1229.1,350.59909188406806,337.1928561891828,1339.9,350.59909188406806,337.1928561891828,1443.9,350.59909188406806,337.1928561891828,1543.9,350.59909188406806,337.1928561891828,1644.4,350.59909188406806,337.1928561891828,1744.8,350.59909188406806,337.1928561891828,1849.1,350.59909188406806,337.1928561891828,1953.8,350.59909188406806,337.1928561891828,2059.3,350.59909188406806,337.1928561891828,2160.3,350.59909188406806,337.1928561891828,2263.1,350.59909188406806,337.1928561891828,2364.3,350.59909188406806,337.1928561891828,2468.4,350.59909188406806,337.1928561891828,2573.7,350.59909188406806,337.1928561891828,2674.1,350.59909188406806,337.1928561891828,2778.3,350.59909188406806,337.1928561891828,2878.7,350.59909188406806,337.1928561891828,2981.2,350.59909188406806,337.1928561891828,3083.5,350.59909188406806,337.1928561891828,3183.5,350.59909188406806,337.1928561891828,3294.4,350.59909188406806,337.1928561891828,3399.1,350.59909188406806,337.1928561891828,3503.9,350.59909188406806,337.1928561891828,3603.9,350.59909188406806,337.1928561891828,3708.6,350.59909188406806,337.1928561891828,3811.6,350.59909188406806,337.1928561891828,3918.4,350.59909188406806,337.1928561891828,4025.8,350.59909188406806,337.1928561891828,4132.2,350.59909188406806,337.1928561891828,4234.9,350.59909188406806,337.1928561891828,4338.5,350.59909188406806,337.1928561891828,4444.1,350.59909188406806,337.1928561891828,4548.3,350.59909188406806,337.1928561891828,4648.3,350.59909188406806,337.1928561891828,4749,350.59909188406806,337.1928561891828,4862.2,350.59909188406806,337.1928561891828,4962.3]","[1587.3,1587.3,1000,0,587.3,""smooth"",""right"",""right"",""good_move"",3835.1,2247.5,1728.9,1587.6,518.6,""smooth"",""right"",""right"",""good_move"",6843.1,3007.8,2575.8,3835.3,432,""smooth"",""right"",""right"",""good_move"",13155.3,6311.8,2259.8,10442.7,452.8,""oops"",""up"",""left"",""bad_move"",20131,6975.3,2239.4,17460.9,430.8,""oops"",""up"",""right"",""good_move"",23771.1,3639.6,2905,20131.5,734.6,""oops"",""up"",""up"",""good_move"",33051,9279.6,2154.8,30448.9,447.3,""smooth"",""up"",""up"",""good_move""]","",""
"3001","","<div style=""width:500px;"">
  <p>What determined the result of this run?</p>
  </div>","18","html-slider-response","35","1158666","0.0-5.0-1.5","107","1","2025-07-16 11:52:53","1f75c3e559b7213887762d5229550c2b","107.180.168.139","Mozilla/5.0 (Windows NT 10.0; Win64; x64) AppleWebKit/537.36 (KHTML, like Gecko) Chrome/134.0.0.0 Safari/537.36","WebKit","Chrome","134.0.0.0","Windows","10.0","https://app.prolific.com/","en-US,en;q=0.9","67eab317b6f969b3df440160","686e379bc37a29ffa5cdc956","68779091fd9f5319770910a5","1","1","67eab317b6f969b3df440160","1","1","2025-07-16T12:12:19.718Z","","","","","","","","","","","AttribQ","","50","","","","","","","","","","","","","","","","","","","","","","","","","","","","",""
"2839","","<div style=""width:500px;"">
  <p>How much control did you have over the ball?</p>
  </div>","7","html-slider-response","36","1161506","0.0-5.0-2.5","107","1","2025-07-16 11:52:53","1f75c3e559b7213887762d5229550c2b","107.180.168.139","Mozilla/5.0 (Windows NT 10.0; Win64; x64) AppleWebKit/537.36 (KHTML, like Gecko) Chrome/134.0.0.0 Safari/537.36","WebKit","Chrome","134.0.0.0","Windows","10.0","https://app.prolific.com/","en-US,en;q=0.9","67eab317b6f969b3df440160","686e379bc37a29ffa5cdc956","68779091fd9f5319770910a5","1","1","67eab317b6f969b3df440160","1","1","2025-07-16T12:12:22.558Z","","","","","","","","","","","ControlQ","","50","","","","","","","","","","","","","","","","","","","","","","","","","","","","",""
"2711","","<div style=""width:500px;"">
  <p>How would you describe your current emotional state?</p>
  </div>","100","html-slider-response","37","1164218","0.0-5.0-3.5","107","1","2025-07-16 11:52:53","1f75c3e559b7213887762d5229550c2b","107.180.168.139","Mozilla/5.0 (Windows NT 10.0; Win64; x64) AppleWebKit/537.36 (KHTML, like Gecko) Chrome/134.0.0.0 Safari/537.36","WebKit","Chrome","134.0.0.0","Windows","10.0","https://app.prolific.com/","en-US,en;q=0.9","67eab317b6f969b3df440160","686e379bc37a29ffa5cdc956","68779091fd9f5319770910a5","1","1","67eab317b6f969b3df440160","1","1","2025-07-16T12:12:25.270Z","","","","","","","","","","","StressQ","","50","","","","","","","","","","","","","","","","","","","","","","","","","","","","",""
"3735","","<div style=""width:500px;"">
  <p>What best describes how you currently feel?</p>
  </div>","45","html-slider-response","38","1167954","0.0-5.0-4.5","107","1","2025-07-16 11:52:53","1f75c3e559b7213887762d5229550c2b","107.180.168.139","Mozilla/5.0 (Windows NT 10.0; Win64; x64) AppleWebKit/537.36 (KHTML, like Gecko) Chrome/134.0.0.0 Safari/537.36","WebKit","Chrome","134.0.0.0","Windows","10.0","https://app.prolific.com/","en-US,en;q=0.9","67eab317b6f969b3df440160","686e379bc37a29ffa5cdc956","68779091fd9f5319770910a5","1","1","67eab317b6f969b3df440160","1","1","2025-07-16T12:12:29.006Z","","","","","","","","","","","MotivationQ","","50","","","","","","","","","","","","","","","","","","","","","","","","","","","","",""
"","","","","ctl-task-cpt","39","1198557","0.0-5.0-0.6","107","1","2025-07-16 11:52:53","1f75c3e559b7213887762d5229550c2b","107.180.168.139","Mozilla/5.0 (Windows NT 10.0; Win64; x64) AppleWebKit/537.36 (KHTML, like Gecko) Chrome/134.0.0.0 Safari/537.36","WebKit","Chrome","134.0.0.0","Windows","10.0","https://app.prolific.com/","en-US,en;q=0.9","67eab317b6f969b3df440160","686e379bc37a29ffa5cdc956","68779091fd9f5319770910a5","1","1","67eab317b6f969b3df440160","1","1","2025-07-16T12:12:59.610Z","","","","","","","","","","","","","","win-only","3","g1:SW,g2:NE","0.4","7","0","1177525.7","1348.5","6351.7","27585.4","1","4","4","6","2","-4","-4","0","0","0","5003.2","3000","-2380","[""up"",""right""]","{""num_key_presses"":7,""num_perfect"":2,""num_errors"":0,""num_randdir"":5,""num_randdir_good_moves"":2,""num_whilered"":0,""num_whileblue"":0,""num_blue"":0,""num_good_moves"":4}","[349.09909188406806,340.1928561891828,0.3,349.09909188406806,340.1928561891828,105,349.09909188406806,337.1928561891828,217.3,349.09909188406806,337.1928561891828,322.6,349.09909188406806,337.1928561891828,424.3,349.09909188406806,337.1928561891828,527.3,349.09909188406806,337.1928561891828,630.9,349.09909188406806,337.1928561891828,732.4,349.09909188406806,337.1928561891828,832.4,349.09909188406806,337.1928561891828,945.4,349.09909188406806,337.1928561891828,1047.6,349.09909188406806,337.1928561891828,1155.2,349.09909188406806,337.1928561891828,1267.2,349.09909188406806,337.1928561891828,1372.6,349.09909188406806,337.1928561891828,1483.9,349.09909188406806,337.1928561891828,1597.2,349.09909188406806,337.1928561891828,1700.2,349.09909188406806,337.1928561891828,1802.7,349.09909188406806,337.1928561891828,1907.4,349.09909188406806,337.1928561891828,2016.7,349.09909188406806,337.1928561891828,2117.5,349.09909188406806,337.1928561891828,2217.5,349.09909188406806,337.1928561891828,2321.9,349.09909188406806,337.1928561891828,2421.9,349.09909188406806,337.1928561891828,2527.7,349.09909188406806,337.1928561891828,2631.1,349.09909188406806,337.1928561891828,2732.3,349.09909188406806,337.1928561891828,2836.3,349.09909188406806,337.1928561891828,2937.2,349.09909188406806,337.1928561891828,3051.7,349.09909188406806,337.1928561891828,3152.4,349.09909188406806,337.1928561891828,3253.6,349.09909188406806,337.1928561891828,3358.3,349.09909188406806,337.1928561891828,3470.7,349.09909188406806,337.1928561891828,3574.8,349.09909188406806,337.1928561891828,3681.9,349.09909188406806,337.1928561891828,3785.4,349.09909188406806,337.1928561891828,3888.5,349.09909188406806,337.1928561891828,3990.8,349.09909188406806,337.1928561891828,4092.2,349.09909188406806,337.1928561891828,4197.6,349.09909188406806,337.1928561891828,4297.8,349.09909188406806,337.1928561891828,4398.9,349.09909188406806,337.1928561891828,4502.4,349.09909188406806,337.1928561891828,4602.6,349.09909188406806,337.1928561891828,4714.4,349.09909188406806,337.1928561891828,4817,349.09909188406806,337.1928561891828,4917.4]","[1575.6,1575.6,1000,0,575.7,""oops"",""right"",""left"",""bad_move"",4398.7,2822.5,2347.1,1576.2,475.4,""smooth"",""up"",""up"",""good_move"",7278.6,2879.6,2439.7,4399.1,439.8,""oops"",""up"",""down"",""bad_move"",10243.5,2964.4,2510.5,7279.1,453.9,""oops"",""up"",""up"",""good_move"",13097.8,2853.9,2421.4,10243.9,432.5,""oops"",""up"",""left"",""bad_move"",15767,2668.8,2011.4,13098.2,657.4,""oops"",""up"",""up"",""good_move"",18782.5,3015.2,2457.8,15767.4,557.4,""smooth"",""up"",""up"",""good_move""]","",""
"5012","","<div style=""width:500px;"">
  <p>What determined the result of this run?</p>
  </div>","14","html-slider-response","40","1203570","0.0-5.0-1.6","107","1","2025-07-16 11:52:53","1f75c3e559b7213887762d5229550c2b","107.180.168.139","Mozilla/5.0 (Windows NT 10.0; Win64; x64) AppleWebKit/537.36 (KHTML, like Gecko) Chrome/134.0.0.0 Safari/537.36","WebKit","Chrome","134.0.0.0","Windows","10.0","https://app.prolific.com/","en-US,en;q=0.9","67eab317b6f969b3df440160","686e379bc37a29ffa5cdc956","68779091fd9f5319770910a5","1","1","67eab317b6f969b3df440160","1","1","2025-07-16T12:13:04.623Z","","","","","","","","","","","AttribQ","","50","","","","","","","","","","","","","","","","","","","","","","","","","","","","",""
"2351","","<div style=""width:500px;"">
  <p>How much control did you have over the ball?</p>
  </div>","6","html-slider-response","41","1205922","0.0-5.0-2.6","107","1","2025-07-16 11:52:53","1f75c3e559b7213887762d5229550c2b","107.180.168.139","Mozilla/5.0 (Windows NT 10.0; Win64; x64) AppleWebKit/537.36 (KHTML, like Gecko) Chrome/134.0.0.0 Safari/537.36","WebKit","Chrome","134.0.0.0","Windows","10.0","https://app.prolific.com/","en-US,en;q=0.9","67eab317b6f969b3df440160","686e379bc37a29ffa5cdc956","68779091fd9f5319770910a5","1","1","67eab317b6f969b3df440160","1","1","2025-07-16T12:13:06.975Z","","","","","","","","","","","ControlQ","","50","","","","","","","","","","","","","","","","","","","","","","","","","","","","",""
"3215","","<div style=""width:500px;"">
  <p>How would you describe your current emotional state?</p>
  </div>","100","html-slider-response","42","1209138","0.0-5.0-3.6","107","1","2025-07-16 11:52:53","1f75c3e559b7213887762d5229550c2b","107.180.168.139","Mozilla/5.0 (Windows NT 10.0; Win64; x64) AppleWebKit/537.36 (KHTML, like Gecko) Chrome/134.0.0.0 Safari/537.36","WebKit","Chrome","134.0.0.0","Windows","10.0","https://app.prolific.com/","en-US,en;q=0.9","67eab317b6f969b3df440160","686e379bc37a29ffa5cdc956","68779091fd9f5319770910a5","1","1","67eab317b6f969b3df440160","1","1","2025-07-16T12:13:10.190Z","","","","","","","","","","","StressQ","","50","","","","","","","","","","","","","","","","","","","","","","","","","","","","",""
"7991","","<div style=""width:500px;"">
  <p>What best describes how you currently feel?</p>
  </div>","43","html-slider-response","43","1217130","0.0-5.0-4.6","107","1","2025-07-16 11:52:53","1f75c3e559b7213887762d5229550c2b","107.180.168.139","Mozilla/5.0 (Windows NT 10.0; Win64; x64) AppleWebKit/537.36 (KHTML, like Gecko) Chrome/134.0.0.0 Safari/537.36","WebKit","Chrome","134.0.0.0","Windows","10.0","https://app.prolific.com/","en-US,en;q=0.9","67eab317b6f969b3df440160","686e379bc37a29ffa5cdc956","68779091fd9f5319770910a5","1","1","67eab317b6f969b3df440160","1","1","2025-07-16T12:13:18.182Z","","","","","","","","","","","MotivationQ","","50","","","","","","","","","","","","","","","","","","","","","","","","","","","","",""
"","","","","ctl-task-cpt","44","1263430","0.0-5.0-0.7","107","1","2025-07-16 11:52:53","1f75c3e559b7213887762d5229550c2b","107.180.168.139","Mozilla/5.0 (Windows NT 10.0; Win64; x64) AppleWebKit/537.36 (KHTML, like Gecko) Chrome/134.0.0.0 Safari/537.36","WebKit","Chrome","134.0.0.0","Windows","10.0","https://app.prolific.com/","en-US,en;q=0.9","67eab317b6f969b3df440160","686e379bc37a29ffa5cdc956","68779091fd9f5319770910a5","1","1","67eab317b6f969b3df440160","1","1","2025-07-16T12:14:04.482Z","","","","","","","","","","","","","","win-only","3","g1:SW,g2:NE","0.3","8","0","1226702","2487","7490.2","43281.2","1","4","8","6","2","-8","-9","0","0","0","5003.1","3000","-2185","[""up"",""right""]","{""num_key_presses"":8,""num_perfect"":2,""num_errors"":1,""num_randdir"":5,""num_randdir_good_moves"":2,""num_whilered"":0,""num_whileblue"":0,""num_blue"":3,""num_good_moves"":4}","[344.59909188406806,341.6928561891828,0.3,344.59909188406806,341.6928561891828,115.2,344.59909188406806,341.6928561891828,218.9,344.59909188406806,341.6928561891828,325.2,344.59909188406806,341.6928561891828,429.1,352.09909188406806,344.6928561891828,535.2,353.59909188406806,346.1928561891828,635.4,353.59909188406806,346.1928561891828,738.8,353.59909188406806,346.1928561891828,851,353.59909188406806,346.1928561891828,969.2,353.59909188406806,346.1928561891828,1069.2,353.59909188406806,346.1928561891828,1172.2,353.59909188406806,346.1928561891828,1283.9,353.59909188406806,346.1928561891828,1385,353.59909188406806,346.1928561891828,1488.4,353.59909188406806,346.1928561891828,1589,353.59909188406806,346.1928561891828,1693.7,353.59909188406806,346.1928561891828,1802.5,353.59909188406806,346.1928561891828,1903.6,353.59909188406806,346.1928561891828,2004.2,353.59909188406806,346.1928561891828,2115,353.59909188406806,346.1928561891828,2218.2,353.59909188406806,346.1928561891828,2318.7,353.59909188406806,346.1928561891828,2435.5,353.59909188406806,346.1928561891828,2536.4,353.59909188406806,346.1928561891828,2638.6,353.59909188406806,346.1928561891828,2747,353.59909188406806,346.1928561891828,2851.7,353.59909188406806,346.1928561891828,2954.1,353.59909188406806,346.1928561891828,3071.3,353.59909188406806,346.1928561891828,3171.8,353.59909188406806,346.1928561891828,3274.3,353.59909188406806,346.1928561891828,3389.9,353.59909188406806,346.1928561891828,3494,353.59909188406806,346.1928561891828,3594,353.59909188406806,346.1928561891828,3703.3,353.59909188406806,346.1928561891828,3803.7,353.59909188406806,346.1928561891828,3903.9,353.59909188406806,346.1928561891828,4004.8,353.59909188406806,346.1928561891828,4120.3,353.59909188406806,346.1928561891828,4223.7,353.59909188406806,346.1928561891828,4333.8,353.59909188406806,346.1928561891828,4437.4,353.59909188406806,346.1928561891828,4539.2,353.59909188406806,346.1928561891828,4640.4,353.59909188406806,346.1928561891828,4743.8,353.59909188406806,346.1928561891828,4845,353.59909188406806,346.1928561891828,4956.5]","[1460.1,1460.1,1000,0,460.1,""oops"",""up"",""right"",""good_move"",3699.8,2239.4,1821.8,1460.4,417.6,""smooth"",""up"",""up"",""good_move"",10380,6679.9,2413.8,7525.7,440.5,""oops"",""up"",""left"",""bad_move"",13713.2,3332.8,2834.3,10380.4,498.5,""oops"",""up"",""left"",""bad_move"",17398.4,3684.8,2700.9,13713.6,983.9,""oops"",""up"",""up"",""good_move"",17427.5,28.5,2250.7,17399,-2222.2,""error"",""-"",""-"",""no_move"",29058.7,11631,3131.5,25440,487.2,""smooth"",""right"",""right"",""good_move"",32731.8,3672.8,3068.4,29059,604.4,""oops"",""right"",""down"",""bad_move""]","",""
"4443","","<div style=""width:500px;"">
  <p>What determined the result of this run?</p>
  </div>","24","html-slider-response","45","1267875","0.0-5.0-1.7","107","1","2025-07-16 11:52:53","1f75c3e559b7213887762d5229550c2b","107.180.168.139","Mozilla/5.0 (Windows NT 10.0; Win64; x64) AppleWebKit/537.36 (KHTML, like Gecko) Chrome/134.0.0.0 Safari/537.36","WebKit","Chrome","134.0.0.0","Windows","10.0","https://app.prolific.com/","en-US,en;q=0.9","67eab317b6f969b3df440160","686e379bc37a29ffa5cdc956","68779091fd9f5319770910a5","1","1","67eab317b6f969b3df440160","1","1","2025-07-16T12:14:08.927Z","","","","","","","","","","","AttribQ","","50","","","","","","","","","","","","","","","","","","","","","","","","","","","","",""
"20358","","<div style=""width:500px;"">
  <p>How much control did you have over the ball?</p>
  </div>","17","html-slider-response","46","1288234","0.0-5.0-2.7","107","1","2025-07-16 11:52:53","1f75c3e559b7213887762d5229550c2b","107.180.168.139","Mozilla/5.0 (Windows NT 10.0; Win64; x64) AppleWebKit/537.36 (KHTML, like Gecko) Chrome/134.0.0.0 Safari/537.36","WebKit","Chrome","134.0.0.0","Windows","10.0","https://app.prolific.com/","en-US,en;q=0.9","67eab317b6f969b3df440160","686e379bc37a29ffa5cdc956","68779091fd9f5319770910a5","1","1","67eab317b6f969b3df440160","1","1","2025-07-16T12:14:29.286Z","","","","","","","","","","","ControlQ","","50","","","","","","","","","","","","","","","","","","","","","","","","","","","","",""
"15535","","<div style=""width:500px;"">
  <p>How would you describe your current emotional state?</p>
  </div>","87","html-slider-response","47","1303770","0.0-5.0-3.7","107","1","2025-07-16 11:52:53","1f75c3e559b7213887762d5229550c2b","107.180.168.139","Mozilla/5.0 (Windows NT 10.0; Win64; x64) AppleWebKit/537.36 (KHTML, like Gecko) Chrome/134.0.0.0 Safari/537.36","WebKit","Chrome","134.0.0.0","Windows","10.0","https://app.prolific.com/","en-US,en;q=0.9","67eab317b6f969b3df440160","686e379bc37a29ffa5cdc956","68779091fd9f5319770910a5","1","1","67eab317b6f969b3df440160","1","1","2025-07-16T12:14:44.823Z","","","","","","","","","","","StressQ","","50","","","","","","","","","","","","","","","","","","","","","","","","","","","","",""
"4487","","<div style=""width:500px;"">
  <p>What best describes how you currently feel?</p>
  </div>","45","html-slider-response","48","1308258","0.0-5.0-4.7","107","1","2025-07-16 11:52:53","1f75c3e559b7213887762d5229550c2b","107.180.168.139","Mozilla/5.0 (Windows NT 10.0; Win64; x64) AppleWebKit/537.36 (KHTML, like Gecko) Chrome/134.0.0.0 Safari/537.36","WebKit","Chrome","134.0.0.0","Windows","10.0","https://app.prolific.com/","en-US,en;q=0.9","67eab317b6f969b3df440160","686e379bc37a29ffa5cdc956","68779091fd9f5319770910a5","1","1","67eab317b6f969b3df440160","1","1","2025-07-16T12:14:49.310Z","","","","","","","","","","","MotivationQ","","50","","","","","","","","","","","","","","","","","","","","","","","","","","","","",""
"","","","","ctl-task-cpt","49","1401306","0.0-5.0-0.8","107","1","2025-07-16 11:52:53","1f75c3e559b7213887762d5229550c2b","107.180.168.139","Mozilla/5.0 (Windows NT 10.0; Win64; x64) AppleWebKit/537.36 (KHTML, like Gecko) Chrome/134.0.0.0 Safari/537.36","WebKit","Chrome","134.0.0.0","Windows","10.0","https://app.prolific.com/","en-US,en;q=0.9","67eab317b6f969b3df440160","686e379bc37a29ffa5cdc956","68779091fd9f5319770910a5","1","1","67eab317b6f969b3df440160","1","1","2025-07-16T12:16:22.358Z","","","","","","","","","","","","","","win-only","3","g1:SW,g2:NE","0.2","9","0","1317830.1","44311.2","49317.4","90016.3","1","4","4","6","1","-1","-1","0","0","0","5006.2","3000","-2150","[""down"",""left""]","{""num_key_presses"":9,""num_perfect"":2,""num_errors"":0,""num_randdir"":7,""num_randdir_good_moves"":2,""num_whilered"":0,""num_whileblue"":0,""num_blue"":4,""num_good_moves"":4}","[334.09909188406806,340.1928561891828,0.3,334.09909188406806,340.1928561891828,107.5,334.09909188406806,340.1928561891828,213.9,334.09909188406806,340.1928561891828,315.4,334.09909188406806,340.1928561891828,421.1,334.09909188406806,340.1928561891828,530.5,334.09909188406806,340.1928561891828,646.6,334.09909188406806,340.1928561891828,755.8,334.09909188406806,340.1928561891828,860,334.09909188406806,340.1928561891828,977.5,334.09909188406806,340.1928561891828,1079.8,334.09909188406806,340.1928561891828,1179.9,334.09909188406806,340.1928561891828,1290.3,334.09909188406806,340.1928561891828,1390.7,334.09909188406806,340.1928561891828,1505.3,400.09909188406806,376.1928561891828,1609.9,653.5990918840681,523.1928561891829,1710.4,731.5990918840681,568.1928561891829,1820.8,731.5990918840681,568.1928561891829,1926.4,731.5990918840681,568.1928561891829,2045.1,731.5990918840681,568.1928561891829,2157.6,731.5990918840681,568.1928561891829,2259.6,731.5990918840681,568.1928561891829,2360.7,731.5990918840681,568.1928561891829,2469.9,731.5990918840681,568.1928561891829,2575,731.5990918840681,568.1928561891829,2675.4,731.5990918840681,568.1928561891829,2781.8,731.5990918840681,568.1928561891829,2892.4,731.5990918840681,568.1928561891829,2994.9,731.5990918840681,568.1928561891829,3111.2,731.5990918840681,568.1928561891829,3214.8,731.5990918840681,568.1928561891829,3319.7,731.5990918840681,568.1928561891829,3424.1,731.5990918840681,568.1928561891829,3526,731.5990918840681,568.1928561891829,3643.6,731.5990918840681,568.1928561891829,3746.9,731.5990918840681,568.1928561891829,3854.5,731.5990918840681,568.1928561891829,3954.7,731.5990918840681,568.1928561891829,4055,731.5990918840681,568.1928561891829,4159.9,731.5990918840681,568.1928561891829,4273.8,731.5990918840681,568.1928561891829,4377.5,731.5990918840681,568.1928561891829,4488.4,731.5990918840681,568.1928561891829,4590.9,731.5990918840681,568.1928561891829,4712.8,731.5990918840681,568.1928561891829,4816.3,731.5990918840681,568.1928561891829,4935.2]","[1278.1,1278.1,1000,0,278.1,""smooth"",""down"",""down"",""good_move"",4052.4,2773.6,2304.8,1278.9,468.8,""oops"",""down"",""up"",""bad_move"",7058.4,3005.6,2559.7,4052.9,445.9,""oops"",""left"",""down"",""good_move"",9617.5,2558.8,2062.3,7058.7,496.5,""oops"",""left"",""down"",""good_move"",12504.5,2886.8,2465,9617.7,421.8,""oops"",""left"",""right"",""bad_move"",16064.4,3559.3,2943,12505.1,616.3,""oops"",""left"",""right"",""bad_move"",25464.4,9399.8,3025.2,21967.6,471.6,""oops"",""left"",""up"",""bad_move"",28192.3,2727.5,2220.6,25464.8,506.9,""oops"",""left"",""up"",""bad_move"",30606.5,2413.8,1894.7,28192.7,519.1,""smooth"",""left"",""left"",""good_move""]","",""
"9255","","<div style=""width:500px;"">
  <p>What determined the result of this run?</p>
  </div>","0","html-slider-response","50","1410562","0.0-5.0-1.8","107","1","2025-07-16 11:52:53","1f75c3e559b7213887762d5229550c2b","107.180.168.139","Mozilla/5.0 (Windows NT 10.0; Win64; x64) AppleWebKit/537.36 (KHTML, like Gecko) Chrome/134.0.0.0 Safari/537.36","WebKit","Chrome","134.0.0.0","Windows","10.0","https://app.prolific.com/","en-US,en;q=0.9","67eab317b6f969b3df440160","686e379bc37a29ffa5cdc956","68779091fd9f5319770910a5","1","1","67eab317b6f969b3df440160","1","1","2025-07-16T12:16:31.614Z","","","","","","","","","","","AttribQ","","50","","","","","","","","","","","","","","","","","","","","","","","","","","","","",""
"4439","","<div style=""width:500px;"">
  <p>How much control did you have over the ball?</p>
  </div>","0","html-slider-response","51","1415002","0.0-5.0-2.8","107","1","2025-07-16 11:52:53","1f75c3e559b7213887762d5229550c2b","107.180.168.139","Mozilla/5.0 (Windows NT 10.0; Win64; x64) AppleWebKit/537.36 (KHTML, like Gecko) Chrome/134.0.0.0 Safari/537.36","WebKit","Chrome","134.0.0.0","Windows","10.0","https://app.prolific.com/","en-US,en;q=0.9","67eab317b6f969b3df440160","686e379bc37a29ffa5cdc956","68779091fd9f5319770910a5","1","1","67eab317b6f969b3df440160","1","1","2025-07-16T12:16:36.055Z","","","","","","","","","","","ControlQ","","50","","","","","","","","","","","","","","","","","","","","","","","","","","","","",""
"3143","","<div style=""width:500px;"">
  <p>How would you describe your current emotional state?</p>
  </div>","89","html-slider-response","52","1418147","0.0-5.0-3.8","107","1","2025-07-16 11:52:53","1f75c3e559b7213887762d5229550c2b","107.180.168.139","Mozilla/5.0 (Windows NT 10.0; Win64; x64) AppleWebKit/537.36 (KHTML, like Gecko) Chrome/134.0.0.0 Safari/537.36","WebKit","Chrome","134.0.0.0","Windows","10.0","https://app.prolific.com/","en-US,en;q=0.9","67eab317b6f969b3df440160","686e379bc37a29ffa5cdc956","68779091fd9f5319770910a5","1","1","67eab317b6f969b3df440160","1","1","2025-07-16T12:16:39.199Z","","","","","","","","","","","StressQ","","50","","","","","","","","","","","","","","","","","","","","","","","","","","","","",""
"4415","","<div style=""width:500px;"">
  <p>What best describes how you currently feel?</p>
  </div>","39","html-slider-response","53","1422562","0.0-5.0-4.8","107","1","2025-07-16 11:52:53","1f75c3e559b7213887762d5229550c2b","107.180.168.139","Mozilla/5.0 (Windows NT 10.0; Win64; x64) AppleWebKit/537.36 (KHTML, like Gecko) Chrome/134.0.0.0 Safari/537.36","WebKit","Chrome","134.0.0.0","Windows","10.0","https://app.prolific.com/","en-US,en;q=0.9","67eab317b6f969b3df440160","686e379bc37a29ffa5cdc956","68779091fd9f5319770910a5","1","1","67eab317b6f969b3df440160","1","1","2025-07-16T12:16:43.614Z","","","","","","","","","","","MotivationQ","","50","","","","","","","","","","","","","","","","","","","","","","","","","","","","",""
"","","","","ctl-task-cpt","54","1510080","0.0-5.0-0.9","107","1","2025-07-16 11:52:53","1f75c3e559b7213887762d5229550c2b","107.180.168.139","Mozilla/5.0 (Windows NT 10.0; Win64; x64) AppleWebKit/537.36 (KHTML, like Gecko) Chrome/134.0.0.0 Safari/537.36","WebKit","Chrome","134.0.0.0","Windows","10.0","https://app.prolific.com/","en-US,en;q=0.9","67eab317b6f969b3df440160","686e379bc37a29ffa5cdc956","68779091fd9f5319770910a5","1","1","67eab317b6f969b3df440160","1","1","2025-07-16T12:18:11.132Z","","","","","","","","","","","","","","win-only","1","g1:NE,g2:SW","0.4","10","0","1432134.6","42398.5","47400.6","84491.6","1","4","8","6","2","-8","-8","0","0","0","5002.1","3000","-1950","[""down"",""left""]","{""num_key_presses"":9,""num_perfect"":4,""num_errors"":0,""num_randdir"":5,""num_randdir_good_moves"":2,""num_whilered"":0,""num_whileblue"":0,""num_blue"":2,""num_good_moves"":6}","[343.09909188406806,340.1928561891828,0.3,343.09909188406806,340.1928561891828,116.5,344.59909188406806,340.1928561891828,220.7,344.59909188406806,340.1928561891828,340.7,344.59909188406806,340.1928561891828,448.2,344.59909188406806,340.1928561891828,564.8,349.09909188406806,343.1928561891828,667.1,349.09909188406806,343.1928561891828,767.5,349.09909188406806,343.1928561891828,868.1,349.09909188406806,343.1928561891828,972,349.09909188406806,343.1928561891828,1072.7,349.09909188406806,343.1928561891828,1184.8,349.09909188406806,343.1928561891828,1290.4,349.09909188406806,343.1928561891828,1393.3,349.09909188406806,343.1928561891828,1497.4,349.09909188406806,343.1928561891828,1602.7,370.09909188406806,355.1928561891828,1707,394.09909188406806,367.1928561891828,1822.2,394.09909188406806,367.1928561891828,1941.7,394.09909188406806,367.1928561891828,2051.9,394.09909188406806,367.1928561891828,2152.8,394.09909188406806,367.1928561891828,2256,394.09909188406806,367.1928561891828,2357.5,394.09909188406806,367.1928561891828,2468,394.09909188406806,367.1928561891828,2580.1,394.09909188406806,367.1928561891828,2683.2,394.09909188406806,367.1928561891828,2786.3,394.09909188406806,367.1928561891828,2898,394.09909188406806,367.1928561891828,3002.7,394.09909188406806,367.1928561891828,3104.7,395.59909188406806,367.1928561891828,3207.6,421.09909188406806,383.6928561891828,3312.2,439.09909188406806,394.1928561891828,3422.3,439.09909188406806,394.1928561891828,3527,439.09909188406806,394.1928561891828,3627.4,439.09909188406806,394.1928561891828,3727.6,439.09909188406806,394.1928561891828,3835.2,439.09909188406806,394.1928561891828,3938.3,439.09909188406806,394.1928561891828,4044.8,439.09909188406806,394.1928561891828,4147.8,439.09909188406806,394.1928561891828,4249.2,439.09909188406806,394.1928561891828,4352.1,439.09909188406806,394.1928561891828,4454.9,439.09909188406806,394.1928561891828,4557.6,439.09909188406806,394.1928561891828,4662.7,439.09909188406806,394.1928561891828,4767.4,439.09909188406806,394.1928561891828,4868.5,439.09909188406806,394.1928561891828,4990.3]","[1140.6,1140.6,1000,0,140.6,""oops"",""down"",""left"",""good_move"",12149.8,11008.7,2808.6,8882.7,458.5,""oops"",""down"",""up"",""bad_move"",16270.9,4120.6,3328.4,12150.3,792.2,""smooth"",""down"",""down"",""good_move"",19725,3453.7,2752.7,16271.3,701,""smooth"",""left"",""left"",""good_move"",22556.7,2831.4,2405,19725.3,426.4,""smooth"",""left"",""left"",""good_move"",25532.5,2975.4,2535,22557.1,440.4,""oops"",""down"",""down"",""good_move"",28236.6,2703.8,2209.3,25532.8,494.5,""smooth"",""down"",""down"",""good_move"",31188.7,2951.7,2481.7,28237,470,""oops"",""down"",""right"",""bad_move"",34245.9,3056.9,2553.4,31189,503.5,""oops"",""down"",""right"",""bad_move""]","",""
"5546","","<div style=""width:500px;"">
  <p>What determined the result of this run?</p>
  </div>","0","html-slider-response","55","1515627","0.0-5.0-1.9","107","1","2025-07-16 11:52:53","1f75c3e559b7213887762d5229550c2b","107.180.168.139","Mozilla/5.0 (Windows NT 10.0; Win64; x64) AppleWebKit/537.36 (KHTML, like Gecko) Chrome/134.0.0.0 Safari/537.36","WebKit","Chrome","134.0.0.0","Windows","10.0","https://app.prolific.com/","en-US,en;q=0.9","67eab317b6f969b3df440160","686e379bc37a29ffa5cdc956","68779091fd9f5319770910a5","1","1","67eab317b6f969b3df440160","1","1","2025-07-16T12:18:16.679Z","","","","","","","","","","","AttribQ","","50","","","","","","","","","","","","","","","","","","","","","","","","","","","","",""
"3639","","<div style=""width:500px;"">
  <p>How much control did you have over the ball?</p>
  </div>","22","html-slider-response","56","1519266","0.0-5.0-2.9","107","1","2025-07-16 11:52:53","1f75c3e559b7213887762d5229550c2b","107.180.168.139","Mozilla/5.0 (Windows NT 10.0; Win64; x64) AppleWebKit/537.36 (KHTML, like Gecko) Chrome/134.0.0.0 Safari/537.36","WebKit","Chrome","134.0.0.0","Windows","10.0","https://app.prolific.com/","en-US,en;q=0.9","67eab317b6f969b3df440160","686e379bc37a29ffa5cdc956","68779091fd9f5319770910a5","1","1","67eab317b6f969b3df440160","1","1","2025-07-16T12:18:20.318Z","","","","","","","","","","","ControlQ","","50","","","","","","","","","","","","","","","","","","","","","","","","","","","","",""
"3158","","<div style=""width:500px;"">
  <p>How would you describe your current emotional state?</p>
  </div>","65","html-slider-response","57","1522426","0.0-5.0-3.9","107","1","2025-07-16 11:52:53","1f75c3e559b7213887762d5229550c2b","107.180.168.139","Mozilla/5.0 (Windows NT 10.0; Win64; x64) AppleWebKit/537.36 (KHTML, like Gecko) Chrome/134.0.0.0 Safari/537.36","WebKit","Chrome","134.0.0.0","Windows","10.0","https://app.prolific.com/","en-US,en;q=0.9","67eab317b6f969b3df440160","686e379bc37a29ffa5cdc956","68779091fd9f5319770910a5","1","1","67eab317b6f969b3df440160","1","1","2025-07-16T12:18:23.478Z","","","","","","","","","","","StressQ","","50","","","","","","","","","","","","","","","","","","","","","","","","","","","","",""
"5991","","<div style=""width:500px;"">
  <p>What best describes how you currently feel?</p>
  </div>","70","html-slider-response","58","1528418","0.0-5.0-4.9","107","1","2025-07-16 11:52:53","1f75c3e559b7213887762d5229550c2b","107.180.168.139","Mozilla/5.0 (Windows NT 10.0; Win64; x64) AppleWebKit/537.36 (KHTML, like Gecko) Chrome/134.0.0.0 Safari/537.36","WebKit","Chrome","134.0.0.0","Windows","10.0","https://app.prolific.com/","en-US,en;q=0.9","67eab317b6f969b3df440160","686e379bc37a29ffa5cdc956","68779091fd9f5319770910a5","1","1","67eab317b6f969b3df440160","1","1","2025-07-16T12:18:29.470Z","","","","","","","","","","","MotivationQ","","50","","","","","","","","","","","","","","","","","","","","","","","","","","","","",""
"","","","","ctl-task-cpt","59","1581869","0.0-5.0-0.10","107","1","2025-07-16 11:52:53","1f75c3e559b7213887762d5229550c2b","107.180.168.139","Mozilla/5.0 (Windows NT 10.0; Win64; x64) AppleWebKit/537.36 (KHTML, like Gecko) Chrome/134.0.0.0 Safari/537.36","WebKit","Chrome","134.0.0.0","Windows","10.0","https://app.prolific.com/","en-US,en;q=0.9","67eab317b6f969b3df440160","686e379bc37a29ffa5cdc956","68779091fd9f5319770910a5","1","1","67eab317b6f969b3df440160","1","1","2025-07-16T12:19:22.921Z","","","","","","","","","","","","","","win-only","2","g1:SE,g2:NW","0.5","11","0","1537990.5","9547.3","14548.4","50425.8","1","4","4","6","2","-4","-5","0","0","0","5001.1","3000","-1905","[""left"",""up""]","{""num_key_presses"":11,""num_perfect"":5,""num_errors"":1,""num_randdir"":5,""num_randdir_good_moves"":1,""num_whilered"":0,""num_whileblue"":1,""num_blue"":2,""num_good_moves"":6}","[349.09909188406806,340.1928561891828,0.3,349.09909188406806,340.1928561891828,104.3,349.09909188406806,340.1928561891828,212.5,349.09909188406806,340.1928561891828,313.7,349.09909188406806,340.1928561891828,413.9,349.09909188406806,340.1928561891828,515.1,349.09909188406806,340.1928561891828,618.3,349.09909188406806,340.1928561891828,718.7,349.09909188406806,340.1928561891828,837.8,349.09909188406806,340.1928561891828,947.7,349.09909188406806,340.1928561891828,1055.5,349.09909188406806,340.1928561891828,1168.3,349.09909188406806,340.1928561891828,1269.1,349.09909188406806,340.1928561891828,1380.9,349.09909188406806,340.1928561891828,1491.6,349.09909188406806,340.1928561891828,1593.8,349.09909188406806,340.1928561891828,1699.2,349.09909188406806,340.1928561891828,1803,349.09909188406806,340.1928561891828,1903.3,349.09909188406806,340.1928561891828,2005.5,349.09909188406806,340.1928561891828,2113.9,349.09909188406806,340.1928561891828,2217.9,349.09909188406806,340.1928561891828,2323.8,349.09909188406806,340.1928561891828,2433.9,349.09909188406806,340.1928561891828,2534.9,349.09909188406806,340.1928561891828,2637.1,349.09909188406806,340.1928561891828,2758.6,349.09909188406806,340.1928561891828,2866.7,349.09909188406806,340.1928561891828,2971.5,349.09909188406806,340.1928561891828,3074.2,349.09909188406806,340.1928561891828,3175.5,349.09909188406806,340.1928561891828,3283.1,349.09909188406806,340.1928561891828,3387.6,349.09909188406806,340.1928561891828,3489.1,349.09909188406806,340.1928561891828,3600.2,349.09909188406806,340.1928561891828,3714.3,349.09909188406806,340.1928561891828,3818.1,349.09909188406806,340.1928561891828,3919.5,349.09909188406806,340.1928561891828,4031.6,349.09909188406806,340.1928561891828,4134.9,349.09909188406806,340.1928561891828,4255.4,349.09909188406806,340.1928561891828,4358.3,349.09909188406806,340.1928561891828,4458.3,349.09909188406806,340.1928561891828,4576.5,349.09909188406806,340.1928561891828,4685.3,349.09909188406806,340.1928561891828,4788.3,349.09909188406806,340.1928561891828,4899.3]","[1656.8,1656.8,1000,0,656.8,""oops"",""up"",""right"",""bad_move"",4491,2833.3,2424.8,1657.7,408.5,""smooth"",""up"",""up"",""good_move"",6937,2445.3,2021.8,4491.7,423.5,""oops"",""up"",""right"",""bad_move"",9659,2721.7,2293.3,6937.3,428.4,""smooth"",""up"",""up"",""good_move"",13385.1,3725.8,3341.8,9659.3,384,""while_blue"",""up"",""down"",""bad_move"",15664.8,2279.2,1690.7,13385.6,588.5,""oops"",""up"",""down"",""bad_move"",18690.1,3025.1,2542,15665,483.1,""oops"",""up"",""up"",""good_move"",21703.9,3013.6,2540,18690.3,473.6,""oops"",""up"",""down"",""bad_move"",24981.3,3277.1,2765.1,21704.2,512,""smooth"",""up"",""up"",""good_move"",27090.1,2108.5,1653.2,24981.6,455.3,""smooth"",""up"",""up"",""good_move"",29553.4,2463.1,1959.1,27090.3,504,""smooth"",""up"",""up"",""good_move""]","",""
"5436","","<div style=""width:500px;"">
  <p>What determined the result of this run?</p>
  </div>","2","html-slider-response","60","1587306","0.0-5.0-1.10","107","1","2025-07-16 11:52:53","1f75c3e559b7213887762d5229550c2b","107.180.168.139","Mozilla/5.0 (Windows NT 10.0; Win64; x64) AppleWebKit/537.36 (KHTML, like Gecko) Chrome/134.0.0.0 Safari/537.36","WebKit","Chrome","134.0.0.0","Windows","10.0","https://app.prolific.com/","en-US,en;q=0.9","67eab317b6f969b3df440160","686e379bc37a29ffa5cdc956","68779091fd9f5319770910a5","1","1","67eab317b6f969b3df440160","1","1","2025-07-16T12:19:28.358Z","","","","","","","","","","","AttribQ","","50","","","","","","","","","","","","","","","","","","","","","","","","","","","","",""
"24131","","<div style=""width:500px;"">
  <p>How much control did you have over the ball?</p>
  </div>","9","html-slider-response","61","1611439","0.0-5.0-2.10","107","1","2025-07-16 11:52:53","1f75c3e559b7213887762d5229550c2b","107.180.168.139","Mozilla/5.0 (Windows NT 10.0; Win64; x64) AppleWebKit/537.36 (KHTML, like Gecko) Chrome/134.0.0.0 Safari/537.36","WebKit","Chrome","134.0.0.0","Windows","10.0","https://app.prolific.com/","en-US,en;q=0.9","67eab317b6f969b3df440160","686e379bc37a29ffa5cdc956","68779091fd9f5319770910a5","1","1","67eab317b6f969b3df440160","1","1","2025-07-16T12:19:52.491Z","","","","","","","","","","","ControlQ","","50","","","","","","","","","","","","","","","","","","","","","","","","","","","","",""
"11703","","<div style=""width:500px;"">
  <p>How would you describe your current emotional state?</p>
  </div>","78","html-slider-response","62","1623143","0.0-5.0-3.10","107","1","2025-07-16 11:52:53","1f75c3e559b7213887762d5229550c2b","107.180.168.139","Mozilla/5.0 (Windows NT 10.0; Win64; x64) AppleWebKit/537.36 (KHTML, like Gecko) Chrome/134.0.0.0 Safari/537.36","WebKit","Chrome","134.0.0.0","Windows","10.0","https://app.prolific.com/","en-US,en;q=0.9","67eab317b6f969b3df440160","686e379bc37a29ffa5cdc956","68779091fd9f5319770910a5","1","1","67eab317b6f969b3df440160","1","1","2025-07-16T12:20:04.195Z","","","","","","","","","","","StressQ","","50","","","","","","","","","","","","","","","","","","","","","","","","","","","","",""
"20813","","<div style=""width:500px;"">
  <p>What best describes how you currently feel?</p>
  </div>","68","html-slider-response","63","1643957","0.0-5.0-4.10","107","1","2025-07-16 11:52:53","1f75c3e559b7213887762d5229550c2b","107.180.168.139","Mozilla/5.0 (Windows NT 10.0; Win64; x64) AppleWebKit/537.36 (KHTML, like Gecko) Chrome/134.0.0.0 Safari/537.36","WebKit","Chrome","134.0.0.0","Windows","10.0","https://app.prolific.com/","en-US,en;q=0.9","67eab317b6f969b3df440160","686e379bc37a29ffa5cdc956","68779091fd9f5319770910a5","1","1","67eab317b6f969b3df440160","1","1","2025-07-16T12:20:25.009Z","","","","","","","","","","","MotivationQ","","50","","","","","","","","","","","","","","","","","","","","","","","","","","","","",""
"","","","","ctl-task-cpt","64","1689906","0.0-5.0-0.11","107","1","2025-07-16 11:52:53","1f75c3e559b7213887762d5229550c2b","107.180.168.139","Mozilla/5.0 (Windows NT 10.0; Win64; x64) AppleWebKit/537.36 (KHTML, like Gecko) Chrome/134.0.0.0 Safari/537.36","WebKit","Chrome","134.0.0.0","Windows","10.0","https://app.prolific.com/","en-US,en;q=0.9","67eab317b6f969b3df440160","686e379bc37a29ffa5cdc956","68779091fd9f5319770910a5","1","1","67eab317b6f969b3df440160","1","1","2025-07-16T12:21:10.958Z","","","","","","","","","","","","","","win-only","1","g1:NE,g2:SW","0.6","12","0","1653529","15708","20724.8","42915.5","1","4","8","6","1","1","1","1","0","0.007575757575757576","5016.8","3000","1355","[""up"",""right""]","{""num_key_presses"":6,""num_perfect"":3,""num_errors"":0,""num_randdir"":3,""num_randdir_good_moves"":2,""num_whilered"":0,""num_whileblue"":0,""num_blue"":2,""num_good_moves"":5}","[337.09909188406806,344.6928561891828,0.4,337.09909188406806,344.6928561891828,107.7,337.09909188406806,344.6928561891828,234.6,337.09909188406806,344.6928561891828,338,337.09909188406806,344.6928561891828,458.4,337.09909188406806,344.6928561891828,590.4,337.09909188406806,344.6928561891828,692.5,337.09909188406806,344.6928561891828,806.7,337.09909188406806,344.6928561891828,907.8,326.59909188406806,343.1928561891828,1007.8,322.09909188406806,340.1928561891828,1115.7,322.09909188406806,340.1928561891828,1217.5,322.09909188406806,340.1928561891828,1319.1,322.09909188406806,340.1928561891828,1423.1,322.09909188406806,340.1928561891828,1523.9,322.09909188406806,340.1928561891828,1657.8,322.09909188406806,340.1928561891828,1758.8,322.09909188406806,340.1928561891828,1880,353.59909188406806,353.6928561891828,1998.6,400.09909188406806,379.1928561891828,2111.2,400.09909188406806,379.1928561891828,2231.7,400.09909188406806,379.1928561891828,2345.3,400.09909188406806,379.1928561891828,2457.6,400.09909188406806,379.1928561891828,2558.4,400.09909188406806,379.1928561891828,2658.6,400.09909188406806,379.1928561891828,2770.3,400.09909188406806,379.1928561891828,2873.7,400.09909188406806,379.1928561891828,2985.8,400.09909188406806,379.1928561891828,3095.8,400.09909188406806,379.1928561891828,3198.5,400.09909188406806,379.1928561891828,3319.2,400.09909188406806,379.1928561891828,3422.2,400.09909188406806,379.1928561891828,3527.2,400.09909188406806,379.1928561891828,3628.2,400.09909188406806,379.1928561891828,3747.5,400.09909188406806,379.1928561891828,3847.7,400.09909188406806,379.1928561891828,3947.8,400.09909188406806,379.1928561891828,4052.2,400.09909188406806,379.1928561891828,4162.9,400.09909188406806,379.1928561891828,4268.2,400.09909188406806,379.1928561891828,4377.9,400.09909188406806,379.1928561891828,4504.9,400.09909188406806,379.1928561891828,4608,400.09909188406806,379.1928561891828,4711.5,400.09909188406806,379.1928561891828,4815.4,400.09909188406806,379.1928561891828,4917.3]","[1551.4,1551.4,1000,0,551.4,""oops"",""up"",""up"",""good_move"",4498.4,2946.2,2466.4,1552.2,479.8,""oops"",""right"",""left"",""bad_move"",7338.7,2839.8,2382.2,4498.9,457.6,""oops"",""up"",""up"",""good_move"",13246,5907.1,2212.7,10580.7,452.6,""smooth"",""right"",""right"",""good_move"",16661.9,3415.6,2804.9,13246.3,610.7,""smooth"",""right"",""right"",""good_move"",22039.1,5376.9,2488.7,19055.4,495,""smooth"",""right"",""right"",""good_move""]","",""
"5031","","<div style=""width:500px;"">
  <p>What determined the result of this run?</p>
  </div>","72","html-slider-response","65","1694938","0.0-5.0-1.11","107","1","2025-07-16 11:52:53","1f75c3e559b7213887762d5229550c2b","107.180.168.139","Mozilla/5.0 (Windows NT 10.0; Win64; x64) AppleWebKit/537.36 (KHTML, like Gecko) Chrome/134.0.0.0 Safari/537.36","WebKit","Chrome","134.0.0.0","Windows","10.0","https://app.prolific.com/","en-US,en;q=0.9","67eab317b6f969b3df440160","686e379bc37a29ffa5cdc956","68779091fd9f5319770910a5","1","1","67eab317b6f969b3df440160","1","1","2025-07-16T12:21:15.990Z","","","","","","","","","","","AttribQ","","50","","","","","","","","","","","","","","","","","","","","","","","","","","","","",""
"3791","","<div style=""width:500px;"">
  <p>How much control did you have over the ball?</p>
  </div>","62","html-slider-response","66","1698730","0.0-5.0-2.11","107","1","2025-07-16 11:52:53","1f75c3e559b7213887762d5229550c2b","107.180.168.139","Mozilla/5.0 (Windows NT 10.0; Win64; x64) AppleWebKit/537.36 (KHTML, like Gecko) Chrome/134.0.0.0 Safari/537.36","WebKit","Chrome","134.0.0.0","Windows","10.0","https://app.prolific.com/","en-US,en;q=0.9","67eab317b6f969b3df440160","686e379bc37a29ffa5cdc956","68779091fd9f5319770910a5","1","1","67eab317b6f969b3df440160","1","1","2025-07-16T12:21:19.782Z","","","","","","","","","","","ControlQ","","50","","","","","","","","","","","","","","","","","","","","","","","","","","","","",""
"4331","","<div style=""width:500px;"">
  <p>How would you describe your current emotional state?</p>
  </div>","34","html-slider-response","67","1703062","0.0-5.0-3.11","107","1","2025-07-16 11:52:53","1f75c3e559b7213887762d5229550c2b","107.180.168.139","Mozilla/5.0 (Windows NT 10.0; Win64; x64) AppleWebKit/537.36 (KHTML, like Gecko) Chrome/134.0.0.0 Safari/537.36","WebKit","Chrome","134.0.0.0","Windows","10.0","https://app.prolific.com/","en-US,en;q=0.9","67eab317b6f969b3df440160","686e379bc37a29ffa5cdc956","68779091fd9f5319770910a5","1","1","67eab317b6f969b3df440160","1","1","2025-07-16T12:21:24.114Z","","","","","","","","","","","StressQ","","50","","","","","","","","","","","","","","","","","","","","","","","","","","","","",""
"2827","","<div style=""width:500px;"">
  <p>What best describes how you currently feel?</p>
  </div>","74","html-slider-response","68","1705890","0.0-5.0-4.11","107","1","2025-07-16 11:52:53","1f75c3e559b7213887762d5229550c2b","107.180.168.139","Mozilla/5.0 (Windows NT 10.0; Win64; x64) AppleWebKit/537.36 (KHTML, like Gecko) Chrome/134.0.0.0 Safari/537.36","WebKit","Chrome","134.0.0.0","Windows","10.0","https://app.prolific.com/","en-US,en;q=0.9","67eab317b6f969b3df440160","686e379bc37a29ffa5cdc956","68779091fd9f5319770910a5","1","1","67eab317b6f969b3df440160","1","1","2025-07-16T12:21:26.942Z","","","","","","","","","","","MotivationQ","","50","","","","","","","","","","","","","","","","","","","","","","","","","","","","",""
"","","","","ctl-task-cpt","69","1762217","0.0-5.0-0.12","107","1","2025-07-16 11:52:53","1f75c3e559b7213887762d5229550c2b","107.180.168.139","Mozilla/5.0 (Windows NT 10.0; Win64; x64) AppleWebKit/537.36 (KHTML, like Gecko) Chrome/134.0.0.0 Safari/537.36","WebKit","Chrome","134.0.0.0","Windows","10.0","https://app.prolific.com/","en-US,en;q=0.9","67eab317b6f969b3df440160","686e379bc37a29ffa5cdc956","68779091fd9f5319770910a5","1","1","67eab317b6f969b3df440160","1","1","2025-07-16T12:22:23.269Z","","","","","","","","","","","","","","win-only","3","g1:SW,g2:NE","0.7","13","0","1715462.5","8818.4","13839.8","53300.3","1","4","4","6","2","-4","-4","0","1","0","5021.4","3000","-1605","[""up"",""right""]","{""num_key_presses"":12,""num_perfect"":7,""num_errors"":0,""num_randdir"":5,""num_randdir_good_moves"":1,""num_whilered"":0,""num_whileblue"":0,""num_blue"":1,""num_good_moves"":8}","[338.59909188406806,337.1928561891828,0.4,338.59909188406806,337.1928561891828,110.6,338.59909188406806,337.1928561891828,213.2,338.59909188406806,337.1928561891828,318.5,338.59909188406806,337.1928561891828,419.7,338.59909188406806,337.1928561891828,523.3,338.59909188406806,337.1928561891828,624.1,338.59909188406806,337.1928561891828,734.5,338.59909188406806,337.1928561891828,842,338.59909188406806,337.1928561891828,947.3,338.59909188406806,337.1928561891828,1048.7,338.59909188406806,337.1928561891828,1148.9,338.59909188406806,337.1928561891828,1257.3,338.59909188406806,337.1928561891828,1357.6,338.59909188406806,337.1928561891828,1468.1,338.59909188406806,337.1928561891828,1589.2,338.59909188406806,337.1928561891828,1691.8,338.59909188406806,337.1928561891828,1792.2,338.59909188406806,337.1928561891828,1908.2,338.59909188406806,337.1928561891828,2018.7,338.59909188406806,337.1928561891828,2122,338.59909188406806,337.1928561891828,2241.7,338.59909188406806,337.1928561891828,2342.8,338.59909188406806,337.1928561891828,2471.3,338.59909188406806,337.1928561891828,2583,338.59909188406806,337.1928561891828,2700.3,338.59909188406806,337.1928561891828,2826.5,338.59909188406806,337.1928561891828,2938.6,338.59909188406806,337.1928561891828,3040.1,338.59909188406806,337.1928561891828,3142.7,338.59909188406806,337.1928561891828,3261.7,338.59909188406806,337.1928561891828,3363.5,338.59909188406806,337.1928561891828,3483.1,338.59909188406806,337.1928561891828,3610.2,338.59909188406806,337.1928561891828,3728.3,338.59909188406806,337.1928561891828,3832.1,338.59909188406806,337.1928561891828,3937.4,338.59909188406806,337.1928561891828,4038.5,338.59909188406806,337.1928561891828,4143.8,338.59909188406806,337.1928561891828,4245.3,338.59909188406806,337.1928561891828,4351.3,338.59909188406806,337.1928561891828,4453.4,338.59909188406806,337.1928561891828,4579.7,338.59909188406806,337.1928561891828,4682.9,338.59909188406806,337.1928561891828,4790.9,338.59909188406806,337.1928561891828,4892.2,338.59909188406806,337.1928561891828,4992.9]","[1069.6,1069.6,1000,0,69.6,""smooth"",""right"",""right"",""good_move"",3242.1,2172.2,1736,1069.9,436.2,""oops"",""right"",""down"",""bad_move"",6413.5,3170.9,2518.2,3242.6,652.7,""smooth"",""right"",""right"",""good_move"",9845.5,3431.7,2991.3,6413.9,440.3,""smooth"",""right"",""right"",""good_move"",13189.2,3343.4,2923.6,9845.8,419.8,""smooth"",""up"",""up"",""good_move"",15517.4,2327.8,1957.9,13189.6,369.9,""oops"",""up"",""down"",""bad_move"",18549.8,3032.1,2627.4,15517.7,404.7,""smooth"",""up"",""up"",""good_move"",21931.8,3381.9,2975.8,18549.9,406.1,""oops"",""up"",""left"",""bad_move"",24757.3,2825.1,2038.9,21932.2,786.2,""smooth"",""up"",""up"",""good_move"",28021.5,3264,2621.8,24757.5,642.2,""smooth"",""up"",""up"",""good_move"",30930.7,2909,2438.9,28021.7,470.1,""oops"",""up"",""up"",""good_move"",33654.7,2723.7,2053.1,30931.1,670.5,""oops"",""right"",""left"",""bad_move""]","",""
"5008","","<div style=""width:500px;"">
  <p>What determined the result of this run?</p>
  </div>","54","html-slider-response","70","1767226","0.0-5.0-1.12","107","1","2025-07-16 11:52:53","1f75c3e559b7213887762d5229550c2b","107.180.168.139","Mozilla/5.0 (Windows NT 10.0; Win64; x64) AppleWebKit/537.36 (KHTML, like Gecko) Chrome/134.0.0.0 Safari/537.36","WebKit","Chrome","134.0.0.0","Windows","10.0","https://app.prolific.com/","en-US,en;q=0.9","67eab317b6f969b3df440160","686e379bc37a29ffa5cdc956","68779091fd9f5319770910a5","1","1","67eab317b6f969b3df440160","1","1","2025-07-16T12:22:28.278Z","","","","","","","","","","","AttribQ","","50","","","","","","","","","","","","","","","","","","","","","","","","","","","","",""
"3532","","<div style=""width:500px;"">
  <p>How much control did you have over the ball?</p>
  </div>","50","html-slider-response","71","1770759","0.0-5.0-2.12","107","1","2025-07-16 11:52:53","1f75c3e559b7213887762d5229550c2b","107.180.168.139","Mozilla/5.0 (Windows NT 10.0; Win64; x64) AppleWebKit/537.36 (KHTML, like Gecko) Chrome/134.0.0.0 Safari/537.36","WebKit","Chrome","134.0.0.0","Windows","10.0","https://app.prolific.com/","en-US,en;q=0.9","67eab317b6f969b3df440160","686e379bc37a29ffa5cdc956","68779091fd9f5319770910a5","1","1","67eab317b6f969b3df440160","1","1","2025-07-16T12:22:31.811Z","","","","","","","","","","","ControlQ","","50","","","","","","","","","","","","","","","","","","","","","","","","","","","","",""
"4882","","<div style=""width:500px;"">
  <p>How would you describe your current emotional state?</p>
  </div>","49","html-slider-response","72","1775642","0.0-5.0-3.12","107","1","2025-07-16 11:52:53","1f75c3e559b7213887762d5229550c2b","107.180.168.139","Mozilla/5.0 (Windows NT 10.0; Win64; x64) AppleWebKit/537.36 (KHTML, like Gecko) Chrome/134.0.0.0 Safari/537.36","WebKit","Chrome","134.0.0.0","Windows","10.0","https://app.prolific.com/","en-US,en;q=0.9","67eab317b6f969b3df440160","686e379bc37a29ffa5cdc956","68779091fd9f5319770910a5","1","1","67eab317b6f969b3df440160","1","1","2025-07-16T12:22:36.694Z","","","","","","","","","","","StressQ","","50","","","","","","","","","","","","","","","","","","","","","","","","","","","","",""
"2200","","<div style=""width:500px;"">
  <p>What best describes how you currently feel?</p>
  </div>","50","html-slider-response","73","1777843","0.0-5.0-4.12","107","1","2025-07-16 11:52:53","1f75c3e559b7213887762d5229550c2b","107.180.168.139","Mozilla/5.0 (Windows NT 10.0; Win64; x64) AppleWebKit/537.36 (KHTML, like Gecko) Chrome/134.0.0.0 Safari/537.36","WebKit","Chrome","134.0.0.0","Windows","10.0","https://app.prolific.com/","en-US,en;q=0.9","67eab317b6f969b3df440160","686e379bc37a29ffa5cdc956","68779091fd9f5319770910a5","1","1","67eab317b6f969b3df440160","1","1","2025-07-16T12:22:38.895Z","","","","","","","","","","","MotivationQ","","50","","","","","","","","","","","","","","","","","","","","","","","","","","","","",""
"","","","","ctl-task-cpt","74","1814827","0.0-5.0-0.13","107","1","2025-07-16 11:52:53","1f75c3e559b7213887762d5229550c2b","107.180.168.139","Mozilla/5.0 (Windows NT 10.0; Win64; x64) AppleWebKit/537.36 (KHTML, like Gecko) Chrome/134.0.0.0 Safari/537.36","WebKit","Chrome","134.0.0.0","Windows","10.0","https://app.prolific.com/","en-US,en;q=0.9","67eab317b6f969b3df440160","686e379bc37a29ffa5cdc956","68779091fd9f5319770910a5","1","1","67eab317b6f969b3df440160","1","1","2025-07-16T12:23:15.879Z","","","","","","","","","","","","","","win-only","1","g1:NE,g2:SW","0.8","14","0","1787414.5","12770.3","17770.9","33958.3","1","4","8","6","2","8","8","8","0","0.06060606060606061","5000.6","3000","1840","[""down"",""left""]","{""num_key_presses"":6,""num_perfect"":6,""num_errors"":0,""num_randdir"":0,""num_randdir_good_moves"":0,""num_whilered"":0,""num_whileblue"":0,""num_blue"":0,""num_good_moves"":6}","[344.59909188406806,350.6928561891828,0.5,346.09909188406806,350.6928561891828,111.1,346.09909188406806,350.6928561891828,215.5,346.09909188406806,350.6928561891828,315.6,346.09909188406806,350.6928561891828,421.2,367.09909188406806,341.6928561891828,521.2,400.09909188406806,319.1928561891828,646.4,433.09909188406806,305.6928561891828,752,433.09909188406806,305.6928561891828,872.2,433.09909188406806,305.6928561891828,976.3,433.09909188406806,305.6928561891828,1105.8,433.09909188406806,305.6928561891828,1208.8,433.09909188406806,305.6928561891828,1310.8,433.09909188406806,305.6928561891828,1424.6,433.09909188406806,305.6928561891828,1525.9,433.09909188406806,305.6928561891828,1627.5,433.09909188406806,305.6928561891828,1739.9,433.09909188406806,305.6928561891828,1845,433.09909188406806,305.6928561891828,1959.5,433.09909188406806,305.6928561891828,2078.1,433.09909188406806,305.6928561891828,2186,433.09909188406806,305.6928561891828,2295.3,433.09909188406806,305.6928561891828,2395.3,433.09909188406806,305.6928561891828,2500.2,433.09909188406806,305.6928561891828,2606.7,433.09909188406806,305.6928561891828,2710.7,433.09909188406806,305.6928561891828,2818.8,433.09909188406806,305.6928561891828,2920.6,433.09909188406806,305.6928561891828,3053.4,433.09909188406806,305.6928561891828,3155.4,433.09909188406806,305.6928561891828,3255.6,433.09909188406806,305.6928561891828,3360.8,433.09909188406806,305.6928561891828,3467.4,433.09909188406806,305.6928561891828,3604.8,433.09909188406806,305.6928561891828,3734.8,433.09909188406806,305.6928561891828,3848.1,433.09909188406806,305.6928561891828,3952.2,433.09909188406806,305.6928561891828,4065.5,433.09909188406806,305.6928561891828,4180.7,433.09909188406806,305.6928561891828,4320.8,433.09909188406806,305.6928561891828,4425.3,433.09909188406806,305.6928561891828,4526.1,433.09909188406806,305.6928561891828,4641.1,433.09909188406806,305.6928561891828,4768.7,433.09909188406806,305.6928561891828,4898.6]","[1466.3,1466.3,1000,0,466.4,""smooth"",""down"",""down"",""good_move"",4037.5,2570.6,2106.3,1467.1,464.2,""smooth"",""down"",""down"",""good_move"",7582.9,3544.9,3164.2,4038,380.7,""smooth"",""down"",""down"",""good_move"",10819.2,3236,2761.2,7583.3,474.7,""smooth"",""left"",""left"",""good_move"",13774.6,2954.6,2419.9,10820,534.7,""smooth"",""left"",""left"",""good_move"",16007,2232.1,1790.4,13774.9,441.7,""smooth"",""left"",""left"",""good_move""]","",""
"3927","","<div style=""width:500px;"">
  <p>What determined the result of this run?</p>
  </div>","100","html-slider-response","75","1818755","0.0-5.0-1.13","107","1","2025-07-16 11:52:53","1f75c3e559b7213887762d5229550c2b","107.180.168.139","Mozilla/5.0 (Windows NT 10.0; Win64; x64) AppleWebKit/537.36 (KHTML, like Gecko) Chrome/134.0.0.0 Safari/537.36","WebKit","Chrome","134.0.0.0","Windows","10.0","https://app.prolific.com/","en-US,en;q=0.9","67eab317b6f969b3df440160","686e379bc37a29ffa5cdc956","68779091fd9f5319770910a5","1","1","67eab317b6f969b3df440160","1","1","2025-07-16T12:23:19.807Z","","","","","","","","","","","AttribQ","","50","","","","","","","","","","","","","","","","","","","","","","","","","","","","",""
"11174","","<div style=""width:500px;"">
  <p>How much control did you have over the ball?</p>
  </div>","100","html-slider-response","76","1829930","0.0-5.0-2.13","107","1","2025-07-16 11:52:53","1f75c3e559b7213887762d5229550c2b","107.180.168.139","Mozilla/5.0 (Windows NT 10.0; Win64; x64) AppleWebKit/537.36 (KHTML, like Gecko) Chrome/134.0.0.0 Safari/537.36","WebKit","Chrome","134.0.0.0","Windows","10.0","https://app.prolific.com/","en-US,en;q=0.9","67eab317b6f969b3df440160","686e379bc37a29ffa5cdc956","68779091fd9f5319770910a5","1","1","67eab317b6f969b3df440160","1","1","2025-07-16T12:23:30.982Z","","","","","","","","","","","ControlQ","","50","","","","","","","","","","","","","","","","","","","","","","","","","","","","",""
"2687","","<div style=""width:500px;"">
  <p>How would you describe your current emotional state?</p>
  </div>","0","html-slider-response","77","1832618","0.0-5.0-3.13","107","1","2025-07-16 11:52:53","1f75c3e559b7213887762d5229550c2b","107.180.168.139","Mozilla/5.0 (Windows NT 10.0; Win64; x64) AppleWebKit/537.36 (KHTML, like Gecko) Chrome/134.0.0.0 Safari/537.36","WebKit","Chrome","134.0.0.0","Windows","10.0","https://app.prolific.com/","en-US,en;q=0.9","67eab317b6f969b3df440160","686e379bc37a29ffa5cdc956","68779091fd9f5319770910a5","1","1","67eab317b6f969b3df440160","1","1","2025-07-16T12:23:33.670Z","","","","","","","","","","","StressQ","","50","","","","","","","","","","","","","","","","","","","","","","","","","","","","",""
"3906","","<div style=""width:500px;"">
