"rt","response_timestamp","stimulus","response","trial_type","trial_index","time_elapsed","internal_node_id","run_id","condition","recorded_at","source_code_version","ip","user_agent","device","browser","browser_version","platform","platform_version","referer","accept_language","PROLIFIC_PID","STUDY_ID","SESSION_ID","WEEK","BATCH","prolific_id","week","batch","realtime","success","responses","item_order","radio_event_ids","radio_event_times","key_event_times","mouse_event_times","straightlining","zigzagging","honeypot","eventType","view_history","slider_start","which_type","canvas_config","goals_layout","control_level","trial_number","tutorial_trial_number","trial_start_time","phase1_start_time","phase2_start_time","phase3_start_time","goal_1_value","goal_1_distance","goal_2_value","goal_2_distance","goal_selected","outcome","outcome_total","participant_final_score","participant_initial_score","participant_final_score_prop","goal_choice_rt","allocated_time","allocated_time_remaining","goal_direction","counts","mouse_movements","key_presses","question_order","question_id"
"5669","1752671392904","<p style='font-size:40px;line-height:1.25'><strong>Welcome to the experiment!</strong></p><p style='font-size:1.1em;line-height:1.25'>Thank you for participanting in our experiment again! You will be asked to play the Dysfunctional Ball Game again. We will briefly recap the rules before we start.</p><p style='font-size:1.1em;line-height:1.25'>Press <strong>Next</strong> to continue.</p>","0","custom-html-button-response","0","5675","0.0-0.0","112","1","2025-07-16 13:09:54","1f75c3e559b7213887762d5229550c2b","105.245.110.79","Mozilla/5.0 (Windows NT 10.0; Win64; x64) AppleWebKit/537.36 (KHTML, like Gecko) Chrome/138.0.0.0 Safari/537.36","WebKit","Chrome","138.0.0.0","Windows","10.0","https://app.prolific.com/","en-US,en;q=0.9","67b9e921b4b5ee4019522dbb","686e379bc37a29ffa5cdc956","6877a459b621777849486d4b","1","1","67b9e921b4b5ee4019522dbb","1","1","2025-07-16T13:09:52.907Z","","","","","","","","","","","","","","","","","","","","","","","","","","","","","","","","","","","","","","","","","",""
"6347","","","","fullscreen","1","13036","0.0-1.0","112","1","2025-07-16 13:09:54","1f75c3e559b7213887762d5229550c2b","105.245.110.79","Mozilla/5.0 (Windows NT 10.0; Win64; x64) AppleWebKit/537.36 (KHTML, like Gecko) Chrome/138.0.0.0 Safari/537.36","WebKit","Chrome","138.0.0.0","Windows","10.0","https://app.prolific.com/","en-US,en;q=0.9","67b9e921b4b5ee4019522dbb","686e379bc37a29ffa5cdc956","6877a459b621777849486d4b","1","1","67b9e921b4b5ee4019522dbb","1","1","","true","","","","","","","","","","","","","","","","","","","","","","","","","","","","","","","","","","","","","","","","",""
"11520","1752671411788","<p style='font-size:1.1em;line-height:1.25'>In the following, we will ask you a few questions relating to your feelings in the last 24 hours.<br></p><p style='font-size:1.1em;line-height:1.25'>Press the <strong>Next</strong> button to continue.</p>","0","custom-html-button-response","2","24558","0.0-2.0-0.0","112","1","2025-07-16 13:09:54","1f75c3e559b7213887762d5229550c2b","105.245.110.79","Mozilla/5.0 (Windows NT 10.0; Win64; x64) AppleWebKit/537.36 (KHTML, like Gecko) Chrome/138.0.0.0 Safari/537.36","WebKit","Chrome","138.0.0.0","Windows","10.0","https://app.prolific.com/","en-US,en;q=0.9","67b9e921b4b5ee4019522dbb","686e379bc37a29ffa5cdc956","6877a459b621777849486d4b","1","1","67b9e921b4b5ee4019522dbb","1","1","2025-07-16T13:10:11.789Z","","","","","","","","","","","","","","","","","","","","","","","","","","","","","","","","","","","","","","","","","",""
"142078.40000000596","","","","survey-template","3","166647","0.0-2.0-1.0","112","1","2025-07-16 13:09:54","1f75c3e559b7213887762d5229550c2b","105.245.110.79","Mozilla/5.0 (Windows NT 10.0; Win64; x64) AppleWebKit/537.36 (KHTML, like Gecko) Chrome/138.0.0.0 Safari/537.36","WebKit","Chrome","138.0.0.0","Windows","10.0","https://app.prolific.com/","en-US,en;q=0.9","67b9e921b4b5ee4019522dbb","686e379bc37a29ffa5cdc956","6877a459b621777849486d4b","1","1","67b9e921b4b5ee4019522dbb","1","1","2025-07-16T13:12:33.878Z","","{""Q01"":""1"",""Q02"":""0"",""Q03"":""0"",""Q04"":""2"",""Q05"":""3"",""Q06"":""2"",""Q07"":""1"",""Q08"":""0"",""Q09"":""2"",""Q10"":""1"",""Q11"":""2"",""Q12"":""1"",""Q13"":""5"",""Q14"":""4"",""Q15"":""2"",""Q16"":""1"",""Q17"":""0"",""Q18"":""0"",""Q19"":""4"",""Q20"":""1"",""Q21"":""3"",""Q22"":""2""}","[0,1,2,3,4,5,6,7,8,9,10,11,12,13,14,15,16,17,18,19,20,21]","[""Q01"",""Q02"",""Q02"",""Q03"",""Q04"",""Q05"",""Q06"",""Q07"",""Q08"",""Q09"",""Q10"",""Q11"",""Q12"",""Q13"",""Q14"",""Q15"",""Q16"",""Q17"",""Q18"",""Q19"",""Q20"",""Q21"",""Q22""]","[4686.0999999940395,6678.200000017881,9798.40000000596,14540.5,17992,19927.70000001788,23245.70000001788,26746.70000001788,29063.5,38475.5,44649.09999999404,50173.40000000596,56603.80000001192,59186.59999999404,75294,88516.40000000596,109143.40000000596,112312.5,118513.30000001192,125916,131934.30000001192,137656.90000000596,140488.30000001192]","[]","[0.30000001192092896,4686.0999999940395,6678.200000017881,9798.40000000596,14540.5,17992,19927.70000001788,23245.70000001788,26746.70000001788,29063.5,38475.5,44649.09999999404,50173.40000000596,53935.90000000596,56603.80000001192,59186.59999999404,75294,86900,88516.40000000596,109143.40000000596,112312.5,118513.30000001192,123267.09999999404,124280.59999999404,125916,131934.30000001192,137656.90000000596,140488.30000001192,142072.70000001788]","0.2727272727272727","0.5714285714285714","0","drsp","","","","","","","","","","","","","","","","","","","","","","","","","","","","","","",""
"16463","","","","survey-template","4","183113","0.0-2.0-2.0","112","1","2025-07-16 13:09:54","1f75c3e559b7213887762d5229550c2b","105.245.110.79","Mozilla/5.0 (Windows NT 10.0; Win64; x64) AppleWebKit/537.36 (KHTML, like Gecko) Chrome/138.0.0.0 Safari/537.36","WebKit","Chrome","138.0.0.0","Windows","10.0","https://app.prolific.com/","en-US,en;q=0.9","67b9e921b4b5ee4019522dbb","686e379bc37a29ffa5cdc956","6877a459b621777849486d4b","1","1","67b9e921b4b5ee4019522dbb","1","1","2025-07-16T13:12:50.345Z","","{""Q01"":""0"",""Q02"":""1"",""Q03"":""1""}","[0,1,2]","[""Q01"",""Q02"",""Q03""]","[5241.5,10256.700000017881,14678.09999999404]","[]","[5241.5,10256.700000017881,14678.09999999404,16461.90000000596]","0.3333333333333333","0","0","stress","","","","","","","","","","","","","","","","","","","","","","","","","","","","","","",""
"15038","","","","instructions","5","198153","0.0-3.0-0.0","112","1","2025-07-16 13:09:54","1f75c3e559b7213887762d5229550c2b","105.245.110.79","Mozilla/5.0 (Windows NT 10.0; Win64; x64) AppleWebKit/537.36 (KHTML, like Gecko) Chrome/138.0.0.0 Safari/537.36","WebKit","Chrome","138.0.0.0","Windows","10.0","https://app.prolific.com/","en-US,en;q=0.9","67b9e921b4b5ee4019522dbb","686e379bc37a29ffa5cdc956","6877a459b621777849486d4b","1","1","67b9e921b4b5ee4019522dbb","1","1","","","","","","","","","","","","","[{""page_index"":0,""viewing_time"":15037}]","","","","","","","","","","","","","","","","","","","","","","","","","","","","","",""
"18205","","<p>Before you start with this game please answer the following three questions yourself. </p>
  <p>Through this game, we measure several aspects of your cognitive performance, such as reaction times, multi-tasking capabilities </p>
  <p>and the ability to assess the situation you are in.</p>
  <p></p>
  <p><b>How good do you usually are in such tasks?</b></p>","79","html-slider-response","6","216361","0.0-4.0-0.0","112","1","2025-07-16 13:09:54","1f75c3e559b7213887762d5229550c2b","105.245.110.79","Mozilla/5.0 (Windows NT 10.0; Win64; x64) AppleWebKit/537.36 (KHTML, like Gecko) Chrome/138.0.0.0 Safari/537.36","WebKit","Chrome","138.0.0.0","Windows","10.0","https://app.prolific.com/","en-US,en;q=0.9","67b9e921b4b5ee4019522dbb","686e379bc37a29ffa5cdc956","6877a459b621777849486d4b","1","1","67b9e921b4b5ee4019522dbb","1","1","2025-07-16T13:13:23.592Z","","","","","","","","","","","PreSkillQ","","50","","","","","","","","","","","","","","","","","","","","","","","","","","","","",""
"10183","","<div style=""width:500px;"">
  <p>How well do you think you will perform in this task compared to other participants?</p>
  </div>","91","html-slider-response","7","226547","0.0-4.0-1.0","112","1","2025-07-16 13:09:54","1f75c3e559b7213887762d5229550c2b","105.245.110.79","Mozilla/5.0 (Windows NT 10.0; Win64; x64) AppleWebKit/537.36 (KHTML, like Gecko) Chrome/138.0.0.0 Safari/537.36","WebKit","Chrome","138.0.0.0","Windows","10.0","https://app.prolific.com/","en-US,en;q=0.9","67b9e921b4b5ee4019522dbb","686e379bc37a29ffa5cdc956","6877a459b621777849486d4b","1","1","67b9e921b4b5ee4019522dbb","1","1","2025-07-16T13:13:33.778Z","","","","","","","","","","","PrePerfQ","","50","","","","","","","","","","","","","","","","","","","","","","","","","","","","",""
"30529","","<div style=""width:500px;"">
  <p>What best describes how you currently feel?</p>
  </div>","92","html-slider-response","8","257078","0.0-4.0-2.0","112","1","2025-07-16 13:09:54","1f75c3e559b7213887762d5229550c2b","105.245.110.79","Mozilla/5.0 (Windows NT 10.0; Win64; x64) AppleWebKit/537.36 (KHTML, like Gecko) Chrome/138.0.0.0 Safari/537.36","WebKit","Chrome","138.0.0.0","Windows","10.0","https://app.prolific.com/","en-US,en;q=0.9","67b9e921b4b5ee4019522dbb","686e379bc37a29ffa5cdc956","6877a459b621777849486d4b","1","1","67b9e921b4b5ee4019522dbb","1","1","2025-07-16T13:14:04.309Z","","","","","","","","","","","PreMotivationQ","","50","","","","","","","","","","","","","","","","","","","","","","","","","","","","",""
"","","","","ctl-task-cpt","9","283941","0.0-5.0-0.0","112","1","2025-07-16 13:09:54","1f75c3e559b7213887762d5229550c2b","105.245.110.79","Mozilla/5.0 (Windows NT 10.0; Win64; x64) AppleWebKit/537.36 (KHTML, like Gecko) Chrome/138.0.0.0 Safari/537.36","WebKit","Chrome","138.0.0.0","Windows","10.0","https://app.prolific.com/","en-US,en;q=0.9","67b9e921b4b5ee4019522dbb","686e379bc37a29ffa5cdc956","6877a459b621777849486d4b","1","1","67b9e921b4b5ee4019522dbb","1","1","2025-07-16T13:14:31.173Z","","","","","","","","","","","","","","win-only","0","g1:NW,g2:SE","1","1","0","260711.6","3264.1","8267.4","23856.1","1","4","8","6","2","8","8","8","0","0.06060606060606061","2362.1","3000","1395","[""down"",""right""]","{""num_key_presses"":6,""num_perfect"":6,""num_errors"":0,""num_randdir"":0,""num_randdir_good_moves"":0,""num_whilered"":0,""num_whileblue"":0,""num_blue"":0,""num_good_moves"":6}","[297.22232142857143,288.12857142857143,0.7,297.22232142857143,288.12857142857143,104,297.22232142857143,288.12857142857143,205.1,297.22232142857143,288.12857142857143,306.5,297.22232142857143,288.12857142857143,407.5,297.22232142857143,288.12857142857143,507.6,297.22232142857143,288.12857142857143,618,297.22232142857143,288.12857142857143,722.7,297.22232142857143,288.12857142857143,827,297.22232142857143,288.12857142857143,927.1,297.22232142857143,288.12857142857143,1028.7,254.22232142857143,274.12857142857143,1132.7,351.22232142857143,357.12857142857143,1233.3,429.22232142857143,421.12857142857143,1337.7,456.22232142857143,443.12857142857143,1453.3,456.22232142857143,443.12857142857143,1557.6,462.22232142857143,446.12857142857143,1668.4,495.22232142857143,470.12857142857143,1772.7,510.22232142857143,504.12857142857143,1873.5,525.2223214285714,525.1285714285714,1989,528.2223214285714,529.1285714285714,2095,528.2223214285714,529.1285714285714,2197.8,528.2223214285714,529.1285714285714,2302.7,528.2223214285714,529.1285714285714,2405.4,528.2223214285714,529.1285714285714,2507.3,528.2223214285714,529.1285714285714,2607.6,528.2223214285714,529.1285714285714,2708.2,528.2223214285714,529.1285714285714,2823.6,528.2223214285714,529.1285714285714,2938.4,528.2223214285714,529.1285714285714,3043.4,528.2223214285714,529.1285714285714,3148.1,528.2223214285714,529.1285714285714,3248.4,528.2223214285714,529.1285714285714,3349.2,528.2223214285714,529.1285714285714,3449.4,528.2223214285714,529.1285714285714,3553.5,528.2223214285714,529.1285714285714,3657.9,528.2223214285714,529.1285714285714,3757.9,528.2223214285714,529.1285714285714,3858.1,528.2223214285714,529.1285714285714,3962.1,528.2223214285714,529.1285714285714,4074.4,528.2223214285714,529.1285714285714,4178,528.2223214285714,529.1285714285714,4284.5,528.2223214285714,529.1285714285714,4388.2,528.2223214285714,529.1285714285714,4492.6,528.2223214285714,529.1285714285714,4603.8,528.2223214285714,529.1285714285714,4708.1,528.2223214285714,529.1285714285714,4808.1,528.2223214285714,529.1285714285714,4912.4]","[1572.7,1572.7,1000,0,572.7,""smooth"",""down"",""down"",""good_move"",4079,2505.4,2036.5,1573.7,468.8,""smooth"",""down"",""down"",""good_move"",7039.8,2958.7,2618.7,4081.1,340,""smooth"",""right"",""right"",""good_move"",9876.4,2835.5,2508.8,7041,326.6,""smooth"",""right"",""right"",""good_move"",13291.7,3414.4,3071.7,9877.3,342.7,""smooth"",""right"",""right"",""good_move"",15462.1,2169.5,1690.4,13292.7,479,""smooth"",""down"",""down"",""good_move""]","",""
"6501","","<div style=""width:500px;"">
  <p>What determined the result of this run?</p>
  </div>","79","html-slider-response","10","290444","0.0-5.0-1.0","112","1","2025-07-16 13:09:54","1f75c3e559b7213887762d5229550c2b","105.245.110.79","Mozilla/5.0 (Windows NT 10.0; Win64; x64) AppleWebKit/537.36 (KHTML, like Gecko) Chrome/138.0.0.0 Safari/537.36","WebKit","Chrome","138.0.0.0","Windows","10.0","https://app.prolific.com/","en-US,en;q=0.9","67b9e921b4b5ee4019522dbb","686e379bc37a29ffa5cdc956","6877a459b621777849486d4b","1","1","67b9e921b4b5ee4019522dbb","1","1","2025-07-16T13:14:37.676Z","","","","","","","","","","","AttribQ","","50","","","","","","","","","","","","","","","","","","","","","","","","","","","","",""
"4728","","<div style=""width:500px;"">
  <p>How much control did you have over the ball?</p>
  </div>","82","html-slider-response","11","295175","0.0-5.0-2.0","112","1","2025-07-16 13:09:54","1f75c3e559b7213887762d5229550c2b","105.245.110.79","Mozilla/5.0 (Windows NT 10.0; Win64; x64) AppleWebKit/537.36 (KHTML, like Gecko) Chrome/138.0.0.0 Safari/537.36","WebKit","Chrome","138.0.0.0","Windows","10.0","https://app.prolific.com/","en-US,en;q=0.9","67b9e921b4b5ee4019522dbb","686e379bc37a29ffa5cdc956","6877a459b621777849486d4b","1","1","67b9e921b4b5ee4019522dbb","1","1","2025-07-16T13:14:42.406Z","","","","","","","","","","","ControlQ","","50","","","","","","","","","","","","","","","","","","","","","","","","","","","","",""
"6884","","<div style=""width:500px;"">
  <p>How would you describe your current emotional state?</p>
  </div>","17","html-slider-response","12","302062","0.0-5.0-3.0","112","1","2025-07-16 13:09:54","1f75c3e559b7213887762d5229550c2b","105.245.110.79","Mozilla/5.0 (Windows NT 10.0; Win64; x64) AppleWebKit/537.36 (KHTML, like Gecko) Chrome/138.0.0.0 Safari/537.36","WebKit","Chrome","138.0.0.0","Windows","10.0","https://app.prolific.com/","en-US,en;q=0.9","67b9e921b4b5ee4019522dbb","686e379bc37a29ffa5cdc956","6877a459b621777849486d4b","1","1","67b9e921b4b5ee4019522dbb","1","1","2025-07-16T13:14:49.293Z","","","","","","","","","","","StressQ","","50","","","","","","","","","","","","","","","","","","","","","","","","","","","","",""
"5984","","<div style=""width:500px;"">
  <p>What best describes how you currently feel?</p>
  </div>","91","html-slider-response","13","308048","0.0-5.0-4.0","112","1","2025-07-16 13:09:54","1f75c3e559b7213887762d5229550c2b","105.245.110.79","Mozilla/5.0 (Windows NT 10.0; Win64; x64) AppleWebKit/537.36 (KHTML, like Gecko) Chrome/138.0.0.0 Safari/537.36","WebKit","Chrome","138.0.0.0","Windows","10.0","https://app.prolific.com/","en-US,en;q=0.9","67b9e921b4b5ee4019522dbb","686e379bc37a29ffa5cdc956","6877a459b621777849486d4b","1","1","67b9e921b4b5ee4019522dbb","1","1","2025-07-16T13:14:55.279Z","","","","","","","","","","","MotivationQ","","50","","","","","","","","","","","","","","","","","","","","","","","","","","","","",""
"","","","","ctl-task-cpt","14","340755","0.0-5.0-0.1","112","1","2025-07-16 13:09:54","1f75c3e559b7213887762d5229550c2b","105.245.110.79","Mozilla/5.0 (Windows NT 10.0; Win64; x64) AppleWebKit/537.36 (KHTML, like Gecko) Chrome/138.0.0.0 Safari/537.36","WebKit","Chrome","138.0.0.0","Windows","10.0","https://app.prolific.com/","en-US,en;q=0.9","67b9e921b4b5ee4019522dbb","686e379bc37a29ffa5cdc956","6877a459b621777849486d4b","1","1","67b9e921b4b5ee4019522dbb","1","1","2025-07-16T13:15:27.987Z","","","","","","","","","","","","","","win-only","2","g1:SE,g2:NW","0.9","2","0","311679.3","2163.6","7168.6","29667.4","1","4","4","6","2","4","4","12","8","0.09090909090909091","2373.1","3000","1705","[""left"",""up""]","{""num_key_presses"":6,""num_perfect"":5,""num_errors"":0,""num_randdir"":1,""num_randdir_good_moves"":1,""num_whilered"":0,""num_whileblue"":0,""num_blue"":2,""num_good_moves"":6}","[293.22232142857143,296.12857142857143,1.2,293.22232142857143,296.12857142857143,101,293.22232142857143,296.12857142857143,201.3,293.22232142857143,296.12857142857143,323.2,293.22232142857143,296.12857142857143,428.3,293.22232142857143,296.12857142857143,542.1,313.22232142857143,303.12857142857143,645.9,383.22232142857143,339.12857142857143,751.6,317.22232142857143,338.12857142857143,872,177.22232142857143,281.12857142857143,975,176.22232142857143,269.12857142857143,1078.1,176.22232142857143,269.12857142857143,1187.1,176.22232142857143,269.12857142857143,1304.7,175.22232142857143,259.12857142857143,1405.5,164.22232142857143,193.12857142857143,1506.8,155.22232142857143,182.12857142857143,1618.2,94.22232142857143,81.12857142857143,1724.4,77.22232142857143,49.128571428571426,1842.2,77.22232142857143,49.128571428571426,1943.5,73.22232142857143,57.128571428571426,2056.7,73.22232142857143,57.128571428571426,2158.9,73.22232142857143,57.128571428571426,2284.4,73.22232142857143,57.128571428571426,2391,73.22232142857143,57.128571428571426,2492,73.22232142857143,57.128571428571426,2603.2,73.22232142857143,57.128571428571426,2716.2,73.22232142857143,57.128571428571426,2833,73.22232142857143,57.128571428571426,2937.2,73.22232142857143,57.128571428571426,3039.8,73.22232142857143,57.128571428571426,3143.8,73.22232142857143,57.128571428571426,3263.8,73.22232142857143,57.128571428571426,3367.7,73.22232142857143,57.128571428571426,3473.7,73.22232142857143,57.128571428571426,3573.8,73.22232142857143,57.128571428571426,3678.7,73.22232142857143,57.128571428571426,3795.3,73.22232142857143,57.128571428571426,3895.3,73.22232142857143,57.128571428571426,3997,73.22232142857143,57.128571428571426,4097.5,73.22232142857143,57.128571428571426,4198.9,73.22232142857143,57.128571428571426,4299.1,73.22232142857143,57.128571428571426,4404,73.22232142857143,57.128571428571426,4507.8,73.22232142857143,57.128571428571426,4608.5,73.22232142857143,57.128571428571426,4708.7,73.22232142857143,57.128571428571426,4808.7,73.22232142857143,57.128571428571426,4913.7]","[4751,4751,2404.4,2018.2,328.4,""smooth"",""left"",""left"",""good_move"",7595.2,2843,2411.6,4752.2,431.5,""smooth"",""left"",""left"",""good_move"",10661.3,3064.8,2698.4,7596.6,366.4,""smooth"",""up"",""up"",""good_move"",13248.1,2585.6,2174.8,10662.6,410.9,""oops"",""up"",""left"",""good_move"",16018.8,2769.7,2388.7,13249.2,380.9,""smooth"",""up"",""up"",""good_move"",22333,6313,2469.2,19531.9,331.9,""smooth"",""up"",""up"",""good_move""]","",""
"6125","","<div style=""width:500px;"">
  <p>What determined the result of this run?</p>
  </div>","15","html-slider-response","15","346883","0.0-5.0-1.1","112","1","2025-07-16 13:09:54","1f75c3e559b7213887762d5229550c2b","105.245.110.79","Mozilla/5.0 (Windows NT 10.0; Win64; x64) AppleWebKit/537.36 (KHTML, like Gecko) Chrome/138.0.0.0 Safari/537.36","WebKit","Chrome","138.0.0.0","Windows","10.0","https://app.prolific.com/","en-US,en;q=0.9","67b9e921b4b5ee4019522dbb","686e379bc37a29ffa5cdc956","6877a459b621777849486d4b","1","1","67b9e921b4b5ee4019522dbb","1","1","2025-07-16T13:15:34.114Z","","","","","","","","","","","AttribQ","","50","","","","","","","","","","","","","","","","","","","","","","","","","","","","",""
"7917","","<div style=""width:500px;"">
  <p>How much control did you have over the ball?</p>
  </div>","68","html-slider-response","16","354803","0.0-5.0-2.1","112","1","2025-07-16 13:09:54","1f75c3e559b7213887762d5229550c2b","105.245.110.79","Mozilla/5.0 (Windows NT 10.0; Win64; x64) AppleWebKit/537.36 (KHTML, like Gecko) Chrome/138.0.0.0 Safari/537.36","WebKit","Chrome","138.0.0.0","Windows","10.0","https://app.prolific.com/","en-US,en;q=0.9","67b9e921b4b5ee4019522dbb","686e379bc37a29ffa5cdc956","6877a459b621777849486d4b","1","1","67b9e921b4b5ee4019522dbb","1","1","2025-07-16T13:15:42.034Z","","","","","","","","","","","ControlQ","","50","","","","","","","","","","","","","","","","","","","","","","","","","","","","",""
"4754","","<div style=""width:500px;"">
  <p>How would you describe your current emotional state?</p>
  </div>","27","html-slider-response","17","359560","0.0-5.0-3.1","112","1","2025-07-16 13:09:54","1f75c3e559b7213887762d5229550c2b","105.245.110.79","Mozilla/5.0 (Windows NT 10.0; Win64; x64) AppleWebKit/537.36 (KHTML, like Gecko) Chrome/138.0.0.0 Safari/537.36","WebKit","Chrome","138.0.0.0","Windows","10.0","https://app.prolific.com/","en-US,en;q=0.9","67b9e921b4b5ee4019522dbb","686e379bc37a29ffa5cdc956","6877a459b621777849486d4b","1","1","67b9e921b4b5ee4019522dbb","1","1","2025-07-16T13:15:46.791Z","","","","","","","","","","","StressQ","","50","","","","","","","","","","","","","","","","","","","","","","","","","","","","",""
"27344","","<div style=""width:500px;"">
  <p>What best describes how you currently feel?</p>
  </div>","78","html-slider-response","18","386906","0.0-5.0-4.1","112","1","2025-07-16 13:09:54","1f75c3e559b7213887762d5229550c2b","105.245.110.79","Mozilla/5.0 (Windows NT 10.0; Win64; x64) AppleWebKit/537.36 (KHTML, like Gecko) Chrome/138.0.0.0 Safari/537.36","WebKit","Chrome","138.0.0.0","Windows","10.0","https://app.prolific.com/","en-US,en;q=0.9","67b9e921b4b5ee4019522dbb","686e379bc37a29ffa5cdc956","6877a459b621777849486d4b","1","1","67b9e921b4b5ee4019522dbb","1","1","2025-07-16T13:16:14.137Z","","","","","","","","","","","MotivationQ","","50","","","","","","","","","","","","","","","","","","","","","","","","","","","","",""
"","","","","ctl-task-cpt","19","423124","0.0-5.0-0.2","112","1","2025-07-16 13:09:54","1f75c3e559b7213887762d5229550c2b","105.245.110.79","Mozilla/5.0 (Windows NT 10.0; Win64; x64) AppleWebKit/537.36 (KHTML, like Gecko) Chrome/138.0.0.0 Safari/537.36","WebKit","Chrome","138.0.0.0","Windows","10.0","https://app.prolific.com/","en-US,en;q=0.9","67b9e921b4b5ee4019522dbb","686e379bc37a29ffa5cdc956","6877a459b621777849486d4b","1","1","67b9e921b4b5ee4019522dbb","1","1","2025-07-16T13:16:50.355Z","","","","","","","","","","","","","","win-only","0","g1:NW,g2:SE","0.8","3","0","390539.7","2314.4","7318.2","33168.3","1","4","4","6","2","4","3","15","12","0.11363636363636363","2087.3","3000","1685","[""down"",""right""]","{""num_key_presses"":8,""num_perfect"":7,""num_errors"":1,""num_randdir"":0,""num_randdir_good_moves"":0,""num_whilered"":0,""num_whileblue"":1,""num_blue"":2,""num_good_moves"":7}","[302.22232142857143,303.12857142857143,0.9,302.22232142857143,303.12857142857143,102.2,302.22232142857143,303.12857142857143,202.6,302.22232142857143,303.12857142857143,303,302.22232142857143,303.12857142857143,443.6,302.22232142857143,303.12857142857143,548.8,254.22232142857143,263.12857142857143,651.3,247.22232142857143,258.12857142857143,774.7,427.22232142857143,369.12857142857143,880.9,479.22232142857143,402.12857142857143,981.8,515.2223214285714,423.12857142857143,1091.7,515.2223214285714,423.12857142857143,1197.1,515.2223214285714,423.12857142857143,1298.5,533.2223214285714,481.12857142857143,1409.7,534.2223214285714,494.12857142857143,1525.1,532.2223214285714,509.12857142857143,1654.3,539.2223214285714,530.1285714285714,1756,540.2223214285714,533.1285714285714,1857.2,540.2223214285714,533.1285714285714,1957.4,540.2223214285714,533.1285714285714,2058.8,540.2223214285714,533.1285714285714,2163.8,540.2223214285714,533.1285714285714,2265.2,540.2223214285714,533.1285714285714,2367.4,540.2223214285714,533.1285714285714,2468.2,540.2223214285714,533.1285714285714,2572.9,540.2223214285714,533.1285714285714,2701,540.2223214285714,533.1285714285714,2808.8,540.2223214285714,533.1285714285714,2912.4,540.2223214285714,533.1285714285714,3013.4,540.2223214285714,533.1285714285714,3121.9,540.2223214285714,533.1285714285714,3223.4,540.2223214285714,533.1285714285714,3352.6,540.2223214285714,533.1285714285714,3454.2,540.2223214285714,533.1285714285714,3580.5,540.2223214285714,533.1285714285714,3701.5,540.2223214285714,533.1285714285714,3810.3,540.2223214285714,533.1285714285714,3913.1,540.2223214285714,533.1285714285714,4017.1,540.2223214285714,533.1285714285714,4144.3,540.2223214285714,533.1285714285714,4248.2,540.2223214285714,533.1285714285714,4352.6,540.2223214285714,533.1285714285714,4452.9,540.2223214285714,533.1285714285714,4587.8,540.2223214285714,533.1285714285714,4690.3,540.2223214285714,533.1285714285714,4791.5,540.2223214285714,533.1285714285714,4920.7]","[1394.6,1394.6,1000,0,394.6,""smooth"",""down"",""down"",""good_move"",3784.3,2388.5,1987.3,1395.9,401.2,""smooth"",""right"",""right"",""good_move"",6215.3,2429.7,2088.1,3785.6,341.6,""while_blue"",""right"",""left"",""bad_move"",12718.1,6501.8,2780.1,9540.3,397.7,""smooth"",""right"",""right"",""good_move"",16317.8,3599.2,3168.2,12718.8,430.9,""smooth"",""right"",""right"",""good_move"",19975.3,3656.5,3220.9,16318.9,435.5,""smooth"",""down"",""down"",""good_move"",22938.2,2961.9,2474,19976.4,487.8,""smooth"",""down"",""down"",""good_move"",25666.7,2727.6,2245.9,22939.2,481.6,""smooth"",""right"",""right"",""good_move""]","",""
"12519","","<div style=""width:500px;"">
  <p>What determined the result of this run?</p>
  </div>","30","html-slider-response","20","435645","0.0-5.0-1.2","112","1","2025-07-16 13:09:54","1f75c3e559b7213887762d5229550c2b","105.245.110.79","Mozilla/5.0 (Windows NT 10.0; Win64; x64) AppleWebKit/537.36 (KHTML, like Gecko) Chrome/138.0.0.0 Safari/537.36","WebKit","Chrome","138.0.0.0","Windows","10.0","https://app.prolific.com/","en-US,en;q=0.9","67b9e921b4b5ee4019522dbb","686e379bc37a29ffa5cdc956","6877a459b621777849486d4b","1","1","67b9e921b4b5ee4019522dbb","1","1","2025-07-16T13:17:02.876Z","","","","","","","","","","","AttribQ","","50","","","","","","","","","","","","","","","","","","","","","","","","","","","","",""
"7560","","<div style=""width:500px;"">
  <p>How much control did you have over the ball?</p>
  </div>","30","html-slider-response","21","443208","0.0-5.0-2.2","112","1","2025-07-16 13:09:54","1f75c3e559b7213887762d5229550c2b","105.245.110.79","Mozilla/5.0 (Windows NT 10.0; Win64; x64) AppleWebKit/537.36 (KHTML, like Gecko) Chrome/138.0.0.0 Safari/537.36","WebKit","Chrome","138.0.0.0","Windows","10.0","https://app.prolific.com/","en-US,en;q=0.9","67b9e921b4b5ee4019522dbb","686e379bc37a29ffa5cdc956","6877a459b621777849486d4b","1","1","67b9e921b4b5ee4019522dbb","1","1","2025-07-16T13:17:10.439Z","","","","","","","","","","","ControlQ","","50","","","","","","","","","","","","","","","","","","","","","","","","","","","","",""
"7475","","<div style=""width:500px;"">
  <p>How would you describe your current emotional state?</p>
  </div>","69","html-slider-response","22","450686","0.0-5.0-3.2","112","1","2025-07-16 13:09:54","1f75c3e559b7213887762d5229550c2b","105.245.110.79","Mozilla/5.0 (Windows NT 10.0; Win64; x64) AppleWebKit/537.36 (KHTML, like Gecko) Chrome/138.0.0.0 Safari/537.36","WebKit","Chrome","138.0.0.0","Windows","10.0","https://app.prolific.com/","en-US,en;q=0.9","67b9e921b4b5ee4019522dbb","686e379bc37a29ffa5cdc956","6877a459b621777849486d4b","1","1","67b9e921b4b5ee4019522dbb","1","1","2025-07-16T13:17:17.917Z","","","","","","","","","","","StressQ","","50","","","","","","","","","","","","","","","","","","","","","","","","","","","","",""
"9701","","<div style=""width:500px;"">
  <p>What best describes how you currently feel?</p>
  </div>","28","html-slider-response","23","460389","0.0-5.0-4.2","112","1","2025-07-16 13:09:54","1f75c3e559b7213887762d5229550c2b","105.245.110.79","Mozilla/5.0 (Windows NT 10.0; Win64; x64) AppleWebKit/537.36 (KHTML, like Gecko) Chrome/138.0.0.0 Safari/537.36","WebKit","Chrome","138.0.0.0","Windows","10.0","https://app.prolific.com/","en-US,en;q=0.9","67b9e921b4b5ee4019522dbb","686e379bc37a29ffa5cdc956","6877a459b621777849486d4b","1","1","67b9e921b4b5ee4019522dbb","1","1","2025-07-16T13:17:27.620Z","","","","","","","","","","","MotivationQ","","50","","","","","","","","","","","","","","","","","","","","","","","","","","","","",""
"","","","","ctl-task-cpt","24","510009","0.0-5.0-0.3","112","1","2025-07-16 13:09:54","1f75c3e559b7213887762d5229550c2b","105.245.110.79","Mozilla/5.0 (Windows NT 10.0; Win64; x64) AppleWebKit/537.36 (KHTML, like Gecko) Chrome/138.0.0.0 Safari/537.36","WebKit","Chrome","138.0.0.0","Windows","10.0","https://app.prolific.com/","en-US,en;q=0.9","67b9e921b4b5ee4019522dbb","686e379bc37a29ffa5cdc956","6877a459b621777849486d4b","1","1","67b9e921b4b5ee4019522dbb","1","1","2025-07-16T13:18:17.240Z","","","","","","","","","","","","","","win-only","1","g1:NE,g2:SW","0.7","4","0","464023.5","15877","20911.5","46565.6","1","4","8","6","2","8","8","23","15","0.17424242424242425","2494.9","3000","1670","[""down"",""left""]","{""num_key_presses"":6,""num_perfect"":4,""num_errors"":0,""num_randdir"":2,""num_randdir_good_moves"":2,""num_whilered"":0,""num_whileblue"":0,""num_blue"":2,""num_good_moves"":6}","[295.22232142857143,295.12857142857143,0.8,295.22232142857143,295.12857142857143,123.6,295.22232142857143,295.12857142857143,257.9,295.22232142857143,295.12857142857143,359.7,295.22232142857143,295.12857142857143,461.4,295.22232142857143,295.12857142857143,599.1,295.22232142857143,295.12857142857143,704.7,295.22232142857143,295.12857142857143,804.7,316.22232142857143,261.12857142857143,940.4,371.22232142857143,181.12857142857143,1080.2,412.22232142857143,128.12857142857143,1186,404.22232142857143,178.12857142857143,1312,245.22232142857143,416.12857142857143,1439.2,183.22232142857143,476.12857142857143,1546.2,176.22232142857143,484.12857142857143,1656.9,149.22232142857143,484.12857142857143,1758.7,67.22232142857143,493.12857142857143,1861.2,27.222321428571426,513.1285714285714,1964.1,26.222321428571426,514.1285714285714,2067.2,29.222321428571426,516.1285714285714,2193.1,29.222321428571426,516.1285714285714,2294.8,29.222321428571426,516.1285714285714,2394.8,29.222321428571426,516.1285714285714,2508.4,29.222321428571426,516.1285714285714,2609.4,29.222321428571426,516.1285714285714,2725.6,29.222321428571426,516.1285714285714,2864.9,29.222321428571426,516.1285714285714,2988,29.222321428571426,516.1285714285714,3101.4,29.222321428571426,516.1285714285714,3202.4,29.222321428571426,516.1285714285714,3319.1,29.222321428571426,516.1285714285714,3422.8,29.222321428571426,516.1285714285714,3554.9,29.222321428571426,516.1285714285714,3659.2,29.222321428571426,516.1285714285714,3773.5,29.222321428571426,516.1285714285714,3874.9,29.222321428571426,516.1285714285714,4008.4,29.222321428571426,516.1285714285714,4109.4,29.222321428571426,516.1285714285714,4236.5,29.222321428571426,516.1285714285714,4371.4,29.222321428571426,516.1285714285714,4478.8,29.222321428571426,516.1285714285714,4594.6,29.222321428571426,516.1285714285714,4695.3,29.222321428571426,516.1285714285714,4819.5,29.222321428571426,516.1285714285714,4932.2]","[5960.2,5960.2,2877,2039.2,1044,""smooth"",""left"",""left"",""good_move"",8910.1,2948.6,2482.7,5961.5,465.9,""oops"",""down"",""down"",""good_move"",17111.4,8200,3621.9,12987.4,502.1,""smooth"",""left"",""left"",""good_move"",20025.9,2913.9,2349.6,17112.1,564.2,""smooth"",""left"",""left"",""good_move"",22654.8,2628,1939.6,20026.9,688.3,""oops"",""down"",""down"",""good_move"",25400.5,2744.6,2353.2,22655.9,391.4,""smooth"",""down"",""down"",""good_move""]","",""
"8547","","<div style=""width:500px;"">
  <p>What determined the result of this run?</p>
  </div>","27","html-slider-response","25","518559","0.0-5.0-1.3","112","1","2025-07-16 13:09:54","1f75c3e559b7213887762d5229550c2b","105.245.110.79","Mozilla/5.0 (Windows NT 10.0; Win64; x64) AppleWebKit/537.36 (KHTML, like Gecko) Chrome/138.0.0.0 Safari/537.36","WebKit","Chrome","138.0.0.0","Windows","10.0","https://app.prolific.com/","en-US,en;q=0.9","67b9e921b4b5ee4019522dbb","686e379bc37a29ffa5cdc956","6877a459b621777849486d4b","1","1","67b9e921b4b5ee4019522dbb","1","1","2025-07-16T13:18:25.790Z","","","","","","","","","","","AttribQ","","50","","","","","","","","","","","","","","","","","","","","","","","","","","","","",""
"6850","","<div style=""width:500px;"">
  <p>How much control did you have over the ball?</p>
  </div>","64","html-slider-response","26","525412","0.0-5.0-2.3","112","1","2025-07-16 13:09:54","1f75c3e559b7213887762d5229550c2b","105.245.110.79","Mozilla/5.0 (Windows NT 10.0; Win64; x64) AppleWebKit/537.36 (KHTML, like Gecko) Chrome/138.0.0.0 Safari/537.36","WebKit","Chrome","138.0.0.0","Windows","10.0","https://app.prolific.com/","en-US,en;q=0.9","67b9e921b4b5ee4019522dbb","686e379bc37a29ffa5cdc956","6877a459b621777849486d4b","1","1","67b9e921b4b5ee4019522dbb","1","1","2025-07-16T13:18:32.643Z","","","","","","","","","","","ControlQ","","50","","","","","","","","","","","","","","","","","","","","","","","","","","","","",""
"8678","","<div style=""width:500px;"">
  <p>How would you describe your current emotional state?</p>
  </div>","74","html-slider-response","27","534092","0.0-5.0-3.3","112","1","2025-07-16 13:09:54","1f75c3e559b7213887762d5229550c2b","105.245.110.79","Mozilla/5.0 (Windows NT 10.0; Win64; x64) AppleWebKit/537.36 (KHTML, like Gecko) Chrome/138.0.0.0 Safari/537.36","WebKit","Chrome","138.0.0.0","Windows","10.0","https://app.prolific.com/","en-US,en;q=0.9","67b9e921b4b5ee4019522dbb","686e379bc37a29ffa5cdc956","6877a459b621777849486d4b","1","1","67b9e921b4b5ee4019522dbb","1","1","2025-07-16T13:18:41.323Z","","","","","","","","","","","StressQ","","50","","","","","","","","","","","","","","","","","","","","","","","","","","","","",""
"7945","","<div style=""width:500px;"">
  <p>What best describes how you currently feel?</p>
  </div>","30","html-slider-response","28","542040","0.0-5.0-4.3","112","1","2025-07-16 13:09:54","1f75c3e559b7213887762d5229550c2b","105.245.110.79","Mozilla/5.0 (Windows NT 10.0; Win64; x64) AppleWebKit/537.36 (KHTML, like Gecko) Chrome/138.0.0.0 Safari/537.36","WebKit","Chrome","138.0.0.0","Windows","10.0","https://app.prolific.com/","en-US,en;q=0.9","67b9e921b4b5ee4019522dbb","686e379bc37a29ffa5cdc956","6877a459b621777849486d4b","1","1","67b9e921b4b5ee4019522dbb","1","1","2025-07-16T13:18:49.272Z","","","","","","","","","","","MotivationQ","","50","","","","","","","","","","","","","","","","","","","","","","","","","","","","",""
"","","","","ctl-task-cpt","29","595085","0.0-5.0-0.4","112","1","2025-07-16 13:09:54","1f75c3e559b7213887762d5229550c2b","105.245.110.79","Mozilla/5.0 (Windows NT 10.0; Win64; x64) AppleWebKit/537.36 (KHTML, like Gecko) Chrome/138.0.0.0 Safari/537.36","WebKit","Chrome","138.0.0.0","Windows","10.0","https://app.prolific.com/","en-US,en;q=0.9","67b9e921b4b5ee4019522dbb","686e379bc37a29ffa5cdc956","6877a459b621777849486d4b","1","1","67b9e921b4b5ee4019522dbb","1","1","2025-07-16T13:19:42.317Z","","","","","","","","","","","","","","win-only","3","g1:SW,g2:NE","0.6","5","0","545675.3","24348","29362.4","50020.8","1","4","4","6","2","4","3","26","23","0.19696969696969696","2178.8","3000","2135","[""up"",""right""]","{""num_key_presses"":6,""num_perfect"":4,""num_errors"":1,""num_randdir"":1,""num_randdir_good_moves"":1,""num_whilered"":0,""num_whileblue"":1,""num_blue"":2,""num_good_moves"":6}","[293.22232142857143,297.12857142857143,0.9,293.22232142857143,297.12857142857143,153.6,293.22232142857143,297.12857142857143,253.7,293.22232142857143,297.12857142857143,376.4,293.22232142857143,297.12857142857143,507.7,293.22232142857143,297.12857142857143,641.1,293.22232142857143,297.12857142857143,743.9,293.22232142857143,297.12857142857143,869.4,293.22232142857143,297.12857142857143,1002.2,387.22232142857143,151.12857142857143,1110.5,432.22232142857143,135.12857142857143,1213,488.22232142857143,76.12857142857143,1358.5,521.2223214285714,39.128571428571426,1519.1,521.2223214285714,39.128571428571426,1650.9,521.2223214285714,39.128571428571426,1816.8,520.2223214285714,39.128571428571426,1943.4,520.2223214285714,39.128571428571426,2078.5,520.2223214285714,39.128571428571426,2185,520.2223214285714,39.128571428571426,2335.8,543.2223214285714,7.128571428571426,2461.7,543.2223214285714,7.128571428571426,2589.3,543.2223214285714,7.128571428571426,2701.8,543.2223214285714,7.128571428571426,2830.6,543.2223214285714,7.128571428571426,2956.4,543.2223214285714,7.128571428571426,3060.7,543.2223214285714,7.128571428571426,3163.4,543.2223214285714,7.128571428571426,3296.2,543.2223214285714,7.128571428571426,3399.2,543.2223214285714,7.128571428571426,3529.1,543.2223214285714,7.128571428571426,3655,543.2223214285714,7.128571428571426,3768.9,543.2223214285714,7.128571428571426,3870.2,543.2223214285714,7.128571428571426,3970.7,543.2223214285714,7.128571428571426,4087.7,543.2223214285714,7.128571428571426,4224.4,543.2223214285714,7.128571428571426,4329.4,543.2223214285714,7.128571428571426,4466.2,543.2223214285714,7.128571428571426,4588.6,543.2223214285714,7.128571428571426,4702.6,543.2223214285714,7.128571428571426,4819.2,543.2223214285714,7.128571428571426,4950.3]","[4878.2,4878.2,2162,2044.8,671.4,""smooth"",""up"",""up"",""good_move"",8017.7,3138.2,2661.6,4879.6,476.5,""smooth"",""up"",""up"",""good_move"",11238,3219.5,2318.5,8018.7,900.9,""smooth"",""right"",""right"",""good_move"",14245.5,3006.2,2330,11239.3,676.2,""smooth"",""right"",""right"",""good_move"",17153.6,2907,2450.7,14246.6,456.3,""while_blue"",""right"",""up"",""good_move"",20369.8,3214.9,1995.3,17154.9,1219.6,""oops"",""right"",""right"",""good_move""]","",""
"8883","","<div style=""width:500px;"">
  <p>What determined the result of this run?</p>
  </div>","77","html-slider-response","30","603970","0.0-5.0-1.4","112","1","2025-07-16 13:09:54","1f75c3e559b7213887762d5229550c2b","105.245.110.79","Mozilla/5.0 (Windows NT 10.0; Win64; x64) AppleWebKit/537.36 (KHTML, like Gecko) Chrome/138.0.0.0 Safari/537.36","WebKit","Chrome","138.0.0.0","Windows","10.0","https://app.prolific.com/","en-US,en;q=0.9","67b9e921b4b5ee4019522dbb","686e379bc37a29ffa5cdc956","6877a459b621777849486d4b","1","1","67b9e921b4b5ee4019522dbb","1","1","2025-07-16T13:19:51.202Z","","","","","","","","","","","AttribQ","","50","","","","","","","","","","","","","","","","","","","","","","","","","","","","",""
"8862","","<div style=""width:500px;"">
  <p>How much control did you have over the ball?</p>
  </div>","72","html-slider-response","31","612836","0.0-5.0-2.4","112","1","2025-07-16 13:09:54","1f75c3e559b7213887762d5229550c2b","105.245.110.79","Mozilla/5.0 (Windows NT 10.0; Win64; x64) AppleWebKit/537.36 (KHTML, like Gecko) Chrome/138.0.0.0 Safari/537.36","WebKit","Chrome","138.0.0.0","Windows","10.0","https://app.prolific.com/","en-US,en;q=0.9","67b9e921b4b5ee4019522dbb","686e379bc37a29ffa5cdc956","6877a459b621777849486d4b","1","1","67b9e921b4b5ee4019522dbb","1","1","2025-07-16T13:20:00.067Z","","","","","","","","","","","ControlQ","","50","","","","","","","","","","","","","","","","","","","","","","","","","","","","",""
"9839","","<div style=""width:500px;"">
  <p>How would you describe your current emotional state?</p>
  </div>","32","html-slider-response","32","622679","0.0-5.0-3.4","112","1","2025-07-16 13:09:54","1f75c3e559b7213887762d5229550c2b","105.245.110.79","Mozilla/5.0 (Windows NT 10.0; Win64; x64) AppleWebKit/537.36 (KHTML, like Gecko) Chrome/138.0.0.0 Safari/537.36","WebKit","Chrome","138.0.0.0","Windows","10.0","https://app.prolific.com/","en-US,en;q=0.9","67b9e921b4b5ee4019522dbb","686e379bc37a29ffa5cdc956","6877a459b621777849486d4b","1","1","67b9e921b4b5ee4019522dbb","1","1","2025-07-16T13:20:09.911Z","","","","","","","","","","","StressQ","","50","","","","","","","","","","","","","","","","","","","","","","","","","","","","",""
"9239","","<div style=""width:500px;"">
  <p>What best describes how you currently feel?</p>
  </div>","82","html-slider-response","33","631925","0.0-5.0-4.4","112","1","2025-07-16 13:09:54","1f75c3e559b7213887762d5229550c2b","105.245.110.79","Mozilla/5.0 (Windows NT 10.0; Win64; x64) AppleWebKit/537.36 (KHTML, like Gecko) Chrome/138.0.0.0 Safari/537.36","WebKit","Chrome","138.0.0.0","Windows","10.0","https://app.prolific.com/","en-US,en;q=0.9","67b9e921b4b5ee4019522dbb","686e379bc37a29ffa5cdc956","6877a459b621777849486d4b","1","1","67b9e921b4b5ee4019522dbb","1","1","2025-07-16T13:20:19.156Z","","","","","","","","","","","MotivationQ","","50","","","","","","","","","","","","","","","","","","","","","","","","","","","","",""
"","","","","ctl-task-cpt","34","758170","0.0-5.0-0.5","112","1","2025-07-16 13:09:54","1f75c3e559b7213887762d5229550c2b","105.245.110.79","Mozilla/5.0 (Windows NT 10.0; Win64; x64) AppleWebKit/537.36 (KHTML, like Gecko) Chrome/138.0.0.0 Safari/537.36","WebKit","Chrome","138.0.0.0","Windows","10.0","https://app.prolific.com/","en-US,en;q=0.9","67b9e921b4b5ee4019522dbb","686e379bc37a29ffa5cdc956","6877a459b621777849486d4b","1","1","67b9e921b4b5ee4019522dbb","1","1","2025-07-16T13:22:25.402Z","","","","","","","","","","","","","","win-only","0","g1:NW,g2:SE","0.5","6","0","635560.8","27068.6","32147.1","123204.4","1","4","8","6","2","-8","-9","17","26","0.12878787878787878","2071.9","3000","-870","[""down"",""right""]","{""num_key_presses"":18,""num_perfect"":8,""num_errors"":1,""num_randdir"":9,""num_randdir_good_moves"":2,""num_whilered"":0,""num_whileblue"":0,""num_blue"":9,""num_good_moves"":10}","[299.22232142857143,298.12857142857143,2.4,299.22232142857143,298.12857142857143,170.9,299.22232142857143,298.12857142857143,287,299.22232142857143,298.12857142857143,427.1,299.22232142857143,298.12857142857143,528.9,299.22232142857143,298.12857142857143,632.8,299.22232142857143,298.12857142857143,775.6,400.22232142857143,342.12857142857143,910.8,557.2223214285714,418.12857142857143,1015.4,605.2223214285714,454.12857142857143,1153.2,589.2223214285714,482.12857142857143,1357.4,545.2223214285714,533.1285714285714,1555.4,544.2223214285714,534.1285714285714,1676.9,544.2223214285714,534.1285714285714,1777.4,544.2223214285714,534.1285714285714,1932.6,544.2223214285714,534.1285714285714,2078.6,544.2223214285714,534.1285714285714,2180.2,544.2223214285714,534.1285714285714,2282.2,544.2223214285714,534.1285714285714,2383.5,544.2223214285714,534.1285714285714,2492.8,544.2223214285714,534.1285714285714,2593.2,544.2223214285714,534.1285714285714,2744.8,544.2223214285714,534.1285714285714,2844.8,544.2223214285714,534.1285714285714,2977.2,544.2223214285714,534.1285714285714,3079.1,544.2223214285714,534.1285714285714,3183.7,544.2223214285714,534.1285714285714,3331.4,544.2223214285714,534.1285714285714,3460.5,544.2223214285714,534.1285714285714,3563.5,544.2223214285714,534.1285714285714,3682.3,544.2223214285714,534.1285714285714,3847.5,544.2223214285714,534.1285714285714,3961,544.2223214285714,534.1285714285714,4061.6,544.2223214285714,534.1285714285714,4184.4,544.2223214285714,534.1285714285714,4330.4,544.2223214285714,534.1285714285714,4458.9,544.2223214285714,534.1285714285714,4563.5,544.2223214285714,534.1285714285714,4675.5,544.2223214285714,534.1285714285714,4803.8,544.2223214285714,534.1285714285714,4904.6]","[5484.4,5484.4,2919.1,2027.9,537.4,""smooth"",""down"",""down"",""good_move"",8627.7,3142,2581.2,5485.7,560.8,""smooth"",""down"",""down"",""good_move"",11916.9,3287.1,2843.1,8629.8,444,""oops"",""right"",""up"",""bad_move"",15288.1,3369.9,1943.5,11918.2,1426.4,""oops"",""right"",""up"",""bad_move"",18712.4,3423.3,2581.4,15289.1,841.9,""oops"",""right"",""left"",""bad_move"",22132.2,3418.4,1763.8,18713.8,1654.6,""oops"",""right"",""up"",""bad_move"",28690.8,6557.6,2490.8,26975.7,-775.7,""error"",""-"",""-"",""no_move"",35119,6427.2,2172.6,32319.2,627.2,""smooth"",""right"",""right"",""good_move"",38397.5,3277.6,2610.6,35119.9,667,""smooth"",""right"",""right"",""good_move"",45231.2,6829.8,2761.1,41905.6,564.5,""smooth"",""right"",""right"",""good_move"",48485.9,3254.1,2718.3,45231.9,535.7,""oops"",""right"",""left"",""bad_move"",51979,3492.1,2120.8,48486.9,1371.3,""oops"",""down"",""down"",""good_move"",61126.5,9146.2,2531.6,58048.8,546.1,""smooth"",""right"",""right"",""good_move"",63836.6,2709.6,1460.2,61127.1,1249.3,""smooth"",""down"",""down"",""good_move"",73716.4,9877.3,2040.1,71141.9,534.4,""oops"",""down"",""up"",""bad_move"",77483.8,3766.5,2648.9,73717.3,1117.6,""oops"",""down"",""left"",""bad_move"",81093.1,3607.5,2154.3,77485.6,1453.2,""smooth"",""down"",""down"",""good_move"",84208.7,3114.7,2359,81094.1,755.6,""oops"",""right"",""right"",""good_move""]","",""
"11690","","<div style=""width:500px;"">
  <p>What determined the result of this run?</p>
  </div>","31","html-slider-response","35","769863","0.0-5.0-1.5","112","1","2025-07-16 13:09:54","1f75c3e559b7213887762d5229550c2b","105.245.110.79","Mozilla/5.0 (Windows NT 10.0; Win64; x64) AppleWebKit/537.36 (KHTML, like Gecko) Chrome/138.0.0.0 Safari/537.36","WebKit","Chrome","138.0.0.0","Windows","10.0","https://app.prolific.com/","en-US,en;q=0.9","67b9e921b4b5ee4019522dbb","686e379bc37a29ffa5cdc956","6877a459b621777849486d4b","1","1","67b9e921b4b5ee4019522dbb","1","1","2025-07-16T13:22:37.095Z","","","","","","","","","","","AttribQ","","50","","","","","","","","","","","","","","","","","","","","","","","","","","","","",""
"15510","","<div style=""width:500px;"">
  <p>How much control did you have over the ball?</p>
  </div>","70","html-slider-response","36","785377","0.0-5.0-2.5","112","1","2025-07-16 13:09:54","1f75c3e559b7213887762d5229550c2b","105.245.110.79","Mozilla/5.0 (Windows NT 10.0; Win64; x64) AppleWebKit/537.36 (KHTML, like Gecko) Chrome/138.0.0.0 Safari/537.36","WebKit","Chrome","138.0.0.0","Windows","10.0","https://app.prolific.com/","en-US,en;q=0.9","67b9e921b4b5ee4019522dbb","686e379bc37a29ffa5cdc956","6877a459b621777849486d4b","1","1","67b9e921b4b5ee4019522dbb","1","1","2025-07-16T13:22:52.608Z","","","","","","","","","","","ControlQ","","50","","","","","","","","","","","","","","","","","","","","","","","","","","","","",""
"11421","","<div style=""width:500px;"">
  <p>How would you describe your current emotional state?</p>
  </div>","67","html-slider-response","37","796801","0.0-5.0-3.5","112","1","2025-07-16 13:09:54","1f75c3e559b7213887762d5229550c2b","105.245.110.79","Mozilla/5.0 (Windows NT 10.0; Win64; x64) AppleWebKit/537.36 (KHTML, like Gecko) Chrome/138.0.0.0 Safari/537.36","WebKit","Chrome","138.0.0.0","Windows","10.0","https://app.prolific.com/","en-US,en;q=0.9","67b9e921b4b5ee4019522dbb","686e379bc37a29ffa5cdc956","6877a459b621777849486d4b","1","1","67b9e921b4b5ee4019522dbb","1","1","2025-07-16T13:23:04.033Z","","","","","","","","","","","StressQ","","50","","","","","","","","","","","","","","","","","","","","","","","","","","","","",""
"10085","","<div style=""width:500px;"">
  <p>What best describes how you currently feel?</p>
  </div>","26","html-slider-response","38","806891","0.0-5.0-4.5","112","1","2025-07-16 13:09:54","1f75c3e559b7213887762d5229550c2b","105.245.110.79","Mozilla/5.0 (Windows NT 10.0; Win64; x64) AppleWebKit/537.36 (KHTML, like Gecko) Chrome/138.0.0.0 Safari/537.36","WebKit","Chrome","138.0.0.0","Windows","10.0","https://app.prolific.com/","en-US,en;q=0.9","67b9e921b4b5ee4019522dbb","686e379bc37a29ffa5cdc956","6877a459b621777849486d4b","1","1","67b9e921b4b5ee4019522dbb","1","1","2025-07-16T13:23:14.122Z","","","","","","","","","","","MotivationQ","","50","","","","","","","","","","","","","","","","","","","","","","","","","","","","",""
"","","","","ctl-task-cpt","39","866151","0.0-5.0-0.6","112","1","2025-07-16 13:09:54","1f75c3e559b7213887762d5229550c2b","105.245.110.79","Mozilla/5.0 (Windows NT 10.0; Win64; x64) AppleWebKit/537.36 (KHTML, like Gecko) Chrome/138.0.0.0 Safari/537.36","WebKit","Chrome","138.0.0.0","Windows","10.0","https://app.prolific.com/","en-US,en;q=0.9","67b9e921b4b5ee4019522dbb","686e379bc37a29ffa5cdc956","6877a459b621777849486d4b","1","1","67b9e921b4b5ee4019522dbb","1","1","2025-07-16T13:24:13.383Z","","","","","","","","","","","","","","win-only","2","g1:SE,g2:NW","0.4","7","0","810525.8","24533.8","29595.6","56223.1","1","4","8","6","2","8","8","25","17","0.1893939393939394","2143.3","3000","1800","[""left"",""up""]","{""num_key_presses"":6,""num_perfect"":3,""num_errors"":0,""num_randdir"":3,""num_randdir_good_moves"":3,""num_whilered"":0,""num_whileblue"":0,""num_blue"":1,""num_good_moves"":6}","[292.22232142857143,293.12857142857143,1,292.22232142857143,293.12857142857143,148.1,292.22232142857143,293.12857142857143,341.2,292.22232142857143,293.12857142857143,464.3,292.22232142857143,293.12857142857143,597,292.22232142857143,293.12857142857143,701.7,292.22232142857143,293.12857142857143,877.7,292.22232142857143,293.12857142857143,988.7,292.22232142857143,293.12857142857143,1092.7,137.22232142857143,148.12857142857143,1195.6,100.22232142857143,126.12857142857143,1298.4,71.22232142857143,86.12857142857143,1568.2,61.222321428571426,68.12857142857143,1669.9,59.222321428571426,64.12857142857143,1846.5,59.222321428571426,64.12857142857143,1971.9,59.222321428571426,64.12857142857143,2076.2,59.222321428571426,64.12857142857143,2178.8,59.222321428571426,64.12857142857143,2334.5,59.222321428571426,64.12857142857143,2492.1,59.222321428571426,64.12857142857143,2597.8,59.222321428571426,64.12857142857143,2720.3,59.222321428571426,64.12857142857143,2837.8,59.222321428571426,64.12857142857143,2938.1,59.222321428571426,64.12857142857143,3097,59.222321428571426,64.12857142857143,3296.8,59.222321428571426,64.12857142857143,3397.6,59.222321428571426,64.12857142857143,3523.1,59.222321428571426,64.12857142857143,3624.2,59.222321428571426,64.12857142857143,3774.1,59.222321428571426,64.12857142857143,3874.6,59.222321428571426,64.12857142857143,4027.3,59.222321428571426,64.12857142857143,4152.1,59.222321428571426,64.12857142857143,4253.4,59.222321428571426,64.12857142857143,4410.6,59.222321428571426,64.12857142857143,4531.8,59.222321428571426,64.12857142857143,4664.2,59.222321428571426,64.12857142857143,4789.5,59.222321428571426,64.12857142857143,4901.5]","[3339,3339.1,1000,0,2339.1,""oops"",""left"",""left"",""good_move"",10522.3,7181.9,2279.9,7743.9,498.5,""smooth"",""left"",""left"",""good_move"",14443.4,3918.8,3160.3,10524.7,758.5,""smooth"",""up"",""up"",""good_move"",18417.2,3971.6,2079.2,14445.7,1892.3,""oops"",""up"",""left"",""good_move"",22262.7,3844.5,2069.4,18418.2,1775.1,""smooth"",""up"",""up"",""good_move"",26265.6,4001.3,2766.4,22264.4,1234.9,""oops"",""up"",""up"",""good_move""]","",""
"30842","","<div style=""width:500px;"">
  <p>What determined the result of this run?</p>
  </div>","19","html-slider-response","40","896997","0.0-5.0-1.6","112","1","2025-07-16 13:09:54","1f75c3e559b7213887762d5229550c2b","105.245.110.79","Mozilla/5.0 (Windows NT 10.0; Win64; x64) AppleWebKit/537.36 (KHTML, like Gecko) Chrome/138.0.0.0 Safari/537.36","WebKit","Chrome","138.0.0.0","Windows","10.0","https://app.prolific.com/","en-US,en;q=0.9","67b9e921b4b5ee4019522dbb","686e379bc37a29ffa5cdc956","6877a459b621777849486d4b","1","1","67b9e921b4b5ee4019522dbb","1","1","2025-07-16T13:24:44.228Z","","","","","","","","","","","AttribQ","","50","","","","","","","","","","","","","","","","","","","","","","","","","","","","",""
"11031","","<div style=""width:500px;"">
  <p>How much control did you have over the ball?</p>
  </div>","58","html-slider-response","41","908032","0.0-5.0-2.6","112","1","2025-07-16 13:09:54","1f75c3e559b7213887762d5229550c2b","105.245.110.79","Mozilla/5.0 (Windows NT 10.0; Win64; x64) AppleWebKit/537.36 (KHTML, like Gecko) Chrome/138.0.0.0 Safari/537.36","WebKit","Chrome","138.0.0.0","Windows","10.0","https://app.prolific.com/","en-US,en;q=0.9","67b9e921b4b5ee4019522dbb","686e379bc37a29ffa5cdc956","6877a459b621777849486d4b","1","1","67b9e921b4b5ee4019522dbb","1","1","2025-07-16T13:24:55.264Z","","","","","","","","","","","ControlQ","","50","","","","","","","","","","","","","","","","","","","","","","","","","","","","",""
"14861","","<div style=""width:500px;"">
  <p>How would you describe your current emotional state?</p>
  </div>","72","html-slider-response","42","922898","0.0-5.0-3.6","112","1","2025-07-16 13:09:54","1f75c3e559b7213887762d5229550c2b","105.245.110.79","Mozilla/5.0 (Windows NT 10.0; Win64; x64) AppleWebKit/537.36 (KHTML, like Gecko) Chrome/138.0.0.0 Safari/537.36","WebKit","Chrome","138.0.0.0","Windows","10.0","https://app.prolific.com/","en-US,en;q=0.9","67b9e921b4b5ee4019522dbb","686e379bc37a29ffa5cdc956","6877a459b621777849486d4b","1","1","67b9e921b4b5ee4019522dbb","1","1","2025-07-16T13:25:10.129Z","","","","","","","","","","","StressQ","","50","","","","","","","","","","","","","","","","","","","","","","","","","","","","",""
"8211","","<div style=""width:500px;"">
  <p>What best describes how you currently feel?</p>
  </div>","24","html-slider-response","43","931113","0.0-5.0-4.6","112","1","2025-07-16 13:09:54","1f75c3e559b7213887762d5229550c2b","105.245.110.79","Mozilla/5.0 (Windows NT 10.0; Win64; x64) AppleWebKit/537.36 (KHTML, like Gecko) Chrome/138.0.0.0 Safari/537.36","WebKit","Chrome","138.0.0.0","Windows","10.0","https://app.prolific.com/","en-US,en;q=0.9","67b9e921b4b5ee4019522dbb","686e379bc37a29ffa5cdc956","6877a459b621777849486d4b","1","1","67b9e921b4b5ee4019522dbb","1","1","2025-07-16T13:25:18.344Z","","","","","","","","","","","MotivationQ","","50","","","","","","","","","","","","","","","","","","","","","","","","","","","","",""
"","","","","ctl-task-cpt","44","1035099","0.0-5.0-0.7","112","1","2025-07-16 13:09:54","1f75c3e559b7213887762d5229550c2b","105.245.110.79","Mozilla/5.0 (Windows NT 10.0; Win64; x64) AppleWebKit/537.36 (KHTML, like Gecko) Chrome/138.0.0.0 Safari/537.36","WebKit","Chrome","138.0.0.0","Windows","10.0","https://app.prolific.com/","en-US,en;q=0.9","67b9e921b4b5ee4019522dbb","686e379bc37a29ffa5cdc956","6877a459b621777849486d4b","1","1","67b9e921b4b5ee4019522dbb","1","1","2025-07-16T13:27:02.330Z","","","","","","","","","","","","","","win-only","3","g1:SW,g2:NE","0.3","8","0","934748.2","23320","28381","100958","1","4","4","6","2","4","2","27","25","0.20454545454545456","2271.6","3000","1360","[""up"",""right""]","{""num_key_presses"":16,""num_perfect"":5,""num_errors"":2,""num_randdir"":9,""num_randdir_good_moves"":6,""num_whilered"":0,""num_whileblue"":2,""num_blue"":4,""num_good_moves"":11}","[291.22232142857143,299.12857142857143,0.9,291.22232142857143,299.12857142857143,224.3,291.22232142857143,299.12857142857143,324.9,291.22232142857143,299.12857142857143,514,291.22232142857143,299.12857142857143,620.3,291.22232142857143,299.12857142857143,827.3,385.22232142857143,124.12857142857143,929,551.2223214285714,-49.871428571428574,1035.5,546.2223214285714,-49.871428571428574,1256.4,546.2223214285714,-49.871428571428574,1544.5,545.2223214285714,-32.871428571428574,1660.8,547.2223214285714,-2.8714285714285737,1769.9,551.2223214285714,31.128571428571426,1987.6,551.2223214285714,31.128571428571426,2094.5,551.2223214285714,31.128571428571426,2280.7,551.2223214285714,31.128571428571426,2411.5,551.2223214285714,31.128571428571426,2511.8,551.2223214285714,31.128571428571426,2735.6,551.2223214285714,31.128571428571426,2836.3,551.2223214285714,31.128571428571426,3084.4,551.2223214285714,31.128571428571426,3189,551.2223214285714,31.128571428571426,3403.4,551.2223214285714,31.128571428571426,3651.9,551.2223214285714,31.128571428571426,3755.4,551.2223214285714,31.128571428571426,4007.7,551.2223214285714,31.128571428571426,4108.4,551.2223214285714,31.128571428571426,4379.4,551.2223214285714,31.128571428571426,4489.2,551.2223214285714,31.128571428571426,4748.1,551.2223214285714,31.128571428571426,4852.2]","[2743.8,2743.9,1000,0,1743.9,""oops"",""up"",""down"",""bad_move"",9901.1,7156.1,2311.9,7086.9,502.4,""oops"",""up"",""left"",""bad_move"",17943.8,8041.4,2541.8,14850.3,551.8,""oops"",""up"",""right"",""good_move"",20739.9,2795.1,2195.8,17944.8,599.3,""oops"",""up"",""right"",""good_move"",23318.6,2577.2,1933.8,20741.4,643.4,""smooth"",""up"",""up"",""good_move"",28331.9,5011.4,2746.6,23320.5,2264.8,""smooth"",""up"",""up"",""good_move"",33621.8,5288.8,2441.3,28333.2,2847.4,""smooth"",""up"",""up"",""good_move"",39025.6,5402.4,4945.5,33623.2,456.9,""while_blue"",""up"",""down"",""bad_move"",42083.5,3056.8,2417.8,39026.7,639,""oops"",""up"",""right"",""good_move"",45206.3,3121.9,2525.4,42084.4,596.5,""oops"",""up"",""right"",""good_move"",47920.6,2711.3,2136.3,45209.3,575,""oops"",""up"",""up"",""good_move"",53472.2,5550.2,2520.7,47922,3029.5,""oops"",""up"",""left"",""bad_move"",59221.9,5749,5347.6,53473,401.3,""while_blue"",""up"",""left"",""bad_move"",64964.6,5742.1,2059.4,59222.6,3682.6,""smooth"",""up"",""up"",""good_move"",68972.6,4007.5,2617.1,64965.1,1390.4,""smooth"",""right"",""right"",""good_move"",72188.2,3214.2,2325.5,68974,888.7,""oops"",""right"",""right"",""good_move""]","",""
"11615","","<div style=""width:500px;"">
  <p>What determined the result of this run?</p>
  </div>","29","html-slider-response","45","1046718","0.0-5.0-1.7","112","1","2025-07-16 13:09:54","1f75c3e559b7213887762d5229550c2b","105.245.110.79","Mozilla/5.0 (Windows NT 10.0; Win64; x64) AppleWebKit/537.36 (KHTML, like Gecko) Chrome/138.0.0.0 Safari/537.36","WebKit","Chrome","138.0.0.0","Windows","10.0","https://app.prolific.com/","en-US,en;q=0.9","67b9e921b4b5ee4019522dbb","686e379bc37a29ffa5cdc956","6877a459b621777849486d4b","1","1","67b9e921b4b5ee4019522dbb","1","1","2025-07-16T13:27:13.949Z","","","","","","","","","","","AttribQ","","50","","","","","","","","","","","","","","","","","","","","","","","","","","","","",""
"10247","","<div style=""width:500px;"">
  <p>How much control did you have over the ball?</p>
  </div>","33","html-slider-response","46","1056970","0.0-5.0-2.7","112","1","2025-07-16 13:09:54","1f75c3e559b7213887762d5229550c2b","105.245.110.79","Mozilla/5.0 (Windows NT 10.0; Win64; x64) AppleWebKit/537.36 (KHTML, like Gecko) Chrome/138.0.0.0 Safari/537.36","WebKit","Chrome","138.0.0.0","Windows","10.0","https://app.prolific.com/","en-US,en;q=0.9","67b9e921b4b5ee4019522dbb","686e379bc37a29ffa5cdc956","6877a459b621777849486d4b","1","1","67b9e921b4b5ee4019522dbb","1","1","2025-07-16T13:27:24.201Z","","","","","","","","","","","ControlQ","","50","","","","","","","","","","","","","","","","","","","","","","","","","","","","",""
"9963","","<div style=""width:500px;"">
  <p>How would you describe your current emotional state?</p>
  </div>","78","html-slider-response","47","1066938","0.0-5.0-3.7","112","1","2025-07-16 13:09:54","1f75c3e559b7213887762d5229550c2b","105.245.110.79","Mozilla/5.0 (Windows NT 10.0; Win64; x64) AppleWebKit/537.36 (KHTML, like Gecko) Chrome/138.0.0.0 Safari/537.36","WebKit","Chrome","138.0.0.0","Windows","10.0","https://app.prolific.com/","en-US,en;q=0.9","67b9e921b4b5ee4019522dbb","686e379bc37a29ffa5cdc956","6877a459b621777849486d4b","1","1","67b9e921b4b5ee4019522dbb","1","1","2025-07-16T13:27:34.169Z","","","","","","","","","","","StressQ","","50","","","","","","","","","","","","","","","","","","","","","","","","","","","","",""
"17005","","<div style=""width:500px;"">
  <p>What best describes how you currently feel?</p>
  </div>","6","html-slider-response","48","1083949","0.0-5.0-4.7","112","1","2025-07-16 13:09:54","1f75c3e559b7213887762d5229550c2b","105.245.110.79","Mozilla/5.0 (Windows NT 10.0; Win64; x64) AppleWebKit/537.36 (KHTML, like Gecko) Chrome/138.0.0.0 Safari/537.36","WebKit","Chrome","138.0.0.0","Windows","10.0","https://app.prolific.com/","en-US,en;q=0.9","67b9e921b4b5ee4019522dbb","686e379bc37a29ffa5cdc956","6877a459b621777849486d4b","1","1","67b9e921b4b5ee4019522dbb","1","1","2025-07-16T13:27:51.180Z","","","","","","","","","","","MotivationQ","","50","","","","","","","","","","","","","","","","","","","","","","","","","","","","",""
"","","","","ctl-task-cpt","49","1236894","0.0-5.0-0.8","112","1","2025-07-16 13:09:54","1f75c3e559b7213887762d5229550c2b","105.245.110.79","Mozilla/5.0 (Windows NT 10.0; Win64; x64) AppleWebKit/537.36 (KHTML, like Gecko) Chrome/138.0.0.0 Safari/537.36","WebKit","Chrome","138.0.0.0","Windows","10.0","https://app.prolific.com/","en-US,en;q=0.9","67b9e921b4b5ee4019522dbb","686e379bc37a29ffa5cdc956","6877a459b621777849486d4b","1","1","67b9e921b4b5ee4019522dbb","1","1","2025-07-16T13:30:24.125Z","","","","","","","","","","","","","","win-only","1","g1:NE,g2:SW","0.2","9","0","1087585.4","14018.1","19063","149904.6","1","4","8","6","2","-8","-8","19","27","0.14393939393939395","2294.3","3000","-535","[""down"",""left""]","{""num_key_presses"":19,""num_perfect"":4,""num_errors"":0,""num_randdir"":15,""num_randdir_good_moves"":5,""num_whilered"":0,""num_whileblue"":0,""num_blue"":4,""num_good_moves"":9}","[290.22232142857143,300.12857142857143,1.5,290.22232142857143,300.12857142857143,148.4,290.22232142857143,300.12857142857143,251.5,290.22232142857143,300.12857142857143,356.6,290.22232142857143,300.12857142857143,464.8,290.22232142857143,300.12857142857143,568.5,290.22232142857143,300.12857142857143,671.3,290.22232142857143,300.12857142857143,772.3,293.22232142857143,285.12857142857143,882.8,333.22232142857143,213.12857142857143,999.1,268.22232142857143,290.12857142857143,1115.4,149.22232142857143,422.12857142857143,1239.5,126.22232142857143,448.12857142857143,1351,126.22232142857143,448.12857142857143,1506.8,126.22232142857143,448.12857142857143,1612.5,104.22232142857143,464.12857142857143,1722.9,63.222321428571426,501.12857142857143,1851.1,45.222321428571426,533.1285714285714,1969.4,45.222321428571426,533.1285714285714,2071.4,45.222321428571426,533.1285714285714,2180.9,45.222321428571426,533.1285714285714,2286.4,45.222321428571426,533.1285714285714,2394.8,45.222321428571426,533.1285714285714,2498.1,45.222321428571426,533.1285714285714,2604.7,45.222321428571426,533.1285714285714,2705.1,45.222321428571426,533.1285714285714,2814.5,45.222321428571426,533.1285714285714,2915.8,45.222321428571426,533.1285714285714,3015.9,45.222321428571426,533.1285714285714,3124.1,45.222321428571426,533.1285714285714,3228.2,45.222321428571426,533.1285714285714,3328.3,45.222321428571426,533.1285714285714,3429.8,45.222321428571426,533.1285714285714,3539.6,45.222321428571426,533.1285714285714,3690.8,45.222321428571426,533.1285714285714,3795.2,45.222321428571426,533.1285714285714,3898.7,45.222321428571426,533.1285714285714,3999.1,45.222321428571426,533.1285714285714,4100.4,45.222321428571426,533.1285714285714,4211.1,45.222321428571426,533.1285714285714,4314.2,45.222321428571426,533.1285714285714,4416.2,45.222321428571426,533.1285714285714,4518.3,45.222321428571426,533.1285714285714,4619.3,45.222321428571426,533.1285714285714,4723.1,45.222321428571426,533.1285714285714,4831.5,45.222321428571426,533.1285714285714,4935.7]","[3126.5,3126.5,1000,0,2126.5,""oops"",""left"",""up"",""bad_move"",12807,9679.2,2242.2,3127.9,7436.9,""smooth"",""down"",""down"",""good_move"",20116.9,7309,2734.1,16732.5,650.3,""oops"",""down"",""up"",""bad_move"",29883.7,9766,2137.1,20117.7,7628.9,""oops"",""down"",""down"",""good_move"",33879.1,3994.6,2200,29884.5,1794.7,""oops"",""down"",""right"",""bad_move"",41002.9,7122.4,2548.8,37840.1,614,""oops"",""left"",""up"",""bad_move"",51395,10391.4,2060.3,41003.6,8331.1,""smooth"",""left"",""left"",""good_move"",61688.1,10292.1,2458.6,51396,7833.5,""oops"",""left"",""left"",""good_move"",71974.8,10286,1704,61688.9,8581.9,""oops"",""left"",""down"",""good_move"",75080.5,3103,1597.7,71977.5,1505.3,""oops"",""left"",""right"",""bad_move"",79486.1,4404.7,2060.1,75081.6,2344.4,""oops"",""down"",""down"",""good_move"",83327.2,3840.1,2977.6,79487.1,862.6,""oops"",""left"",""right"",""bad_move"",86680.1,3351.8,2652.7,83328.3,699.1,""oops"",""left"",""up"",""bad_move"",92155.4,5474.2,2570.9,86681.2,2903.3,""oops"",""left"",""right"",""bad_move"",102456.9,10300.5,2854.9,98931.8,670.2,""oops"",""left"",""left"",""good_move"",107911.7,5453.1,2792.6,102458.6,2660.5,""smooth"",""left"",""left"",""good_move"",113630.7,5718.2,3068.5,107912.5,2649.7,""oops"",""left"",""right"",""bad_move"",117263,3631.6,2906.3,113631.4,725.3,""smooth"",""left"",""left"",""good_move"",122860.6,5596.2,2457.5,117264.4,3138.7,""oops"",""left"",""up"",""bad_move""]","",""
"8623","","<div style=""width:500px;"">
  <p>What determined the result of this run?</p>
  </div>","1","html-slider-response","50","1245521","0.0-5.0-1.8","112","1","2025-07-16 13:09:54","1f75c3e559b7213887762d5229550c2b","105.245.110.79","Mozilla/5.0 (Windows NT 10.0; Win64; x64) AppleWebKit/537.36 (KHTML, like Gecko) Chrome/138.0.0.0 Safari/537.36","WebKit","Chrome","138.0.0.0","Windows","10.0","https://app.prolific.com/","en-US,en;q=0.9","67b9e921b4b5ee4019522dbb","686e379bc37a29ffa5cdc956","6877a459b621777849486d4b","1","1","67b9e921b4b5ee4019522dbb","1","1","2025-07-16T13:30:32.752Z","","","","","","","","","","","AttribQ","","50","","","","","","","","","","","","","","","","","","","","","","","","","","","","",""
"9392","","<div style=""width:500px;"">
  <p>How much control did you have over the ball?</p>
  </div>","3","html-slider-response","51","1254918","0.0-5.0-2.8","112","1","2025-07-16 13:09:54","1f75c3e559b7213887762d5229550c2b","105.245.110.79","Mozilla/5.0 (Windows NT 10.0; Win64; x64) AppleWebKit/537.36 (KHTML, like Gecko) Chrome/138.0.0.0 Safari/537.36","WebKit","Chrome","138.0.0.0","Windows","10.0","https://app.prolific.com/","en-US,en;q=0.9","67b9e921b4b5ee4019522dbb","686e379bc37a29ffa5cdc956","6877a459b621777849486d4b","1","1","67b9e921b4b5ee4019522dbb","1","1","2025-07-16T13:30:42.149Z","","","","","","","","","","","ControlQ","","50","","","","","","","","","","","","","","","","","","","","","","","","","","","","",""
"6433","","<div style=""width:500px;"">
  <p>How would you describe your current emotional state?</p>
  </div>","98","html-slider-response","52","1261411","0.0-5.0-3.8","112","1","2025-07-16 13:09:54","1f75c3e559b7213887762d5229550c2b","105.245.110.79","Mozilla/5.0 (Windows NT 10.0; Win64; x64) AppleWebKit/537.36 (KHTML, like Gecko) Chrome/138.0.0.0 Safari/537.36","WebKit","Chrome","138.0.0.0","Windows","10.0","https://app.prolific.com/","en-US,en;q=0.9","67b9e921b4b5ee4019522dbb","686e379bc37a29ffa5cdc956","6877a459b621777849486d4b","1","1","67b9e921b4b5ee4019522dbb","1","1","2025-07-16T13:30:48.643Z","","","","","","","","","","","StressQ","","50","","","","","","","","","","","","","","","","","","","","","","","","","","","","",""
"5380","","<div style=""width:500px;"">
  <p>What best describes how you currently feel?</p>
  </div>","2","html-slider-response","53","1266796","0.0-5.0-4.8","112","1","2025-07-16 13:09:54","1f75c3e559b7213887762d5229550c2b","105.245.110.79","Mozilla/5.0 (Windows NT 10.0; Win64; x64) AppleWebKit/537.36 (KHTML, like Gecko) Chrome/138.0.0.0 Safari/537.36","WebKit","Chrome","138.0.0.0","Windows","10.0","https://app.prolific.com/","en-US,en;q=0.9","67b9e921b4b5ee4019522dbb","686e379bc37a29ffa5cdc956","6877a459b621777849486d4b","1","1","67b9e921b4b5ee4019522dbb","1","1","2025-07-16T13:30:54.028Z","","","","","","","","","","","MotivationQ","","50","","","","","","","","","","","","","","","","","","","","","","","","","","","","",""
"","","","","ctl-task-cpt","54","1487469","0.0-5.0-0.9","112","1","2025-07-16 13:09:54","1f75c3e559b7213887762d5229550c2b","105.245.110.79","Mozilla/5.0 (Windows NT 10.0; Win64; x64) AppleWebKit/537.36 (KHTML, like Gecko) Chrome/138.0.0.0 Safari/537.36","WebKit","Chrome","138.0.0.0","Windows","10.0","https://app.prolific.com/","en-US,en;q=0.9","67b9e921b4b5ee4019522dbb","686e379bc37a29ffa5cdc956","6877a459b621777849486d4b","1","1","67b9e921b4b5ee4019522dbb","1","1","2025-07-16T13:34:34.701Z","","","","","","","","","","","","","","win-only","2","g1:SE,g2:NW","0.4","10","0","1270432.6","4903.6","9964.3","217548.2","1","4","4","6","2","-4","-5","14","19","0.10606060606060606","2369","3000","-140","[""left"",""up""]","{""num_key_presses"":17,""num_perfect"":5,""num_errors"":1,""num_randdir"":11,""num_randdir_good_moves"":3,""num_whilered"":0,""num_whileblue"":0,""num_blue"":7,""num_good_moves"":8}","[293.22232142857143,294.12857142857143,0.8,293.22232142857143,294.12857142857143,222,293.22232142857143,294.12857142857143,342.1,293.22232142857143,294.12857142857143,456.9,293.22232142857143,294.12857142857143,570.9,293.22232142857143,294.12857142857143,712.3,293.22232142857143,294.12857142857143,829.3,293.22232142857143,294.12857142857143,944.1,293.22232142857143,294.12857142857143,1060.1,148.22232142857143,193.12857142857143,1187.7,58.222321428571426,148.12857142857143,1320.7,56.222321428571426,146.12857142857143,1444.9,64.22232142857143,120.12857142857143,1578.3,68.22232142857143,107.12857142857143,1707.4,53.222321428571426,85.12857142857143,1847.9,47.222321428571426,55.128571428571426,1981.8,47.222321428571426,54.128571428571426,2103.9,47.222321428571426,54.128571428571426,2221.5,47.222321428571426,54.128571428571426,2340.4,47.222321428571426,54.128571428571426,2460.8,47.222321428571426,54.128571428571426,2574.4,47.222321428571426,54.128571428571426,2691.9,47.222321428571426,54.128571428571426,2805,47.222321428571426,54.128571428571426,2919.2,47.222321428571426,54.128571428571426,3031.8,47.222321428571426,54.128571428571426,3147.1,47.222321428571426,54.128571428571426,3263.2,47.222321428571426,54.128571428571426,3377.2,47.222321428571426,54.128571428571426,3493.5,47.222321428571426,54.128571428571426,3607.1,47.222321428571426,54.128571428571426,3721.8,47.222321428571426,54.128571428571426,3838,47.222321428571426,54.128571428571426,3952.3,47.222321428571426,54.128571428571426,4068.6,47.222321428571426,54.128571428571426,4185.3,47.222321428571426,54.128571428571426,4299.9,47.222321428571426,54.128571428571426,4418.6,47.222321428571426,54.128571428571426,4534.1,47.222321428571426,54.128571428571426,4647.4,47.222321428571426,54.128571428571426,4764.7,47.222321428571426,54.128571428571426,4879,47.222321428571426,54.128571428571426,4994.1]","[1742.6,1742.6,1000,0,742.6,""oops"",""left"",""left"",""good_move"",16444,14700.4,2685,13177.4,581.6,""smooth"",""left"",""left"",""good_move"",27704.9,11259.8,2459.1,16445.1,8800.8,""smooth"",""left"",""left"",""good_move"",39008.8,11303.1,2539.7,27705.7,8763.4,""oops"",""up"",""down"",""bad_move"",46448.5,7438.7,2653,43150.5,645.1,""oops"",""up"",""down"",""bad_move"",49834.6,3385.4,2523.4,46449.3,861.9,""oops"",""up"",""left"",""good_move"",61675,11837.7,2604.9,49837.3,9232.8,""smooth"",""up"",""up"",""good_move"",73785.5,12109.3,2268,61676.2,9841.3,""smooth"",""up"",""up"",""good_move"",86403.9,12617.7,2572.3,73786.2,10045.4,""oops"",""up"",""down"",""bad_move"",90788,4383.3,3597.1,86404.7,786.3,""oops"",""up"",""down"",""bad_move"",94634.8,3844.5,2642.1,90790.3,1202.4,""oops"",""up"",""right"",""bad_move"",100183.7,5547.2,2367.5,97150.6,665.6,""smooth"",""up"",""up"",""good_move"",112937.3,12752.9,2516.7,100184.4,10236.3,""oops"",""up"",""right"",""bad_move"",116485,3546.7,2745.3,112938.3,801.4,""oops"",""left"",""up"",""good_move"",136617.9,20131.7,2144.9,135565.5,-1092.5,""error"",""-"",""-"",""no_move"",148940.7,12321.8,2718.2,137662.6,8559.9,""oops"",""left"",""down"",""bad_move"",169925,20983.4,2391.7,160017.5,7515.8,""oops"",""up"",""right"",""bad_move""]","",""
"27333","","<div style=""width:500px;"">
  <p>What determined the result of this run?</p>
  </div>","14","html-slider-response","55","1514815","0.0-5.0-1.9","112","1","2025-07-16 13:09:54","1f75c3e559b7213887762d5229550c2b","105.245.110.79","Mozilla/5.0 (Windows NT 10.0; Win64; x64) AppleWebKit/537.36 (KHTML, like Gecko) Chrome/138.0.0.0 Safari/537.36","WebKit","Chrome","138.0.0.0","Windows","10.0","https://app.prolific.com/","en-US,en;q=0.9","67b9e921b4b5ee4019522dbb","686e379bc37a29ffa5cdc956","6877a459b621777849486d4b","1","1","67b9e921b4b5ee4019522dbb","1","1","2025-07-16T13:35:02.046Z","","","","","","","","","","","AttribQ","","50","","","","","","","","","","","","","","","","","","","","","","","","","","","","",""
"12465","","<div style=""width:500px;"">
  <p>How much control did you have over the ball?</p>
  </div>","5","html-slider-response","56","1527294","0.0-5.0-2.9","112","1","2025-07-16 13:09:54","1f75c3e559b7213887762d5229550c2b","105.245.110.79","Mozilla/5.0 (Windows NT 10.0; Win64; x64) AppleWebKit/537.36 (KHTML, like Gecko) Chrome/138.0.0.0 Safari/537.36","WebKit","Chrome","138.0.0.0","Windows","10.0","https://app.prolific.com/","en-US,en;q=0.9","67b9e921b4b5ee4019522dbb","686e379bc37a29ffa5cdc956","6877a459b621777849486d4b","1","1","67b9e921b4b5ee4019522dbb","1","1","2025-07-16T13:35:14.525Z","","","","","","","","","","","ControlQ","","50","","","","","","","","","","","","","","","","","","","","","","","","","","","","",""
"8057","","<div style=""width:500px;"">
  <p>How would you describe your current emotional state?</p>
  </div>","96","html-slider-response","57","1535363","0.0-5.0-3.9","112","1","2025-07-16 13:09:54","1f75c3e559b7213887762d5229550c2b","105.245.110.79","Mozilla/5.0 (Windows NT 10.0; Win64; x64) AppleWebKit/537.36 (KHTML, like Gecko) Chrome/138.0.0.0 Safari/537.36","WebKit","Chrome","138.0.0.0","Windows","10.0","https://app.prolific.com/","en-US,en;q=0.9","67b9e921b4b5ee4019522dbb","686e379bc37a29ffa5cdc956","6877a459b621777849486d4b","1","1","67b9e921b4b5ee4019522dbb","1","1","2025-07-16T13:35:22.595Z","","","","","","","","","","","StressQ","","50","","","","","","","","","","","","","","","","","","","","","","","","","","","","",""
"5510","","<div style=""width:500px;"">
  <p>What best describes how you currently feel?</p>
  </div>","3","html-slider-response","58","1540887","0.0-5.0-4.9","112","1","2025-07-16 13:09:54","1f75c3e559b7213887762d5229550c2b","105.245.110.79","Mozilla/5.0 (Windows NT 10.0; Win64; x64) AppleWebKit/537.36 (KHTML, like Gecko) Chrome/138.0.0.0 Safari/537.36","WebKit","Chrome","138.0.0.0","Windows","10.0","https://app.prolific.com/","en-US,en;q=0.9","67b9e921b4b5ee4019522dbb","686e379bc37a29ffa5cdc956","6877a459b621777849486d4b","1","1","67b9e921b4b5ee4019522dbb","1","1","2025-07-16T13:35:28.118Z","","","","","","","","","","","MotivationQ","","50","","","","","","","","","","","","","","","","","","","","","","","","","","","","",""
"","","","","ctl-task-cpt","59","1709148","0.0-5.0-0.10","112","1","2025-07-16 13:09:54","1f75c3e559b7213887762d5229550c2b","105.245.110.79","Mozilla/5.0 (Windows NT 10.0; Win64; x64) AppleWebKit/537.36 (KHTML, like Gecko) Chrome/138.0.0.0 Safari/537.36","WebKit","Chrome","138.0.0.0","Windows","10.0","https://app.prolific.com/","en-US,en;q=0.9","67b9e921b4b5ee4019522dbb","686e379bc37a29ffa5cdc956","6877a459b621777849486d4b","1","1","67b9e921b4b5ee4019522dbb","1","1","2025-07-16T13:38:16.380Z","","","","","","","","","","","","","","win-only","0","g1:NW,g2:SE","0.5","11","0","1544531.9","2491.9","7529.5","164995.2","1","4","8","6","1","1","0","14","14","0.10606060606060606","3330.8","3000","2005","[""left"",""up""]","{""num_key_presses"":9,""num_perfect"":5,""num_errors"":1,""num_randdir"":3,""num_randdir_good_moves"":1,""num_whilered"":0,""num_whileblue"":0,""num_blue"":1,""num_good_moves"":6}","[291.22232142857143,295.12857142857143,0.7,291.22232142857143,295.12857142857143,169.8,291.22232142857143,295.12857142857143,299.8,291.22232142857143,295.12857142857143,429.4,291.22232142857143,295.12857142857143,558.5,291.22232142857143,295.12857142857143,689.7,291.22232142857143,295.12857142857143,819.5,291.22232142857143,295.12857142857143,947.1,442.22232142857143,364.12857142857143,1088.7,463.22232142857143,381.12857142857143,1243.4,507.22232142857143,434.12857142857143,1392.4,498.22232142857143,434.12857142857143,1532.7,411.22232142857143,375.12857142857143,1690.2,256.22232142857143,279.12857142857143,1842.2,221.22232142857143,248.12857142857143,1981.2,202.22232142857143,245.12857142857143,2108.6,202.22232142857143,245.12857142857143,2237.8,145.22232142857143,204.12857142857143,2382.5,130.22232142857143,183.12857142857143,2525.3,97.22232142857143,156.12857142857143,2673.1,34.222321428571426,73.12857142857143,2818.3,53.222321428571426,77.12857142857143,2967.5,64.22232142857143,76.12857142857143,3101.2,64.22232142857143,76.12857142857143,3230,64.22232142857143,76.12857142857143,3369.2,64.22232142857143,76.12857142857143,3496.7,64.22232142857143,76.12857142857143,3625.8,64.22232142857143,76.12857142857143,3752.9,64.22232142857143,76.12857142857143,3880.1,64.22232142857143,76.12857142857143,4007.3,64.22232142857143,76.12857142857143,4134.3,64.22232142857143,76.12857142857143,4261.8,64.22232142857143,76.12857142857143,4396.8,64.22232142857143,76.12857142857143,4525.1,64.22232142857143,76.12857142857143,4654,64.22232142857143,76.12857142857143,4781.4,64.22232142857143,76.12857142857143,4908.2]","[2042.1,2042.1,1000,0,1042.1,""smooth"",""up"",""up"",""good_move"",23949.7,21906.8,2966.1,2043,18940.6,""error"",""-"",""-"",""no_move"",28520.8,4570,2673.7,24990.8,856.3,""smooth"",""left"",""left"",""good_move"",51203.4,22681.4,2860.8,28522,19820.6,""oops"",""left"",""right"",""bad_move"",54697.7,3493.4,2402.6,51204.3,1090.8,""smooth"",""left"",""left"",""good_move"",78080.4,23381.7,2786.8,54698.7,20594.9,""oops"",""left"",""down"",""bad_move"",89691.8,11610.3,2490.6,82184.8,5016.4,""oops"",""up"",""up"",""good_move"",127346.9,37654.3,2433.8,89692.6,35220.5,""smooth"",""left"",""left"",""good_move"",155220.9,27873.2,2263.2,127347.7,25610.1,""smooth"",""up"",""up"",""good_move""]","",""
"15467","","<div style=""width:500px;"">
  <p>What determined the result of this run?</p>
  </div>","23","html-slider-response","60","1724630","0.0-5.0-1.10","112","1","2025-07-16 13:09:54","1f75c3e559b7213887762d5229550c2b","105.245.110.79","Mozilla/5.0 (Windows NT 10.0; Win64; x64) AppleWebKit/537.36 (KHTML, like Gecko) Chrome/138.0.0.0 Safari/537.36","WebKit","Chrome","138.0.0.0","Windows","10.0","https://app.prolific.com/","en-US,en;q=0.9","67b9e921b4b5ee4019522dbb","686e379bc37a29ffa5cdc956","6877a459b621777849486d4b","1","1","67b9e921b4b5ee4019522dbb","1","1","2025-07-16T13:38:31.862Z","","","","","","","","","","","AttribQ","","50","","","","","","","","","","","","","","","","","","","","","","","","","","","","",""
"5033","","<div style=""width:500px;"">
  <p>How much control did you have over the ball?</p>
  </div>","8","html-slider-response","61","1729678","0.0-5.0-2.10","112","1","2025-07-16 13:09:54","1f75c3e559b7213887762d5229550c2b","105.245.110.79","Mozilla/5.0 (Windows NT 10.0; Win64; x64) AppleWebKit/537.36 (KHTML, like Gecko) Chrome/138.0.0.0 Safari/537.36","WebKit","Chrome","138.0.0.0","Windows","10.0","https://app.prolific.com/","en-US,en;q=0.9","67b9e921b4b5ee4019522dbb","686e379bc37a29ffa5cdc956","6877a459b621777849486d4b","1","1","67b9e921b4b5ee4019522dbb","1","1","2025-07-16T13:38:36.909Z","","","","","","","","","","","ControlQ","","50","","","","","","","","","","","","","","","","","","","","","","","","","","","","",""
"4665","","<div style=""width:500px;"">
  <p>How would you describe your current emotional state?</p>
  </div>","91","html-slider-response","62","1734358","0.0-5.0-3.10","112","1","2025-07-16 13:09:54","1f75c3e559b7213887762d5229550c2b","105.245.110.79","Mozilla/5.0 (Windows NT 10.0; Win64; x64) AppleWebKit/537.36 (KHTML, like Gecko) Chrome/138.0.0.0 Safari/537.36","WebKit","Chrome","138.0.0.0","Windows","10.0","https://app.prolific.com/","en-US,en;q=0.9","67b9e921b4b5ee4019522dbb","686e379bc37a29ffa5cdc956","6877a459b621777849486d4b","1","1","67b9e921b4b5ee4019522dbb","1","1","2025-07-16T13:38:41.589Z","","","","","","","","","","","StressQ","","50","","","","","","","","","","","","","","","","","","","","","","","","","","","","",""
"3915","","<div style=""width:500px;"">
  <p>What best describes how you currently feel?</p>
  </div>","6","html-slider-response","63","1738286","0.0-5.0-4.10","112","1","2025-07-16 13:09:54","1f75c3e559b7213887762d5229550c2b","105.245.110.79","Mozilla/5.0 (Windows NT 10.0; Win64; x64) AppleWebKit/537.36 (KHTML, like Gecko) Chrome/138.0.0.0 Safari/537.36","WebKit","Chrome","138.0.0.0","Windows","10.0","https://app.prolific.com/","en-US,en;q=0.9","67b9e921b4b5ee4019522dbb","686e379bc37a29ffa5cdc956","6877a459b621777849486d4b","1","1","67b9e921b4b5ee4019522dbb","1","1","2025-07-16T13:38:45.517Z","","","","","","","","","","","MotivationQ","","50","","","","","","","","","","","","","","","","","","","","","","","","","","","","",""
"","","","","ctl-task-cpt","64","1923345","0.0-5.0-0.11","112","1","2025-07-16 13:09:54","1f75c3e559b7213887762d5229550c2b","105.245.110.79","Mozilla/5.0 (Windows NT 10.0; Win64; x64) AppleWebKit/537.36 (KHTML, like Gecko) Chrome/138.0.0.0 Safari/537.36","WebKit","Chrome","138.0.0.0","Windows","10.0","https://app.prolific.com/","en-US,en;q=0.9","67b9e921b4b5ee4019522dbb","686e379bc37a29ffa5cdc956","6877a459b621777849486d4b","1","1","67b9e921b4b5ee4019522dbb","1","1","2025-07-16T13:41:50.576Z","","","","","","","","","","","","","","win-only","0","g1:NW,g2:SE","0.6","12","0","1741929.2","4969.5","10099.6","181933","1","4","4","6","1","-1","-2","12","14","0.09090909090909091","2628.2","3000","-405","[""left"",""up""]","{""num_key_presses"":7,""num_perfect"":3,""num_errors"":1,""num_randdir"":3,""num_randdir_good_moves"":0,""num_whilered"":0,""num_whileblue"":0,""num_blue"":4,""num_good_moves"":3}","[296.22232142857143,295.12857142857143,1.5,296.22232142857143,295.12857142857143,205.4,296.22232142857143,295.12857142857143,362.2,296.22232142857143,295.12857142857143,526.9,296.22232142857143,295.12857142857143,677.3,296.22232142857143,295.12857142857143,834.9,296.22232142857143,295.12857142857143,984.2,296.22232142857143,295.12857142857143,1132.9,296.22232142857143,295.12857142857143,1285.9,202.22232142857143,230.12857142857143,1460.6,116.22232142857143,201.12857142857143,1641.4,81.22232142857143,143.12857142857143,1815.8,54.222321428571426,72.12857142857143,1990.2,53.222321428571426,69.12857142857143,2155.8,55.222321428571426,67.12857142857143,2315.8,55.222321428571426,67.12857142857143,2466,55.222321428571426,67.12857142857143,2630.6,55.222321428571426,67.12857142857143,2828.6,55.222321428571426,67.12857142857143,2978,55.222321428571426,67.12857142857143,3132.4,55.222321428571426,67.12857142857143,3283.1,55.222321428571426,67.12857142857143,3435,55.222321428571426,67.12857142857143,3585.8,55.222321428571426,67.12857142857143,3735.7,55.222321428571426,67.12857142857143,3886.6,55.222321428571426,67.12857142857143,4039.2,55.222321428571426,67.12857142857143,4189.7,55.222321428571426,67.12857142857143,4339.8,55.222321428571426,67.12857142857143,4494,55.222321428571426,67.12857142857143,4648.1,55.222321428571426,67.12857142857143,4798,55.222321428571426,67.12857142857143,4976.1]","[2726.3,2726.3,1000,0,1726.3,""smooth"",""left"",""left"",""good_move"",36221.7,33494.4,3307,30277,2637.7,""smooth"",""left"",""left"",""good_move"",65303.6,29080.9,2224.8,36222.7,26856.1,""oops"",""up"",""down"",""bad_move"",76279.9,10975.2,2271.5,68254.1,5754.3,""oops"",""up"",""down"",""bad_move"",81841.1,5560.4,2024.1,79802.5,14.5,""error"",""-"",""-"",""no_move"",91844.6,10002.4,3051.5,86606.6,2186.5,""smooth"",""up"",""up"",""good_move"",141710.4,49865.1,3110,91845.4,46755,""oops"",""up"",""down"",""bad_move""]","",""
"6032","","<div style=""width:500px;"">
  <p>What determined the result of this run?</p>
  </div>","11","html-slider-response","65","1929381","0.0-5.0-1.11","112","1","2025-07-16 13:09:54","1f75c3e559b7213887762d5229550c2b","105.245.110.79","Mozilla/5.0 (Windows NT 10.0; Win64; x64) AppleWebKit/537.36 (KHTML, like Gecko) Chrome/138.0.0.0 Safari/537.36","WebKit","Chrome","138.0.0.0","Windows","10.0","https://app.prolific.com/","en-US,en;q=0.9","67b9e921b4b5ee4019522dbb","686e379bc37a29ffa5cdc956","6877a459b621777849486d4b","1","1","67b9e921b4b5ee4019522dbb","1","1","2025-07-16T13:41:56.612Z","","","","","","","","","","","AttribQ","","50","","","","","","","","","","","","","","","","","","","","","","","","","","","","",""
"7979","","<div style=""width:500px;"">
  <p>How much control did you have over the ball?</p>
  </div>","4","html-slider-response","66","1937365","0.0-5.0-2.11","112","1","2025-07-16 13:09:54","1f75c3e559b7213887762d5229550c2b","105.245.110.79","Mozilla/5.0 (Windows NT 10.0; Win64; x64) AppleWebKit/537.36 (KHTML, like Gecko) Chrome/138.0.0.0 Safari/537.36","WebKit","Chrome","138.0.0.0","Windows","10.0","https://app.prolific.com/","en-US,en;q=0.9","67b9e921b4b5ee4019522dbb","686e379bc37a29ffa5cdc956","6877a459b621777849486d4b","1","1","67b9e921b4b5ee4019522dbb","1","1","2025-07-16T13:42:04.596Z","","","","","","","","","","","ControlQ","","50","","","","","","","","","","","","","","","","","","","","","","","","","","","","",""
"4897","","<div style=""width:500px;"">
  <p>How would you describe your current emotional state?</p>
  </div>","90","html-slider-response","67","1942266","0.0-5.0-3.11","112","1","2025-07-16 13:09:54","1f75c3e559b7213887762d5229550c2b","105.245.110.79","Mozilla/5.0 (Windows NT 10.0; Win64; x64) AppleWebKit/537.36 (KHTML, like Gecko) Chrome/138.0.0.0 Safari/537.36","WebKit","Chrome","138.0.0.0","Windows","10.0","https://app.prolific.com/","en-US,en;q=0.9","67b9e921b4b5ee4019522dbb","686e379bc37a29ffa5cdc956","6877a459b621777849486d4b","1","1","67b9e921b4b5ee4019522dbb","1","1","2025-07-16T13:42:09.498Z","","","","","","","","","","","StressQ","","50","","","","","","","","","","","","","","","","","","","","","","","","","","","","",""
"4037","","<div style=""width:500px;"">
  <p>What best describes how you currently feel?</p>
  </div>","9","html-slider-response","68","1946308","0.0-5.0-4.11","112","1","2025-07-16 13:09:54","1f75c3e559b7213887762d5229550c2b","105.245.110.79","Mozilla/5.0 (Windows NT 10.0; Win64; x64) AppleWebKit/537.36 (KHTML, like Gecko) Chrome/138.0.0.0 Safari/537.36","WebKit","Chrome","138.0.0.0","Windows","10.0","https://app.prolific.com/","en-US,en;q=0.9","67b9e921b4b5ee4019522dbb","686e379bc37a29ffa5cdc956","6877a459b621777849486d4b","1","1","67b9e921b4b5ee4019522dbb","1","1","2025-07-16T13:42:13.540Z","","","","","","","","","","","MotivationQ","","50","","","","","","","","","","","","","","","","","","","","","","","","","","","","",""
"","","","","ctl-task-cpt","69","2051213","0.0-5.0-0.12","112","1","2025-07-16 13:09:54","1f75c3e559b7213887762d5229550c2b","105.245.110.79","Mozilla/5.0 (Windows NT 10.0; Win64; x64) AppleWebKit/537.36 (KHTML, like Gecko) Chrome/138.0.0.0 Safari/537.36","WebKit","Chrome","138.0.0.0","Windows","10.0","https://app.prolific.com/","en-US,en;q=0.9","67b9e921b4b5ee4019522dbb","686e379bc37a29ffa5cdc956","6877a459b621777849486d4b","1","1","67b9e921b4b5ee4019522dbb","1","1","2025-07-16T13:43:58.444Z","","","","","","","","","","","","","","win-only","3","g1:SW,g2:NE","0.7","13","0","1949944.9","2722.7","7747","101874.4","1","4","4","6","2","4","4","16","12","0.12121212121212122","3183.8","3000","1190","[""up"",""right""]","{""num_key_presses"":8,""num_perfect"":7,""num_errors"":0,""num_randdir"":1,""num_randdir_good_moves"":0,""num_whilered"":0,""num_whileblue"":0,""num_blue"":8,""num_good_moves"":7}","[293.22232142857143,294.12857142857143,0.9,293.22232142857143,294.12857142857143,130.3,293.22232142857143,294.12857142857143,232.7,293.22232142857143,294.12857142857143,384,293.22232142857143,294.12857142857143,532.7,293.22232142857143,294.12857142857143,636.2,293.22232142857143,294.12857142857143,740.8,293.22232142857143,294.12857142857143,889.6,293.22232142857143,294.12857142857143,1037.2,293.22232142857143,294.12857142857143,1184.8,293.22232142857143,294.12857142857143,1334.1,293.22232142857143,294.12857142857143,1486.1,293.22232142857143,294.12857142857143,1593.3,325.22232142857143,233.12857142857143,1720.7,355.22232142857143,143.12857142857143,1840.6,371.22232142857143,88.12857142857143,1959.2,389.22232142857143,82.12857142857143,2207.3,466.22232142857143,67.12857142857143,2458.7,471.22232142857143,65.12857142857143,2587.7,510.22232142857143,61.128571428571426,2712.7,534.2223214285714,62.128571428571426,2828.1,534.2223214285714,62.128571428571426,2990.3,534.2223214285714,62.128571428571426,3099.2,534.2223214285714,62.128571428571426,3210.2,534.2223214285714,62.128571428571426,3315.8,534.2223214285714,62.128571428571426,3422.4,534.2223214285714,62.128571428571426,3529.6,534.2223214285714,62.128571428571426,3634.5,534.2223214285714,62.128571428571426,3738,534.2223214285714,62.128571428571426,3839.3,534.2223214285714,62.128571428571426,3989.3,534.2223214285714,62.128571428571426,4091.7,534.2223214285714,62.128571428571426,4194,534.2223214285714,62.128571428571426,4303.1,534.2223214285714,62.128571428571426,4407.3,534.2223214285714,62.128571428571426,4510.5,534.2223214285714,62.128571428571426,4660.5,534.2223214285714,62.128571428571426,4765.6,534.2223214285714,62.128571428571426,4866.4,534.2223214285714,62.128571428571426,4966.4]","[14787.1,14787.1,2575.7,8882.3,3329.1,""smooth"",""up"",""up"",""good_move"",30828.9,16040.6,2354.6,14788.4,13685.9,""smooth"",""up"",""up"",""good_move"",40621,9791.3,2249.6,30829.7,7541.7,""smooth"",""right"",""right"",""good_move"",49534,8911.9,2923.3,44524.5,2086.2,""smooth"",""right"",""right"",""good_move"",60794,11259.5,2329.6,56465.8,1998.7,""smooth"",""up"",""up"",""good_move"",74682.4,13887.7,3122.1,68564.3,2996,""oops"",""right"",""left"",""bad_move"",84736.2,10040.8,2255,74695.4,7785.8,""smooth"",""right"",""right"",""good_move"",93268.4,8528.4,2830.8,88893.2,1544.4,""smooth"",""right"",""right"",""good_move""]","",""
"19910","","<div style=""width:500px;"">
  <p>What determined the result of this run?</p>
  </div>","10","html-slider-response","70","2071126","0.0-5.0-1.12","112","1","2025-07-16 13:09:54","1f75c3e559b7213887762d5229550c2b","105.245.110.79","Mozilla/5.0 (Windows NT 10.0; Win64; x64) AppleWebKit/537.36 (KHTML, like Gecko) Chrome/138.0.0.0 Safari/537.36","WebKit","Chrome","138.0.0.0","Windows","10.0","https://app.prolific.com/","en-US,en;q=0.9","67b9e921b4b5ee4019522dbb","686e379bc37a29ffa5cdc956","6877a459b621777849486d4b","1","1","67b9e921b4b5ee4019522dbb","1","1","2025-07-16T13:44:18.357Z","","","","","","","","","","","AttribQ","","50","","","","","","","","","","","","","","","","","","","","","","","","","","","","",""
"8728","","<div style=""width:500px;"">
  <p>How much control did you have over the ball?</p>
  </div>","9","html-slider-response","71","2079859","0.0-5.0-2.12","112","1","2025-07-16 13:09:54","1f75c3e559b7213887762d5229550c2b","105.245.110.79","Mozilla/5.0 (Windows NT 10.0; Win64; x64) AppleWebKit/537.36 (KHTML, like Gecko) Chrome/138.0.0.0 Safari/537.36","WebKit","Chrome","138.0.0.0","Windows","10.0","https://app.prolific.com/","en-US,en;q=0.9","67b9e921b4b5ee4019522dbb","686e379bc37a29ffa5cdc956","6877a459b621777849486d4b","1","1","67b9e921b4b5ee4019522dbb","1","1","2025-07-16T13:44:27.090Z","","","","","","","","","","","ControlQ","","50","","","","","","","","","","","","","","","","","","","","","","","","","","","","",""
"17224","","<div style=""width:500px;"">
  <p>How would you describe your current emotional state?</p>
  </div>","97","html-slider-response","72","2097088","0.0-5.0-3.12","112","1","2025-07-16 13:09:54","1f75c3e559b7213887762d5229550c2b","105.245.110.79","Mozilla/5.0 (Windows NT 10.0; Win64; x64) AppleWebKit/537.36 (KHTML, like Gecko) Chrome/138.0.0.0 Safari/537.36","WebKit","Chrome","138.0.0.0","Windows","10.0","https://app.prolific.com/","en-US,en;q=0.9","67b9e921b4b5ee4019522dbb","686e379bc37a29ffa5cdc956","6877a459b621777849486d4b","1","1","67b9e921b4b5ee4019522dbb","1","1","2025-07-16T13:44:44.320Z","","","","","","","","","","","StressQ","","50","","","","","","","","","","","","","","","","","","","","","","","","","","","","",""
"26970","","<div style=""width:500px;"">
  <p>What best describes how you currently feel?</p>
  </div>","73","html-slider-response","73","2124066","0.0-5.0-4.12","112","1","2025-07-16 13:09:54","1f75c3e559b7213887762d5229550c2b","105.245.110.79","Mozilla/5.0 (Windows NT 10.0; Win64; x64) AppleWebKit/537.36 (KHTML, like Gecko) Chrome/138.0.0.0 Safari/537.36","WebKit","Chrome","138.0.0.0","Windows","10.0","https://app.prolific.com/","en-US,en;q=0.9","67b9e921b4b5ee4019522dbb","686e379bc37a29ffa5cdc956","6877a459b621777849486d4b","1","1","67b9e921b4b5ee4019522dbb","1","1","2025-07-16T13:45:11.297Z","","","","","","","","","","","MotivationQ","","50","","","","","","","","","","","","","","","","","","","","","","","","","","","","",""
"","","","","ctl-task-cpt","74","2243600","0.0-5.0-0.13","112","1","2025-07-16 13:09:54","1f75c3e559b7213887762d5229550c2b","105.245.110.79","Mozilla/5.0 (Windows NT 10.0; Win64; x64) AppleWebKit/537.36 (KHTML, like Gecko) Chrome/138.0.0.0 Safari/537.36","WebKit","Chrome","138.0.0.0","Windows","10.0","https://app.prolific.com/","en-US,en;q=0.9","67b9e921b4b5ee4019522dbb","686e379bc37a29ffa5cdc956","6877a459b621777849486d4b","1","1","67b9e921b4b5ee4019522dbb","1","1","2025-07-16T13:47:10.831Z","","","","","","","","","","","","","","win-only","1","g1:NE,g2:SW","0.8","14","0","2127702.4","42862.3","47872.1","116490.5","1","4","8","6","2","-8","-8","8","16","0.06060606060606061","3086.8","3000","-425","[""down"",""left""]","{""num_key_presses"":4,""num_perfect"":3,""num_errors"":0,""num_randdir"":1,""num_randdir_good_moves"":0,""num_whilered"":0,""num_whileblue"":0,""num_blue"":1,""num_good_moves"":3}","[296.22232142857143,301.12857142857143,1.5,296.22232142857143,301.12857142857143,117.4,296.22232142857143,301.12857142857143,232.8,296.22232142857143,301.12857142857143,351.2,296.22232142857143,301.12857142857143,704.8,296.22232142857143,301.12857142857143,829,296.22232142857143,301.12857142857143,940.7,296.22232142857143,301.12857142857143,1051.3,296.22232142857143,301.12857142857143,1161.7,296.22232142857143,301.12857142857143,1262,296.22232142857143,301.12857142857143,1631.9,296.22232142857143,301.12857142857143,1743.6,296.22232142857143,301.12857142857143,1858.4,224.22232142857143,408.12857142857143,1971.9,191.22232142857143,484.12857142857143,2094.9,156.22232142857143,526.1285714285714,2218.2,133.22232142857143,530.1285714285714,2337.2,106.22232142857143,530.1285714285714,2451.6,63.222321428571426,543.1285714285714,2561.7,59.222321428571426,547.1285714285714,2669.3,52.222321428571426,551.1285714285714,3016,52.222321428571426,551.1285714285714,3122.3,52.222321428571426,551.1285714285714,3250.4,52.222321428571426,551.1285714285714,3392.2,52.222321428571426,551.1285714285714,3533.4,52.222321428571426,551.1285714285714,3674.1,52.222321428571426,551.1285714285714,3823.2,52.222321428571426,551.1285714285714,3963.1,52.222321428571426,551.1285714285714,4102,52.222321428571426,551.1285714285714,4246.4,52.222321428571426,551.1285714285714,4387.5,52.222321428571426,551.1285714285714,4529.4,52.222321428571426,551.1285714285714,4674.1,52.222321428571426,551.1285714285714,4822.1,52.222321428571426,551.1285714285714,4963.8]","[6647.9,6647.9,3035,2055.2,1557.7,""smooth"",""down"",""down"",""good_move"",11193.3,4543.9,2188.7,6649.4,2355.2,""oops"",""left"",""up"",""bad_move"",21163,9966.9,2299.8,11196.1,7667.1,""smooth"",""left"",""left"",""good_move"",34229.7,13059.8,1927.5,21169.9,11132.3,""smooth"",""left"",""left"",""good_move""]","",""
"11139","","<div style=""width:500px;"">
  <p>What determined the result of this run?</p>
  </div>","8","html-slider-response","75","2254743","0.0-5.0-1.13","112","1","2025-07-16 13:09:54","1f75c3e559b7213887762d5229550c2b","105.245.110.79","Mozilla/5.0 (Windows NT 10.0; Win64; x64) AppleWebKit/537.36 (KHTML, like Gecko) Chrome/138.0.0.0 Safari/537.36","WebKit","Chrome","138.0.0.0","Windows","10.0","https://app.prolific.com/","en-US,en;q=0.9","67b9e921b4b5ee4019522dbb","686e379bc37a29ffa5cdc956","6877a459b621777849486d4b","1","1","67b9e921b4b5ee4019522dbb","1","1","2025-07-16T13:47:21.974Z","","","","","","","","","","","AttribQ","","50","","","","","","","","","","","","","","","","","","","","","","","","","","","","",""
"9964","","<div style=""width:500px;"">
  <p>How much control did you have over the ball?</p>
  </div>","13","html-slider-response","76","2264712","0.0-5.0-2.13","112","1","2025-07-16 13:09:54","1f75c3e559b7213887762d5229550c2b","105.245.110.79","Mozilla/5.0 (Windows NT 10.0; Win64; x64) AppleWebKit/537.36 (KHTML, like Gecko) Chrome/138.0.0.0 Safari/537.36","WebKit","Chrome","138.0.0.0","Windows","10.0","https://app.prolific.com/","en-US,en;q=0.9","67b9e921b4b5ee4019522dbb","686e379bc37a29ffa5cdc956","6877a459b621777849486d4b","1","1","67b9e921b4b5ee4019522dbb","1","1","2025-07-16T13:47:31.943Z","","","","","","","","","","","ControlQ","","50","","","","","","","","","","","","","","","","","","","","","","","","","","","","",""
"10267","","<div style=""width:500px;"">
  <p>How would you describe your current emotional state?</p>
  </div>","78","html-slider-response","77","2274985","0.0-5.0-3.13","112","1","2025-07-16 13:09:54","1f75c3e559b7213887762d5229550c2b","105.245.110.79","Mozilla/5.0 (Windows NT 10.0; Win64; x64) AppleWebKit/537.36 (KHTML, like Gecko) Chrome/138.0.0.0 Safari/537.36","WebKit","Chrome","138.0.0.0","Windows","10.0","https://app.prolific.com/","en-US,en;q=0.9","67b9e921b4b5ee4019522dbb","686e379bc37a29ffa5cdc956","6877a459b621777849486d4b","1","1","67b9e921b4b5ee4019522dbb","1","1","2025-07-16T13:47:42.216Z","","","","","","","","","","","StressQ","","50","","","","","","","","","","","","","","","","","","","","","","","","","","","","",""
"26089","","<div style=""width:500px;"">
  <p>What best describes how you currently feel?</p>
  </div>","17","html-slider-response","78","2301079","0.0-5.0-4.13","112","1","2025-07-16 13:09:54","1f75c3e559b7213887762d5229550c2b","105.245.110.79","Mozilla/5.0 (Windows NT 10.0; Win64; x64) AppleWebKit/537.36 (KHTML, like Gecko) Chrome/138.0.0.0 Safari/537.36","WebKit","Chrome","138.0.0.0","Windows","10.0","https://app.prolific.com/","en-US,en;q=0.9","67b9e921b4b5ee4019522dbb","686e379bc37a29ffa5cdc956","6877a459b621777849486d4b","1","1","67b9e921b4b5ee4019522dbb","1","1","2025-07-16T13:48:08.311Z","","","","","","","","","","","MotivationQ","","50","","","","","","","","","","","","","","","","","","","","","","","","","","","","",""
