"rt","response_timestamp","stimulus","response","trial_type","trial_index","time_elapsed","internal_node_id","run_id","condition","recorded_at","source_code_version","ip","user_agent","device","browser","browser_version","platform","platform_version","referer","accept_language","PROLIFIC_PID","STUDY_ID","SESSION_ID","WEEK","prolific_id","week","realtime","success","responses","item_order","radio_event_ids","radio_event_times","key_event_times","mouse_event_times","straightlining","zigzagging","honeypot","eventType","view_history","slider_start","which_type","canvas_config","goals_layout","control_level","trial_number","tutorial_trial_number","trial_start_time","phase1_start_time","phase2_start_time","phase3_start_time","goal_1_value","goal_1_distance","goal_2_value","goal_2_distance","goal_selected","outcome","outcome_total","participant_final_score","participant_initial_score","participant_final_score_prop","goal_choice_rt","allocated_time","allocated_time_remaining","goal_direction","counts","mouse_movements","key_presses","question_order","question_id"
"4850","1752051293611","<p style='font-size:40px;line-height:1.25'><strong>Welcome to the experiment!</strong></p><p style='font-size:1.1em;line-height:1.25'>Thank you for participanting in our experiment again! You will be asked to play the Dysfunctional Ball Game again. We will briefly recap the rules before we start.</p><p style='font-size:1.1em;line-height:1.25'>Press <strong>Next</strong> to continue.</p>","0","custom-html-button-response","0","4857","0.0-0.0","20","1","2025-07-09 08:54:48","01610cd0009c79a99da7d0a3353eb402","212.69.57.202","Mozilla/5.0 (X11; CrOS x86_64 14541.0.0) AppleWebKit/537.36 (KHTML, like Gecko) Chrome/137.0.0.0 Safari/537.36","WebKit","Chrome","137.0.0.0","ChromeOS","14541.0.0","https://app.prolific.com/","en-GB,en;q=0.9","5d9a55cb01556d0013fa8369","683db7602f5db6a34d12d064","686e2e4cd09a323a340d8996","1","5d9a55cb01556d0013fa8369","1","2025-07-09T08:54:53.615Z","","","","","","","","","","","","","","","","","","","","","","","","","","","","","","","","","","","","","","","","","",""
"4883","","","","fullscreen","1","10745","0.0-1.0","20","1","2025-07-09 08:54:48","01610cd0009c79a99da7d0a3353eb402","212.69.57.202","Mozilla/5.0 (X11; CrOS x86_64 14541.0.0) AppleWebKit/537.36 (KHTML, like Gecko) Chrome/137.0.0.0 Safari/537.36","WebKit","Chrome","137.0.0.0","ChromeOS","14541.0.0","https://app.prolific.com/","en-GB,en;q=0.9","5d9a55cb01556d0013fa8369","683db7602f5db6a34d12d064","686e2e4cd09a323a340d8996","1","5d9a55cb01556d0013fa8369","1","","true","","","","","","","","","","","","","","","","","","","","","","","","","","","","","","","","","","","","","","","","",""
"1439","1752051300942","<p style='font-size:1.1em;line-height:1.25'>In the following, we will ask you a few questions relating to your feelings in the last 24 hours.<br></p><p style='font-size:1.1em;line-height:1.25'>Press the <strong>Next</strong> button to continue.</p>","0","custom-html-button-response","2","12186","0.0-2.0-0.0","20","1","2025-07-09 08:54:48","01610cd0009c79a99da7d0a3353eb402","212.69.57.202","Mozilla/5.0 (X11; CrOS x86_64 14541.0.0) AppleWebKit/537.36 (KHTML, like Gecko) Chrome/137.0.0.0 Safari/537.36","WebKit","Chrome","137.0.0.0","ChromeOS","14541.0.0","https://app.prolific.com/","en-GB,en;q=0.9","5d9a55cb01556d0013fa8369","683db7602f5db6a34d12d064","686e2e4cd09a323a340d8996","1","5d9a55cb01556d0013fa8369","1","2025-07-09T08:55:00.943Z","","","","","","","","","","","","","","","","","","","","","","","","","","","","","","","","","","","","","","","","","",""
"55851.60000000894","","","","survey-template","3","68047","0.0-2.0-1.0","20","1","2025-07-09 08:54:48","01610cd0009c79a99da7d0a3353eb402","212.69.57.202","Mozilla/5.0 (X11; CrOS x86_64 14541.0.0) AppleWebKit/537.36 (KHTML, like Gecko) Chrome/137.0.0.0 Safari/537.36","WebKit","Chrome","137.0.0.0","ChromeOS","14541.0.0","https://app.prolific.com/","en-GB,en;q=0.9","5d9a55cb01556d0013fa8369","683db7602f5db6a34d12d064","686e2e4cd09a323a340d8996","1","5d9a55cb01556d0013fa8369","1","2025-07-09T08:55:56.804Z","","{""Q01"":""2"",""Q02"":""0"",""Q03"":""2"",""Q04"":""2"",""Q05"":""0"",""Q06"":""2"",""Q07"":""0"",""Q08"":""0"",""Q09"":""2"",""Q10"":""2"",""Q11"":""4"",""Q12"":""3"",""Q13"":""5"",""Q14"":""3"",""Q15"":""0"",""Q16"":""0"",""Q17"":""0"",""Q18"":""3"",""Q19"":""3"",""Q20"":""2"",""Q21"":""2"",""Q22"":""2""}","[0,1,2,3,4,5,6,7,8,9,10,11,12,13,14,15,16,17,18,19,20,21]","[""Q01"",""Q02"",""Q03"",""Q04"",""Q05"",""Q06"",""Q07"",""Q08"",""Q09"",""Q09"",""Q10"",""Q11"",""Q12"",""Q13"",""Q14"",""Q15"",""Q16"",""Q17"",""Q18"",""Q19"",""Q20"",""Q21"",""Q22""]","[4150,5306.29999999702,6889.5,8274.90000000596,9421.29999999702,11513.20000000298,15119,16126.10000000894,18228.5,20290.5,22980.90000000596,24744.10000000894,26209,29029.60000000894,31340.90000000596,36452.29999999702,37628.40000000596,39242.60000000894,41045.79999999702,45809.40000000596,50192.79999999702,53004.29999999702,54229.70000000298]","[]","[0.20000000298023224,4150,5306.29999999702,6889.5,8274.90000000596,9421.29999999702,11513.20000000298,15119,16126.10000000894,18228.5,20290.5,21935.40000000596,22980.90000000596,24744.10000000894,26209,29029.60000000894,31340.90000000596,35406.40000000596,36452.29999999702,37628.40000000596,39242.60000000894,41045.79999999702,45809.40000000596,50192.79999999702,53004.29999999702,54229.70000000298,55835.10000000894]","0.4090909090909091","0.09523809523809523","0","drsp","","","","","","","","","","","","","","","","","","","","","","","","","","","","","","",""
"9025.40000000596","","","","survey-template","4","77075","0.0-2.0-2.0","20","1","2025-07-09 08:54:48","01610cd0009c79a99da7d0a3353eb402","212.69.57.202","Mozilla/5.0 (X11; CrOS x86_64 14541.0.0) AppleWebKit/537.36 (KHTML, like Gecko) Chrome/137.0.0.0 Safari/537.36","WebKit","Chrome","137.0.0.0","ChromeOS","14541.0.0","https://app.prolific.com/","en-GB,en;q=0.9","5d9a55cb01556d0013fa8369","683db7602f5db6a34d12d064","686e2e4cd09a323a340d8996","1","5d9a55cb01556d0013fa8369","1","2025-07-09T08:56:05.833Z","","{""Q01"":""2"",""Q02"":""5"",""Q03"":""0""}","[0,1,2]","[""Q01"",""Q02"",""Q03""]","[3792,5705.9000000059605,6931.300000011921]","[]","[3792,5705.9000000059605,6931.300000011921,9023.5]","0.6666666666666666","0","0","stress","","","","","","","","","","","","","","","","","","","","","","","","","","","","","","",""
"12411","","","","instructions","5","89490","0.0-3.0-0.0","20","1","2025-07-09 08:54:48","01610cd0009c79a99da7d0a3353eb402","212.69.57.202","Mozilla/5.0 (X11; CrOS x86_64 14541.0.0) AppleWebKit/537.36 (KHTML, like Gecko) Chrome/137.0.0.0 Safari/537.36","WebKit","Chrome","137.0.0.0","ChromeOS","14541.0.0","https://app.prolific.com/","en-GB,en;q=0.9","5d9a55cb01556d0013fa8369","683db7602f5db6a34d12d064","686e2e4cd09a323a340d8996","1","5d9a55cb01556d0013fa8369","1","","","","","","","","","","","","","[{""page_index"":0,""viewing_time"":12410}]","","","","","","","","","","","","","","","","","","","","","","","","","","","","","",""
"4483","","<p>Before you start with this game please answer the following three questions yourself. </p>
  <p>Through this game, we measure several aspects of your cognitive performance, such as reaction times, multi-tasking capabilities </p>
  <p>and the ability to assess the situation you are in.</p>
  <p></p>
  <p><b>How good do you usually are in such tasks?</b></p>","31","html-slider-response","6","93976","0.0-4.0-0.0","20","1","2025-07-09 08:54:48","01610cd0009c79a99da7d0a3353eb402","212.69.57.202","Mozilla/5.0 (X11; CrOS x86_64 14541.0.0) AppleWebKit/537.36 (KHTML, like Gecko) Chrome/137.0.0.0 Safari/537.36","WebKit","Chrome","137.0.0.0","ChromeOS","14541.0.0","https://app.prolific.com/","en-GB,en;q=0.9","5d9a55cb01556d0013fa8369","683db7602f5db6a34d12d064","686e2e4cd09a323a340d8996","1","5d9a55cb01556d0013fa8369","1","2025-07-09T08:56:22.734Z","","","","","","","","","","","PreSkillQ","","50","","","","","","","","","","","","","","","","","","","","","","","","","","","","",""
"5656","","<div style=""width:500px;"">
  <p>How well do you think you will perform in this task compared to other participants?</p>
  </div>","32","html-slider-response","7","99636","0.0-4.0-1.0","20","1","2025-07-09 08:54:48","01610cd0009c79a99da7d0a3353eb402","212.69.57.202","Mozilla/5.0 (X11; CrOS x86_64 14541.0.0) AppleWebKit/537.36 (KHTML, like Gecko) Chrome/137.0.0.0 Safari/537.36","WebKit","Chrome","137.0.0.0","ChromeOS","14541.0.0","https://app.prolific.com/","en-GB,en;q=0.9","5d9a55cb01556d0013fa8369","683db7602f5db6a34d12d064","686e2e4cd09a323a340d8996","1","5d9a55cb01556d0013fa8369","1","2025-07-09T08:56:28.393Z","","","","","","","","","","","PrePerfQ","","50","","","","","","","","","","","","","","","","","","","","","","","","","","","","",""
"3497","","<div style=""width:500px;"">
  <p>What best describes how you currently feel?</p>
  </div>","24","html-slider-response","8","103135","0.0-4.0-2.0","20","1","2025-07-09 08:54:48","01610cd0009c79a99da7d0a3353eb402","212.69.57.202","Mozilla/5.0 (X11; CrOS x86_64 14541.0.0) AppleWebKit/537.36 (KHTML, like Gecko) Chrome/137.0.0.0 Safari/537.36","WebKit","Chrome","137.0.0.0","ChromeOS","14541.0.0","https://app.prolific.com/","en-GB,en;q=0.9","5d9a55cb01556d0013fa8369","683db7602f5db6a34d12d064","686e2e4cd09a323a340d8996","1","5d9a55cb01556d0013fa8369","1","2025-07-09T08:56:31.892Z","","","","","","","","","","","PreMotivationQ","","50","","","","","","","","","","","","","","","","","","","","","","","","","","","","",""
"","","","","ctl-task-cpt","9","136280","0.0-5.0-0.0","20","1","2025-07-09 08:54:48","01610cd0009c79a99da7d0a3353eb402","212.69.57.202","Mozilla/5.0 (X11; CrOS x86_64 14541.0.0) AppleWebKit/537.36 (KHTML, like Gecko) Chrome/137.0.0.0 Safari/537.36","WebKit","Chrome","137.0.0.0","ChromeOS","14541.0.0","https://app.prolific.com/","en-GB,en;q=0.9","5d9a55cb01556d0013fa8369","683db7602f5db6a34d12d064","686e2e4cd09a323a340d8996","1","5d9a55cb01556d0013fa8369","1","2025-07-09T08:57:05.038Z","","","","","","","","","","","","","","win-only","3","g1:SW,g2:NE","1","1","0","104325.3","1751.6","6759.4","30128.9","1","4","8","6","1","1","-1","0","0","0","1882.5","3000","65","[""down"",""left""]","{""num_key_presses"":7,""num_perfect"":5,""num_errors"":2,""num_randdir"":0,""num_randdir_good_moves"":0,""num_whilered"":0,""num_whileblue"":1,""num_blue"":2,""num_good_moves"":5}","[422.8214133126395,411.57142761775424,0.7,422.8214133126395,411.57142761775424,113,422.8214133126395,411.57142761775424,218.1,422.8214133126395,411.57142761775424,319,422.8214133126395,411.57142761775424,419,422.8214133126395,411.57142761775424,519.4,422.8214133126395,411.57142761775424,624.4,422.8214133126395,411.57142761775424,729.3,422.8214133126395,411.57142761775424,834.1,422.8214133126395,411.57142761775424,939.1,422.8214133126395,411.57142761775424,1059.7,422.8214133126395,411.57142761775424,1159.7,422.8214133126395,411.57142761775424,1268.9,87.8214133126395,814.0714276177542,1379.7,69.0714133126395,835.3214276177542,1500.2,67.8214133126395,832.8214276177542,1604.6,91.5714133126395,711.5714276177542,1724.6,91.5714133126395,709.0714276177542,1826.1,91.5714133126395,709.0714276177542,1930,91.5714133126395,709.0714276177542,2032,91.5714133126395,709.0714276177542,2134.8,91.5714133126395,709.0714276177542,2235.1,91.5714133126395,709.0714276177542,2345.4,91.5714133126395,709.0714276177542,2445.4,91.5714133126395,709.0714276177542,2549.6,91.5714133126395,709.0714276177542,2691.2,91.5714133126395,709.0714276177542,2792.7,125.3214133126395,694.0714276177542,2894,284.0714133126395,621.5714276177542,2997,296.5714133126395,614.0714276177542,3099.3,296.5714133126395,614.0714276177542,3200.2,296.5714133126395,614.0714276177542,3318.5,296.5714133126395,614.0714276177542,3423.2,296.5714133126395,614.0714276177542,3524.9,296.5714133126395,614.0714276177542,3629.2,296.5714133126395,614.0714276177542,3732.2,296.5714133126395,614.0714276177542,3834.2,296.5714133126395,614.0714276177542,3934.4,296.5714133126395,614.0714276177542,4034.5,296.5714133126395,614.0714276177542,4154.4,296.5714133126395,614.0714276177542,4255.5,296.5714133126395,614.0714276177542,4359.1,296.5714133126395,614.0714276177542,4461.6,296.5714133126395,614.0714276177542,4564,296.5714133126395,614.0714276177542,4664,296.5714133126395,614.0714276177542,4765.9,296.5714133126395,614.0714276177542,4869.6,296.5714133126395,614.0714276177542,4979.1]","[439.2,439.1,1000,0.1,-560.9,""error"",""-"",""-"",""no_move"",4192.1,3752.2,2285.9,1441.5,464.7,""smooth"",""down"",""down"",""good_move"",7994.6,3801.8,3420.2,4192.8,381.6,""smooth"",""down"",""down"",""good_move"",10407.7,2411.1,1972.2,7996.7,438.8,""smooth"",""left"",""left"",""good_move"",12499.4,2089.3,1724.4,10410.1,364.9,""while_blue"",""left"",""right"",""bad_move"",18810.5,6309.1,1931.3,16346.3,533,""smooth"",""left"",""left"",""good_move"",23240.5,4429.5,2418.6,18811.1,2010.9,""smooth"",""left"",""left"",""good_move""]","",""
"5739","","<div style=""width:500px;"">
  <p>What determined the result of this run?</p>
  </div>","100","html-slider-response","10","142022","0.0-5.0-1.0","20","1","2025-07-09 08:54:48","01610cd0009c79a99da7d0a3353eb402","212.69.57.202","Mozilla/5.0 (X11; CrOS x86_64 14541.0.0) AppleWebKit/537.36 (KHTML, like Gecko) Chrome/137.0.0.0 Safari/537.36","WebKit","Chrome","137.0.0.0","ChromeOS","14541.0.0","https://app.prolific.com/","en-GB,en;q=0.9","5d9a55cb01556d0013fa8369","683db7602f5db6a34d12d064","686e2e4cd09a323a340d8996","1","5d9a55cb01556d0013fa8369","1","2025-07-09T08:57:10.779Z","","","","","","","","","","","AttribQ","","50","","","","","","","","","","","","","","","","","","","","","","","","","","","","",""
"3944","","<div style=""width:500px;"">
  <p>How much control did you have over the ball?</p>
  </div>","100","html-slider-response","11","145968","0.0-5.0-2.0","20","1","2025-07-09 08:54:48","01610cd0009c79a99da7d0a3353eb402","212.69.57.202","Mozilla/5.0 (X11; CrOS x86_64 14541.0.0) AppleWebKit/537.36 (KHTML, like Gecko) Chrome/137.0.0.0 Safari/537.36","WebKit","Chrome","137.0.0.0","ChromeOS","14541.0.0","https://app.prolific.com/","en-GB,en;q=0.9","5d9a55cb01556d0013fa8369","683db7602f5db6a34d12d064","686e2e4cd09a323a340d8996","1","5d9a55cb01556d0013fa8369","1","2025-07-09T08:57:14.726Z","","","","","","","","","","","ControlQ","","50","","","","","","","","","","","","","","","","","","","","","","","","","","","","",""
"4022","","<div style=""width:500px;"">
  <p>How would you describe your current emotional state?</p>
  </div>","53","html-slider-response","12","149993","0.0-5.0-3.0","20","1","2025-07-09 08:54:48","01610cd0009c79a99da7d0a3353eb402","212.69.57.202","Mozilla/5.0 (X11; CrOS x86_64 14541.0.0) AppleWebKit/537.36 (KHTML, like Gecko) Chrome/137.0.0.0 Safari/537.36","WebKit","Chrome","137.0.0.0","ChromeOS","14541.0.0","https://app.prolific.com/","en-GB,en;q=0.9","5d9a55cb01556d0013fa8369","683db7602f5db6a34d12d064","686e2e4cd09a323a340d8996","1","5d9a55cb01556d0013fa8369","1","2025-07-09T08:57:18.751Z","","","","","","","","","","","StressQ","","50","","","","","","","","","","","","","","","","","","","","","","","","","","","","",""
"3735","","<div style=""width:500px;"">
  <p>What best describes how you currently feel?</p>
  </div>","55","html-slider-response","13","153730","0.0-5.0-4.0","20","1","2025-07-09 08:54:48","01610cd0009c79a99da7d0a3353eb402","212.69.57.202","Mozilla/5.0 (X11; CrOS x86_64 14541.0.0) AppleWebKit/537.36 (KHTML, like Gecko) Chrome/137.0.0.0 Safari/537.36","WebKit","Chrome","137.0.0.0","ChromeOS","14541.0.0","https://app.prolific.com/","en-GB,en;q=0.9","5d9a55cb01556d0013fa8369","683db7602f5db6a34d12d064","686e2e4cd09a323a340d8996","1","5d9a55cb01556d0013fa8369","1","2025-07-09T08:57:22.488Z","","","","","","","","","","","MotivationQ","","50","","","","","","","","","","","","","","","","","","","","","","","","","","","","",""
"","","","","ctl-task-cpt","14","186317","0.0-5.0-0.1","20","1","2025-07-09 08:54:48","01610cd0009c79a99da7d0a3353eb402","212.69.57.202","Mozilla/5.0 (X11; CrOS x86_64 14541.0.0) AppleWebKit/537.36 (KHTML, like Gecko) Chrome/137.0.0.0 Safari/537.36","WebKit","Chrome","137.0.0.0","ChromeOS","14541.0.0","https://app.prolific.com/","en-GB,en;q=0.9","5d9a55cb01556d0013fa8369","683db7602f5db6a34d12d064","686e2e4cd09a323a340d8996","1","5d9a55cb01556d0013fa8369","1","2025-07-09T08:57:55.074Z","","","","","","","","","","","","","","win-only","2","g1:SE,g2:NW","0.9","2","0","154919","2470.3","7472.2","29576.6","1","4","4","6","1","1","1","1","0","0.007575757575757576","2321.1","3000","675","[""down"",""right""]","{""num_key_presses"":6,""num_perfect"":5,""num_errors"":0,""num_randdir"":1,""num_randdir_good_moves"":0,""num_whilered"":0,""num_whileblue"":0,""num_blue"":2,""num_good_moves"":5}","[410.3214133126395,420.32142761775424,1.2,410.3214133126395,420.32142761775424,109.5,410.3214133126395,420.32142761775424,209.6,410.3214133126395,420.32142761775424,310.4,410.3214133126395,420.32142761775424,415.2,410.3214133126395,420.32142761775424,522.1,566.5714133126395,440.32142761775424,630.9,580.3214133126395,446.57142761775424,735,580.3214133126395,446.57142761775424,840.4,252.8214133126395,237.82142761775424,945.8,205.3214133126395,196.57142761775424,1053.2,205.3214133126395,196.57142761775424,1155.5,205.3214133126395,196.57142761775424,1264.1,205.3214133126395,196.57142761775424,1365.5,527.8214133126395,360.32142761775424,1486.8,857.8214133126395,717.8214276177542,1592.6,857.8214133126395,719.0714276177542,1698.9,857.8214133126395,719.0714276177542,1801.5,825.3214133126395,740.3214276177542,1908.9,789.0714133126395,759.0714276177542,2011.2,787.8214133126395,756.5714276177542,2133.5,785.3214133126395,756.5714276177542,2236.3,785.3214133126395,756.5714276177542,2345.3,785.3214133126395,756.5714276177542,2445.5,785.3214133126395,756.5714276177542,2545.8,785.3214133126395,756.5714276177542,2647.1,1035.3214133126396,679.0714276177542,2751.7,1162.8214133126396,640.3214276177542,2855.8,1165.3214133126396,639.0714276177542,2956.3,1165.3214133126396,639.0714276177542,3065,1165.3214133126396,639.0714276177542,3166.7,1165.3214133126396,639.0714276177542,3270.9,1165.3214133126396,639.0714276177542,3370.9,1165.3214133126396,639.0714276177542,3471.3,1165.3214133126396,639.0714276177542,3576.2,1165.3214133126396,639.0714276177542,3680.8,1165.3214133126396,639.0714276177542,3784.2,1165.3214133126396,639.0714276177542,3889.3,1165.3214133126396,639.0714276177542,3992.8,1165.3214133126396,639.0714276177542,4094,1165.3214133126396,639.0714276177542,4195.5,1165.3214133126396,639.0714276177542,4300.4,1165.3214133126396,639.0714276177542,4400.5,1165.3214133126396,639.0714276177542,4500.5,1165.3214133126396,639.0714276177542,4605.4,1165.3214133126396,639.0714276177542,4705.4,1165.3214133126396,639.0714276177542,4805.5,1165.3214133126396,639.0714276177542,4910.7]","[4395.6,4395.6,1970.9,2008.4,416.3,""smooth"",""down"",""down"",""good_move"",7021.1,2625.1,2144,4396,481.1,""smooth"",""down"",""down"",""good_move"",12935.2,5913.7,2388.7,10148.2,398.3,""smooth"",""right"",""right"",""good_move"",15610.5,2673.9,2147.4,12936.6,526.5,""oops"",""right"",""left"",""bad_move"",18628.6,3016.7,2314.1,15611.9,702.6,""smooth"",""right"",""right"",""good_move"",21966.7,3337.5,2858.3,18629.2,479.2,""smooth"",""right"",""right"",""good_move""]","",""
"4022","","<div style=""width:500px;"">
  <p>What determined the result of this run?</p>
  </div>","37","html-slider-response","15","190340","0.0-5.0-1.1","20","1","2025-07-09 08:54:48","01610cd0009c79a99da7d0a3353eb402","212.69.57.202","Mozilla/5.0 (X11; CrOS x86_64 14541.0.0) AppleWebKit/537.36 (KHTML, like Gecko) Chrome/137.0.0.0 Safari/537.36","WebKit","Chrome","137.0.0.0","ChromeOS","14541.0.0","https://app.prolific.com/","en-GB,en;q=0.9","5d9a55cb01556d0013fa8369","683db7602f5db6a34d12d064","686e2e4cd09a323a340d8996","1","5d9a55cb01556d0013fa8369","1","2025-07-09T08:57:59.097Z","","","","","","","","","","","AttribQ","","50","","","","","","","","","","","","","","","","","","","","","","","","","","","","",""
"4052","","<div style=""width:500px;"">
  <p>How much control did you have over the ball?</p>
  </div>","62","html-slider-response","16","194395","0.0-5.0-2.1","20","1","2025-07-09 08:54:48","01610cd0009c79a99da7d0a3353eb402","212.69.57.202","Mozilla/5.0 (X11; CrOS x86_64 14541.0.0) AppleWebKit/537.36 (KHTML, like Gecko) Chrome/137.0.0.0 Safari/537.36","WebKit","Chrome","137.0.0.0","ChromeOS","14541.0.0","https://app.prolific.com/","en-GB,en;q=0.9","5d9a55cb01556d0013fa8369","683db7602f5db6a34d12d064","686e2e4cd09a323a340d8996","1","5d9a55cb01556d0013fa8369","1","2025-07-09T08:58:03.152Z","","","","","","","","","","","ControlQ","","50","","","","","","","","","","","","","","","","","","","","","","","","","","","","",""
"3731","","<div style=""width:500px;"">
  <p>How would you describe your current emotional state?</p>
  </div>","53","html-slider-response","17","198128","0.0-5.0-3.1","20","1","2025-07-09 08:54:48","01610cd0009c79a99da7d0a3353eb402","212.69.57.202","Mozilla/5.0 (X11; CrOS x86_64 14541.0.0) AppleWebKit/537.36 (KHTML, like Gecko) Chrome/137.0.0.0 Safari/537.36","WebKit","Chrome","137.0.0.0","ChromeOS","14541.0.0","https://app.prolific.com/","en-GB,en;q=0.9","5d9a55cb01556d0013fa8369","683db7602f5db6a34d12d064","686e2e4cd09a323a340d8996","1","5d9a55cb01556d0013fa8369","1","2025-07-09T08:58:06.885Z","","","","","","","","","","","StressQ","","50","","","","","","","","","","","","","","","","","","","","","","","","","","","","",""
"3533","","<div style=""width:500px;"">
  <p>What best describes how you currently feel?</p>
  </div>","52","html-slider-response","18","201663","0.0-5.0-4.1","20","1","2025-07-09 08:54:48","01610cd0009c79a99da7d0a3353eb402","212.69.57.202","Mozilla/5.0 (X11; CrOS x86_64 14541.0.0) AppleWebKit/537.36 (KHTML, like Gecko) Chrome/137.0.0.0 Safari/537.36","WebKit","Chrome","137.0.0.0","ChromeOS","14541.0.0","https://app.prolific.com/","en-GB,en;q=0.9","5d9a55cb01556d0013fa8369","683db7602f5db6a34d12d064","686e2e4cd09a323a340d8996","1","5d9a55cb01556d0013fa8369","1","2025-07-09T08:58:10.421Z","","","","","","","","","","","MotivationQ","","50","","","","","","","","","","","","","","","","","","","","","","","","","","","","",""
"","","","","ctl-task-cpt","19","237768","0.0-5.0-0.2","20","1","2025-07-09 08:54:48","01610cd0009c79a99da7d0a3353eb402","212.69.57.202","Mozilla/5.0 (X11; CrOS x86_64 14541.0.0) AppleWebKit/537.36 (KHTML, like Gecko) Chrome/137.0.0.0 Safari/537.36","WebKit","Chrome","137.0.0.0","ChromeOS","14541.0.0","https://app.prolific.com/","en-GB,en;q=0.9","5d9a55cb01556d0013fa8369","683db7602f5db6a34d12d064","686e2e4cd09a323a340d8996","1","5d9a55cb01556d0013fa8369","1","2025-07-09T08:58:46.525Z","","","","","","","","","","","","","","win-only","3","g1:SW,g2:NE","0.8","3","0","202855.2","1771.3","6773.9","33093.9","1","4","4","6","2","4","4","5","1","0.03787878787878788","1970.9","3000","1280","[""up"",""right""]","{""num_key_presses"":6,""num_perfect"":5,""num_errors"":0,""num_randdir"":1,""num_randdir_good_moves"":1,""num_whilered"":0,""num_whileblue"":0,""num_blue"":3,""num_good_moves"":6}","[414.0714133126395,417.82142761775424,0.6,414.0714133126395,417.82142761775424,102.3,414.0714133126395,417.82142761775424,204.9,414.0714133126395,417.82142761775424,310.2,414.0714133126395,417.82142761775424,410.3,414.0714133126395,417.82142761775424,518.4,414.0714133126395,417.82142761775424,645.3,414.0714133126395,417.82142761775424,774.6,414.0714133126395,417.82142761775424,879.2,414.0714133126395,417.82142761775424,980.4,512.8214133126395,295.32142761775424,1115.3,585.3214133126395,207.82142761775424,1238.9,624.0714133126395,172.82142761775424,1340.5,645.3214133126395,154.07142761775424,1451.3,656.5714133126395,147.82142761775424,1552,705.3214133126395,117.82142761775425,1658,720.3214133126395,107.82142761775425,1760.9,721.5714133126395,107.82142761775425,1861.7,722.8214133126395,109.07142761775425,1978.3,722.8214133126395,109.07142761775425,2080.4,722.8214133126395,109.07142761775425,2181.3,722.8214133126395,109.07142761775425,2286.2,722.8214133126395,109.07142761775425,2386.7,741.5714133126395,97.82142761775425,2490.1,1152.8214133126396,140.32142761775424,2619.1,1181.5714133126396,152.82142761775424,2721.1,1181.5714133126396,152.82142761775424,2867.8,1181.5714133126396,152.82142761775424,2970.7,1181.5714133126396,152.82142761775424,3091.1,1181.5714133126396,152.82142761775424,3201.5,1181.5714133126396,152.82142761775424,3303.8,1181.5714133126396,152.82142761775424,3412,1181.5714133126396,152.82142761775424,3512,1181.5714133126396,152.82142761775424,3616.4,1181.5714133126396,152.82142761775424,3723.7,1181.5714133126396,152.82142761775424,3826.2,1181.5714133126396,152.82142761775424,3936.9,1181.5714133126396,152.82142761775424,4040.3,1181.5714133126396,152.82142761775424,4141.2,1181.5714133126396,152.82142761775424,4242.1,1181.5714133126396,152.82142761775424,4347.3,1181.5714133126396,152.82142761775424,4458.3,1181.5714133126396,152.82142761775424,4561,1181.5714133126396,152.82142761775424,4668,1181.5714133126396,152.82142761775424,4770.4,1181.5714133126396,152.82142761775424,4880.9,1181.5714133126396,152.82142761775424,4985.7]","[1431.4,1431.4,1000,0,431.4,""smooth"",""up"",""up"",""good_move"",3790.8,2358.5,1905,1432.3,453.5,""smooth"",""up"",""up"",""good_move"",6640,2848.2,2468,3791.8,380.2,""smooth"",""up"",""up"",""good_move"",13191,6549.3,2072.8,10729.6,388.6,""smooth"",""right"",""right"",""good_move"",15955.5,2763.8,2216.4,13191.7,547.4,""smooth"",""right"",""right"",""good_move"",26152.1,10196,2256.2,23499.9,396,""oops"",""right"",""right"",""good_move""]","",""
"3195","","<div style=""width:500px;"">
  <p>What determined the result of this run?</p>
  </div>","100","html-slider-response","20","240965","0.0-5.0-1.2","20","1","2025-07-09 08:54:48","01610cd0009c79a99da7d0a3353eb402","212.69.57.202","Mozilla/5.0 (X11; CrOS x86_64 14541.0.0) AppleWebKit/537.36 (KHTML, like Gecko) Chrome/137.0.0.0 Safari/537.36","WebKit","Chrome","137.0.0.0","ChromeOS","14541.0.0","https://app.prolific.com/","en-GB,en;q=0.9","5d9a55cb01556d0013fa8369","683db7602f5db6a34d12d064","686e2e4cd09a323a340d8996","1","5d9a55cb01556d0013fa8369","1","2025-07-09T08:58:49.722Z","","","","","","","","","","","AttribQ","","50","","","","","","","","","","","","","","","","","","","","","","","","","","","","",""
"4991","","<div style=""width:500px;"">
  <p>How much control did you have over the ball?</p>
  </div>","99","html-slider-response","21","245959","0.0-5.0-2.2","20","1","2025-07-09 08:54:48","01610cd0009c79a99da7d0a3353eb402","212.69.57.202","Mozilla/5.0 (X11; CrOS x86_64 14541.0.0) AppleWebKit/537.36 (KHTML, like Gecko) Chrome/137.0.0.0 Safari/537.36","WebKit","Chrome","137.0.0.0","ChromeOS","14541.0.0","https://app.prolific.com/","en-GB,en;q=0.9","5d9a55cb01556d0013fa8369","683db7602f5db6a34d12d064","686e2e4cd09a323a340d8996","1","5d9a55cb01556d0013fa8369","1","2025-07-09T08:58:54.716Z","","","","","","","","","","","ControlQ","","50","","","","","","","","","","","","","","","","","","","","","","","","","","","","",""
"3974","","<div style=""width:500px;"">
  <p>How would you describe your current emotional state?</p>
  </div>","54","html-slider-response","22","249936","0.0-5.0-3.2","20","1","2025-07-09 08:54:48","01610cd0009c79a99da7d0a3353eb402","212.69.57.202","Mozilla/5.0 (X11; CrOS x86_64 14541.0.0) AppleWebKit/537.36 (KHTML, like Gecko) Chrome/137.0.0.0 Safari/537.36","WebKit","Chrome","137.0.0.0","ChromeOS","14541.0.0","https://app.prolific.com/","en-GB,en;q=0.9","5d9a55cb01556d0013fa8369","683db7602f5db6a34d12d064","686e2e4cd09a323a340d8996","1","5d9a55cb01556d0013fa8369","1","2025-07-09T08:58:58.693Z","","","","","","","","","","","StressQ","","50","","","","","","","","","","","","","","","","","","","","","","","","","","","","",""
"2070","","<div style=""width:500px;"">
  <p>What best describes how you currently feel?</p>
  </div>","39","html-slider-response","23","252009","0.0-5.0-4.2","20","1","2025-07-09 08:54:48","01610cd0009c79a99da7d0a3353eb402","212.69.57.202","Mozilla/5.0 (X11; CrOS x86_64 14541.0.0) AppleWebKit/537.36 (KHTML, like Gecko) Chrome/137.0.0.0 Safari/537.36","WebKit","Chrome","137.0.0.0","ChromeOS","14541.0.0","https://app.prolific.com/","en-GB,en;q=0.9","5d9a55cb01556d0013fa8369","683db7602f5db6a34d12d064","686e2e4cd09a323a340d8996","1","5d9a55cb01556d0013fa8369","1","2025-07-09T08:59:00.766Z","","","","","","","","","","","MotivationQ","","50","","","","","","","","","","","","","","","","","","","","","","","","","","","","",""
"","","","","ctl-task-cpt","24","296196","0.0-5.0-0.3","20","1","2025-07-09 08:54:48","01610cd0009c79a99da7d0a3353eb402","212.69.57.202","Mozilla/5.0 (X11; CrOS x86_64 14541.0.0) AppleWebKit/537.36 (KHTML, like Gecko) Chrome/137.0.0.0 Safari/537.36","WebKit","Chrome","137.0.0.0","ChromeOS","14541.0.0","https://app.prolific.com/","en-GB,en;q=0.9","5d9a55cb01556d0013fa8369","683db7602f5db6a34d12d064","686e2e4cd09a323a340d8996","1","5d9a55cb01556d0013fa8369","1","2025-07-09T08:59:44.953Z","","","","","","","","","","","","","","win-only","0","g1:NW,g2:SE","0.7","4","0","253199.7","1502.7","6508.5","41170.5","1","4","8","6","2","-8","-8","0","5","0","2361.8","3000","-2150","[""down"",""right""]","{""num_key_presses"":7,""num_perfect"":5,""num_errors"":0,""num_randdir"":2,""num_randdir_good_moves"":0,""num_whilered"":0,""num_whileblue"":0,""num_blue"":3,""num_good_moves"":5}","[412.8214133126395,409.07142761775424,0.5,412.8214133126395,409.07142761775424,102.7,412.8214133126395,409.07142761775424,203.1,412.8214133126395,409.07142761775424,303.2,412.8214133126395,409.07142761775424,406.6,412.8214133126395,409.07142761775424,511.4,412.8214133126395,409.07142761775424,637,412.8214133126395,409.07142761775424,737.9,412.8214133126395,409.07142761775424,871.2,255.3214133126395,260.32142761775424,971.8,240.3214133126395,214.07142761775424,1073.1,240.3214133126395,214.07142761775424,1174.7,240.3214133126395,214.07142761775424,1276.9,240.3214133126395,214.07142761775424,1378.4,49.07141331263951,82.82142761775425,1483.7,44.07141331263951,69.07142761775425,1584.5,44.07141331263951,62.82142761775425,1684.8,46.57141331263951,62.82142761775425,1801.3,685.3214133126395,604.0714276177542,1903.7,797.8214133126395,735.3214276177542,2017.1,795.3214133126395,734.0714276177542,2117.6,795.3214133126395,734.0714276177542,2240.1,795.3214133126395,734.0714276177542,2345,795.3214133126395,734.0714276177542,2445.9,795.3214133126395,734.0714276177542,2558,795.3214133126395,734.0714276177542,2658.2,1065.3214133126396,742.8214276177542,2779,1176.5714133126396,745.3214276177542,2893.9,1177.8214133126396,744.0714276177542,2997,1177.8214133126396,744.0714276177542,3102.5,1177.8214133126396,744.0714276177542,3202.7,1177.8214133126396,744.0714276177542,3311.9,1177.8214133126396,744.0714276177542,3416,1177.8214133126396,744.0714276177542,3517.2,1177.8214133126396,744.0714276177542,3627.1,1177.8214133126396,744.0714276177542,3737.9,1177.8214133126396,744.0714276177542,3847.2,1177.8214133126396,744.0714276177542,3961.5,1177.8214133126396,744.0714276177542,4064.9,1177.8214133126396,744.0714276177542,4188.6,1177.8214133126396,744.0714276177542,4298.9,1177.8214133126396,744.0714276177542,4399,1177.8214133126396,744.0714276177542,4514.9,1177.8214133126396,744.0714276177542,4616.9,1177.8214133126396,744.0714276177542,4724,1177.8214133126396,744.0714276177542,4828,1177.8214133126396,744.0714276177542,4932.4]","[1489.8,1489.7,1000,0.1,489.7,""oops"",""down"",""left"",""bad_move"",5007.9,3517.4,2995.8,1490.5,521.6,""smooth"",""down"",""down"",""good_move"",12896.7,7887.3,2992.3,9484.7,419.7,""smooth"",""down"",""down"",""good_move"",15655.4,2757.2,2311.4,12898.2,445.8,""smooth"",""down"",""down"",""good_move"",25088,9432.3,2609.9,22109,369.2,""oops"",""right"",""up"",""bad_move"",28500.4,3394.7,2893.6,25105.7,501.1,""smooth"",""right"",""right"",""good_move"",31942.1,3441,1610.8,28501.1,1830.2,""smooth"",""right"",""right"",""good_move""]","",""
"5808","","<div style=""width:500px;"">
  <p>What determined the result of this run?</p>
  </div>","0","html-slider-response","25","302006","0.0-5.0-1.3","20","1","2025-07-09 08:54:48","01610cd0009c79a99da7d0a3353eb402","212.69.57.202","Mozilla/5.0 (X11; CrOS x86_64 14541.0.0) AppleWebKit/537.36 (KHTML, like Gecko) Chrome/137.0.0.0 Safari/537.36","WebKit","Chrome","137.0.0.0","ChromeOS","14541.0.0","https://app.prolific.com/","en-GB,en;q=0.9","5d9a55cb01556d0013fa8369","683db7602f5db6a34d12d064","686e2e4cd09a323a340d8996","1","5d9a55cb01556d0013fa8369","1","2025-07-09T08:59:50.763Z","","","","","","","","","","","AttribQ","","50","","","","","","","","","","","","","","","","","","","","","","","","","","","","",""
"3434","","<div style=""width:500px;"">
  <p>How much control did you have over the ball?</p>
  </div>","0","html-slider-response","26","305443","0.0-5.0-2.3","20","1","2025-07-09 08:54:48","01610cd0009c79a99da7d0a3353eb402","212.69.57.202","Mozilla/5.0 (X11; CrOS x86_64 14541.0.0) AppleWebKit/537.36 (KHTML, like Gecko) Chrome/137.0.0.0 Safari/537.36","WebKit","Chrome","137.0.0.0","ChromeOS","14541.0.0","https://app.prolific.com/","en-GB,en;q=0.9","5d9a55cb01556d0013fa8369","683db7602f5db6a34d12d064","686e2e4cd09a323a340d8996","1","5d9a55cb01556d0013fa8369","1","2025-07-09T08:59:54.200Z","","","","","","","","","","","ControlQ","","50","","","","","","","","","","","","","","","","","","","","","","","","","","","","",""
"4641","","<div style=""width:500px;"">
  <p>How would you describe your current emotional state?</p>
  </div>","47","html-slider-response","27","310087","0.0-5.0-3.3","20","1","2025-07-09 08:54:48","01610cd0009c79a99da7d0a3353eb402","212.69.57.202","Mozilla/5.0 (X11; CrOS x86_64 14541.0.0) AppleWebKit/537.36 (KHTML, like Gecko) Chrome/137.0.0.0 Safari/537.36","WebKit","Chrome","137.0.0.0","ChromeOS","14541.0.0","https://app.prolific.com/","en-GB,en;q=0.9","5d9a55cb01556d0013fa8369","683db7602f5db6a34d12d064","686e2e4cd09a323a340d8996","1","5d9a55cb01556d0013fa8369","1","2025-07-09T08:59:58.844Z","","","","","","","","","","","StressQ","","50","","","","","","","","","","","","","","","","","","","","","","","","","","","","",""
"4098","","<div style=""width:500px;"">
  <p>What best describes how you currently feel?</p>
  </div>","32","html-slider-response","28","314188","0.0-5.0-4.3","20","1","2025-07-09 08:54:48","01610cd0009c79a99da7d0a3353eb402","212.69.57.202","Mozilla/5.0 (X11; CrOS x86_64 14541.0.0) AppleWebKit/537.36 (KHTML, like Gecko) Chrome/137.0.0.0 Safari/537.36","WebKit","Chrome","137.0.0.0","ChromeOS","14541.0.0","https://app.prolific.com/","en-GB,en;q=0.9","5d9a55cb01556d0013fa8369","683db7602f5db6a34d12d064","686e2e4cd09a323a340d8996","1","5d9a55cb01556d0013fa8369","1","2025-07-09T09:00:02.945Z","","","","","","","","","","","MotivationQ","","50","","","","","","","","","","","","","","","","","","","","","","","","","","","","",""
"","","","","ctl-task-cpt","29","335271","0.0-5.0-0.4","20","1","2025-07-09 08:54:48","01610cd0009c79a99da7d0a3353eb402","212.69.57.202","Mozilla/5.0 (X11; CrOS x86_64 14541.0.0) AppleWebKit/537.36 (KHTML, like Gecko) Chrome/137.0.0.0 Safari/537.36","WebKit","Chrome","137.0.0.0","ChromeOS","14541.0.0","https://app.prolific.com/","en-GB,en;q=0.9","5d9a55cb01556d0013fa8369","683db7602f5db6a34d12d064","686e2e4cd09a323a340d8996","1","5d9a55cb01556d0013fa8369","1","2025-07-09T09:00:24.029Z","","","","","","","","","","","","","","win-only","3","g1:SW,g2:NE","0.6","5","0","315378.4","1332.4","6337.4","18070","1","4","4","6","1","1","1","1","0","0.007575757575757576","1458.3","3000","1880","[""down"",""left""]","{""num_key_presses"":4,""num_perfect"":3,""num_errors"":0,""num_randdir"":1,""num_randdir_good_moves"":1,""num_whilered"":0,""num_whileblue"":0,""num_blue"":0,""num_good_moves"":4}","[427.8214133126395,409.07142761775424,1,427.8214133126395,409.07142761775424,102.4,427.8214133126395,409.07142761775424,214.3,529.0714133126395,430.32142761775424,324.8,889.0714133126395,471.57142761775424,430.6,964.0714133126395,466.57142761775424,531.8,1026.5714133126396,449.07142761775424,662.6,684.0714133126395,436.57142761775424,781.1,26.571413312639507,592.8214276177542,884.3,-20.928586687360493,604.0714276177542,1024.9,-5.928586687360493,621.5714276177542,1134.4,54.07141331263951,732.8214276177542,1244.7,54.07141331263951,734.0714276177542,1345,54.07141331263951,734.0714276177542,1446.1,54.07141331263951,734.0714276177542,1550.6,54.07141331263951,734.0714276177542,1661.4,360.3214133126395,656.5714276177542,1774.4,622.8214133126395,631.5714276177542,1883.8,701.5714133126395,636.5714276177542,1990.1,731.5714133126395,646.5714276177542,2092.1,731.5714133126395,646.5714276177542,2200.6,731.5714133126395,646.5714276177542,2307.6,731.5714133126395,646.5714276177542,2410.2,731.5714133126395,646.5714276177542,2517.7,731.5714133126395,646.5714276177542,2622,731.5714133126395,646.5714276177542,2728,731.5714133126395,646.5714276177542,2830.6,731.5714133126395,646.5714276177542,2932.7,731.5714133126395,646.5714276177542,3047.3,731.5714133126395,646.5714276177542,3162,731.5714133126395,646.5714276177542,3272.4,731.5714133126395,646.5714276177542,3377.2,731.5714133126395,646.5714276177542,3479,731.5714133126395,646.5714276177542,3582.5,731.5714133126395,646.5714276177542,3688.5,731.5714133126395,646.5714276177542,3792.1,731.5714133126395,646.5714276177542,3893.2,731.5714133126395,646.5714276177542,4008.5,731.5714133126395,646.5714276177542,4108.9,731.5714133126395,646.5714276177542,4210.5,731.5714133126395,646.5714276177542,4310.6,731.5714133126395,646.5714276177542,4415.7,731.5714133126395,646.5714276177542,4532.3,731.5714133126395,646.5714276177542,4636.5,731.5714133126395,646.5714276177542,4750.8,731.5714133126395,646.5714276177542,4856.9,731.5714133126395,646.5714276177542,4995.1]","[1457.2,1457.2,1000,0,457.2,""smooth"",""down"",""down"",""good_move"",5476.8,4019.1,3590.2,1457.7,428.9,""smooth"",""down"",""down"",""good_move"",9012.8,3534,3035,5478.8,499,""smooth"",""left"",""left"",""good_move"",11563.9,2549.7,2043.1,9014.2,506.6,""oops"",""left"",""left"",""good_move""]","",""
"4141","","<div style=""width:500px;"">
  <p>What determined the result of this run?</p>
  </div>","99","html-slider-response","30","339415","0.0-5.0-1.4","20","1","2025-07-09 08:54:48","01610cd0009c79a99da7d0a3353eb402","212.69.57.202","Mozilla/5.0 (X11; CrOS x86_64 14541.0.0) AppleWebKit/537.36 (KHTML, like Gecko) Chrome/137.0.0.0 Safari/537.36","WebKit","Chrome","137.0.0.0","ChromeOS","14541.0.0","https://app.prolific.com/","en-GB,en;q=0.9","5d9a55cb01556d0013fa8369","683db7602f5db6a34d12d064","686e2e4cd09a323a340d8996","1","5d9a55cb01556d0013fa8369","1","2025-07-09T09:00:28.172Z","","","","","","","","","","","AttribQ","","50","","","","","","","","","","","","","","","","","","","","","","","","","","","","",""
"2890","","<div style=""width:500px;"">
  <p>How much control did you have over the ball?</p>
  </div>","100","html-slider-response","31","342306","0.0-5.0-2.4","20","1","2025-07-09 08:54:48","01610cd0009c79a99da7d0a3353eb402","212.69.57.202","Mozilla/5.0 (X11; CrOS x86_64 14541.0.0) AppleWebKit/537.36 (KHTML, like Gecko) Chrome/137.0.0.0 Safari/537.36","WebKit","Chrome","137.0.0.0","ChromeOS","14541.0.0","https://app.prolific.com/","en-GB,en;q=0.9","5d9a55cb01556d0013fa8369","683db7602f5db6a34d12d064","686e2e4cd09a323a340d8996","1","5d9a55cb01556d0013fa8369","1","2025-07-09T09:00:31.064Z","","","","","","","","","","","ControlQ","","50","","","","","","","","","","","","","","","","","","","","","","","","","","","","",""
"2447","","<div style=""width:500px;"">
  <p>How would you describe your current emotional state?</p>
  </div>","53","html-slider-response","32","344755","0.0-5.0-3.4","20","1","2025-07-09 08:54:48","01610cd0009c79a99da7d0a3353eb402","212.69.57.202","Mozilla/5.0 (X11; CrOS x86_64 14541.0.0) AppleWebKit/537.36 (KHTML, like Gecko) Chrome/137.0.0.0 Safari/537.36","WebKit","Chrome","137.0.0.0","ChromeOS","14541.0.0","https://app.prolific.com/","en-GB,en;q=0.9","5d9a55cb01556d0013fa8369","683db7602f5db6a34d12d064","686e2e4cd09a323a340d8996","1","5d9a55cb01556d0013fa8369","1","2025-07-09T09:00:33.512Z","","","","","","","","","","","StressQ","","50","","","","","","","","","","","","","","","","","","","","","","","","","","","","",""
"1961","","<div style=""width:500px;"">
  <p>What best describes how you currently feel?</p>
  </div>","22","html-slider-response","33","346718","0.0-5.0-4.4","20","1","2025-07-09 08:54:48","01610cd0009c79a99da7d0a3353eb402","212.69.57.202","Mozilla/5.0 (X11; CrOS x86_64 14541.0.0) AppleWebKit/537.36 (KHTML, like Gecko) Chrome/137.0.0.0 Safari/537.36","WebKit","Chrome","137.0.0.0","ChromeOS","14541.0.0","https://app.prolific.com/","en-GB,en;q=0.9","5d9a55cb01556d0013fa8369","683db7602f5db6a34d12d064","686e2e4cd09a323a340d8996","1","5d9a55cb01556d0013fa8369","1","2025-07-09T09:00:35.476Z","","","","","","","","","","","MotivationQ","","50","","","","","","","","","","","","","","","","","","","","","","","","","","","","",""
"","","","","ctl-task-cpt","34","382262","0.0-5.0-0.5","20","1","2025-07-09 08:54:48","01610cd0009c79a99da7d0a3353eb402","212.69.57.202","Mozilla/5.0 (X11; CrOS x86_64 14541.0.0) AppleWebKit/537.36 (KHTML, like Gecko) Chrome/137.0.0.0 Safari/537.36","WebKit","Chrome","137.0.0.0","ChromeOS","14541.0.0","https://app.prolific.com/","en-GB,en;q=0.9","5d9a55cb01556d0013fa8369","683db7602f5db6a34d12d064","686e2e4cd09a323a340d8996","1","5d9a55cb01556d0013fa8369","1","2025-07-09T09:01:11.019Z","","","","","","","","","","","","","","win-only","2","g1:SE,g2:NW","0.5","6","0","347908.4","1338.7","6351.3","32530.5","1","4","8","6","1","1","1","2","1","0.015151515151515152","1368.7","3000","1145","[""down"",""right""]","{""num_key_presses"":8,""num_perfect"":4,""num_errors"":0,""num_randdir"":4,""num_randdir_good_moves"":2,""num_whilered"":0,""num_whileblue"":0,""num_blue"":1,""num_good_moves"":6}","[417.8214133126395,416.57142761775424,1.5,417.8214133126395,416.57142761775424,102.1,417.8214133126395,416.57142761775424,213.2,417.8214133126395,416.57142761775424,318.6,417.8214133126395,416.57142761775424,423.3,417.8214133126395,416.57142761775424,523.8,535.3214133126395,419.07142761775424,636.1,817.8214133126395,697.8214276177542,770.5,882.8214133126395,754.0714276177542,870.7,884.0714133126395,761.5714276177542,974.2,800.3214133126395,761.5714276177542,1079.5,762.8214133126395,750.3214276177542,1182,755.3214133126395,746.5714276177542,1291.8,755.3214133126395,745.3214276177542,1404.8,755.3214133126395,745.3214276177542,1505.7,755.3214133126395,745.3214276177542,1612.3,779.0714133126395,739.0714276177542,1718.9,791.5714133126395,737.8214276177542,1820.6,792.8214133126395,735.3214276177542,1935,792.8214133126395,735.3214276177542,2038.9,912.8214133126395,689.0714276177542,2195.7,930.3214133126395,691.5714276177542,2318.2,939.0714133126395,689.0714276177542,2428.9,939.0714133126395,689.0714276177542,2538.6,939.0714133126395,689.0714276177542,2641,939.0714133126395,689.0714276177542,2747.1,939.0714133126395,689.0714276177542,2853.5,939.0714133126395,689.0714276177542,2955,939.0714133126395,689.0714276177542,3058.5,939.0714133126395,689.0714276177542,3159,939.0714133126395,689.0714276177542,3273.4,939.0714133126395,689.0714276177542,3384.5,939.0714133126395,689.0714276177542,3488.8,939.0714133126395,689.0714276177542,3597.8,939.0714133126395,689.0714276177542,3705.4,939.0714133126395,689.0714276177542,3806.6,939.0714133126395,689.0714276177542,3909.9,939.0714133126395,689.0714276177542,4013.6,939.0714133126395,689.0714276177542,4119.1,939.0714133126395,689.0714276177542,4221.8,939.0714133126395,689.0714276177542,4329.5,939.0714133126395,689.0714276177542,4430.3,939.0714133126395,689.0714276177542,4532.1,939.0714133126395,689.0714276177542,4632.1,939.0714133126395,689.0714276177542,4737.2,939.0714133126395,689.0714276177542,4839.2,939.0714133126395,689.0714276177542,4941.3]","[1425.2,1425.2,1000,0,425.2,""oops"",""down"",""down"",""good_move"",8719.5,7293.3,3566.1,4843.6,309.9,""oops"",""down"",""left"",""bad_move"",11731.8,2999.7,2545.6,8732.1,454.1,""smooth"",""down"",""down"",""good_move"",15248.1,3515.9,2779.6,11732.2,736.3,""smooth"",""right"",""right"",""good_move"",18117.6,2858.4,2412.6,15259.3,445.8,""oops"",""right"",""up"",""bad_move"",20315.9,2196.9,1744.4,18119,452.5,""smooth"",""right"",""right"",""good_move"",22954.1,2637.9,2210.2,20316.2,427.7,""smooth"",""right"",""right"",""good_move"",26002.8,3046.1,2672,22956.8,374.1,""oops"",""down"",""down"",""good_move""]","",""
"5798","","<div style=""width:500px;"">
  <p>What determined the result of this run?</p>
  </div>","59","html-slider-response","35","388063","0.0-5.0-1.5","20","1","2025-07-09 08:54:48","01610cd0009c79a99da7d0a3353eb402","212.69.57.202","Mozilla/5.0 (X11; CrOS x86_64 14541.0.0) AppleWebKit/537.36 (KHTML, like Gecko) Chrome/137.0.0.0 Safari/537.36","WebKit","Chrome","137.0.0.0","ChromeOS","14541.0.0","https://app.prolific.com/","en-GB,en;q=0.9","5d9a55cb01556d0013fa8369","683db7602f5db6a34d12d064","686e2e4cd09a323a340d8996","1","5d9a55cb01556d0013fa8369","1","2025-07-09T09:01:16.820Z","","","","","","","","","","","AttribQ","","50","","","","","","","","","","","","","","","","","","","","","","","","","","","","",""
"3088","","<div style=""width:500px;"">
  <p>How much control did you have over the ball?</p>
  </div>","56","html-slider-response","36","391153","0.0-5.0-2.5","20","1","2025-07-09 08:54:48","01610cd0009c79a99da7d0a3353eb402","212.69.57.202","Mozilla/5.0 (X11; CrOS x86_64 14541.0.0) AppleWebKit/537.36 (KHTML, like Gecko) Chrome/137.0.0.0 Safari/537.36","WebKit","Chrome","137.0.0.0","ChromeOS","14541.0.0","https://app.prolific.com/","en-GB,en;q=0.9","5d9a55cb01556d0013fa8369","683db7602f5db6a34d12d064","686e2e4cd09a323a340d8996","1","5d9a55cb01556d0013fa8369","1","2025-07-09T09:01:19.910Z","","","","","","","","","","","ControlQ","","50","","","","","","","","","","","","","","","","","","","","","","","","","","","","",""
"8508","","<div style=""width:500px;"">
  <p>How would you describe your current emotional state?</p>
  </div>","47","html-slider-response","37","399663","0.0-5.0-3.5","20","1","2025-07-09 08:54:48","01610cd0009c79a99da7d0a3353eb402","212.69.57.202","Mozilla/5.0 (X11; CrOS x86_64 14541.0.0) AppleWebKit/537.36 (KHTML, like Gecko) Chrome/137.0.0.0 Safari/537.36","WebKit","Chrome","137.0.0.0","ChromeOS","14541.0.0","https://app.prolific.com/","en-GB,en;q=0.9","5d9a55cb01556d0013fa8369","683db7602f5db6a34d12d064","686e2e4cd09a323a340d8996","1","5d9a55cb01556d0013fa8369","1","2025-07-09T09:01:28.420Z","","","","","","","","","","","StressQ","","50","","","","","","","","","","","","","","","","","","","","","","","","","","","","",""
"5569","","<div style=""width:500px;"">
  <p>What best describes how you currently feel?</p>
  </div>","53","html-slider-response","38","405234","0.0-5.0-4.5","20","1","2025-07-09 08:54:48","01610cd0009c79a99da7d0a3353eb402","212.69.57.202","Mozilla/5.0 (X11; CrOS x86_64 14541.0.0) AppleWebKit/537.36 (KHTML, like Gecko) Chrome/137.0.0.0 Safari/537.36","WebKit","Chrome","137.0.0.0","ChromeOS","14541.0.0","https://app.prolific.com/","en-GB,en;q=0.9","5d9a55cb01556d0013fa8369","683db7602f5db6a34d12d064","686e2e4cd09a323a340d8996","1","5d9a55cb01556d0013fa8369","1","2025-07-09T09:01:33.991Z","","","","","","","","","","","MotivationQ","","50","","","","","","","","","","","","","","","","","","","","","","","","","","","","",""
"","","","","ctl-task-cpt","39","426844","0.0-5.0-0.6","20","1","2025-07-09 08:54:48","01610cd0009c79a99da7d0a3353eb402","212.69.57.202","Mozilla/5.0 (X11; CrOS x86_64 14541.0.0) AppleWebKit/537.36 (KHTML, like Gecko) Chrome/137.0.0.0 Safari/537.36","WebKit","Chrome","137.0.0.0","ChromeOS","14541.0.0","https://app.prolific.com/","en-GB,en;q=0.9","5d9a55cb01556d0013fa8369","683db7602f5db6a34d12d064","686e2e4cd09a323a340d8996","1","5d9a55cb01556d0013fa8369","1","2025-07-09T09:01:55.601Z","","","","","","","","","","","","","","win-only","1","g1:NE,g2:SW","0.4","7","0","406423.5","1431","6436.2","18590.4","1","4","8","6","1","1","1","3","2","0.022727272727272728","1326.7","3000","2035","[""up"",""right""]","{""num_key_presses"":4,""num_perfect"":3,""num_errors"":0,""num_randdir"":1,""num_randdir_good_moves"":1,""num_whilered"":0,""num_whileblue"":0,""num_blue"":0,""num_good_moves"":4}","[414.0714133126395,410.32142761775424,0.3,414.0714133126395,410.32142761775424,105.3,414.0714133126395,410.32142761775424,207.6,414.0714133126395,410.32142761775424,313.6,414.0714133126395,410.32142761775424,414.4,414.0714133126395,410.32142761775424,518.2,414.0714133126395,410.32142761775424,625.8,414.0714133126395,410.32142761775424,729.2,414.0714133126395,410.32142761775424,834,687.8214133126395,132.82142761775424,937.7,696.5714133126395,125.32142761775425,1042.4,706.5714133126395,116.57142761775425,1143.7,709.0714133126395,115.32142761775425,1247.5,710.3214133126395,115.32142761775425,1348.7,710.3214133126395,115.32142761775425,1455,710.3214133126395,115.32142761775425,1556.7,959.0714133126395,90.32142761775425,1660.8,1127.8214133126396,149.07142761775424,1765.2,1125.3214133126396,146.57142761775424,1874.2,1125.3214133126396,146.57142761775424,1981.2,1125.3214133126396,146.57142761775424,2087.5,1125.3214133126396,146.57142761775424,2190.6,1125.3214133126396,146.57142761775424,2298.5,1125.3214133126396,146.57142761775424,2399.6,1125.3214133126396,146.57142761775424,2505.3,1125.3214133126396,146.57142761775424,2606.3,1125.3214133126396,146.57142761775424,2708.4,1125.3214133126396,146.57142761775424,2814.1,1125.3214133126396,146.57142761775424,2917.3,1125.3214133126396,146.57142761775424,3017.6,1125.3214133126396,146.57142761775424,3118.4,1125.3214133126396,146.57142761775424,3221.5,1125.3214133126396,146.57142761775424,3325.2,1125.3214133126396,146.57142761775424,3429.8,1125.3214133126396,146.57142761775424,3533.9,1125.3214133126396,146.57142761775424,3635.8,1125.3214133126396,146.57142761775424,3740.2,1125.3214133126396,146.57142761775424,3844.7,1125.3214133126396,146.57142761775424,3950.5,1125.3214133126396,146.57142761775424,4053.8,1125.3214133126396,146.57142761775424,4162.3,1125.3214133126396,146.57142761775424,4266.9,1125.3214133126396,146.57142761775424,4369.4,1125.3214133126396,146.57142761775424,4479.3,1125.3214133126396,146.57142761775424,4585.9,1125.3214133126396,146.57142761775424,4694.3,1125.3214133126396,146.57142761775424,4799.9,1125.3214133126396,146.57142761775424,4907]","[1472.5,1472.5,1000,0,472.5,""smooth"",""up"",""up"",""good_move"",4688.6,3215.5,2749.5,1473.1,466,""smooth"",""up"",""up"",""good_move"",8224.9,3535.9,3067.4,4689,468.5,""smooth"",""right"",""right"",""good_move"",11993.1,3767.7,3266.3,8225.5,501.3,""oops"",""right"",""right"",""good_move""]","",""
"3971","","<div style=""width:500px;"">
  <p>What determined the result of this run?</p>
  </div>","95","html-slider-response","40","430818","0.0-5.0-1.6","20","1","2025-07-09 08:54:48","01610cd0009c79a99da7d0a3353eb402","212.69.57.202","Mozilla/5.0 (X11; CrOS x86_64 14541.0.0) AppleWebKit/537.36 (KHTML, like Gecko) Chrome/137.0.0.0 Safari/537.36","WebKit","Chrome","137.0.0.0","ChromeOS","14541.0.0","https://app.prolific.com/","en-GB,en;q=0.9","5d9a55cb01556d0013fa8369","683db7602f5db6a34d12d064","686e2e4cd09a323a340d8996","1","5d9a55cb01556d0013fa8369","1","2025-07-09T09:01:59.575Z","","","","","","","","","","","AttribQ","","50","","","","","","","","","","","","","","","","","","","","","","","","","","","","",""
"5469","","<div style=""width:500px;"">
  <p>How much control did you have over the ball?</p>
  </div>","100","html-slider-response","41","436289","0.0-5.0-2.6","20","1","2025-07-09 08:54:48","01610cd0009c79a99da7d0a3353eb402","212.69.57.202","Mozilla/5.0 (X11; CrOS x86_64 14541.0.0) AppleWebKit/537.36 (KHTML, like Gecko) Chrome/137.0.0.0 Safari/537.36","WebKit","Chrome","137.0.0.0","ChromeOS","14541.0.0","https://app.prolific.com/","en-GB,en;q=0.9","5d9a55cb01556d0013fa8369","683db7602f5db6a34d12d064","686e2e4cd09a323a340d8996","1","5d9a55cb01556d0013fa8369","1","2025-07-09T09:02:05.047Z","","","","","","","","","","","ControlQ","","50","","","","","","","","","","","","","","","","","","","","","","","","","","","","",""
"3346","","<div style=""width:500px;"">
  <p>How would you describe your current emotional state?</p>
  </div>","53","html-slider-response","42","439638","0.0-5.0-3.6","20","1","2025-07-09 08:54:48","01610cd0009c79a99da7d0a3353eb402","212.69.57.202","Mozilla/5.0 (X11; CrOS x86_64 14541.0.0) AppleWebKit/537.36 (KHTML, like Gecko) Chrome/137.0.0.0 Safari/537.36","WebKit","Chrome","137.0.0.0","ChromeOS","14541.0.0","https://app.prolific.com/","en-GB,en;q=0.9","5d9a55cb01556d0013fa8369","683db7602f5db6a34d12d064","686e2e4cd09a323a340d8996","1","5d9a55cb01556d0013fa8369","1","2025-07-09T09:02:08.395Z","","","","","","","","","","","StressQ","","50","","","","","","","","","","","","","","","","","","","","","","","","","","","","",""
"2487","","<div style=""width:500px;"">
  <p>What best describes how you currently feel?</p>
  </div>","22","html-slider-response","43","442128","0.0-5.0-4.6","20","1","2025-07-09 08:54:48","01610cd0009c79a99da7d0a3353eb402","212.69.57.202","Mozilla/5.0 (X11; CrOS x86_64 14541.0.0) AppleWebKit/537.36 (KHTML, like Gecko) Chrome/137.0.0.0 Safari/537.36","WebKit","Chrome","137.0.0.0","ChromeOS","14541.0.0","https://app.prolific.com/","en-GB,en;q=0.9","5d9a55cb01556d0013fa8369","683db7602f5db6a34d12d064","686e2e4cd09a323a340d8996","1","5d9a55cb01556d0013fa8369","1","2025-07-09T09:02:10.885Z","","","","","","","","","","","MotivationQ","","50","","","","","","","","","","","","","","","","","","","","","","","","","","","","",""
"","","","","ctl-task-cpt","44","503632","0.0-5.0-0.7","20","1","2025-07-09 08:54:48","01610cd0009c79a99da7d0a3353eb402","212.69.57.202","Mozilla/5.0 (X11; CrOS x86_64 14541.0.0) AppleWebKit/537.36 (KHTML, like Gecko) Chrome/137.0.0.0 Safari/537.36","WebKit","Chrome","137.0.0.0","ChromeOS","14541.0.0","https://app.prolific.com/","en-GB,en;q=0.9","5d9a55cb01556d0013fa8369","683db7602f5db6a34d12d064","686e2e4cd09a323a340d8996","1","5d9a55cb01556d0013fa8369","1","2025-07-09T09:03:12.389Z","","","","","","","","","","","","","","win-only","3","g1:SW,g2:NE","0.3","8","0","443317.6","1583.4","6589.4","58486.6","1","4","4","6","1","1","-1","2","3","0.015151515151515152","1525","3000","190","[""down"",""left""]","{""num_key_presses"":16,""num_perfect"":4,""num_errors"":2,""num_randdir"":10,""num_randdir_good_moves"":5,""num_whilered"":0,""num_whileblue"":2,""num_blue"":3,""num_good_moves"":10}","[415.3214133126395,429.07142761775424,0.5,415.3214133126395,429.07142761775424,118.2,415.3214133126395,429.07142761775424,218.3,415.3214133126395,429.07142761775424,322,415.3214133126395,429.07142761775424,433.8,415.3214133126395,429.07142761775424,537.6,415.3214133126395,429.07142761775424,639.9,415.3214133126395,429.07142761775424,752,415.3214133126395,429.07142761775424,861.6,194.0714133126395,601.5714276177542,964.6,166.5714133126395,629.0714276177542,1076.3,139.0714133126395,675.3214276177542,1180.9,122.8214133126395,695.3214276177542,1284,114.0714133126395,702.8214276177542,1389.3,111.5714133126395,702.8214276177542,1490.9,111.5714133126395,702.8214276177542,1597.5,111.5714133126395,702.8214276177542,1697.7,111.5714133126395,702.8214276177542,1805.4,476.5714133126395,617.8214276177542,1906.4,942.8214133126395,536.5714276177542,2016.3,1026.5714133126396,530.3214276177542,2128.2,1030.3214133126396,540.3214276177542,2231.4,1030.3214133126396,540.3214276177542,2341.7,1030.3214133126396,540.3214276177542,2444.9,1030.3214133126396,540.3214276177542,2551.1,1030.3214133126396,540.3214276177542,2654.6,1030.3214133126396,540.3214276177542,2760.4,1030.3214133126396,540.3214276177542,2863,1030.3214133126396,540.3214276177542,2971,1030.3214133126396,540.3214276177542,3077.4,1030.3214133126396,540.3214276177542,3177.9,1030.3214133126396,540.3214276177542,3288.5,1030.3214133126396,540.3214276177542,3391.6,1030.3214133126396,540.3214276177542,3493.9,1030.3214133126396,540.3214276177542,3596.9,1030.3214133126396,540.3214276177542,3703,1030.3214133126396,540.3214276177542,3809.8,1030.3214133126396,540.3214276177542,3913.3,1030.3214133126396,540.3214276177542,4014.7,1030.3214133126396,540.3214276177542,4118.6,1030.3214133126396,540.3214276177542,4227.5,1030.3214133126396,540.3214276177542,4330.3,1030.3214133126396,540.3214276177542,4434.1,1030.3214133126396,540.3214276177542,4542.8,1030.3214133126396,540.3214276177542,4646.9,1030.3214133126396,540.3214276177542,4748,1030.3214133126396,540.3214276177542,4852.6,1030.3214133126396,540.3214276177542,4956.3]","[1626.3,1626.3,1000,0,626.3,""oops"",""down"",""right"",""bad_move"",4511.1,2884.1,2511.8,1627.1,372.3,""smooth"",""down"",""down"",""good_move"",11989,7477.3,2545.8,9098.8,344.4,""oops"",""down"",""left"",""good_move"",14939.9,2950.2,2534.7,11989.7,415.5,""oops"",""down"",""right"",""bad_move"",17947.5,3006.8,2626.2,14940.7,380.6,""oops"",""down"",""down"",""good_move"",21349.4,3401.4,3032.7,17948.1,368.7,""oops"",""left"",""right"",""bad_move"",24732.3,3382.2,2855.8,21350.1,526.4,""smooth"",""left"",""left"",""good_move"",27797.8,3064.9,2664.5,24732.9,400.4,""while_blue"",""left"",""right"",""bad_move"",30671.4,2861.6,2420.5,27809.8,441.1,""oops"",""left"",""left"",""good_move"",33796,3124.1,2210.6,30671.9,913.5,""smooth"",""left"",""left"",""good_move"",36503.2,2706.8,2130.1,33796.4,576.7,""oops"",""left"",""right"",""bad_move"",39289.4,2785.6,2375.1,36503.8,410.5,""oops"",""left"",""up"",""bad_move"",42818.9,3528.9,2943.7,39290.1,585.1,""smooth"",""left"",""left"",""good_move"",46501.3,3682.1,3314.5,42819.2,367.6,""oops"",""left"",""down"",""good_move"",49674.9,3173.1,2712.2,46501.9,460.8,""oops"",""left"",""left"",""good_move"",51727.2,2051.5,1670.6,49675.8,380.9,""while_blue"",""left"",""left"",""good_move""]","",""
"6111","","<div style=""width:500px;"">
  <p>What determined the result of this run?</p>
  </div>","0","html-slider-response","45","509746","0.0-5.0-1.7","20","1","2025-07-09 08:54:48","01610cd0009c79a99da7d0a3353eb402","212.69.57.202","Mozilla/5.0 (X11; CrOS x86_64 14541.0.0) AppleWebKit/537.36 (KHTML, like Gecko) Chrome/137.0.0.0 Safari/537.36","WebKit","Chrome","137.0.0.0","ChromeOS","14541.0.0","https://app.prolific.com/","en-GB,en;q=0.9","5d9a55cb01556d0013fa8369","683db7602f5db6a34d12d064","686e2e4cd09a323a340d8996","1","5d9a55cb01556d0013fa8369","1","2025-07-09T09:03:18.503Z","","","","","","","","","","","AttribQ","","50","","","","","","","","","","","","","","","","","","","","","","","","","","","","",""
"4373","","<div style=""width:500px;"">
  <p>How much control did you have over the ball?</p>
  </div>","2","html-slider-response","46","514122","0.0-5.0-2.7","20","1","2025-07-09 08:54:48","01610cd0009c79a99da7d0a3353eb402","212.69.57.202","Mozilla/5.0 (X11; CrOS x86_64 14541.0.0) AppleWebKit/537.36 (KHTML, like Gecko) Chrome/137.0.0.0 Safari/537.36","WebKit","Chrome","137.0.0.0","ChromeOS","14541.0.0","https://app.prolific.com/","en-GB,en;q=0.9","5d9a55cb01556d0013fa8369","683db7602f5db6a34d12d064","686e2e4cd09a323a340d8996","1","5d9a55cb01556d0013fa8369","1","2025-07-09T09:03:22.879Z","","","","","","","","","","","ControlQ","","50","","","","","","","","","","","","","","","","","","","","","","","","","","","","",""
"3964","","<div style=""width:500px;"">
  <p>How would you describe your current emotional state?</p>
  </div>","47","html-slider-response","47","518088","0.0-5.0-3.7","20","1","2025-07-09 08:54:48","01610cd0009c79a99da7d0a3353eb402","212.69.57.202","Mozilla/5.0 (X11; CrOS x86_64 14541.0.0) AppleWebKit/537.36 (KHTML, like Gecko) Chrome/137.0.0.0 Safari/537.36","WebKit","Chrome","137.0.0.0","ChromeOS","14541.0.0","https://app.prolific.com/","en-GB,en;q=0.9","5d9a55cb01556d0013fa8369","683db7602f5db6a34d12d064","686e2e4cd09a323a340d8996","1","5d9a55cb01556d0013fa8369","1","2025-07-09T09:03:26.845Z","","","","","","","","","","","StressQ","","50","","","","","","","","","","","","","","","","","","","","","","","","","","","","",""
"2361","","<div style=""width:500px;"">
  <p>What best describes how you currently feel?</p>
  </div>","4","html-slider-response","48","520451","0.0-5.0-4.7","20","1","2025-07-09 08:54:48","01610cd0009c79a99da7d0a3353eb402","212.69.57.202","Mozilla/5.0 (X11; CrOS x86_64 14541.0.0) AppleWebKit/537.36 (KHTML, like Gecko) Chrome/137.0.0.0 Safari/537.36","WebKit","Chrome","137.0.0.0","ChromeOS","14541.0.0","https://app.prolific.com/","en-GB,en;q=0.9","5d9a55cb01556d0013fa8369","683db7602f5db6a34d12d064","686e2e4cd09a323a340d8996","1","5d9a55cb01556d0013fa8369","1","2025-07-09T09:03:29.208Z","","","","","","","","","","","MotivationQ","","50","","","","","","","","","","","","","","","","","","","","","","","","","","","","",""
"","","","","ctl-task-cpt","49","599925","0.0-5.0-0.8","20","1","2025-07-09 08:54:48","01610cd0009c79a99da7d0a3353eb402","212.69.57.202","Mozilla/5.0 (X11; CrOS x86_64 14541.0.0) AppleWebKit/537.36 (KHTML, like Gecko) Chrome/137.0.0.0 Safari/537.36","WebKit","Chrome","137.0.0.0","ChromeOS","14541.0.0","https://app.prolific.com/","en-GB,en;q=0.9","5d9a55cb01556d0013fa8369","683db7602f5db6a34d12d064","686e2e4cd09a323a340d8996","1","5d9a55cb01556d0013fa8369","1","2025-07-09T09:04:48.682Z","","","","","","","","","","","","","","win-only","1","g1:NE,g2:SW","0.2","9","0","521641.5","1881.3","6893.3","76454.4","1","4","4","6","1","-1","-3","0","2","0","1714.3","3000","-1410","[""up"",""right""]","{""num_key_presses"":17,""num_perfect"":4,""num_errors"":2,""num_randdir"":11,""num_randdir_good_moves"":4,""num_whilered"":0,""num_whileblue"":2,""num_blue"":7,""num_good_moves"":8}","[412.8214133126395,412.82142761775424,0.3,412.8214133126395,412.82142761775424,104.3,412.8214133126395,412.82142761775424,205.3,412.8214133126395,412.82142761775424,307.9,412.8214133126395,412.82142761775424,415.3,412.8214133126395,412.82142761775424,518.3,412.8214133126395,412.82142761775424,626.5,412.8214133126395,412.82142761775424,731.4,412.8214133126395,412.82142761775424,835.1,412.8214133126395,412.82142761775424,940.4,412.8214133126395,412.82142761775424,1047,644.0714133126395,72.82142761775425,1154.7,709.0714133126395,-14.678572382245747,1266.5,714.0714133126395,-17.178572382245747,1378.9,729.0714133126395,21.571427617754253,1486.9,752.8214133126395,69.07142761775425,1591,754.0714133126395,70.32142761775425,1693.4,754.0714133126395,70.32142761775425,1795.2,754.0714133126395,70.32142761775425,1904.4,754.0714133126395,70.32142761775425,2013.6,802.8214133126395,46.57142761775425,2122.6,1059.0714133126396,7.821427617754253,2231.8,1059.0714133126396,7.821427617754253,2336.5,1059.0714133126396,7.821427617754253,2450.3,1059.0714133126396,7.821427617754253,2553,1059.0714133126396,7.821427617754253,2656,1059.0714133126396,7.821427617754253,2756.1,1059.0714133126396,7.821427617754253,2859.1,1059.0714133126396,7.821427617754253,2961.4,1059.0714133126396,7.821427617754253,3069,1059.0714133126396,7.821427617754253,3173.2,1059.0714133126396,7.821427617754253,3278.4,1059.0714133126396,7.821427617754253,3384.5,1059.0714133126396,7.821427617754253,3494.7,1059.0714133126396,7.821427617754253,3595.5,1059.0714133126396,7.821427617754253,3699.3,1059.0714133126396,7.821427617754253,3805,1059.0714133126396,7.821427617754253,3908.6,1059.0714133126396,7.821427617754253,4024.4,1059.0714133126396,7.821427617754253,4133.5,1059.0714133126396,7.821427617754253,4234.8,1059.0714133126396,7.821427617754253,4350,1059.0714133126396,7.821427617754253,4453,1059.0714133126396,7.821427617754253,4555.4,1059.0714133126396,7.821427617754253,4671.7,1059.0714133126396,7.821427617754253,4775.2,1059.0714133126396,7.821427617754253,4878.6,1059.0714133126396,7.821427617754253,4994]","[1367.8,1367.8,1000,0,367.8,""smooth"",""up"",""up"",""good_move"",4584.9,3216.6,2501.5,1368.3,715.1,""oops"",""up"",""up"",""good_move"",7638.5,3052.8,2711.9,4585.7,340.9,""oops"",""right"",""down"",""bad_move"",10737.9,3098.9,2770.1,7639,328.8,""oops"",""right"",""down"",""bad_move"",13963.6,3225.1,2905.2,10738.5,319.9,""while_blue"",""up"",""down"",""bad_move"",18030.9,4066.9,3157.1,13964,909.8,""oops"",""up"",""up"",""good_move"",20513.6,2482.4,2049.4,18031.3,433,""oops"",""up"",""right"",""good_move"",23801.6,3287.4,2873,20514.2,414.4,""oops"",""up"",""down"",""bad_move"",27169.4,3367.4,2833,23802,534.4,""oops"",""up"",""left"",""bad_move"",40824.3,13654.4,2525.2,37948.7,350.5,""smooth"",""up"",""up"",""good_move"",43360.1,2535.1,2030.1,40825,505,""oops"",""up"",""down"",""bad_move"",46445.8,3085,2643.6,43360.8,441.4,""oops"",""up"",""left"",""bad_move"",55316.4,8870,1808,53085.6,422.8,""smooth"",""up"",""up"",""good_move"",58209,2892,2484.4,55317.1,407.6,""while_blue"",""up"",""left"",""bad_move"",60980.6,2770.7,2375,58209.9,395.7,""oops"",""up"",""right"",""good_move"",63110,2128.8,1701.4,60981.2,427.4,""oops"",""up"",""down"",""bad_move"",66601.5,3490.5,3048.8,63111,441.7,""smooth"",""up"",""up"",""good_move""]","",""
"5077","","<div style=""width:500px;"">
  <p>What determined the result of this run?</p>
  </div>","0","html-slider-response","50","605004","0.0-5.0-1.8","20","1","2025-07-09 08:54:48","01610cd0009c79a99da7d0a3353eb402","212.69.57.202","Mozilla/5.0 (X11; CrOS x86_64 14541.0.0) AppleWebKit/537.36 (KHTML, like Gecko) Chrome/137.0.0.0 Safari/537.36","WebKit","Chrome","137.0.0.0","ChromeOS","14541.0.0","https://app.prolific.com/","en-GB,en;q=0.9","5d9a55cb01556d0013fa8369","683db7602f5db6a34d12d064","686e2e4cd09a323a340d8996","1","5d9a55cb01556d0013fa8369","1","2025-07-09T09:04:53.761Z","","","","","","","","","","","AttribQ","","50","","","","","","","","","","","","","","","","","","","","","","","","","","","","",""
"2489","","<div style=""width:500px;"">
  <p>How much control did you have over the ball?</p>
  </div>","1","html-slider-response","51","607496","0.0-5.0-2.8","20","1","2025-07-09 08:54:48","01610cd0009c79a99da7d0a3353eb402","212.69.57.202","Mozilla/5.0 (X11; CrOS x86_64 14541.0.0) AppleWebKit/537.36 (KHTML, like Gecko) Chrome/137.0.0.0 Safari/537.36","WebKit","Chrome","137.0.0.0","ChromeOS","14541.0.0","https://app.prolific.com/","en-GB,en;q=0.9","5d9a55cb01556d0013fa8369","683db7602f5db6a34d12d064","686e2e4cd09a323a340d8996","1","5d9a55cb01556d0013fa8369","1","2025-07-09T09:04:56.253Z","","","","","","","","","","","ControlQ","","50","","","","","","","","","","","","","","","","","","","","","","","","","","","","",""
"2860","","<div style=""width:500px;"">
  <p>How would you describe your current emotional state?</p>
  </div>","43","html-slider-response","52","610359","0.0-5.0-3.8","20","1","2025-07-09 08:54:48","01610cd0009c79a99da7d0a3353eb402","212.69.57.202","Mozilla/5.0 (X11; CrOS x86_64 14541.0.0) AppleWebKit/537.36 (KHTML, like Gecko) Chrome/137.0.0.0 Safari/537.36","WebKit","Chrome","137.0.0.0","ChromeOS","14541.0.0","https://app.prolific.com/","en-GB,en;q=0.9","5d9a55cb01556d0013fa8369","683db7602f5db6a34d12d064","686e2e4cd09a323a340d8996","1","5d9a55cb01556d0013fa8369","1","2025-07-09T09:04:59.116Z","","","","","","","","","","","StressQ","","50","","","","","","","","","","","","","","","","","","","","","","","","","","","","",""
"2171","","<div style=""width:500px;"">
  <p>What best describes how you currently feel?</p>
  </div>","4","html-slider-response","53","612533","0.0-5.0-4.8","20","1","2025-07-09 08:54:48","01610cd0009c79a99da7d0a3353eb402","212.69.57.202","Mozilla/5.0 (X11; CrOS x86_64 14541.0.0) AppleWebKit/537.36 (KHTML, like Gecko) Chrome/137.0.0.0 Safari/537.36","WebKit","Chrome","137.0.0.0","ChromeOS","14541.0.0","https://app.prolific.com/","en-GB,en;q=0.9","5d9a55cb01556d0013fa8369","683db7602f5db6a34d12d064","686e2e4cd09a323a340d8996","1","5d9a55cb01556d0013fa8369","1","2025-07-09T09:05:01.290Z","","","","","","","","","","","MotivationQ","","50","","","","","","","","","","","","","","","","","","","","","","","","","","","","",""
"","","","","ctl-task-cpt","54","661974","0.0-5.0-0.9","20","1","2025-07-09 08:54:48","01610cd0009c79a99da7d0a3353eb402","212.69.57.202","Mozilla/5.0 (X11; CrOS x86_64 14541.0.0) AppleWebKit/537.36 (KHTML, like Gecko) Chrome/137.0.0.0 Safari/537.36","WebKit","Chrome","137.0.0.0","ChromeOS","14541.0.0","https://app.prolific.com/","en-GB,en;q=0.9","5d9a55cb01556d0013fa8369","683db7602f5db6a34d12d064","686e2e4cd09a323a340d8996","1","5d9a55cb01556d0013fa8369","1","2025-07-09T09:05:50.731Z","","","","","","","","","","","","","","win-only","3","g1:SW,g2:NE","0.4","10","0","613723.3","1504.2","6506.4","46400.3","1","4","8","6","1","1","1","1","0","0.007575757575757576","2073.3","3000","1960","[""down"",""left""]","{""num_key_presses"":10,""num_perfect"":4,""num_errors"":0,""num_randdir"":6,""num_randdir_good_moves"":3,""num_whilered"":0,""num_whileblue"":0,""num_blue"":2,""num_good_moves"":7}","[414.0714133126395,407.82142761775424,0.4,414.0714133126395,407.82142761775424,107.7,414.0714133126395,407.82142761775424,213.9,414.0714133126395,407.82142761775424,320.9,414.0714133126395,407.82142761775424,429.5,414.0714133126395,407.82142761775424,537.8,414.0714133126395,407.82142761775424,640,414.0714133126395,407.82142761775424,749.3,414.0714133126395,407.82142761775424,874,212.8214133126395,526.5714276177542,979.9,165.3214133126395,565.3214276177542,1084.3,139.0714133126395,599.0714276177542,1186.9,112.8214133126395,646.5714276177542,1295.5,106.5714133126395,652.8214276177542,1401.9,105.3214133126395,652.8214276177542,1504.2,105.3214133126395,652.8214276177542,1609.5,105.3214133126395,652.8214276177542,1718.3,35.32141331263951,802.8214276177542,1820.9,34.07141331263951,804.0714276177542,1926.5,34.07141331263951,804.0714276177542,2031.9,34.07141331263951,804.0714276177542,2138.7,34.07141331263951,804.0714276177542,2256.5,34.07141331263951,804.0714276177542,2359.4,622.8214133126395,646.5714276177542,2471.6,1134.0714133126396,591.5714276177542,2583.5,1155.3214133126396,586.5714276177542,2688.8,1159.0714133126396,581.5714276177542,2797.5,1159.0714133126396,581.5714276177542,2907.1,1159.0714133126396,581.5714276177542,3016.4,1159.0714133126396,581.5714276177542,3117.3,1159.0714133126396,581.5714276177542,3225,1159.0714133126396,581.5714276177542,3331.3,1159.0714133126396,581.5714276177542,3436.2,1159.0714133126396,581.5714276177542,3537.8,1159.0714133126396,581.5714276177542,3639.7,1159.0714133126396,581.5714276177542,3743.8,1159.0714133126396,581.5714276177542,3850.6,1159.0714133126396,581.5714276177542,3955.7,1159.0714133126396,581.5714276177542,4068.4,1159.0714133126396,581.5714276177542,4184.7,1159.0714133126396,581.5714276177542,4290.7,1159.0714133126396,581.5714276177542,4407.7,1159.0714133126396,581.5714276177542,4510.6,1159.0714133126396,581.5714276177542,4614,1159.0714133126396,581.5714276177542,4720.3,1159.0714133126396,581.5714276177542,4825.8,1159.0714133126396,581.5714276177542,4933]","[1457.2,1457.2,1000,0,457.2,""smooth"",""down"",""down"",""good_move"",4310.7,2852.6,2503,1458.1,349.6,""smooth"",""down"",""down"",""good_move"",6778.9,2467.4,1978.4,4311.5,489,""smooth"",""left"",""left"",""good_move"",10160.8,3381.1,1721.1,6779.7,1660,""oops"",""left"",""right"",""bad_move"",15918.5,5757.1,2199.5,13267,452,""smooth"",""left"",""left"",""good_move"",19608.5,3689.6,2688,15918.9,1001.6,""oops"",""left"",""up"",""bad_move"",23568.5,3959.5,2225.4,19609.1,1734,""oops"",""left"",""left"",""good_move"",28022.7,4453.7,2371.9,23569,2081.8,""oops"",""down"",""up"",""bad_move"",33261.8,5238.6,2700.6,28023.2,2538,""oops"",""down"",""down"",""good_move"",39268.3,6006.1,2138.2,36701.1,429,""oops"",""down"",""down"",""good_move""]","",""
"3884","","<div style=""width:500px;"">
  <p>What determined the result of this run?</p>
  </div>","0","html-slider-response","55","665862","0.0-5.0-1.9","20","1","2025-07-09 08:54:48","01610cd0009c79a99da7d0a3353eb402","212.69.57.202","Mozilla/5.0 (X11; CrOS x86_64 14541.0.0) AppleWebKit/537.36 (KHTML, like Gecko) Chrome/137.0.0.0 Safari/537.36","WebKit","Chrome","137.0.0.0","ChromeOS","14541.0.0","https://app.prolific.com/","en-GB,en;q=0.9","5d9a55cb01556d0013fa8369","683db7602f5db6a34d12d064","686e2e4cd09a323a340d8996","1","5d9a55cb01556d0013fa8369","1","2025-07-09T09:05:54.619Z","","","","","","","","","","","AttribQ","","50","","","","","","","","","","","","","","","","","","","","","","","","","","","","",""
"2596","","<div style=""width:500px;"">
  <p>How much control did you have over the ball?</p>
  </div>","0","html-slider-response","56","668462","0.0-5.0-2.9","20","1","2025-07-09 08:54:48","01610cd0009c79a99da7d0a3353eb402","212.69.57.202","Mozilla/5.0 (X11; CrOS x86_64 14541.0.0) AppleWebKit/537.36 (KHTML, like Gecko) Chrome/137.0.0.0 Safari/537.36","WebKit","Chrome","137.0.0.0","ChromeOS","14541.0.0","https://app.prolific.com/","en-GB,en;q=0.9","5d9a55cb01556d0013fa8369","683db7602f5db6a34d12d064","686e2e4cd09a323a340d8996","1","5d9a55cb01556d0013fa8369","1","2025-07-09T09:05:57.220Z","","","","","","","","","","","ControlQ","","50","","","","","","","","","","","","","","","","","","","","","","","","","","","","",""
"3484","","<div style=""width:500px;"">
  <p>How would you describe your current emotional state?</p>
  </div>","42","html-slider-response","57","671951","0.0-5.0-3.9","20","1","2025-07-09 08:54:48","01610cd0009c79a99da7d0a3353eb402","212.69.57.202","Mozilla/5.0 (X11; CrOS x86_64 14541.0.0) AppleWebKit/537.36 (KHTML, like Gecko) Chrome/137.0.0.0 Safari/537.36","WebKit","Chrome","137.0.0.0","ChromeOS","14541.0.0","https://app.prolific.com/","en-GB,en;q=0.9","5d9a55cb01556d0013fa8369","683db7602f5db6a34d12d064","686e2e4cd09a323a340d8996","1","5d9a55cb01556d0013fa8369","1","2025-07-09T09:06:00.708Z","","","","","","","","","","","StressQ","","50","","","","","","","","","","","","","","","","","","","","","","","","","","","","",""
"4021","","<div style=""width:500px;"">
  <p>What best describes how you currently feel?</p>
  </div>","0","html-slider-response","58","675976","0.0-5.0-4.9","20","1","2025-07-09 08:54:48","01610cd0009c79a99da7d0a3353eb402","212.69.57.202","Mozilla/5.0 (X11; CrOS x86_64 14541.0.0) AppleWebKit/537.36 (KHTML, like Gecko) Chrome/137.0.0.0 Safari/537.36","WebKit","Chrome","137.0.0.0","ChromeOS","14541.0.0","https://app.prolific.com/","en-GB,en;q=0.9","5d9a55cb01556d0013fa8369","683db7602f5db6a34d12d064","686e2e4cd09a323a340d8996","1","5d9a55cb01556d0013fa8369","1","2025-07-09T09:06:04.733Z","","","","","","","","","","","MotivationQ","","50","","","","","","","","","","","","","","","","","","","","","","","","","","","","",""
"","","","","ctl-task-cpt","59","725787","0.0-5.0-0.10","20","1","2025-07-09 08:54:48","01610cd0009c79a99da7d0a3353eb402","212.69.57.202","Mozilla/5.0 (X11; CrOS x86_64 14541.0.0) AppleWebKit/537.36 (KHTML, like Gecko) Chrome/137.0.0.0 Safari/537.36","WebKit","Chrome","137.0.0.0","ChromeOS","14541.0.0","https://app.prolific.com/","en-GB,en;q=0.9","5d9a55cb01556d0013fa8369","683db7602f5db6a34d12d064","686e2e4cd09a323a340d8996","1","5d9a55cb01556d0013fa8369","1","2025-07-09T09:06:54.544Z","","","","","","","","","","","","","","win-only","1","g1:NE,g2:SW","0.5","11","0","677168.7","1303.6","6334.9","46745.1","1","4","4","6","2","4","4","5","1","0.03787878787878788","2747.5","3000","2700","[""down"",""left""]","{""num_key_presses"":6,""num_perfect"":3,""num_errors"":0,""num_randdir"":3,""num_randdir_good_moves"":3,""num_whilered"":0,""num_whileblue"":0,""num_blue"":3,""num_good_moves"":6}","[424.0714133126395,406.57142761775424,0.4,424.0714133126395,406.57142761775424,134.3,424.0714133126395,406.57142761775424,241,424.0714133126395,406.57142761775424,349,424.0714133126395,406.57142761775424,456.9,424.0714133126395,406.57142761775424,564.9,424.0714133126395,406.57142761775424,675.4,424.0714133126395,406.57142761775424,781.9,424.0714133126395,406.57142761775424,893.5,610.3214133126395,105.32142761775425,1003.7,647.8214133126395,59.07142761775425,1112.2,647.8214133126395,59.07142761775425,1222.5,649.0714133126395,66.57142761775425,1333.9,691.5714133126395,95.32142761775425,1443.7,709.0714133126395,106.57142761775425,1555.4,709.0714133126395,107.82142761775425,1666.7,709.0714133126395,109.07142761775425,1776.2,709.0714133126395,109.07142761775425,1887.5,706.5714133126395,109.07142761775425,2001.8,704.0714133126395,112.82142761775425,2115.1,-0.9285866873604931,665.3214276177542,2229.8,-0.9285866873604931,665.3214276177542,2337.5,0.3214133126395069,691.5714276177542,2450.7,20.321413312639507,717.8214276177542,2564.3,27.821413312639507,720.3214276177542,2676.2,29.071413312639507,720.3214276177542,2794.1,29.071413312639507,720.3214276177542,2906,29.071413312639507,720.3214276177542,3014.4,29.071413312639507,720.3214276177542,3126.3,29.071413312639507,720.3214276177542,3237.2,-107.1785866873605,707.8214276177542,3348.3,-138.4285866873605,705.3214276177542,3462.3,-140.9285866873605,704.0714276177542,3573.6,-140.9285866873605,704.0714276177542,3686.2,-140.9285866873605,704.0714276177542,3801.7,-140.9285866873605,704.0714276177542,3911.4,-140.9285866873605,704.0714276177542,4026.3,-140.9285866873605,704.0714276177542,4145.1,-140.9285866873605,704.0714276177542,4261.9,-140.9285866873605,704.0714276177542,4381.1,-140.9285866873605,704.0714276177542,4498,-140.9285866873605,704.0714276177542,4613.5,-140.9285866873605,704.0714276177542,4728.8,-140.9285866873605,704.0714276177542,4840.6,-140.9285866873605,704.0714276177542,4954.3]","[4470.6,4470.6,1829.7,2057.8,583.1,""smooth"",""down"",""down"",""good_move"",7677.5,3206.4,2796.5,4471.2,409.8,""oops"",""down"",""left"",""good_move"",14425.7,6747.4,1335.9,7678.3,5411.5,""smooth"",""down"",""down"",""good_move"",25320.3,10894.3,3456.1,21359.4,504.8,""oops"",""down"",""down"",""good_move"",29415.4,4094.7,3380.6,25320.7,714.1,""oops"",""left"",""left"",""good_move"",39376.1,9960.3,2052.5,29416,7907.6,""smooth"",""left"",""left"",""good_move""]","",""
"3199","","<div style=""width:500px;"">
  <p>What determined the result of this run?</p>
  </div>","0","html-slider-response","60","728992","0.0-5.0-1.10","20","1","2025-07-09 08:54:48","01610cd0009c79a99da7d0a3353eb402","212.69.57.202","Mozilla/5.0 (X11; CrOS x86_64 14541.0.0) AppleWebKit/537.36 (KHTML, like Gecko) Chrome/137.0.0.0 Safari/537.36","WebKit","Chrome","137.0.0.0","ChromeOS","14541.0.0","https://app.prolific.com/","en-GB,en;q=0.9","5d9a55cb01556d0013fa8369","683db7602f5db6a34d12d064","686e2e4cd09a323a340d8996","1","5d9a55cb01556d0013fa8369","1","2025-07-09T09:06:57.749Z","","","","","","","","","","","AttribQ","","50","","","","","","","","","","","","","","","","","","","","","","","","","","","","",""
"2686","","<div style=""width:500px;"">
  <p>How much control did you have over the ball?</p>
  </div>","1","html-slider-response","61","731684","0.0-5.0-2.10","20","1","2025-07-09 08:54:48","01610cd0009c79a99da7d0a3353eb402","212.69.57.202","Mozilla/5.0 (X11; CrOS x86_64 14541.0.0) AppleWebKit/537.36 (KHTML, like Gecko) Chrome/137.0.0.0 Safari/537.36","WebKit","Chrome","137.0.0.0","ChromeOS","14541.0.0","https://app.prolific.com/","en-GB,en;q=0.9","5d9a55cb01556d0013fa8369","683db7602f5db6a34d12d064","686e2e4cd09a323a340d8996","1","5d9a55cb01556d0013fa8369","1","2025-07-09T09:07:00.441Z","","","","","","","","","","","ControlQ","","50","","","","","","","","","","","","","","","","","","","","","","","","","","","","",""
"2611","","<div style=""width:500px;"">
  <p>How would you describe your current emotional state?</p>
  </div>","44","html-slider-response","62","734302","0.0-5.0-3.10","20","1","2025-07-09 08:54:48","01610cd0009c79a99da7d0a3353eb402","212.69.57.202","Mozilla/5.0 (X11; CrOS x86_64 14541.0.0) AppleWebKit/537.36 (KHTML, like Gecko) Chrome/137.0.0.0 Safari/537.36","WebKit","Chrome","137.0.0.0","ChromeOS","14541.0.0","https://app.prolific.com/","en-GB,en;q=0.9","5d9a55cb01556d0013fa8369","683db7602f5db6a34d12d064","686e2e4cd09a323a340d8996","1","5d9a55cb01556d0013fa8369","1","2025-07-09T09:07:03.059Z","","","","","","","","","","","StressQ","","50","","","","","","","","","","","","","","","","","","","","","","","","","","","","",""
"2875","","<div style=""width:500px;"">
  <p>What best describes how you currently feel?</p>
  </div>","1","html-slider-response","63","737183","0.0-5.0-4.10","20","1","2025-07-09 08:54:48","01610cd0009c79a99da7d0a3353eb402","212.69.57.202","Mozilla/5.0 (X11; CrOS x86_64 14541.0.0) AppleWebKit/537.36 (KHTML, like Gecko) Chrome/137.0.0.0 Safari/537.36","WebKit","Chrome","137.0.0.0","ChromeOS","14541.0.0","https://app.prolific.com/","en-GB,en;q=0.9","5d9a55cb01556d0013fa8369","683db7602f5db6a34d12d064","686e2e4cd09a323a340d8996","1","5d9a55cb01556d0013fa8369","1","2025-07-09T09:07:05.940Z","","","","","","","","","","","MotivationQ","","50","","","","","","","","","","","","","","","","","","","","","","","","","","","","",""
"","","","","ctl-task-cpt","64","811443","0.0-5.0-0.11","20","1","2025-07-09 08:54:48","01610cd0009c79a99da7d0a3353eb402","212.69.57.202","Mozilla/5.0 (X11; CrOS x86_64 14541.0.0) AppleWebKit/537.36 (KHTML, like Gecko) Chrome/137.0.0.0 Safari/537.36","WebKit","Chrome","137.0.0.0","ChromeOS","14541.0.0","https://app.prolific.com/","en-GB,en;q=0.9","5d9a55cb01556d0013fa8369","683db7602f5db6a34d12d064","686e2e4cd09a323a340d8996","1","5d9a55cb01556d0013fa8369","1","2025-07-09T09:08:20.200Z","","","","","","","","","","","","","","win-only","3","g1:SW,g2:NE","0.6","12","0","738377.7","2784.9","7818.4","71176.1","1","4","8","6","2","8","8","13","5","0.09848484848484848","1575.4","3000","2590","[""up"",""right""]","{""num_key_presses"":8,""num_perfect"":5,""num_errors"":0,""num_randdir"":3,""num_randdir_good_moves"":2,""num_whilered"":0,""num_whileblue"":0,""num_blue"":3,""num_good_moves"":7}","[419.0714133126395,425.32142761775424,0.5,419.0714133126395,425.32142761775424,107.6,419.0714133126395,425.32142761775424,234.2,419.0714133126395,425.32142761775424,361.3,419.0714133126395,425.32142761775424,489.7,419.0714133126395,425.32142761775424,617.3,419.0714133126395,425.32142761775424,744.5,419.0714133126395,425.32142761775424,873.3,419.0714133126395,425.32142761775424,997.8,734.0714133126395,21.571427617754253,1128.9,740.3214133126395,19.071427617754253,1257.6,735.3214133126395,61.57142761775425,1388.1,734.0714133126395,85.32142761775425,1517.5,734.0714133126395,85.32142761775425,1654.4,734.0714133126395,85.32142761775425,1783.5,734.0714133126395,85.32142761775425,1910.3,1037.8214133126396,34.07142761775425,2040.2,1082.8214133126396,39.07142761775425,2169.1,1084.0714133126396,40.32142761775425,2298.8,1084.0714133126396,40.32142761775425,2427.4,1084.0714133126396,40.32142761775425,2555.6,1084.0714133126396,40.32142761775425,2686.3,1084.0714133126396,40.32142761775425,2814.9,1084.0714133126396,40.32142761775425,2944.4,1084.0714133126396,40.32142761775425,3073.4,1084.0714133126396,40.32142761775425,3206.4,1084.0714133126396,40.32142761775425,3337.8,1084.0714133126396,40.32142761775425,3467.5,1084.0714133126396,40.32142761775425,3598.2,1084.0714133126396,40.32142761775425,3728.2,1084.0714133126396,40.32142761775425,3856.9,1084.0714133126396,40.32142761775425,3988.7,1084.0714133126396,40.32142761775425,4118.6,1084.0714133126396,40.32142761775425,4252.7,1084.0714133126396,40.32142761775425,4385.6,1084.0714133126396,40.32142761775425,4516.2,1084.0714133126396,40.32142761775425,4645.7,1084.0714133126396,40.32142761775425,4777,1084.0714133126396,40.32142761775425,4904.9]","[9236.1,9236.1,3469.3,5177.2,589.6,""smooth"",""up"",""up"",""good_move"",21072.3,11835.4,3315.8,9236.9,8519.6,""smooth"",""up"",""up"",""good_move"",36901.5,15828.8,2837.3,33480,584.2,""oops"",""up"",""up"",""good_move"",49041,12139.1,3118.7,36901.9,9020.4,""smooth"",""right"",""right"",""good_move"",53463.2,4421.4,2543.6,49041.8,1877.8,""smooth"",""right"",""right"",""good_move"",56458.3,2994.7,2469.9,53463.6,524.8,""oops"",""right"",""down"",""bad_move"",59090.5,2631.7,2086.1,56458.8,545.6,""smooth"",""right"",""right"",""good_move"",62718.5,3627.4,2909,59091.1,718.4,""oops"",""up"",""up"",""good_move""]","",""
"7763","","<div style=""width:500px;"">
  <p>What determined the result of this run?</p>
  </div>","0","html-slider-response","65","819213","0.0-5.0-1.11","20","1","2025-07-09 08:54:48","01610cd0009c79a99da7d0a3353eb402","212.69.57.202","Mozilla/5.0 (X11; CrOS x86_64 14541.0.0) AppleWebKit/537.36 (KHTML, like Gecko) Chrome/137.0.0.0 Safari/537.36","WebKit","Chrome","137.0.0.0","ChromeOS","14541.0.0","https://app.prolific.com/","en-GB,en;q=0.9","5d9a55cb01556d0013fa8369","683db7602f5db6a34d12d064","686e2e4cd09a323a340d8996","1","5d9a55cb01556d0013fa8369","1","2025-07-09T09:08:27.970Z","","","","","","","","","","","AttribQ","","50","","","","","","","","","","","","","","","","","","","","","","","","","","","","",""
"3437","","<div style=""width:500px;"">
  <p>How much control did you have over the ball?</p>
  </div>","0","html-slider-response","66","822657","0.0-5.0-2.11","20","1","2025-07-09 08:54:48","01610cd0009c79a99da7d0a3353eb402","212.69.57.202","Mozilla/5.0 (X11; CrOS x86_64 14541.0.0) AppleWebKit/537.36 (KHTML, like Gecko) Chrome/137.0.0.0 Safari/537.36","WebKit","Chrome","137.0.0.0","ChromeOS","14541.0.0","https://app.prolific.com/","en-GB,en;q=0.9","5d9a55cb01556d0013fa8369","683db7602f5db6a34d12d064","686e2e4cd09a323a340d8996","1","5d9a55cb01556d0013fa8369","1","2025-07-09T09:08:31.414Z","","","","","","","","","","","ControlQ","","50","","","","","","","","","","","","","","","","","","","","","","","","","","","","",""
"3034","","<div style=""width:500px;"">
  <p>How would you describe your current emotional state?</p>
  </div>","47","html-slider-response","67","825698","0.0-5.0-3.11","20","1","2025-07-09 08:54:48","01610cd0009c79a99da7d0a3353eb402","212.69.57.202","Mozilla/5.0 (X11; CrOS x86_64 14541.0.0) AppleWebKit/537.36 (KHTML, like Gecko) Chrome/137.0.0.0 Safari/537.36","WebKit","Chrome","137.0.0.0","ChromeOS","14541.0.0","https://app.prolific.com/","en-GB,en;q=0.9","5d9a55cb01556d0013fa8369","683db7602f5db6a34d12d064","686e2e4cd09a323a340d8996","1","5d9a55cb01556d0013fa8369","1","2025-07-09T09:08:34.455Z","","","","","","","","","","","StressQ","","50","","","","","","","","","","","","","","","","","","","","","","","","","","","","",""
"2191","","<div style=""width:500px;"">
  <p>What best describes how you currently feel?</p>
  </div>","2","html-slider-response","68","827896","0.0-5.0-4.11","20","1","2025-07-09 08:54:48","01610cd0009c79a99da7d0a3353eb402","212.69.57.202","Mozilla/5.0 (X11; CrOS x86_64 14541.0.0) AppleWebKit/537.36 (KHTML, like Gecko) Chrome/137.0.0.0 Safari/537.36","WebKit","Chrome","137.0.0.0","ChromeOS","14541.0.0","https://app.prolific.com/","en-GB,en;q=0.9","5d9a55cb01556d0013fa8369","683db7602f5db6a34d12d064","686e2e4cd09a323a340d8996","1","5d9a55cb01556d0013fa8369","1","2025-07-09T09:08:36.654Z","","","","","","","","","","","MotivationQ","","50","","","","","","","","","","","","","","","","","","","","","","","","","","","","",""
"","","","","ctl-task-cpt","69","872461","0.0-5.0-0.12","20","1","2025-07-09 08:54:48","01610cd0009c79a99da7d0a3353eb402","212.69.57.202","Mozilla/5.0 (X11; CrOS x86_64 14541.0.0) AppleWebKit/537.36 (KHTML, like Gecko) Chrome/137.0.0.0 Safari/537.36","WebKit","Chrome","137.0.0.0","ChromeOS","14541.0.0","https://app.prolific.com/","en-GB,en;q=0.9","5d9a55cb01556d0013fa8369","683db7602f5db6a34d12d064","686e2e4cd09a323a340d8996","1","5d9a55cb01556d0013fa8369","1","2025-07-09T09:09:21.219Z","","","","","","","","","","","","","","win-only","3","g1:SW,g2:NE","0.7","13","0","829091.8","1360.5","6382.1","41473.5","1","4","4","6","1","1","0","13","13","0.09848484848484848","2789.6","3000","2845","[""down"",""left""]","{""num_key_presses"":5,""num_perfect"":4,""num_errors"":1,""num_randdir"":0,""num_randdir_good_moves"":0,""num_whilered"":0,""num_whileblue"":1,""num_blue"":1,""num_good_moves"":5}","[429.0714133126395,417.82142761775424,0.3,429.0714133126395,417.82142761775424,271.9,429.0714133126395,417.82142761775424,432.9,429.0714133126395,417.82142761775424,589.8,429.0714133126395,417.82142761775424,753.6,429.0714133126395,417.82142761775424,907.4,429.0714133126395,417.82142761775424,1060,429.0714133126395,417.82142761775424,1212.5,429.0714133126395,417.82142761775424,1365.4,429.0714133126395,417.82142761775424,1517.9,429.0714133126395,417.82142761775424,1671.4,429.0714133126395,417.82142761775424,1822.7,429.0714133126395,417.82142761775424,1975.8,429.0714133126395,417.82142761775424,2129.8,429.0714133126395,417.82142761775424,2286.5,194.0714133126395,697.8214276177542,2441.8,140.3214133126395,745.3214276177542,2604.2,102.8214133126395,755.3214276177542,2760.1,102.8214133126395,755.3214276177542,2919.7,102.8214133126395,755.3214276177542,3074.3,102.8214133126395,755.3214276177542,3228.3,-47.17858668736049,740.3214276177542,3384.5,-97.1785866873605,740.3214276177542,3540.2,-97.1785866873605,740.3214276177542,3695.7,-97.1785866873605,740.3214276177542,3851.5,-97.1785866873605,740.3214276177542,4004.1,-97.1785866873605,740.3214276177542,4160.4,-97.1785866873605,740.3214276177542,4316.8,-97.1785866873605,740.3214276177542,4474.5,-97.1785866873605,740.3214276177542,4633.4,-97.1785866873605,740.3214276177542,4786.6,-97.1785866873605,740.3214276177542,4941.5]","[1643.6,1643.7,1000,0,643.7,""smooth"",""down"",""down"",""good_move"",4080.1,2436.1,1735.5,1644.1,700.5,""smooth"",""down"",""down"",""good_move"",6703.3,2622.9,1831.4,4080.4,791.5,""smooth"",""left"",""left"",""good_move"",20639.2,13935.2,2399.5,6704,11535.7,""smooth"",""left"",""left"",""good_move"",34999.9,14360.2,13572.2,20639.7,788,""while_blue"",""down"",""down"",""good_move""]","",""
"4281","","<div style=""width:500px;"">
  <p>What determined the result of this run?</p>
  </div>","0","html-slider-response","70","876749","0.0-5.0-1.12","20","1","2025-07-09 08:54:48","01610cd0009c79a99da7d0a3353eb402","212.69.57.202","Mozilla/5.0 (X11; CrOS x86_64 14541.0.0) AppleWebKit/537.36 (KHTML, like Gecko) Chrome/137.0.0.0 Safari/537.36","WebKit","Chrome","137.0.0.0","ChromeOS","14541.0.0","https://app.prolific.com/","en-GB,en;q=0.9","5d9a55cb01556d0013fa8369","683db7602f5db6a34d12d064","686e2e4cd09a323a340d8996","1","5d9a55cb01556d0013fa8369","1","2025-07-09T09:09:25.506Z","","","","","","","","","","","AttribQ","","50","","","","","","","","","","","","","","","","","","","","","","","","","","","","",""
"2702","","<div style=""width:500px;"">
  <p>How much control did you have over the ball?</p>
  </div>","0","html-slider-response","71","879459","0.0-5.0-2.12","20","1","2025-07-09 08:54:48","01610cd0009c79a99da7d0a3353eb402","212.69.57.202","Mozilla/5.0 (X11; CrOS x86_64 14541.0.0) AppleWebKit/537.36 (KHTML, like Gecko) Chrome/137.0.0.0 Safari/537.36","WebKit","Chrome","137.0.0.0","ChromeOS","14541.0.0","https://app.prolific.com/","en-GB,en;q=0.9","5d9a55cb01556d0013fa8369","683db7602f5db6a34d12d064","686e2e4cd09a323a340d8996","1","5d9a55cb01556d0013fa8369","1","2025-07-09T09:09:28.216Z","","","","","","","","","","","ControlQ","","50","","","","","","","","","","","","","","","","","","","","","","","","","","","","",""
"3577","","<div style=""width:500px;"">
  <p>How would you describe your current emotional state?</p>
  </div>","46","html-slider-response","72","883043","0.0-5.0-3.12","20","1","2025-07-09 08:54:48","01610cd0009c79a99da7d0a3353eb402","212.69.57.202","Mozilla/5.0 (X11; CrOS x86_64 14541.0.0) AppleWebKit/537.36 (KHTML, like Gecko) Chrome/137.0.0.0 Safari/537.36","WebKit","Chrome","137.0.0.0","ChromeOS","14541.0.0","https://app.prolific.com/","en-GB,en;q=0.9","5d9a55cb01556d0013fa8369","683db7602f5db6a34d12d064","686e2e4cd09a323a340d8996","1","5d9a55cb01556d0013fa8369","1","2025-07-09T09:09:31.800Z","","","","","","","","","","","StressQ","","50","","","","","","","","","","","","","","","","","","","","","","","","","","","","",""
"2064","","<div style=""width:500px;"">
  <p>What best describes how you currently feel?</p>
  </div>","0","html-slider-response","73","885114","0.0-5.0-4.12","20","1","2025-07-09 08:54:48","01610cd0009c79a99da7d0a3353eb402","212.69.57.202","Mozilla/5.0 (X11; CrOS x86_64 14541.0.0) AppleWebKit/537.36 (KHTML, like Gecko) Chrome/137.0.0.0 Safari/537.36","WebKit","Chrome","137.0.0.0","ChromeOS","14541.0.0","https://app.prolific.com/","en-GB,en;q=0.9","5d9a55cb01556d0013fa8369","683db7602f5db6a34d12d064","686e2e4cd09a323a340d8996","1","5d9a55cb01556d0013fa8369","1","2025-07-09T09:09:33.871Z","","","","","","","","","","","MotivationQ","","50","","","","","","","","","","","","","","","","","","","","","","","","","","","","",""
"","","","","ctl-task-cpt","74","946988","0.0-5.0-0.13","20","1","2025-07-09 08:54:48","01610cd0009c79a99da7d0a3353eb402","212.69.57.202","Mozilla/5.0 (X11; CrOS x86_64 14541.0.0) AppleWebKit/537.36 (KHTML, like Gecko) Chrome/137.0.0.0 Safari/537.36","WebKit","Chrome","137.0.0.0","ChromeOS","14541.0.0","https://app.prolific.com/","en-GB,en;q=0.9","5d9a55cb01556d0013fa8369","683db7602f5db6a34d12d064","686e2e4cd09a323a340d8996","1","5d9a55cb01556d0013fa8369","1","2025-07-09T09:10:35.745Z","","","","","","","","","","","","","","win-only","3","g1:SW,g2:NE","0.8","14","0","886308","1443.7","6464.6","58847.3","1","4","8","6","1","1","0","13","13","0.09848484848484848","2291.3","3000","2630","[""down"",""left""]","{""num_key_presses"":6,""num_perfect"":4,""num_errors"":1,""num_randdir"":1,""num_randdir_good_moves"":1,""num_whilered"":0,""num_whileblue"":1,""num_blue"":1,""num_good_moves"":5}","[411.5714133126395,414.07142761775424,0.7,411.5714133126395,414.07142761775424,110.8,411.5714133126395,414.07142761775424,284,411.5714133126395,414.07142761775424,456.9,411.5714133126395,414.07142761775424,630.3,411.5714133126395,414.07142761775424,805.6,411.5714133126395,414.07142761775424,978,716.5714133126395,49.07142761775425,1155.1,719.0714133126395,47.82142761775425,1329.7,719.0714133126395,47.82142761775425,1503.4,719.0714133126395,47.82142761775425,1677.5,164.0714133126395,484.07142761775424,1855.2,55.32141331263951,702.8214276177542,2031.4,57.82141331263951,720.3214276177542,2210.8,59.07141331263951,722.8214276177542,2388.3,59.07141331263951,722.8214276177542,2563.8,59.07141331263951,722.8214276177542,2737.4,59.07141331263951,722.8214276177542,2910.4,-350.9285866873605,730.3214276177542,3089,-350.9285866873605,730.3214276177542,3268.4,-350.9285866873605,730.3214276177542,3442.9,-350.9285866873605,730.3214276177542,3617,-350.9285866873605,730.3214276177542,3793.2,-350.9285866873605,730.3214276177542,3967.9,-350.9285866873605,730.3214276177542,4143.7,-350.9285866873605,730.3214276177542,4320.5,-350.9285866873605,730.3214276177542,4495.8,-350.9285866873605,730.3214276177542,4670.6,-350.9285866873605,730.3214276177542,4845.4]","[1585.6,1585.6,1000,0,585.6,""smooth"",""down"",""down"",""good_move"",5149.7,3547.1,3026.1,1602.6,521.1,""smooth"",""down"",""down"",""good_move"",8958.1,3807.7,3010.5,5150.4,797.2,""while_blue"",""down"",""up"",""bad_move"",27993.6,19035,2817.7,8958.7,16217.3,""smooth"",""left"",""left"",""good_move"",48396.3,20402.1,2093.3,27994.2,18308.8,""smooth"",""left"",""left"",""good_move"",51515.9,3119.2,2232.6,48396.7,886.6,""oops"",""down"",""down"",""good_move""]","",""
"3987","","<div style=""width:500px;"">
  <p>What determined the result of this run?</p>
  </div>","0","html-slider-response","75","950978","0.0-5.0-1.13","20","1","2025-07-09 08:54:48","01610cd0009c79a99da7d0a3353eb402","212.69.57.202","Mozilla/5.0 (X11; CrOS x86_64 14541.0.0) AppleWebKit/537.36 (KHTML, like Gecko) Chrome/137.0.0.0 Safari/537.36","WebKit","Chrome","137.0.0.0","ChromeOS","14541.0.0","https://app.prolific.com/","en-GB,en;q=0.9","5d9a55cb01556d0013fa8369","683db7602f5db6a34d12d064","686e2e4cd09a323a340d8996","1","5d9a55cb01556d0013fa8369","1","2025-07-09T09:10:39.735Z","","","","","","","","","","","AttribQ","","50","","","","","","","","","","","","","","","","","","","","","","","","","","","","",""
"2979","","<div style=""width:500px;"">
  <p>How much control did you have over the ball?</p>
  </div>","2","html-slider-response","76","953958","0.0-5.0-2.13","20","1","2025-07-09 08:54:48","01610cd0009c79a99da7d0a3353eb402","212.69.57.202","Mozilla/5.0 (X11; CrOS x86_64 14541.0.0) AppleWebKit/537.36 (KHTML, like Gecko) Chrome/137.0.0.0 Safari/537.36","WebKit","Chrome","137.0.0.0","ChromeOS","14541.0.0","https://app.prolific.com/","en-GB,en;q=0.9","5d9a55cb01556d0013fa8369","683db7602f5db6a34d12d064","686e2e4cd09a323a340d8996","1","5d9a55cb01556d0013fa8369","1","2025-07-09T09:10:42.716Z","","","","","","","","","","","ControlQ","","50","","","","","","","","","","","","","","","","","","","","","","","","","","","","",""
"3006","","<div style=""width:500px;"">
  <p>How would you describe your current emotional state?</p>
  </div>","44","html-slider-response","77","956967","0.0-5.0-3.13","20","1","2025-07-09 08:54:48","01610cd0009c79a99da7d0a3353eb402","212.69.57.202","Mozilla/5.0 (X11; CrOS x86_64 14541.0.0) AppleWebKit/537.36 (KHTML, like Gecko) Chrome/137.0.0.0 Safari/537.36","WebKit","Chrome","137.0.0.0","ChromeOS","14541.0.0","https://app.prolific.com/","en-GB,en;q=0.9","5d9a55cb01556d0013fa8369","683db7602f5db6a34d12d064","686e2e4cd09a323a340d8996","1","5d9a55cb01556d0013fa8369","1","2025-07-09T09:10:45.724Z","","","","","","","","","","","StressQ","","50","","","","","","","","","","","","","","","","","","","","","","","","","","","","",""
"2418","","<div style=""width:500px;"">
  <p>What best describes how you currently feel?</p>
  </div>","0","html-slider-response","78","959387","0.0-5.0-4.13","20","1","2025-07-09 08:54:48","01610cd0009c79a99da7d0a3353eb402","212.69.57.202","Mozilla/5.0 (X11; CrOS x86_64 14541.0.0) AppleWebKit/537.36 (KHTML, like Gecko) Chrome/137.0.0.0 Safari/537.36","WebKit","Chrome","137.0.0.0","ChromeOS","14541.0.0","https://app.prolific.com/","en-GB,en;q=0.9","5d9a55cb01556d0013fa8369","683db7602f5db6a34d12d064","686e2e4cd09a323a340d8996","1","5d9a55cb01556d0013fa8369","1","2025-07-09T09:10:48.145Z","","","","","","","","","","","MotivationQ","","50","","","","","","","","","","","","","","","","","","","","","","","","","","","","",""
