"rt","response_timestamp","stimulus","response","trial_type","trial_index","time_elapsed","internal_node_id","run_id","condition","recorded_at","source_code_version","ip","user_agent","device","browser","browser_version","platform","platform_version","referer","accept_language","PROLIFIC_PID","STUDY_ID","SESSION_ID","WEEK","BATCH","prolific_id","week","batch","realtime","success","responses","item_order","radio_event_ids","radio_event_times","key_event_times","mouse_event_times","straightlining","zigzagging","honeypot","eventType","view_history","slider_start","which_type","canvas_config","goals_layout","control_level","trial_number","tutorial_trial_number","trial_start_time","phase1_start_time","phase2_start_time","phase3_start_time","goal_1_value","goal_1_distance","goal_2_value","goal_2_distance","goal_selected","outcome","outcome_total","participant_final_score","participant_initial_score","participant_final_score_prop","goal_choice_rt","allocated_time","allocated_time_remaining","goal_direction","counts","mouse_movements","key_presses","question_order","question_id"
"2415","1753256777139","<p style='font-size:40px;line-height:1.25'><strong>Welcome to the experiment!</strong></p><p style='font-size:1.1em;line-height:1.25'>Thank you for participanting in our experiment again! You will be asked to play the Dysfunctional Ball Game again. We will briefly recap the rules before we start.</p><p style='font-size:1.1em;line-height:1.25'>Press <strong>Next</strong> to continue.</p>","0","custom-html-button-response","0","2417","0.0-0.0","185","1","2025-07-23 07:46:13","1f75c3e559b7213887762d5229550c2b","41.74.177.238","Mozilla/5.0 (Windows NT 10.0; Win64; x64) AppleWebKit/537.36 (KHTML, like Gecko) Chrome/138.0.0.0 Safari/537.36 Edg/138.0.0.0","WebKit","Edge","138.0.0.0","Windows","10.0","https://app.prolific.com/","en-US,en;q=0.9,en-ZA;q=0.8","6122f45e2e93a3ff9a7b7a5d","683db9eb0562dbf637994deb","6880930e8fda0b342f90c6da","2","1","6122f45e2e93a3ff9a7b7a5d","2","1","2025-07-23T07:46:17.141Z","","","","","","","","","","","","","","","","","","","","","","","","","","","","","","","","","","","","","","","","","",""
"19549","","","","fullscreen","1","22981","0.0-1.0","185","1","2025-07-23 07:46:13","1f75c3e559b7213887762d5229550c2b","41.74.177.238","Mozilla/5.0 (Windows NT 10.0; Win64; x64) AppleWebKit/537.36 (KHTML, like Gecko) Chrome/138.0.0.0 Safari/537.36 Edg/138.0.0.0","WebKit","Edge","138.0.0.0","Windows","10.0","https://app.prolific.com/","en-US,en;q=0.9,en-ZA;q=0.8","6122f45e2e93a3ff9a7b7a5d","683db9eb0562dbf637994deb","6880930e8fda0b342f90c6da","2","1","6122f45e2e93a3ff9a7b7a5d","2","1","","true","","","","","","","","","","","","","","","","","","","","","","","","","","","","","","","","","","","","","","","","",""
"1985","1753256799690","<p style='font-size:1.1em;line-height:1.25'>In the following, we will ask you a few questions relating to your feelings in the last 24 hours.<br></p><p style='font-size:1.1em;line-height:1.25'>Press the <strong>Next</strong> button to continue.</p>","0","custom-html-button-response","2","24968","0.0-2.0-0.0","185","1","2025-07-23 07:46:13","1f75c3e559b7213887762d5229550c2b","41.74.177.238","Mozilla/5.0 (Windows NT 10.0; Win64; x64) AppleWebKit/537.36 (KHTML, like Gecko) Chrome/138.0.0.0 Safari/537.36 Edg/138.0.0.0","WebKit","Edge","138.0.0.0","Windows","10.0","https://app.prolific.com/","en-US,en;q=0.9,en-ZA;q=0.8","6122f45e2e93a3ff9a7b7a5d","683db9eb0562dbf637994deb","6880930e8fda0b342f90c6da","2","1","6122f45e2e93a3ff9a7b7a5d","2","1","2025-07-23T07:46:39.691Z","","","","","","","","","","","","","","","","","","","","","","","","","","","","","","","","","","","","","","","","","",""
"73187.30000007153","","","","survey-template","3","98162","0.0-2.0-1.0","185","1","2025-07-23 07:46:13","1f75c3e559b7213887762d5229550c2b","41.74.177.238","Mozilla/5.0 (Windows NT 10.0; Win64; x64) AppleWebKit/537.36 (KHTML, like Gecko) Chrome/138.0.0.0 Safari/537.36 Edg/138.0.0.0","WebKit","Edge","138.0.0.0","Windows","10.0","https://app.prolific.com/","en-US,en;q=0.9,en-ZA;q=0.8","6122f45e2e93a3ff9a7b7a5d","683db9eb0562dbf637994deb","6880930e8fda0b342f90c6da","2","1","6122f45e2e93a3ff9a7b7a5d","2","1","2025-07-23T07:47:52.886Z","","{""Q01"":""2"",""Q02"":""3"",""Q03"":""1"",""Q04"":""3"",""Q05"":""4"",""Q06"":""4"",""Q07"":""3"",""Q08"":""3"",""Q09"":""2"",""Q10"":""2"",""Q11"":""3"",""Q12"":""3"",""Q13"":""5"",""Q14"":""3"",""Q15"":""3"",""Q16"":""2"",""Q17"":""2"",""Q18"":""2"",""Q19"":""3"",""Q20"":""2"",""Q21"":""2"",""Q22"":""3""}","[0,1,2,3,4,5,6,7,8,9,10,11,12,13,14,15,16,17,18,19,20,21]","[""Q01"",""Q02"",""Q03"",""Q04"",""Q05"",""Q06"",""Q07"",""Q08"",""Q09"",""Q10"",""Q11"",""Q12"",""Q13"",""Q14"",""Q15"",""Q16"",""Q17"",""Q18"",""Q19"",""Q20"",""Q21"",""Q22""]","[4053.2000000476837,6027.600000023842,9746.900000095367,13406.700000047684,16139.300000071526,18856.700000047684,20332.900000095367,24414.800000071526,27168.600000023842,28713.600000023842,30660.200000047684,33148.90000009537,35646.200000047684,39244.5,46683,50432.800000071526,51801.10000002384,54529.300000071526,60846.300000071526,66764.40000009537,69614.80000007153,72179.30000007153]","[]","[0.10000002384185791,4053.2000000476837,6027.600000023842,9746.900000095367,13406.700000047684,16139.300000071526,18856.700000047684,20332.900000095367,24414.800000071526,27168.600000023842,28713.600000023842,30660.200000047684,33148.90000009537,35646.200000047684,38742.700000047684,39244.5,46683,50432.800000071526,51801.10000002384,53130,54112.40000009537,54529.300000071526,60846.300000071526,66764.40000009537,69614.80000007153,72179.30000007153,73173.10000002384]","0.45454545454545453","0.42857142857142855","0","drsp","","","","","","","","","","","","","","","","","","","","","","","","","","","","","","",""
"10025.799999952316","","","","survey-template","4","108192","0.0-2.0-2.0","185","1","2025-07-23 07:46:13","1f75c3e559b7213887762d5229550c2b","41.74.177.238","Mozilla/5.0 (Windows NT 10.0; Win64; x64) AppleWebKit/537.36 (KHTML, like Gecko) Chrome/138.0.0.0 Safari/537.36 Edg/138.0.0.0","WebKit","Edge","138.0.0.0","Windows","10.0","https://app.prolific.com/","en-US,en;q=0.9,en-ZA;q=0.8","6122f45e2e93a3ff9a7b7a5d","683db9eb0562dbf637994deb","6880930e8fda0b342f90c6da","2","1","6122f45e2e93a3ff9a7b7a5d","2","1","2025-07-23T07:48:02.916Z","","{""Q01"":""3"",""Q02"":""3"",""Q03"":""3""}","[0,1,2]","[""Q01"",""Q02"",""Q03""]","[3039.899999976158,5571.799999952316,8974.299999952316]","[]","[3039.899999976158,5571.799999952316,8974.299999952316,10023.599999904633]","0.6666666666666666","1","0","stress","","","","","","","","","","","","","","","","","","","","","","","","","","","","","","",""
"14540","","","","instructions","5","122736","0.0-3.0-0.0","185","1","2025-07-23 07:46:13","1f75c3e559b7213887762d5229550c2b","41.74.177.238","Mozilla/5.0 (Windows NT 10.0; Win64; x64) AppleWebKit/537.36 (KHTML, like Gecko) Chrome/138.0.0.0 Safari/537.36 Edg/138.0.0.0","WebKit","Edge","138.0.0.0","Windows","10.0","https://app.prolific.com/","en-US,en;q=0.9,en-ZA;q=0.8","6122f45e2e93a3ff9a7b7a5d","683db9eb0562dbf637994deb","6880930e8fda0b342f90c6da","2","1","6122f45e2e93a3ff9a7b7a5d","2","1","","","","","","","","","","","","","[{""page_index"":0,""viewing_time"":14540}]","","","","","","","","","","","","","","","","","","","","","","","","","","","","","",""
"7801","","<p>Before you start with this game please answer the following three questions yourself. </p>
  <p>Through this game, we measure several aspects of your cognitive performance, such as reaction times, multi-tasking capabilities </p>
  <p>and the ability to assess the situation you are in.</p>
  <p></p>
  <p><b>How good do you usually are in such tasks?</b></p>","65","html-slider-response","6","130539","0.0-4.0-0.0","185","1","2025-07-23 07:46:13","1f75c3e559b7213887762d5229550c2b","41.74.177.238","Mozilla/5.0 (Windows NT 10.0; Win64; x64) AppleWebKit/537.36 (KHTML, like Gecko) Chrome/138.0.0.0 Safari/537.36 Edg/138.0.0.0","WebKit","Edge","138.0.0.0","Windows","10.0","https://app.prolific.com/","en-US,en;q=0.9,en-ZA;q=0.8","6122f45e2e93a3ff9a7b7a5d","683db9eb0562dbf637994deb","6880930e8fda0b342f90c6da","2","1","6122f45e2e93a3ff9a7b7a5d","2","1","2025-07-23T07:48:25.263Z","","","","","","","","","","","PreSkillQ","","50","","","","","","","","","","","","","","","","","","","","","","","","","","","","",""
"3740","","<div style=""width:500px;"">
  <p>How well do you think you will perform in this task compared to other participants?</p>
  </div>","64","html-slider-response","7","134282","0.0-4.0-1.0","185","1","2025-07-23 07:46:13","1f75c3e559b7213887762d5229550c2b","41.74.177.238","Mozilla/5.0 (Windows NT 10.0; Win64; x64) AppleWebKit/537.36 (KHTML, like Gecko) Chrome/138.0.0.0 Safari/537.36 Edg/138.0.0.0","WebKit","Edge","138.0.0.0","Windows","10.0","https://app.prolific.com/","en-US,en;q=0.9,en-ZA;q=0.8","6122f45e2e93a3ff9a7b7a5d","683db9eb0562dbf637994deb","6880930e8fda0b342f90c6da","2","1","6122f45e2e93a3ff9a7b7a5d","2","1","2025-07-23T07:48:29.005Z","","","","","","","","","","","PrePerfQ","","50","","","","","","","","","","","","","","","","","","","","","","","","","","","","",""
"6184","","<div style=""width:500px;"">
  <p>What best describes how you currently feel?</p>
  </div>","34","html-slider-response","8","140469","0.0-4.0-2.0","185","1","2025-07-23 07:46:13","1f75c3e559b7213887762d5229550c2b","41.74.177.238","Mozilla/5.0 (Windows NT 10.0; Win64; x64) AppleWebKit/537.36 (KHTML, like Gecko) Chrome/138.0.0.0 Safari/537.36 Edg/138.0.0.0","WebKit","Edge","138.0.0.0","Windows","10.0","https://app.prolific.com/","en-US,en;q=0.9,en-ZA;q=0.8","6122f45e2e93a3ff9a7b7a5d","683db9eb0562dbf637994deb","6880930e8fda0b342f90c6da","2","1","6122f45e2e93a3ff9a7b7a5d","2","1","2025-07-23T07:48:35.192Z","","","","","","","","","","","PreMotivationQ","","50","","","","","","","","","","","","","","","","","","","","","","","","","","","","",""
"","","","","ctl-task-cpt","9","160530","0.0-5.0-0.0","185","1","2025-07-23 07:46:13","1f75c3e559b7213887762d5229550c2b","41.74.177.238","Mozilla/5.0 (Windows NT 10.0; Win64; x64) AppleWebKit/537.36 (KHTML, like Gecko) Chrome/138.0.0.0 Safari/537.36 Edg/138.0.0.0","WebKit","Edge","138.0.0.0","Windows","10.0","https://app.prolific.com/","en-US,en;q=0.9,en-ZA;q=0.8","6122f45e2e93a3ff9a7b7a5d","683db9eb0562dbf637994deb","6880930e8fda0b342f90c6da","2","1","6122f45e2e93a3ff9a7b7a5d","2","1","2025-07-23T07:48:55.254Z","","","","","","","","","","","","","","win-only","1","g1:NE,g2:SW","1","1","0","142899.8","1980.7","6986.7","17047.6","1","4","4","6","1","1","1","1","0","0.007575757575757576","1360.3","3000","1420","[""up"",""right""]","{""num_key_presses"":4,""num_perfect"":4,""num_errors"":0,""num_randdir"":0,""num_randdir_good_moves"":0,""num_whilered"":0,""num_whileblue"":0,""num_blue"":0,""num_good_moves"":4}","[407.57142857142856,411.6808016640799,0.6,407.57142857142856,411.6808016640799,105.7,407.57142857142856,411.6808016640799,206.2,407.57142857142856,411.6808016640799,311,407.57142857142856,411.6808016640799,415.5,407.57142857142856,411.6808016640799,516.8,400.07142857142856,414.6808016640799,622.3,368.57142857142856,428.1808016640799,722.5,385.07142857142856,431.1808016640799,822.5,610.0714285714286,279.6808016640799,925.8,694.0714285714286,158.18080166407992,1030.9,713.5714285714286,122.18080166407994,1139.7,743.5714285714286,75.68080166407994,1243.9,746.5714285714286,74.18080166407994,1345.5,746.5714285714286,74.18080166407994,1454.3,746.5714285714286,74.18080166407994,1555.8,809.5714285714286,158.18080166407992,1655.8,910.0714285714286,206.18080166407992,1755.8,976.0714285714286,242.18080166407992,1856.3,976.0714285714286,242.18080166407992,1957.6,976.0714285714286,242.18080166407992,2059.9,976.0714285714286,242.18080166407992,2161.2,976.0714285714286,242.18080166407992,2265.2,976.0714285714286,242.18080166407992,2366,976.0714285714286,242.18080166407992,2472.6,976.0714285714286,242.18080166407992,2575.5,976.0714285714286,242.18080166407992,2680.6,976.0714285714286,242.18080166407992,2790.4,976.0714285714286,242.18080166407992,2890.5,976.0714285714286,242.18080166407992,2995.6,976.0714285714286,242.18080166407992,3105.7,976.0714285714286,242.18080166407992,3210.8,976.0714285714286,242.18080166407992,3315.8,976.0714285714286,242.18080166407992,3416.7,976.0714285714286,242.18080166407992,3516.8,976.0714285714286,242.18080166407992,3622.3,976.0714285714286,242.18080166407992,3722.4,976.0714285714286,242.18080166407992,3825,976.0714285714286,242.18080166407992,3925.8,976.0714285714286,242.18080166407992,4031.7,976.0714285714286,242.18080166407992,4140.9,976.0714285714286,242.18080166407992,4246,976.0714285714286,242.18080166407992,4346.9,976.0714285714286,242.18080166407992,4455.6,976.0714285714286,242.18080166407992,4557.9,976.0714285714286,242.18080166407992,4660.8,976.0714285714286,242.18080166407992,4761,976.0714285714286,242.18080166407992,4865.8,976.0714285714286,242.18080166407992,4965.8]","[1473.1,1473.1,1000,0,473.1,""smooth"",""up"",""up"",""good_move"",4124.3,2650.9,2156.7,1473.4,494.2,""smooth"",""up"",""up"",""good_move"",7252,3126.9,2729.6,4125.1,397.3,""smooth"",""right"",""right"",""good_move"",9953.4,2701.2,2286.8,7252.2,414.4,""smooth"",""right"",""right"",""good_move""]","",""
"5056","","<div style=""width:500px;"">
  <p>What determined the result of this run?</p>
  </div>","89","html-slider-response","10","165590","0.0-5.0-1.0","185","1","2025-07-23 07:46:13","1f75c3e559b7213887762d5229550c2b","41.74.177.238","Mozilla/5.0 (Windows NT 10.0; Win64; x64) AppleWebKit/537.36 (KHTML, like Gecko) Chrome/138.0.0.0 Safari/537.36 Edg/138.0.0.0","WebKit","Edge","138.0.0.0","Windows","10.0","https://app.prolific.com/","en-US,en;q=0.9,en-ZA;q=0.8","6122f45e2e93a3ff9a7b7a5d","683db9eb0562dbf637994deb","6880930e8fda0b342f90c6da","2","1","6122f45e2e93a3ff9a7b7a5d","2","1","2025-07-23T07:49:00.313Z","","","","","","","","","","","AttribQ","","50","","","","","","","","","","","","","","","","","","","","","","","","","","","","",""
"2707","","<div style=""width:500px;"">
  <p>How much control did you have over the ball?</p>
  </div>","100","html-slider-response","11","168300","0.0-5.0-2.0","185","1","2025-07-23 07:46:13","1f75c3e559b7213887762d5229550c2b","41.74.177.238","Mozilla/5.0 (Windows NT 10.0; Win64; x64) AppleWebKit/537.36 (KHTML, like Gecko) Chrome/138.0.0.0 Safari/537.36 Edg/138.0.0.0","WebKit","Edge","138.0.0.0","Windows","10.0","https://app.prolific.com/","en-US,en;q=0.9,en-ZA;q=0.8","6122f45e2e93a3ff9a7b7a5d","683db9eb0562dbf637994deb","6880930e8fda0b342f90c6da","2","1","6122f45e2e93a3ff9a7b7a5d","2","1","2025-07-23T07:49:03.023Z","","","","","","","","","","","ControlQ","","50","","","","","","","","","","","","","","","","","","","","","","","","","","","","",""
"7251","","<div style=""width:500px;"">
  <p>How would you describe your current emotional state?</p>
  </div>","66","html-slider-response","12","175554","0.0-5.0-3.0","185","1","2025-07-23 07:46:13","1f75c3e559b7213887762d5229550c2b","41.74.177.238","Mozilla/5.0 (Windows NT 10.0; Win64; x64) AppleWebKit/537.36 (KHTML, like Gecko) Chrome/138.0.0.0 Safari/537.36 Edg/138.0.0.0","WebKit","Edge","138.0.0.0","Windows","10.0","https://app.prolific.com/","en-US,en;q=0.9,en-ZA;q=0.8","6122f45e2e93a3ff9a7b7a5d","683db9eb0562dbf637994deb","6880930e8fda0b342f90c6da","2","1","6122f45e2e93a3ff9a7b7a5d","2","1","2025-07-23T07:49:10.277Z","","","","","","","","","","","StressQ","","50","","","","","","","","","","","","","","","","","","","","","","","","","","","","",""
"5941","","<div style=""width:500px;"">
  <p>What best describes how you currently feel?</p>
  </div>","38","html-slider-response","13","181497","0.0-5.0-4.0","185","1","2025-07-23 07:46:13","1f75c3e559b7213887762d5229550c2b","41.74.177.238","Mozilla/5.0 (Windows NT 10.0; Win64; x64) AppleWebKit/537.36 (KHTML, like Gecko) Chrome/138.0.0.0 Safari/537.36 Edg/138.0.0.0","WebKit","Edge","138.0.0.0","Windows","10.0","https://app.prolific.com/","en-US,en;q=0.9,en-ZA;q=0.8","6122f45e2e93a3ff9a7b7a5d","683db9eb0562dbf637994deb","6880930e8fda0b342f90c6da","2","1","6122f45e2e93a3ff9a7b7a5d","2","1","2025-07-23T07:49:16.220Z","","","","","","","","","","","MotivationQ","","50","","","","","","","","","","","","","","","","","","","","","","","","","","","","",""
"","","","","ctl-task-cpt","14","212093","0.0-5.0-0.1","185","1","2025-07-23 07:46:13","1f75c3e559b7213887762d5229550c2b","41.74.177.238","Mozilla/5.0 (Windows NT 10.0; Win64; x64) AppleWebKit/537.36 (KHTML, like Gecko) Chrome/138.0.0.0 Safari/537.36 Edg/138.0.0.0","WebKit","Edge","138.0.0.0","Windows","10.0","https://app.prolific.com/","en-US,en;q=0.9,en-ZA;q=0.8","6122f45e2e93a3ff9a7b7a5d","683db9eb0562dbf637994deb","6880930e8fda0b342f90c6da","2","1","6122f45e2e93a3ff9a7b7a5d","2","1","2025-07-23T07:49:46.816Z","","","","","","","","","","","","","","win-only","2","g1:SE,g2:NW","0.9","2","0","183923.2","2459.5","7462.8","27578.1","1","4","8","6","2","8","8","9","1","0.06818181818181818","1331.1","3000","985","[""left"",""up""]","{""num_key_presses"":6,""num_perfect"":5,""num_errors"":0,""num_randdir"":1,""num_randdir_good_moves"":1,""num_whilered"":0,""num_whileblue"":0,""num_blue"":1,""num_good_moves"":6}","[410.57142857142856,416.1808016640799,0.2,410.57142857142856,416.1808016640799,101,410.57142857142856,416.1808016640799,205.7,410.57142857142856,416.1808016640799,306.4,410.57142857142856,416.1808016640799,406.5,410.57142857142856,416.1808016640799,507.9,410.57142857142856,416.1808016640799,611.3,410.57142857142856,416.1808016640799,711.3,410.57142857142856,416.1808016640799,811.4,403.07142857142856,404.1808016640799,911.8,289.07142857142856,236.18080166407992,1016.6,122.57142857142857,77.18080166407994,1122.5,100.07142857142857,65.18080166407994,1226.4,98.57142857142857,62.18080166407994,1328.2,98.57142857142857,62.18080166407994,1434.6,97.07142857142857,68.18080166407994,1536.3,157.07142857142856,95.18080166407994,1636.3,461.57142857142856,111.68080166407994,1742.3,527.5714285714286,113.18080166407994,1846,529.0714285714286,113.18080166407994,1947,529.0714285714286,113.18080166407994,2060.4,529.0714285714286,113.18080166407994,2162.6,529.0714285714286,113.18080166407994,2267.1,529.0714285714286,113.18080166407994,2372.5,529.0714285714286,113.18080166407994,2476.3,529.0714285714286,113.18080166407994,2577.3,529.0714285714286,113.18080166407994,2682.1,529.0714285714286,113.18080166407994,2782.2,529.0714285714286,113.18080166407994,2882.6,529.0714285714286,113.18080166407994,2986.8,529.0714285714286,113.18080166407994,3087.5,529.0714285714286,113.18080166407994,3191.2,529.0714285714286,113.18080166407994,3293.1,529.0714285714286,113.18080166407994,3396.5,529.0714285714286,113.18080166407994,3501,529.0714285714286,113.18080166407994,3602.5,529.0714285714286,113.18080166407994,3704.7,529.0714285714286,113.18080166407994,3807.1,529.0714285714286,113.18080166407994,3911.8,529.0714285714286,113.18080166407994,4013.9,529.0714285714286,113.18080166407994,4116.3,529.0714285714286,113.18080166407994,4221.1,529.0714285714286,113.18080166407994,4321.2,529.0714285714286,113.18080166407994,4421.7,529.0714285714286,113.18080166407994,4525.4,529.0714285714286,113.18080166407994,4627,529.0714285714286,113.18080166407994,4727.5,529.0714285714286,113.18080166407994,4832.3,529.0714285714286,113.18080166407994,4932.5]","[1399.2,1399.2,1000,0,399.2,""smooth"",""up"",""up"",""good_move"",4753,3353.7,3005.8,1399.4,347.8,""smooth"",""up"",""up"",""good_move"",7403.1,2649.6,2284.8,4753.6,364.7,""smooth"",""up"",""up"",""good_move"",10367.3,2963.8,2600.1,7403.5,363.7,""smooth"",""left"",""left"",""good_move"",13252.5,2884.9,2516.5,10367.6,368.4,""oops"",""left"",""left"",""good_move"",19985.3,6732.5,2238.3,17388.1,359,""smooth"",""left"",""left"",""good_move""]","",""
"3857","","<div style=""width:500px;"">
  <p>What determined the result of this run?</p>
  </div>","93","html-slider-response","15","215952","0.0-5.0-1.1","185","1","2025-07-23 07:46:13","1f75c3e559b7213887762d5229550c2b","41.74.177.238","Mozilla/5.0 (Windows NT 10.0; Win64; x64) AppleWebKit/537.36 (KHTML, like Gecko) Chrome/138.0.0.0 Safari/537.36 Edg/138.0.0.0","WebKit","Edge","138.0.0.0","Windows","10.0","https://app.prolific.com/","en-US,en;q=0.9,en-ZA;q=0.8","6122f45e2e93a3ff9a7b7a5d","683db9eb0562dbf637994deb","6880930e8fda0b342f90c6da","2","1","6122f45e2e93a3ff9a7b7a5d","2","1","2025-07-23T07:49:50.676Z","","","","","","","","","","","AttribQ","","50","","","","","","","","","","","","","","","","","","","","","","","","","","","","",""
"3029","","<div style=""width:500px;"">
  <p>How much control did you have over the ball?</p>
  </div>","97","html-slider-response","16","218983","0.0-5.0-2.1","185","1","2025-07-23 07:46:13","1f75c3e559b7213887762d5229550c2b","41.74.177.238","Mozilla/5.0 (Windows NT 10.0; Win64; x64) AppleWebKit/537.36 (KHTML, like Gecko) Chrome/138.0.0.0 Safari/537.36 Edg/138.0.0.0","WebKit","Edge","138.0.0.0","Windows","10.0","https://app.prolific.com/","en-US,en;q=0.9,en-ZA;q=0.8","6122f45e2e93a3ff9a7b7a5d","683db9eb0562dbf637994deb","6880930e8fda0b342f90c6da","2","1","6122f45e2e93a3ff9a7b7a5d","2","1","2025-07-23T07:49:53.706Z","","","","","","","","","","","ControlQ","","50","","","","","","","","","","","","","","","","","","","","","","","","","","","","",""
"10884","","<div style=""width:500px;"">
  <p>How would you describe your current emotional state?</p>
  </div>","61","html-slider-response","17","229869","0.0-5.0-3.1","185","1","2025-07-23 07:46:13","1f75c3e559b7213887762d5229550c2b","41.74.177.238","Mozilla/5.0 (Windows NT 10.0; Win64; x64) AppleWebKit/537.36 (KHTML, like Gecko) Chrome/138.0.0.0 Safari/537.36 Edg/138.0.0.0","WebKit","Edge","138.0.0.0","Windows","10.0","https://app.prolific.com/","en-US,en;q=0.9,en-ZA;q=0.8","6122f45e2e93a3ff9a7b7a5d","683db9eb0562dbf637994deb","6880930e8fda0b342f90c6da","2","1","6122f45e2e93a3ff9a7b7a5d","2","1","2025-07-23T07:50:04.592Z","","","","","","","","","","","StressQ","","50","","","","","","","","","","","","","","","","","","","","","","","","","","","","",""
"3987","","<div style=""width:500px;"">
  <p>What best describes how you currently feel?</p>
  </div>","31","html-slider-response","18","233857","0.0-5.0-4.1","185","1","2025-07-23 07:46:13","1f75c3e559b7213887762d5229550c2b","41.74.177.238","Mozilla/5.0 (Windows NT 10.0; Win64; x64) AppleWebKit/537.36 (KHTML, like Gecko) Chrome/138.0.0.0 Safari/537.36 Edg/138.0.0.0","WebKit","Edge","138.0.0.0","Windows","10.0","https://app.prolific.com/","en-US,en;q=0.9,en-ZA;q=0.8","6122f45e2e93a3ff9a7b7a5d","683db9eb0562dbf637994deb","6880930e8fda0b342f90c6da","2","1","6122f45e2e93a3ff9a7b7a5d","2","1","2025-07-23T07:50:08.581Z","","","","","","","","","","","MotivationQ","","50","","","","","","","","","","","","","","","","","","","","","","","","","","","","",""
"","","","","ctl-task-cpt","19","253662","0.0-5.0-0.2","185","1","2025-07-23 07:46:13","1f75c3e559b7213887762d5229550c2b","41.74.177.238","Mozilla/5.0 (Windows NT 10.0; Win64; x64) AppleWebKit/537.36 (KHTML, like Gecko) Chrome/138.0.0.0 Safari/537.36 Edg/138.0.0.0","WebKit","Edge","138.0.0.0","Windows","10.0","https://app.prolific.com/","en-US,en;q=0.9,en-ZA;q=0.8","6122f45e2e93a3ff9a7b7a5d","683db9eb0562dbf637994deb","6880930e8fda0b342f90c6da","2","1","6122f45e2e93a3ff9a7b7a5d","2","1","2025-07-23T07:50:28.385Z","","","","","","","","","","","","","","win-only","2","g1:SE,g2:NW","0.8","3","0","236284.7","1130.2","6130.7","16780.8","1","4","8","6","1","1","1","10","9","0.07575757575757576","1187.1","3000","1730","[""down"",""right""]","{""num_key_presses"":4,""num_perfect"":4,""num_errors"":0,""num_randdir"":0,""num_randdir_good_moves"":0,""num_whilered"":0,""num_whileblue"":0,""num_blue"":0,""num_good_moves"":4}","[415.07142857142856,410.1808016640799,0.1,415.07142857142856,410.1808016640799,101.3,415.07142857142856,410.1808016640799,206.2,415.07142857142856,410.1808016640799,306.3,415.07142857142856,410.1808016640799,411,413.57142857142856,410.1808016640799,511.5,412.07142857142856,408.6808016640799,618.2,416.57142857142856,410.1808016640799,721.3,557.5714285714286,548.1808016640799,821.3,706.0714285714286,705.6808016640799,926.3,740.5714285714286,728.1808016640799,1026.3,779.5714285714286,753.6808016640799,1126.5,779.5714285714286,753.6808016640799,1231.4,779.5714285714286,753.6808016640799,1336.2,794.5714285714286,753.6808016640799,1436.8,1028.5714285714287,701.1808016640799,1536.8,1040.5714285714287,683.1808016640799,1640.2,1040.5714285714287,683.1808016640799,1740.8,1040.5714285714287,683.1808016640799,1840.9,1040.5714285714287,683.1808016640799,1946,1040.5714285714287,683.1808016640799,2050.8,1040.5714285714287,683.1808016640799,2156.5,1040.5714285714287,683.1808016640799,2262.6,1040.5714285714287,683.1808016640799,2366,1040.5714285714287,683.1808016640799,2470.2,1040.5714285714287,683.1808016640799,2570.4,1040.5714285714287,683.1808016640799,2671.2,1040.5714285714287,683.1808016640799,2776.3,1040.5714285714287,683.1808016640799,2881.4,1040.5714285714287,683.1808016640799,2982.1,1040.5714285714287,683.1808016640799,3085.3,1040.5714285714287,683.1808016640799,3187.3,1040.5714285714287,683.1808016640799,3290.5,1040.5714285714287,683.1808016640799,3390.8,1040.5714285714287,683.1808016640799,3490.8,1040.5714285714287,683.1808016640799,3591.2,1040.5714285714287,683.1808016640799,3695.5,1040.5714285714287,683.1808016640799,3796.6,1040.5714285714287,683.1808016640799,3900.5,1040.5714285714287,683.1808016640799,4001.3,1040.5714285714287,683.1808016640799,4105.2,1040.5714285714287,683.1808016640799,4206.6,1040.5714285714287,683.1808016640799,4310.2,1040.5714285714287,683.1808016640799,4411.9,1040.5714285714287,683.1808016640799,4516.7,1040.5714285714287,683.1808016640799,4620.4,1040.5714285714287,683.1808016640799,4720.5,1040.5714285714287,683.1808016640799,4823.2,1040.5714285714287,683.1808016640799,4926.7]","[1337.6,1337.6,1000,0,337.6,""smooth"",""down"",""down"",""good_move"",4944.6,3606.5,3160.8,1338.1,445.7,""smooth"",""down"",""down"",""good_move"",8124,3179.1,2796.6,4944.9,382.5,""smooth"",""right"",""right"",""good_move"",10564.4,2438,2081,8126.5,357,""smooth"",""right"",""right"",""good_move""]","",""
"2732","","<div style=""width:500px;"">
  <p>What determined the result of this run?</p>
  </div>","91","html-slider-response","20","256395","0.0-5.0-1.2","185","1","2025-07-23 07:46:13","1f75c3e559b7213887762d5229550c2b","41.74.177.238","Mozilla/5.0 (Windows NT 10.0; Win64; x64) AppleWebKit/537.36 (KHTML, like Gecko) Chrome/138.0.0.0 Safari/537.36 Edg/138.0.0.0","WebKit","Edge","138.0.0.0","Windows","10.0","https://app.prolific.com/","en-US,en;q=0.9,en-ZA;q=0.8","6122f45e2e93a3ff9a7b7a5d","683db9eb0562dbf637994deb","6880930e8fda0b342f90c6da","2","1","6122f45e2e93a3ff9a7b7a5d","2","1","2025-07-23T07:50:31.118Z","","","","","","","","","","","AttribQ","","50","","","","","","","","","","","","","","","","","","","","","","","","","","","","",""
"2797","","<div style=""width:500px;"">
  <p>How much control did you have over the ball?</p>
  </div>","100","html-slider-response","21","259194","0.0-5.0-2.2","185","1","2025-07-23 07:46:13","1f75c3e559b7213887762d5229550c2b","41.74.177.238","Mozilla/5.0 (Windows NT 10.0; Win64; x64) AppleWebKit/537.36 (KHTML, like Gecko) Chrome/138.0.0.0 Safari/537.36 Edg/138.0.0.0","WebKit","Edge","138.0.0.0","Windows","10.0","https://app.prolific.com/","en-US,en;q=0.9,en-ZA;q=0.8","6122f45e2e93a3ff9a7b7a5d","683db9eb0562dbf637994deb","6880930e8fda0b342f90c6da","2","1","6122f45e2e93a3ff9a7b7a5d","2","1","2025-07-23T07:50:33.917Z","","","","","","","","","","","ControlQ","","50","","","","","","","","","","","","","","","","","","","","","","","","","","","","",""
"3475","","<div style=""width:500px;"">
  <p>How would you describe your current emotional state?</p>
  </div>","68","html-slider-response","22","262670","0.0-5.0-3.2","185","1","2025-07-23 07:46:13","1f75c3e559b7213887762d5229550c2b","41.74.177.238","Mozilla/5.0 (Windows NT 10.0; Win64; x64) AppleWebKit/537.36 (KHTML, like Gecko) Chrome/138.0.0.0 Safari/537.36 Edg/138.0.0.0","WebKit","Edge","138.0.0.0","Windows","10.0","https://app.prolific.com/","en-US,en;q=0.9,en-ZA;q=0.8","6122f45e2e93a3ff9a7b7a5d","683db9eb0562dbf637994deb","6880930e8fda0b342f90c6da","2","1","6122f45e2e93a3ff9a7b7a5d","2","1","2025-07-23T07:50:37.393Z","","","","","","","","","","","StressQ","","50","","","","","","","","","","","","","","","","","","","","","","","","","","","","",""
"2801","","<div style=""width:500px;"">
  <p>What best describes how you currently feel?</p>
  </div>","25","html-slider-response","23","265472","0.0-5.0-4.2","185","1","2025-07-23 07:46:13","1f75c3e559b7213887762d5229550c2b","41.74.177.238","Mozilla/5.0 (Windows NT 10.0; Win64; x64) AppleWebKit/537.36 (KHTML, like Gecko) Chrome/138.0.0.0 Safari/537.36 Edg/138.0.0.0","WebKit","Edge","138.0.0.0","Windows","10.0","https://app.prolific.com/","en-US,en;q=0.9,en-ZA;q=0.8","6122f45e2e93a3ff9a7b7a5d","683db9eb0562dbf637994deb","6880930e8fda0b342f90c6da","2","1","6122f45e2e93a3ff9a7b7a5d","2","1","2025-07-23T07:50:40.195Z","","","","","","","","","","","MotivationQ","","50","","","","","","","","","","","","","","","","","","","","","","","","","","","","",""
"","","","","ctl-task-cpt","24","304078","0.0-5.0-0.3","185","1","2025-07-23 07:46:13","1f75c3e559b7213887762d5229550c2b","41.74.177.238","Mozilla/5.0 (Windows NT 10.0; Win64; x64) AppleWebKit/537.36 (KHTML, like Gecko) Chrome/138.0.0.0 Safari/537.36 Edg/138.0.0.0","WebKit","Edge","138.0.0.0","Windows","10.0","https://app.prolific.com/","en-US,en;q=0.9,en-ZA;q=0.8","6122f45e2e93a3ff9a7b7a5d","683db9eb0562dbf637994deb","6880930e8fda0b342f90c6da","2","1","6122f45e2e93a3ff9a7b7a5d","2","1","2025-07-23T07:51:18.801Z","","","","","","","","","","","","","","win-only","0","g1:NW,g2:SE","0.7","4","0","267898.9","1123.9","6126.5","35587.8","1","4","4","6","2","-4","-5","5","10","0.03787878787878788","1597.2","3000","-2650","[""down"",""right""]","{""num_key_presses"":9,""num_perfect"":5,""num_errors"":1,""num_randdir"":3,""num_randdir_good_moves"":1,""num_whilered"":0,""num_whileblue"":1,""num_blue"":2,""num_good_moves"":6}","[422.57142857142856,413.1808016640799,0.1,422.57142857142856,413.1808016640799,101.6,422.57142857142856,413.1808016640799,201.6,422.57142857142856,413.1808016640799,301.6,422.57142857142856,413.1808016640799,402.1,422.57142857142856,413.1808016640799,507.1,422.57142857142856,413.1808016640799,607.1,422.57142857142856,413.1808016640799,714.6,524.5714285714286,501.6808016640799,814.6,847.0714285714286,734.1808016640799,917.3,838.0714285714286,740.1808016640799,1017.6,797.5714285714286,728.1808016640799,1602.7,797.5714285714286,728.1808016640799,1705.4,800.5714285714286,726.6808016640799,1807.5,980.5714285714286,686.1808016640799,1912.6,1075.0714285714287,680.1808016640799,2013.8,1078.0714285714287,680.1808016640799,2117.1,1078.0714285714287,680.1808016640799,2217.7,1078.0714285714287,680.1808016640799,2324,1078.0714285714287,680.1808016640799,2427,1078.0714285714287,680.1808016640799,2531.9,1078.0714285714287,680.1808016640799,2636.5,1078.0714285714287,680.1808016640799,2737.3,1078.0714285714287,680.1808016640799,2841.9,1078.0714285714287,680.1808016640799,2946.6,1078.0714285714287,680.1808016640799,3046.9,1078.0714285714287,680.1808016640799,3149.4,1078.0714285714287,680.1808016640799,3251.8,1078.0714285714287,680.1808016640799,3352.9,1078.0714285714287,680.1808016640799,3456.9,1078.0714285714287,680.1808016640799,3562.1,1078.0714285714287,680.1808016640799,3666.6,1078.0714285714287,680.1808016640799,3771.8,1078.0714285714287,680.1808016640799,3872.2,1078.0714285714287,680.1808016640799,3973.5,1078.0714285714287,680.1808016640799,4076.8,1078.0714285714287,680.1808016640799,4177.3,1078.0714285714287,680.1808016640799,4278.7,1078.0714285714287,680.1808016640799,4382.1,1078.0714285714287,680.1808016640799,4482.8,1078.0714285714287,680.1808016640799,4587,1078.0714285714287,680.1808016640799,4692,1078.0714285714287,680.1808016640799,4797.4,1078.0714285714287,680.1808016640799,4902.6]","[4078.9,4078.9,1747.4,2010.1,321.4,""smooth"",""down"",""down"",""good_move"",6153,2073.4,1603.4,4079.6,470,""smooth"",""down"",""down"",""good_move"",9011.5,2858.5,2476,6153.1,382.5,""oops"",""down"",""left"",""bad_move"",12366,3354,3011,9012,343,""smooth"",""down"",""down"",""good_move"",14892.6,2526.5,2153.2,12366.1,373.3,""oops"",""right"",""up"",""bad_move"",18049.6,3156.6,2798.5,14893,358.1,""smooth"",""right"",""right"",""good_move"",20609.2,2559.3,2170.1,18049.9,389.2,""smooth"",""right"",""right"",""good_move"",23531.6,2922.3,2575,20609.3,347.3,""while_blue"",""right"",""up"",""bad_move"",26108.7,2576.9,2137.9,23531.8,439,""oops"",""right"",""right"",""good_move""]","",""
"7357","","<div style=""width:500px;"">
  <p>What determined the result of this run?</p>
  </div>","10","html-slider-response","25","311435","0.0-5.0-1.3","185","1","2025-07-23 07:46:13","1f75c3e559b7213887762d5229550c2b","41.74.177.238","Mozilla/5.0 (Windows NT 10.0; Win64; x64) AppleWebKit/537.36 (KHTML, like Gecko) Chrome/138.0.0.0 Safari/537.36 Edg/138.0.0.0","WebKit","Edge","138.0.0.0","Windows","10.0","https://app.prolific.com/","en-US,en;q=0.9,en-ZA;q=0.8","6122f45e2e93a3ff9a7b7a5d","683db9eb0562dbf637994deb","6880930e8fda0b342f90c6da","2","1","6122f45e2e93a3ff9a7b7a5d","2","1","2025-07-23T07:51:26.158Z","","","","","","","","","","","AttribQ","","50","","","","","","","","","","","","","","","","","","","","","","","","","","","","",""
"4851","","<div style=""width:500px;"">
  <p>How much control did you have over the ball?</p>
  </div>","14","html-slider-response","26","316287","0.0-5.0-2.3","185","1","2025-07-23 07:46:13","1f75c3e559b7213887762d5229550c2b","41.74.177.238","Mozilla/5.0 (Windows NT 10.0; Win64; x64) AppleWebKit/537.36 (KHTML, like Gecko) Chrome/138.0.0.0 Safari/537.36 Edg/138.0.0.0","WebKit","Edge","138.0.0.0","Windows","10.0","https://app.prolific.com/","en-US,en;q=0.9,en-ZA;q=0.8","6122f45e2e93a3ff9a7b7a5d","683db9eb0562dbf637994deb","6880930e8fda0b342f90c6da","2","1","6122f45e2e93a3ff9a7b7a5d","2","1","2025-07-23T07:51:31.010Z","","","","","","","","","","","ControlQ","","50","","","","","","","","","","","","","","","","","","","","","","","","","","","","",""
"3321","","<div style=""width:500px;"">
  <p>How would you describe your current emotional state?</p>
  </div>","72","html-slider-response","27","319610","0.0-5.0-3.3","185","1","2025-07-23 07:46:13","1f75c3e559b7213887762d5229550c2b","41.74.177.238","Mozilla/5.0 (Windows NT 10.0; Win64; x64) AppleWebKit/537.36 (KHTML, like Gecko) Chrome/138.0.0.0 Safari/537.36 Edg/138.0.0.0","WebKit","Edge","138.0.0.0","Windows","10.0","https://app.prolific.com/","en-US,en;q=0.9,en-ZA;q=0.8","6122f45e2e93a3ff9a7b7a5d","683db9eb0562dbf637994deb","6880930e8fda0b342f90c6da","2","1","6122f45e2e93a3ff9a7b7a5d","2","1","2025-07-23T07:51:34.333Z","","","","","","","","","","","StressQ","","50","","","","","","","","","","","","","","","","","","","","","","","","","","","","",""
"3041","","<div style=""width:500px;"">
  <p>What best describes how you currently feel?</p>
  </div>","24","html-slider-response","28","322652","0.0-5.0-4.3","185","1","2025-07-23 07:46:13","1f75c3e559b7213887762d5229550c2b","41.74.177.238","Mozilla/5.0 (Windows NT 10.0; Win64; x64) AppleWebKit/537.36 (KHTML, like Gecko) Chrome/138.0.0.0 Safari/537.36 Edg/138.0.0.0","WebKit","Edge","138.0.0.0","Windows","10.0","https://app.prolific.com/","en-US,en;q=0.9,en-ZA;q=0.8","6122f45e2e93a3ff9a7b7a5d","683db9eb0562dbf637994deb","6880930e8fda0b342f90c6da","2","1","6122f45e2e93a3ff9a7b7a5d","2","1","2025-07-23T07:51:37.375Z","","","","","","","","","","","MotivationQ","","50","","","","","","","","","","","","","","","","","","","","","","","","","","","","",""
"","","","","ctl-task-cpt","29","357416","0.0-5.0-0.4","185","1","2025-07-23 07:46:13","1f75c3e559b7213887762d5229550c2b","41.74.177.238","Mozilla/5.0 (Windows NT 10.0; Win64; x64) AppleWebKit/537.36 (KHTML, like Gecko) Chrome/138.0.0.0 Safari/537.36 Edg/138.0.0.0","WebKit","Edge","138.0.0.0","Windows","10.0","https://app.prolific.com/","en-US,en;q=0.9,en-ZA;q=0.8","6122f45e2e93a3ff9a7b7a5d","683db9eb0562dbf637994deb","6880930e8fda0b342f90c6da","2","1","6122f45e2e93a3ff9a7b7a5d","2","1","2025-07-23T07:52:12.139Z","","","","","","","","","","","","","","win-only","3","g1:SW,g2:NE","0.6","5","0","325078.8","1454.2","6456.9","31745.9","1","4","8","6","2","8","8","13","5","0.09848484848484848","1985.1","3000","130","[""up"",""right""]","{""num_key_presses"":8,""num_perfect"":5,""num_errors"":0,""num_randdir"":3,""num_randdir_good_moves"":2,""num_whilered"":0,""num_whileblue"":0,""num_blue"":1,""num_good_moves"":7}","[416.57142857142856,425.1808016640799,0.2,416.57142857142856,425.1808016640799,102.1,416.57142857142856,425.1808016640799,203.1,416.57142857142856,425.1808016640799,306.3,416.57142857142856,425.1808016640799,406.5,416.57142857142856,425.1808016640799,507.1,416.57142857142856,425.1808016640799,611.8,416.57142857142856,425.1808016640799,712,305.57142857142856,569.1808016640799,812.1,179.57142857142856,704.1808016640799,916.2,149.57142857142856,725.1808016640799,1016.2,136.07142857142856,728.1808016640799,1116.3,137.57142857142856,731.1808016640799,1217.9,106.07142857142857,735.6808016640799,1321.2,325.07142857142856,518.1808016640799,1422.3,631.0714285714286,246.68080166407992,1526.5,665.5714285714286,182.18080166407992,1636.8,686.5714285714286,123.68080166407994,1742.2,703.0714285714286,101.18080166407994,1852.7,703.0714285714286,101.18080166407994,1953.1,703.0714285714286,101.18080166407994,2064.2,703.0714285714286,101.18080166407994,2169.3,715.0714285714286,113.18080166407994,2269.4,932.5714285714286,203.18080166407992,2371.3,1115.5714285714287,311.1808016640799,2471.7,1115.5714285714287,312.6808016640799,2572.5,1115.5714285714287,312.6808016640799,2674.9,1115.5714285714287,312.6808016640799,2777,1115.5714285714287,312.6808016640799,2882.2,1115.5714285714287,312.6808016640799,2991.6,1115.5714285714287,312.6808016640799,3091.6,1115.5714285714287,312.6808016640799,3202.5,1115.5714285714287,312.6808016640799,3303.8,1115.5714285714287,312.6808016640799,3410.4,1115.5714285714287,312.6808016640799,3511.4,1115.5714285714287,312.6808016640799,3620.5,1115.5714285714287,312.6808016640799,3722.1,1115.5714285714287,312.6808016640799,3827.3,1115.5714285714287,312.6808016640799,3927.5,1115.5714285714287,312.6808016640799,4035.6,1115.5714285714287,312.6808016640799,4136.2,1115.5714285714287,312.6808016640799,4241.3,1115.5714285714287,312.6808016640799,4341.8,1115.5714285714287,312.6808016640799,4447,1115.5714285714287,312.6808016640799,4553.5,1115.5714285714287,312.6808016640799,4656.2,1115.5714285714287,312.6808016640799,4762.2,1115.5714285714287,312.6808016640799,4869.5,1115.5714285714287,312.6808016640799,4971.3]","[1485.2,1485.2,1000,0,485.2,""smooth"",""up"",""up"",""good_move"",8081.6,6596.1,2473.3,5089.2,519.1,""smooth"",""up"",""up"",""good_move"",10781.4,2699.5,2265.4,8081.9,434.1,""smooth"",""up"",""up"",""good_move"",13488.9,2707.3,2313,10781.6,394.3,""oops"",""right"",""left"",""bad_move"",16886.8,3396.8,3020.2,13490,376.6,""oops"",""right"",""right"",""good_move"",19687,2800,2466.6,16887.1,333.4,""oops"",""right"",""right"",""good_move"",22753.6,3066.3,2734.5,19687.3,331.8,""smooth"",""right"",""right"",""good_move"",25183.5,2429.8,1939.9,22753.7,489.9,""smooth"",""right"",""right"",""good_move""]","",""
"3166","","<div style=""width:500px;"">
  <p>What determined the result of this run?</p>
  </div>","90","html-slider-response","30","360584","0.0-5.0-1.4","185","1","2025-07-23 07:46:13","1f75c3e559b7213887762d5229550c2b","41.74.177.238","Mozilla/5.0 (Windows NT 10.0; Win64; x64) AppleWebKit/537.36 (KHTML, like Gecko) Chrome/138.0.0.0 Safari/537.36 Edg/138.0.0.0","WebKit","Edge","138.0.0.0","Windows","10.0","https://app.prolific.com/","en-US,en;q=0.9,en-ZA;q=0.8","6122f45e2e93a3ff9a7b7a5d","683db9eb0562dbf637994deb","6880930e8fda0b342f90c6da","2","1","6122f45e2e93a3ff9a7b7a5d","2","1","2025-07-23T07:52:15.307Z","","","","","","","","","","","AttribQ","","50","","","","","","","","","","","","","","","","","","","","","","","","","","","","",""
"3806","","<div style=""width:500px;"">
  <p>How much control did you have over the ball?</p>
  </div>","88","html-slider-response","31","364394","0.0-5.0-2.4","185","1","2025-07-23 07:46:13","1f75c3e559b7213887762d5229550c2b","41.74.177.238","Mozilla/5.0 (Windows NT 10.0; Win64; x64) AppleWebKit/537.36 (KHTML, like Gecko) Chrome/138.0.0.0 Safari/537.36 Edg/138.0.0.0","WebKit","Edge","138.0.0.0","Windows","10.0","https://app.prolific.com/","en-US,en;q=0.9,en-ZA;q=0.8","6122f45e2e93a3ff9a7b7a5d","683db9eb0562dbf637994deb","6880930e8fda0b342f90c6da","2","1","6122f45e2e93a3ff9a7b7a5d","2","1","2025-07-23T07:52:19.117Z","","","","","","","","","","","ControlQ","","50","","","","","","","","","","","","","","","","","","","","","","","","","","","","",""
"2893","","<div style=""width:500px;"">
  <p>How would you describe your current emotional state?</p>
  </div>","73","html-slider-response","32","367288","0.0-5.0-3.4","185","1","2025-07-23 07:46:13","1f75c3e559b7213887762d5229550c2b","41.74.177.238","Mozilla/5.0 (Windows NT 10.0; Win64; x64) AppleWebKit/537.36 (KHTML, like Gecko) Chrome/138.0.0.0 Safari/537.36 Edg/138.0.0.0","WebKit","Edge","138.0.0.0","Windows","10.0","https://app.prolific.com/","en-US,en;q=0.9,en-ZA;q=0.8","6122f45e2e93a3ff9a7b7a5d","683db9eb0562dbf637994deb","6880930e8fda0b342f90c6da","2","1","6122f45e2e93a3ff9a7b7a5d","2","1","2025-07-23T07:52:22.011Z","","","","","","","","","","","StressQ","","50","","","","","","","","","","","","","","","","","","","","","","","","","","","","",""
"2528","","<div style=""width:500px;"">
  <p>What best describes how you currently feel?</p>
  </div>","23","html-slider-response","33","369818","0.0-5.0-4.4","185","1","2025-07-23 07:46:13","1f75c3e559b7213887762d5229550c2b","41.74.177.238","Mozilla/5.0 (Windows NT 10.0; Win64; x64) AppleWebKit/537.36 (KHTML, like Gecko) Chrome/138.0.0.0 Safari/537.36 Edg/138.0.0.0","WebKit","Edge","138.0.0.0","Windows","10.0","https://app.prolific.com/","en-US,en;q=0.9,en-ZA;q=0.8","6122f45e2e93a3ff9a7b7a5d","683db9eb0562dbf637994deb","6880930e8fda0b342f90c6da","2","1","6122f45e2e93a3ff9a7b7a5d","2","1","2025-07-23T07:52:24.541Z","","","","","","","","","","","MotivationQ","","50","","","","","","","","","","","","","","","","","","","","","","","","","","","","",""
"","","","","ctl-task-cpt","34","406094","0.0-5.0-0.5","185","1","2025-07-23 07:46:13","1f75c3e559b7213887762d5229550c2b","41.74.177.238","Mozilla/5.0 (Windows NT 10.0; Win64; x64) AppleWebKit/537.36 (KHTML, like Gecko) Chrome/138.0.0.0 Safari/537.36 Edg/138.0.0.0","WebKit","Edge","138.0.0.0","Windows","10.0","https://app.prolific.com/","en-US,en;q=0.9,en-ZA;q=0.8","6122f45e2e93a3ff9a7b7a5d","683db9eb0562dbf637994deb","6880930e8fda0b342f90c6da","2","1","6122f45e2e93a3ff9a7b7a5d","2","1","2025-07-23T07:53:00.817Z","","","","","","","","","","","","","","win-only","2","g1:SE,g2:NW","0.5","6","0","372244.5","1292.4","6296.5","33261.6","1","4","4","6","1","-1","-1","12","13","0.09090909090909091","1064.4","3000","-2575","[""down"",""right""]","{""num_key_presses"":8,""num_perfect"":4,""num_errors"":0,""num_randdir"":4,""num_randdir_good_moves"":1,""num_whilered"":0,""num_whileblue"":0,""num_blue"":1,""num_good_moves"":5}","[419.57142857142856,425.1808016640799,0.1,419.57142857142856,425.1808016640799,103,419.57142857142856,425.1808016640799,203.5,419.57142857142856,425.1808016640799,308.2,419.57142857142856,425.1808016640799,408.6,419.57142857142856,425.1808016640799,508.6,535.0714285714286,539.1808016640799,610.1,698.5714285714286,741.6808016640799,710.5,712.0714285714286,773.1808016640799,816,718.0714285714286,749.1808016640799,918.6,725.5714285714286,737.1808016640799,1023.3,725.5714285714286,737.1808016640799,1123.5,725.5714285714286,737.1808016640799,1228.2,725.5714285714286,738.6808016640799,1329.7,862.0714285714286,704.1808016640799,1432.9,976.0714285714286,656.1808016640799,1533.2,976.0714285714286,656.1808016640799,1633.8,976.0714285714286,656.1808016640799,1734.1,976.0714285714286,656.1808016640799,1838.3,976.0714285714286,656.1808016640799,1940.5,976.0714285714286,656.1808016640799,2044.3,976.0714285714286,656.1808016640799,2148.3,976.0714285714286,656.1808016640799,2253.8,976.0714285714286,656.1808016640799,2358.8,976.0714285714286,656.1808016640799,2459.7,976.0714285714286,656.1808016640799,2565.8,976.0714285714286,656.1808016640799,2671.9,976.0714285714286,656.1808016640799,2773.4,976.0714285714286,656.1808016640799,2883.6,976.0714285714286,656.1808016640799,2984.1,976.0714285714286,656.1808016640799,3088.5,976.0714285714286,656.1808016640799,3197.8,976.0714285714286,656.1808016640799,3299.4,976.0714285714286,656.1808016640799,3404.7,976.0714285714286,656.1808016640799,3510.5,976.0714285714286,656.1808016640799,3617.8,976.0714285714286,656.1808016640799,3719.4,976.0714285714286,656.1808016640799,3823.1,976.0714285714286,656.1808016640799,3924,976.0714285714286,656.1808016640799,4033.8,976.0714285714286,656.1808016640799,4139.2,976.0714285714286,656.1808016640799,4243.2,976.0714285714286,656.1808016640799,4348.1,976.0714285714286,656.1808016640799,4451.4,976.0714285714286,656.1808016640799,4552.7,976.0714285714286,656.1808016640799,4653.4,976.0714285714286,656.1808016640799,4756.3,976.0714285714286,656.1808016640799,4865.2,976.0714285714286,656.1808016640799,4965.8]","[1392.5,1392.5,1000,0,392.5,""oops"",""down"",""left"",""bad_move"",4215.7,2822.9,2455.5,1392.9,367.3,""smooth"",""down"",""down"",""good_move"",6710.1,2493.2,2143.2,4216.9,350,""smooth"",""down"",""down"",""good_move"",9793.3,3083.1,2687.6,6710.2,395.5,""oops"",""right"",""left"",""bad_move"",12842.7,3049.2,2651.5,9793.5,397.7,""oops"",""right"",""up"",""bad_move"",17980.7,5137.8,1736.3,15885.1,359.3,""smooth"",""right"",""right"",""good_move"",21603.6,3622.8,2964.6,17980.8,658.2,""smooth"",""right"",""right"",""good_move"",24073.9,2470.2,2109.1,21603.8,361.1,""oops"",""right"",""right"",""good_move""]","",""
"4830","","<div style=""width:500px;"">
  <p>What determined the result of this run?</p>
  </div>","78","html-slider-response","35","410925","0.0-5.0-1.5","185","1","2025-07-23 07:46:13","1f75c3e559b7213887762d5229550c2b","41.74.177.238","Mozilla/5.0 (Windows NT 10.0; Win64; x64) AppleWebKit/537.36 (KHTML, like Gecko) Chrome/138.0.0.0 Safari/537.36 Edg/138.0.0.0","WebKit","Edge","138.0.0.0","Windows","10.0","https://app.prolific.com/","en-US,en;q=0.9,en-ZA;q=0.8","6122f45e2e93a3ff9a7b7a5d","683db9eb0562dbf637994deb","6880930e8fda0b342f90c6da","2","1","6122f45e2e93a3ff9a7b7a5d","2","1","2025-07-23T07:53:05.649Z","","","","","","","","","","","AttribQ","","50","","","","","","","","","","","","","","","","","","","","","","","","","","","","",""
"5176","","<div style=""width:500px;"">
  <p>How much control did you have over the ball?</p>
  </div>","24","html-slider-response","36","416102","0.0-5.0-2.5","185","1","2025-07-23 07:46:13","1f75c3e559b7213887762d5229550c2b","41.74.177.238","Mozilla/5.0 (Windows NT 10.0; Win64; x64) AppleWebKit/537.36 (KHTML, like Gecko) Chrome/138.0.0.0 Safari/537.36 Edg/138.0.0.0","WebKit","Edge","138.0.0.0","Windows","10.0","https://app.prolific.com/","en-US,en;q=0.9,en-ZA;q=0.8","6122f45e2e93a3ff9a7b7a5d","683db9eb0562dbf637994deb","6880930e8fda0b342f90c6da","2","1","6122f45e2e93a3ff9a7b7a5d","2","1","2025-07-23T07:53:10.825Z","","","","","","","","","","","ControlQ","","50","","","","","","","","","","","","","","","","","","","","","","","","","","","","",""
"3445","","<div style=""width:500px;"">
  <p>How would you describe your current emotional state?</p>
  </div>","68","html-slider-response","37","419548","0.0-5.0-3.5","185","1","2025-07-23 07:46:13","1f75c3e559b7213887762d5229550c2b","41.74.177.238","Mozilla/5.0 (Windows NT 10.0; Win64; x64) AppleWebKit/537.36 (KHTML, like Gecko) Chrome/138.0.0.0 Safari/537.36 Edg/138.0.0.0","WebKit","Edge","138.0.0.0","Windows","10.0","https://app.prolific.com/","en-US,en;q=0.9,en-ZA;q=0.8","6122f45e2e93a3ff9a7b7a5d","683db9eb0562dbf637994deb","6880930e8fda0b342f90c6da","2","1","6122f45e2e93a3ff9a7b7a5d","2","1","2025-07-23T07:53:14.271Z","","","","","","","","","","","StressQ","","50","","","","","","","","","","","","","","","","","","","","","","","","","","","","",""
"2662","","<div style=""width:500px;"">
  <p>What best describes how you currently feel?</p>
  </div>","25","html-slider-response","38","422212","0.0-5.0-4.5","185","1","2025-07-23 07:46:13","1f75c3e559b7213887762d5229550c2b","41.74.177.238","Mozilla/5.0 (Windows NT 10.0; Win64; x64) AppleWebKit/537.36 (KHTML, like Gecko) Chrome/138.0.0.0 Safari/537.36 Edg/138.0.0.0","WebKit","Edge","138.0.0.0","Windows","10.0","https://app.prolific.com/","en-US,en;q=0.9,en-ZA;q=0.8","6122f45e2e93a3ff9a7b7a5d","683db9eb0562dbf637994deb","6880930e8fda0b342f90c6da","2","1","6122f45e2e93a3ff9a7b7a5d","2","1","2025-07-23T07:53:16.935Z","","","","","","","","","","","MotivationQ","","50","","","","","","","","","","","","","","","","","","","","","","","","","","","","",""
"","","","","ctl-task-cpt","39","463161","0.0-5.0-0.6","185","1","2025-07-23 07:46:13","1f75c3e559b7213887762d5229550c2b","41.74.177.238","Mozilla/5.0 (Windows NT 10.0; Win64; x64) AppleWebKit/537.36 (KHTML, like Gecko) Chrome/138.0.0.0 Safari/537.36 Edg/138.0.0.0","WebKit","Edge","138.0.0.0","Windows","10.0","https://app.prolific.com/","en-US,en;q=0.9,en-ZA;q=0.8","6122f45e2e93a3ff9a7b7a5d","683db9eb0562dbf637994deb","6880930e8fda0b342f90c6da","2","1","6122f45e2e93a3ff9a7b7a5d","2","1","2025-07-23T07:53:57.885Z","","","","","","","","","","","","","","win-only","0","g1:NW,g2:SE","0.4","7","0","424638.3","1686.8","6691.3","37935.7","1","4","8","6","1","1","1","13","12","0.09848484848484848","1860.8","3000","400","[""left"",""up""]","{""num_key_presses"":6,""num_perfect"":3,""num_errors"":0,""num_randdir"":3,""num_randdir_good_moves"":2,""num_whilered"":0,""num_whileblue"":0,""num_blue"":4,""num_good_moves"":5}","[406.07142857142856,413.1808016640799,0.2,406.07142857142856,413.1808016640799,112.4,406.07142857142856,413.1808016640799,214.2,406.07142857142856,413.1808016640799,314.6,406.07142857142856,413.1808016640799,420.3,406.07142857142856,413.1808016640799,520.2,407.57142857142856,413.1808016640799,626.9,407.57142857142856,413.1808016640799,729.5,403.07142857142856,404.1808016640799,833.9,250.07142857142856,231.68080166407992,934.4,106.07142857142857,140.18080166407992,1043.7,35.57142857142857,108.68080166407994,1143.8,38.57142857142857,101.18080166407994,1243.9,47.57142857142857,101.18080166407994,1349.2,47.57142857142857,101.18080166407994,1449.5,47.57142857142857,101.18080166407994,1554.4,47.57142857142857,101.18080166407994,1654.4,47.57142857142857,101.18080166407994,1754.6,47.57142857142857,101.18080166407994,1860.5,47.57142857142857,101.18080166407994,1964.5,47.57142857142857,101.18080166407994,2065.4,47.57142857142857,101.18080166407994,2165.8,46.07142857142857,131.18080166407992,2268.9,2.5714285714285694,261.6808016640799,2376.8,-126.42857142857143,419.1808016640799,2479.1,-135.42857142857144,455.1808016640799,2584.4,-132.42857142857144,455.1808016640799,2684.6,-132.42857142857144,455.1808016640799,2784.9,-132.42857142857144,455.1808016640799,2891.7,-132.42857142857144,455.1808016640799,2993,-132.42857142857144,455.1808016640799,3093.8,-132.42857142857144,455.1808016640799,3199.5,-132.42857142857144,455.1808016640799,3300.4,-132.42857142857144,455.1808016640799,3404.5,-132.42857142857144,455.1808016640799,3514.2,-132.42857142857144,455.1808016640799,3614.9,-132.42857142857144,455.1808016640799,3714.9,-132.42857142857144,455.1808016640799,3819.2,-132.42857142857144,455.1808016640799,3927,-132.42857142857144,455.1808016640799,4031.5,-132.42857142857144,455.1808016640799,4134.3,-132.42857142857144,455.1808016640799,4234.6,-132.42857142857144,455.1808016640799,4334.9,-132.42857142857144,455.1808016640799,4435.1,-132.42857142857144,455.1808016640799,4543,-132.42857142857144,455.1808016640799,4643.8,-132.42857142857144,455.1808016640799,4744.3,-132.42857142857144,455.1808016640799,4851.1,-132.42857142857144,455.1808016640799,4954.4]","[5053.6,5053.6,2690.7,2009.7,353.2,""oops"",""up"",""right"",""bad_move"",9221.5,4167.5,3479.9,5054,687.6,""oops"",""up"",""up"",""good_move"",11555.8,2334.1,1798,9221.7,536.1,""oops"",""up"",""up"",""good_move"",17952.5,6396.5,2191,15280.5,481,""smooth"",""left"",""left"",""good_move"",20770,2817.2,2422.3,17952.8,394.9,""smooth"",""left"",""left"",""good_move"",31152.3,10382.2,2748.1,28024.7,379.5,""smooth"",""left"",""left"",""good_move""]","",""
"2600","","<div style=""width:500px;"">
  <p>What determined the result of this run?</p>
  </div>","88","html-slider-response","40","465764","0.0-5.0-1.6","185","1","2025-07-23 07:46:13","1f75c3e559b7213887762d5229550c2b","41.74.177.238","Mozilla/5.0 (Windows NT 10.0; Win64; x64) AppleWebKit/537.36 (KHTML, like Gecko) Chrome/138.0.0.0 Safari/537.36 Edg/138.0.0.0","WebKit","Edge","138.0.0.0","Windows","10.0","https://app.prolific.com/","en-US,en;q=0.9,en-ZA;q=0.8","6122f45e2e93a3ff9a7b7a5d","683db9eb0562dbf637994deb","6880930e8fda0b342f90c6da","2","1","6122f45e2e93a3ff9a7b7a5d","2","1","2025-07-23T07:54:00.487Z","","","","","","","","","","","AttribQ","","50","","","","","","","","","","","","","","","","","","","","","","","","","","","","",""
"2227","","<div style=""width:500px;"">
  <p>How much control did you have over the ball?</p>
  </div>","85","html-slider-response","41","467991","0.0-5.0-2.6","185","1","2025-07-23 07:46:13","1f75c3e559b7213887762d5229550c2b","41.74.177.238","Mozilla/5.0 (Windows NT 10.0; Win64; x64) AppleWebKit/537.36 (KHTML, like Gecko) Chrome/138.0.0.0 Safari/537.36 Edg/138.0.0.0","WebKit","Edge","138.0.0.0","Windows","10.0","https://app.prolific.com/","en-US,en;q=0.9,en-ZA;q=0.8","6122f45e2e93a3ff9a7b7a5d","683db9eb0562dbf637994deb","6880930e8fda0b342f90c6da","2","1","6122f45e2e93a3ff9a7b7a5d","2","1","2025-07-23T07:54:02.714Z","","","","","","","","","","","ControlQ","","50","","","","","","","","","","","","","","","","","","","","","","","","","","","","",""
"2499","","<div style=""width:500px;"">
  <p>How would you describe your current emotional state?</p>
  </div>","72","html-slider-response","42","470493","0.0-5.0-3.6","185","1","2025-07-23 07:46:13","1f75c3e559b7213887762d5229550c2b","41.74.177.238","Mozilla/5.0 (Windows NT 10.0; Win64; x64) AppleWebKit/537.36 (KHTML, like Gecko) Chrome/138.0.0.0 Safari/537.36 Edg/138.0.0.0","WebKit","Edge","138.0.0.0","Windows","10.0","https://app.prolific.com/","en-US,en;q=0.9,en-ZA;q=0.8","6122f45e2e93a3ff9a7b7a5d","683db9eb0562dbf637994deb","6880930e8fda0b342f90c6da","2","1","6122f45e2e93a3ff9a7b7a5d","2","1","2025-07-23T07:54:05.216Z","","","","","","","","","","","StressQ","","50","","","","","","","","","","","","","","","","","","","","","","","","","","","","",""
"9362","","<div style=""width:500px;"">
  <p>What best describes how you currently feel?</p>
  </div>","18","html-slider-response","43","479856","0.0-5.0-4.6","185","1","2025-07-23 07:46:13","1f75c3e559b7213887762d5229550c2b","41.74.177.238","Mozilla/5.0 (Windows NT 10.0; Win64; x64) AppleWebKit/537.36 (KHTML, like Gecko) Chrome/138.0.0.0 Safari/537.36 Edg/138.0.0.0","WebKit","Edge","138.0.0.0","Windows","10.0","https://app.prolific.com/","en-US,en;q=0.9,en-ZA;q=0.8","6122f45e2e93a3ff9a7b7a5d","683db9eb0562dbf637994deb","6880930e8fda0b342f90c6da","2","1","6122f45e2e93a3ff9a7b7a5d","2","1","2025-07-23T07:54:14.579Z","","","","","","","","","","","MotivationQ","","50","","","","","","","","","","","","","","","","","","","","","","","","","","","","",""
"","","","","ctl-task-cpt","44","508695","0.0-5.0-0.7","185","1","2025-07-23 07:46:13","1f75c3e559b7213887762d5229550c2b","41.74.177.238","Mozilla/5.0 (Windows NT 10.0; Win64; x64) AppleWebKit/537.36 (KHTML, like Gecko) Chrome/138.0.0.0 Safari/537.36 Edg/138.0.0.0","WebKit","Edge","138.0.0.0","Windows","10.0","https://app.prolific.com/","en-US,en;q=0.9,en-ZA;q=0.8","6122f45e2e93a3ff9a7b7a5d","683db9eb0562dbf637994deb","6880930e8fda0b342f90c6da","2","1","6122f45e2e93a3ff9a7b7a5d","2","1","2025-07-23T07:54:43.418Z","","","","","","","","","","","","","","win-only","0","g1:NW,g2:SE","0.3","8","0","482283.7","1388.3","6391.8","25821.6","1","4","4","6","1","1","1","14","13","0.10606060606060606","2780.7","3000","865","[""left"",""up""]","{""num_key_presses"":6,""num_perfect"":2,""num_errors"":0,""num_randdir"":4,""num_randdir_good_moves"":3,""num_whilered"":0,""num_whileblue"":0,""num_blue"":1,""num_good_moves"":5}","[404.57142857142856,413.1808016640799,0.2,404.57142857142856,413.1808016640799,112.3,404.57142857142856,413.1808016640799,213.4,404.57142857142856,413.1808016640799,315.3,404.57142857142856,413.1808016640799,416.9,404.57142857142856,413.1808016640799,517.5,404.57142857142856,413.1808016640799,618.5,404.57142857142856,413.1808016640799,722.3,404.57142857142856,411.6808016640799,830.3,404.57142857142856,411.6808016640799,930.5,413.57142857142856,414.6808016640799,1032.2,527.5714285714286,486.6808016640799,1134,500.57142857142856,485.1808016640799,1238.9,560.5714285714286,543.6808016640799,1349.1,581.5714285714286,555.6808016640799,1452.4,602.5714285714286,587.1808016640799,1553.1,533.5714285714286,506.1808016640799,1662.8,392.57142857142856,381.6808016640799,1763,440.57142857142856,419.1808016640799,1867,715.0714285714286,678.6808016640799,1967.8,671.5714285714286,645.6808016640799,2068,359.57142857142856,293.1808016640799,2174.4,254.57142857142856,233.18080166407992,2280.2,190.07142857142856,191.18080166407992,2380.9,143.57142857142856,155.18080166407992,2481.2,110.57142857142857,110.18080166407994,2581.8,119.57142857142857,89.18080166407994,2682.1,119.57142857142857,86.18080166407994,2783.6,119.57142857142857,86.18080166407994,2887.4,119.57142857142857,86.18080166407994,2997.1,142.07142857142856,164.18080166407992,3097.3,164.57142857142856,357.6808016640799,3198.5,-78.42857142857143,380.1808016640799,3302.4,-156.42857142857144,398.1808016640799,3403.2,-156.42857142857144,399.6808016640799,3503.4,-156.42857142857144,399.6808016640799,3611.7,-156.42857142857144,399.6808016640799,3715.2,-156.42857142857144,399.6808016640799,3817.6,-156.42857142857144,399.6808016640799,3917.7,-156.42857142857144,399.6808016640799,4030.2,-156.42857142857144,399.6808016640799,4132.4,-156.42857142857144,399.6808016640799,4233.2,-156.42857142857144,399.6808016640799,4337.8,-156.42857142857144,399.6808016640799,4446.8,-156.42857142857144,399.6808016640799,4548.4,-156.42857142857144,399.6808016640799,4653.3,-156.42857142857144,399.6808016640799,4762,-156.42857142857144,399.6808016640799,4862.4,-156.42857142857144,399.6808016640799,4962.9]","[1413.6,1413.6,1000,0,413.6,""oops"",""up"",""right"",""bad_move"",3901.5,2487.7,2098.4,1413.8,389.3,""smooth"",""up"",""up"",""good_move"",6632.8,2731.1,2287.3,3901.7,443.8,""oops"",""up"",""up"",""good_move"",9606.5,2973.6,2567.5,6632.9,406.1,""oops"",""left"",""left"",""good_move"",16331.5,6724.8,3097.3,12870,364.3,""oops"",""left"",""left"",""good_move"",19333.4,3001,2561.9,16332.4,439.1,""smooth"",""left"",""left"",""good_move""]","",""
"3847","","<div style=""width:500px;"">
  <p>What determined the result of this run?</p>
  </div>","75","html-slider-response","45","512543","0.0-5.0-1.7","185","1","2025-07-23 07:46:13","1f75c3e559b7213887762d5229550c2b","41.74.177.238","Mozilla/5.0 (Windows NT 10.0; Win64; x64) AppleWebKit/537.36 (KHTML, like Gecko) Chrome/138.0.0.0 Safari/537.36 Edg/138.0.0.0","WebKit","Edge","138.0.0.0","Windows","10.0","https://app.prolific.com/","en-US,en;q=0.9,en-ZA;q=0.8","6122f45e2e93a3ff9a7b7a5d","683db9eb0562dbf637994deb","6880930e8fda0b342f90c6da","2","1","6122f45e2e93a3ff9a7b7a5d","2","1","2025-07-23T07:54:47.266Z","","","","","","","","","","","AttribQ","","50","","","","","","","","","","","","","","","","","","","","","","","","","","","","",""
"3121","","<div style=""width:500px;"">
  <p>How much control did you have over the ball?</p>
  </div>","80","html-slider-response","46","515665","0.0-5.0-2.7","185","1","2025-07-23 07:46:13","1f75c3e559b7213887762d5229550c2b","41.74.177.238","Mozilla/5.0 (Windows NT 10.0; Win64; x64) AppleWebKit/537.36 (KHTML, like Gecko) Chrome/138.0.0.0 Safari/537.36 Edg/138.0.0.0","WebKit","Edge","138.0.0.0","Windows","10.0","https://app.prolific.com/","en-US,en;q=0.9,en-ZA;q=0.8","6122f45e2e93a3ff9a7b7a5d","683db9eb0562dbf637994deb","6880930e8fda0b342f90c6da","2","1","6122f45e2e93a3ff9a7b7a5d","2","1","2025-07-23T07:54:50.389Z","","","","","","","","","","","ControlQ","","50","","","","","","","","","","","","","","","","","","","","","","","","","","","","",""
"2960","","<div style=""width:500px;"">
  <p>How would you describe your current emotional state?</p>
  </div>","70","html-slider-response","47","518627","0.0-5.0-3.7","185","1","2025-07-23 07:46:13","1f75c3e559b7213887762d5229550c2b","41.74.177.238","Mozilla/5.0 (Windows NT 10.0; Win64; x64) AppleWebKit/537.36 (KHTML, like Gecko) Chrome/138.0.0.0 Safari/537.36 Edg/138.0.0.0","WebKit","Edge","138.0.0.0","Windows","10.0","https://app.prolific.com/","en-US,en;q=0.9,en-ZA;q=0.8","6122f45e2e93a3ff9a7b7a5d","683db9eb0562dbf637994deb","6880930e8fda0b342f90c6da","2","1","6122f45e2e93a3ff9a7b7a5d","2","1","2025-07-23T07:54:53.351Z","","","","","","","","","","","StressQ","","50","","","","","","","","","","","","","","","","","","","","","","","","","","","","",""
"2183","","<div style=""width:500px;"">
  <p>What best describes how you currently feel?</p>
  </div>","23","html-slider-response","48","520812","0.0-5.0-4.7","185","1","2025-07-23 07:46:13","1f75c3e559b7213887762d5229550c2b","41.74.177.238","Mozilla/5.0 (Windows NT 10.0; Win64; x64) AppleWebKit/537.36 (KHTML, like Gecko) Chrome/138.0.0.0 Safari/537.36 Edg/138.0.0.0","WebKit","Edge","138.0.0.0","Windows","10.0","https://app.prolific.com/","en-US,en;q=0.9,en-ZA;q=0.8","6122f45e2e93a3ff9a7b7a5d","683db9eb0562dbf637994deb","6880930e8fda0b342f90c6da","2","1","6122f45e2e93a3ff9a7b7a5d","2","1","2025-07-23T07:54:55.535Z","","","","","","","","","","","MotivationQ","","50","","","","","","","","","","","","","","","","","","","","","","","","","","","","",""
"","","","","ctl-task-cpt","49","555658","0.0-5.0-0.8","185","1","2025-07-23 07:46:13","1f75c3e559b7213887762d5229550c2b","41.74.177.238","Mozilla/5.0 (Windows NT 10.0; Win64; x64) AppleWebKit/537.36 (KHTML, like Gecko) Chrome/138.0.0.0 Safari/537.36 Edg/138.0.0.0","WebKit","Edge","138.0.0.0","Windows","10.0","https://app.prolific.com/","en-US,en;q=0.9,en-ZA;q=0.8","6122f45e2e93a3ff9a7b7a5d","683db9eb0562dbf637994deb","6880930e8fda0b342f90c6da","2","1","6122f45e2e93a3ff9a7b7a5d","2","1","2025-07-23T07:55:30.381Z","","","","","","","","","","","","","","win-only","2","g1:SE,g2:NW","0.2","9","0","523241.5","1424.5","6426.1","31825.7","1","4","8","6","1","1","0","14","14","0.10606060606060606","2322.7","3000","510","[""down"",""right""]","{""num_key_presses"":8,""num_perfect"":0,""num_errors"":1,""num_randdir"":7,""num_randdir_good_moves"":6,""num_whilered"":0,""num_whileblue"":1,""num_blue"":2,""num_good_moves"":6}","[422.57142857142856,407.1808016640799,0.5,422.57142857142856,407.1808016640799,103.8,422.57142857142856,407.1808016640799,207.4,422.57142857142856,407.1808016640799,311.1,422.57142857142856,407.1808016640799,411.6,422.57142857142856,407.1808016640799,520.4,422.57142857142856,407.1808016640799,621.1,406.07142857142856,386.1808016640799,726.5,392.57142857142856,383.1808016640799,826.8,388.07142857142856,375.6808016640799,940.4,377.57142857142856,360.6808016640799,1044.5,289.07142857142856,251.18080166407992,1151.8,221.57142857142856,191.18080166407992,1256.7,142.07142857142856,138.68080166407992,1357.2,139.07142857142856,131.18080166407992,1460.7,115.07142857142857,128.18080166407992,1561.6,109.07142857142857,123.68080166407994,1669.8,116.57142857142857,128.18080166407992,1771.5,262.07142857142856,252.68080166407992,1876.5,871.0714285714286,765.6808016640799,1985,860.5714285714286,759.6808016640799,2085.6,799.0714285714286,741.6808016640799,2186,779.5714285714286,741.6808016640799,2290.9,781.0714285714286,741.6808016640799,2391,781.0714285714286,741.6808016640799,2491.6,788.5714285714286,740.1808016640799,2592.5,922.0714285714286,719.1808016640799,2692.7,1003.0714285714286,722.1808016640799,2797.1,1006.0714285714286,722.1808016640799,2902.7,1006.0714285714286,722.1808016640799,3002.9,1006.0714285714286,722.1808016640799,3107.1,1006.0714285714286,722.1808016640799,3207.1,1006.0714285714286,722.1808016640799,3307.3,1006.0714285714286,722.1808016640799,3418.2,1006.0714285714286,722.1808016640799,3520.3,1006.0714285714286,722.1808016640799,3622.3,1006.0714285714286,722.1808016640799,3726.6,1006.0714285714286,722.1808016640799,3826.7,1006.0714285714286,722.1808016640799,3933.7,1006.0714285714286,722.1808016640799,4036.5,1006.0714285714286,722.1808016640799,4137.2,1006.0714285714286,722.1808016640799,4241,1006.0714285714286,722.1808016640799,4341.2,1006.0714285714286,722.1808016640799,4451.4,1006.0714285714286,722.1808016640799,4551.5,1006.0714285714286,722.1808016640799,4651.5,1006.0714285714286,722.1808016640799,4757.3,1006.0714285714286,722.1808016640799,4857.4,1006.0714285714286,722.1808016640799,4961.5]","[1467.7,1467.7,1000,0,467.7,""oops"",""down"",""left"",""bad_move"",7875.1,6407.2,2641.6,4870,363.5,""oops"",""down"",""down"",""good_move"",11519.9,3644.5,3170.5,7875.4,474,""oops"",""down"",""down"",""good_move"",14011.7,2491.5,2095.1,11520.2,396.4,""oops"",""right"",""right"",""good_move"",17082.4,3070.4,2704.3,14012,366.1,""oops"",""right"",""right"",""good_move"",19896.1,2813.4,2441.5,17082.7,371.9,""while_blue"",""right"",""left"",""bad_move"",22970,3072.6,2624.6,19897.4,448,""oops"",""right"",""right"",""good_move"",25311.9,2341.6,1941.9,22970.3,399.7,""oops"",""right"",""right"",""good_move""]","",""
"6542","","<div style=""width:500px;"">
  <p>What determined the result of this run?</p>
  </div>","77","html-slider-response","50","562201","0.0-5.0-1.8","185","1","2025-07-23 07:46:13","1f75c3e559b7213887762d5229550c2b","41.74.177.238","Mozilla/5.0 (Windows NT 10.0; Win64; x64) AppleWebKit/537.36 (KHTML, like Gecko) Chrome/138.0.0.0 Safari/537.36 Edg/138.0.0.0","WebKit","Edge","138.0.0.0","Windows","10.0","https://app.prolific.com/","en-US,en;q=0.9,en-ZA;q=0.8","6122f45e2e93a3ff9a7b7a5d","683db9eb0562dbf637994deb","6880930e8fda0b342f90c6da","2","1","6122f45e2e93a3ff9a7b7a5d","2","1","2025-07-23T07:55:36.925Z","","","","","","","","","","","AttribQ","","50","","","","","","","","","","","","","","","","","","","","","","","","","","","","",""
"3683","","<div style=""width:500px;"">
  <p>How much control did you have over the ball?</p>
  </div>","73","html-slider-response","51","565886","0.0-5.0-2.8","185","1","2025-07-23 07:46:13","1f75c3e559b7213887762d5229550c2b","41.74.177.238","Mozilla/5.0 (Windows NT 10.0; Win64; x64) AppleWebKit/537.36 (KHTML, like Gecko) Chrome/138.0.0.0 Safari/537.36 Edg/138.0.0.0","WebKit","Edge","138.0.0.0","Windows","10.0","https://app.prolific.com/","en-US,en;q=0.9,en-ZA;q=0.8","6122f45e2e93a3ff9a7b7a5d","683db9eb0562dbf637994deb","6880930e8fda0b342f90c6da","2","1","6122f45e2e93a3ff9a7b7a5d","2","1","2025-07-23T07:55:40.609Z","","","","","","","","","","","ControlQ","","50","","","","","","","","","","","","","","","","","","","","","","","","","","","","",""
"6518","","<div style=""width:500px;"">
  <p>How would you describe your current emotional state?</p>
  </div>","72","html-slider-response","52","572407","0.0-5.0-3.8","185","1","2025-07-23 07:46:13","1f75c3e559b7213887762d5229550c2b","41.74.177.238","Mozilla/5.0 (Windows NT 10.0; Win64; x64) AppleWebKit/537.36 (KHTML, like Gecko) Chrome/138.0.0.0 Safari/537.36 Edg/138.0.0.0","WebKit","Edge","138.0.0.0","Windows","10.0","https://app.prolific.com/","en-US,en;q=0.9,en-ZA;q=0.8","6122f45e2e93a3ff9a7b7a5d","683db9eb0562dbf637994deb","6880930e8fda0b342f90c6da","2","1","6122f45e2e93a3ff9a7b7a5d","2","1","2025-07-23T07:55:47.130Z","","","","","","","","","","","StressQ","","50","","","","","","","","","","","","","","","","","","","","","","","","","","","","",""
"2127","","<div style=""width:500px;"">
  <p>What best describes how you currently feel?</p>
  </div>","21","html-slider-response","53","574536","0.0-5.0-4.8","185","1","2025-07-23 07:46:13","1f75c3e559b7213887762d5229550c2b","41.74.177.238","Mozilla/5.0 (Windows NT 10.0; Win64; x64) AppleWebKit/537.36 (KHTML, like Gecko) Chrome/138.0.0.0 Safari/537.36 Edg/138.0.0.0","WebKit","Edge","138.0.0.0","Windows","10.0","https://app.prolific.com/","en-US,en;q=0.9,en-ZA;q=0.8","6122f45e2e93a3ff9a7b7a5d","683db9eb0562dbf637994deb","6880930e8fda0b342f90c6da","2","1","6122f45e2e93a3ff9a7b7a5d","2","1","2025-07-23T07:55:49.260Z","","","","","","","","","","","MotivationQ","","50","","","","","","","","","","","","","","","","","","","","","","","","","","","","",""
"","","","","ctl-task-cpt","54","615893","0.0-5.0-0.9","185","1","2025-07-23 07:46:13","1f75c3e559b7213887762d5229550c2b","41.74.177.238","Mozilla/5.0 (Windows NT 10.0; Win64; x64) AppleWebKit/537.36 (KHTML, like Gecko) Chrome/138.0.0.0 Safari/537.36 Edg/138.0.0.0","WebKit","Edge","138.0.0.0","Windows","10.0","https://app.prolific.com/","en-US,en;q=0.9,en-ZA;q=0.8","6122f45e2e93a3ff9a7b7a5d","683db9eb0562dbf637994deb","6880930e8fda0b342f90c6da","2","1","6122f45e2e93a3ff9a7b7a5d","2","1","2025-07-23T07:56:30.616Z","","","","","","","","","","","","","","win-only","2","g1:SE,g2:NW","0.4","10","0","576963.4","1237.9","6241.6","38331.3","1","4","4","6","2","-4","-4","10","14","0.07575757575757576","1698.2","3000","-2725","[""left"",""up""]","{""num_key_presses"":8,""num_perfect"":4,""num_errors"":0,""num_randdir"":4,""num_randdir_good_moves"":1,""num_whilered"":0,""num_whileblue"":0,""num_blue"":2,""num_good_moves"":5}","[419.57142857142856,413.1808016640799,0.2,419.57142857142856,413.1808016640799,103.7,419.57142857142856,413.1808016640799,216.4,419.57142857142856,413.1808016640799,316.8,419.57142857142856,413.1808016640799,417.9,419.57142857142856,413.1808016640799,518.6,419.57142857142856,413.1808016640799,622.6,419.57142857142856,452.1808016640799,723.2,419.57142857142856,452.1808016640799,832.5,419.57142857142856,452.1808016640799,933,413.57142857142856,438.6808016640799,1035.3,382.07142857142856,410.1808016640799,1140.3,239.57142857142856,269.1808016640799,1244.2,125.57142857142857,131.18080166407992,1344.8,92.57142857142857,101.18080166407994,1448.2,92.57142857142857,101.18080166407994,1550,92.57142857142857,101.18080166407994,1654,94.07142857142857,101.18080166407994,1766.3,94.07142857142857,101.18080166407994,1866.5,113.57142857142857,111.68080166407994,1967.2,317.57142857142856,129.68080166407992,2068.3,533.5714285714286,197.18080166407992,2172.5,595.0714285714286,188.18080166407992,2274,706.0714285714286,161.18080166407992,2382,716.5714285714286,159.68080166407992,2483.4,716.5714285714286,159.68080166407992,2584.3,716.5714285714286,159.68080166407992,2688.9,716.5714285714286,159.68080166407992,2793.4,716.5714285714286,159.68080166407992,2898.8,716.5714285714286,159.68080166407992,3003.2,716.5714285714286,159.68080166407992,3117.6,716.5714285714286,159.68080166407992,3218.3,716.5714285714286,159.68080166407992,3322.8,716.5714285714286,159.68080166407992,3423.4,716.5714285714286,159.68080166407992,3533.1,716.5714285714286,159.68080166407992,3638.2,716.5714285714286,159.68080166407992,3743.5,716.5714285714286,159.68080166407992,3850,716.5714285714286,159.68080166407992,3952.1,716.5714285714286,159.68080166407992,4053.7,716.5714285714286,159.68080166407992,4167,716.5714285714286,159.68080166407992,4268.5,716.5714285714286,159.68080166407992,4374.2,716.5714285714286,159.68080166407992,4483.4,716.5714285714286,159.68080166407992,4588.1,716.5714285714286,159.68080166407992,4688.1,716.5714285714286,159.68080166407992,4793.7,716.5714285714286,159.68080166407992,4899.1,716.5714285714286,159.68080166407992,4999.9]","[1396.3,1396.3,1000,0,396.3,""oops"",""up"",""right"",""bad_move"",4248.7,2852.2,2406.1,1396.5,446.1,""oops"",""up"",""right"",""bad_move"",7297.3,3048.4,2635.7,4248.9,412.7,""smooth"",""up"",""up"",""good_move"",10496,3198.5,2733.1,7297.5,465.4,""oops"",""up"",""up"",""good_move"",12598.6,2102.3,1697.1,10496.3,405.2,""smooth"",""up"",""up"",""good_move"",15577.5,2978.8,2609.4,12598.7,369.4,""smooth"",""left"",""left"",""good_move"",22010.2,6432.3,2422.9,19164.8,422.5,""smooth"",""left"",""left"",""good_move"",28461.6,6451.3,2461.7,25626.2,373.7,""oops"",""left"",""right"",""bad_move""]","",""
"8857","","<div style=""width:500px;"">
  <p>What determined the result of this run?</p>
  </div>","69","html-slider-response","55","624751","0.0-5.0-1.9","185","1","2025-07-23 07:46:13","1f75c3e559b7213887762d5229550c2b","41.74.177.238","Mozilla/5.0 (Windows NT 10.0; Win64; x64) AppleWebKit/537.36 (KHTML, like Gecko) Chrome/138.0.0.0 Safari/537.36 Edg/138.0.0.0","WebKit","Edge","138.0.0.0","Windows","10.0","https://app.prolific.com/","en-US,en;q=0.9,en-ZA;q=0.8","6122f45e2e93a3ff9a7b7a5d","683db9eb0562dbf637994deb","6880930e8fda0b342f90c6da","2","1","6122f45e2e93a3ff9a7b7a5d","2","1","2025-07-23T07:56:39.474Z","","","","","","","","","","","AttribQ","","50","","","","","","","","","","","","","","","","","","","","","","","","","","","","",""
"4501","","<div style=""width:500px;"">
  <p>How much control did you have over the ball?</p>
  </div>","21","html-slider-response","56","629253","0.0-5.0-2.9","185","1","2025-07-23 07:46:13","1f75c3e559b7213887762d5229550c2b","41.74.177.238","Mozilla/5.0 (Windows NT 10.0; Win64; x64) AppleWebKit/537.36 (KHTML, like Gecko) Chrome/138.0.0.0 Safari/537.36 Edg/138.0.0.0","WebKit","Edge","138.0.0.0","Windows","10.0","https://app.prolific.com/","en-US,en;q=0.9,en-ZA;q=0.8","6122f45e2e93a3ff9a7b7a5d","683db9eb0562dbf637994deb","6880930e8fda0b342f90c6da","2","1","6122f45e2e93a3ff9a7b7a5d","2","1","2025-07-23T07:56:43.977Z","","","","","","","","","","","ControlQ","","50","","","","","","","","","","","","","","","","","","","","","","","","","","","","",""
"3986","","<div style=""width:500px;"">
  <p>How would you describe your current emotional state?</p>
  </div>","69","html-slider-response","57","633241","0.0-5.0-3.9","185","1","2025-07-23 07:46:13","1f75c3e559b7213887762d5229550c2b","41.74.177.238","Mozilla/5.0 (Windows NT 10.0; Win64; x64) AppleWebKit/537.36 (KHTML, like Gecko) Chrome/138.0.0.0 Safari/537.36 Edg/138.0.0.0","WebKit","Edge","138.0.0.0","Windows","10.0","https://app.prolific.com/","en-US,en;q=0.9,en-ZA;q=0.8","6122f45e2e93a3ff9a7b7a5d","683db9eb0562dbf637994deb","6880930e8fda0b342f90c6da","2","1","6122f45e2e93a3ff9a7b7a5d","2","1","2025-07-23T07:56:47.964Z","","","","","","","","","","","StressQ","","50","","","","","","","","","","","","","","","","","","","","","","","","","","","","",""
"9296","","<div style=""width:500px;"">
  <p>What best describes how you currently feel?</p>
  </div>","26","html-slider-response","58","642538","0.0-5.0-4.9","185","1","2025-07-23 07:46:13","1f75c3e559b7213887762d5229550c2b","41.74.177.238","Mozilla/5.0 (Windows NT 10.0; Win64; x64) AppleWebKit/537.36 (KHTML, like Gecko) Chrome/138.0.0.0 Safari/537.36 Edg/138.0.0.0","WebKit","Edge","138.0.0.0","Windows","10.0","https://app.prolific.com/","en-US,en;q=0.9,en-ZA;q=0.8","6122f45e2e93a3ff9a7b7a5d","683db9eb0562dbf637994deb","6880930e8fda0b342f90c6da","2","1","6122f45e2e93a3ff9a7b7a5d","2","1","2025-07-23T07:56:57.261Z","","","","","","","","","","","MotivationQ","","50","","","","","","","","","","","","","","","","","","","","","","","","","","","","",""
"","","","","ctl-task-cpt","59","669611","0.0-5.0-0.10","185","1","2025-07-23 07:46:13","1f75c3e559b7213887762d5229550c2b","41.74.177.238","Mozilla/5.0 (Windows NT 10.0; Win64; x64) AppleWebKit/537.36 (KHTML, like Gecko) Chrome/138.0.0.0 Safari/537.36 Edg/138.0.0.0","WebKit","Edge","138.0.0.0","Windows","10.0","https://app.prolific.com/","en-US,en;q=0.9,en-ZA;q=0.8","6122f45e2e93a3ff9a7b7a5d","683db9eb0562dbf637994deb","6880930e8fda0b342f90c6da","2","1","6122f45e2e93a3ff9a7b7a5d","2","1","2025-07-23T07:57:24.334Z","","","","","","","","","","","","","","win-only","1","g1:NE,g2:SW","0.5","11","0","644965.5","1645.9","6651.2","24051.5","1","4","4","6","1","1","1","11","10","0.08333333333333333","1379.3","3000","1390","[""up"",""right""]","{""num_key_presses"":4,""num_perfect"":3,""num_errors"":0,""num_randdir"":1,""num_randdir_good_moves"":1,""num_whilered"":0,""num_whileblue"":0,""num_blue"":2,""num_good_moves"":4}","[415.07142857142856,417.6808016640799,0.7,415.07142857142856,417.6808016640799,103.8,415.07142857142856,417.6808016640799,204.8,415.07142857142856,417.6808016640799,305.4,413.57142857142856,417.6808016640799,410,340.07142857142856,456.6808016640799,518,335.57142857142856,491.1808016640799,623.1,359.57142857142856,482.1808016640799,724.3,656.5714285714286,237.68080166407992,828.1,749.5714285714286,128.18080166407992,930,757.0714285714286,110.18080166407994,1038.8,758.5714285714286,107.18080166407994,1141.8,758.5714285714286,107.18080166407994,1245.1,758.5714285714286,107.18080166407994,1345.3,758.5714285714286,107.18080166407994,1454.4,758.5714285714286,108.68080166407994,1555.4,758.5714285714286,108.68080166407994,1655.9,758.5714285714286,108.68080166407994,1759.4,758.5714285714286,108.68080166407994,1859.9,752.5714285714286,131.18080166407992,1967.3,850.0714285714286,149.18080166407992,2073.5,905.5714285714286,176.18080166407992,2173.5,962.5714285714286,203.18080166407992,2275.2,962.5714285714286,204.68080166407992,2380,962.5714285714286,204.68080166407992,2489,962.5714285714286,204.68080166407992,2589.5,962.5714285714286,204.68080166407992,2689.9,962.5714285714286,204.68080166407992,2795.4,962.5714285714286,204.68080166407992,2902.8,962.5714285714286,204.68080166407992,3004.4,962.5714285714286,204.68080166407992,3105.3,962.5714285714286,204.68080166407992,3210.3,962.5714285714286,204.68080166407992,3323.9,962.5714285714286,204.68080166407992,3425.3,962.5714285714286,204.68080166407992,3527.6,962.5714285714286,204.68080166407992,3640,962.5714285714286,204.68080166407992,3740,962.5714285714286,204.68080166407992,3845.3,962.5714285714286,204.68080166407992,3952.5,962.5714285714286,204.68080166407992,4053.2,962.5714285714286,204.68080166407992,4155,962.5714285714286,204.68080166407992,4256.3,962.5714285714286,204.68080166407992,4359.9,962.5714285714286,204.68080166407992,4474.2,962.5714285714286,204.68080166407992,4574.3,962.5714285714286,204.68080166407992,4675,962.5714285714286,204.68080166407992,4780.3,962.5714285714286,204.68080166407992,4888.8,962.5714285714286,204.68080166407992,4990.2]","[1431.3,1431.3,1000,0,431.3,""oops"",""up"",""right"",""good_move"",10792,9360.4,2111.8,8242.1,438.2,""smooth"",""up"",""up"",""good_move"",13861.5,3068.2,2643.8,10793.3,424.4,""smooth"",""up"",""up"",""good_move"",17282.8,3420.8,2591,13862,829.8,""smooth"",""right"",""right"",""good_move""]","",""
"7433","","<div style=""width:500px;"">
  <p>What determined the result of this run?</p>
  </div>","77","html-slider-response","60","677045","0.0-5.0-1.10","185","1","2025-07-23 07:46:13","1f75c3e559b7213887762d5229550c2b","41.74.177.238","Mozilla/5.0 (Windows NT 10.0; Win64; x64) AppleWebKit/537.36 (KHTML, like Gecko) Chrome/138.0.0.0 Safari/537.36 Edg/138.0.0.0","WebKit","Edge","138.0.0.0","Windows","10.0","https://app.prolific.com/","en-US,en;q=0.9,en-ZA;q=0.8","6122f45e2e93a3ff9a7b7a5d","683db9eb0562dbf637994deb","6880930e8fda0b342f90c6da","2","1","6122f45e2e93a3ff9a7b7a5d","2","1","2025-07-23T07:57:31.768Z","","","","","","","","","","","AttribQ","","50","","","","","","","","","","","","","","","","","","","","","","","","","","","","",""
"4040","","<div style=""width:500px;"">
  <p>How much control did you have over the ball?</p>
  </div>","91","html-slider-response","61","681086","0.0-5.0-2.10","185","1","2025-07-23 07:46:13","1f75c3e559b7213887762d5229550c2b","41.74.177.238","Mozilla/5.0 (Windows NT 10.0; Win64; x64) AppleWebKit/537.36 (KHTML, like Gecko) Chrome/138.0.0.0 Safari/537.36 Edg/138.0.0.0","WebKit","Edge","138.0.0.0","Windows","10.0","https://app.prolific.com/","en-US,en;q=0.9,en-ZA;q=0.8","6122f45e2e93a3ff9a7b7a5d","683db9eb0562dbf637994deb","6880930e8fda0b342f90c6da","2","1","6122f45e2e93a3ff9a7b7a5d","2","1","2025-07-23T07:57:35.809Z","","","","","","","","","","","ControlQ","","50","","","","","","","","","","","","","","","","","","","","","","","","","","","","",""
"3742","","<div style=""width:500px;"">
  <p>How would you describe your current emotional state?</p>
  </div>","77","html-slider-response","62","684829","0.0-5.0-3.10","185","1","2025-07-23 07:46:13","1f75c3e559b7213887762d5229550c2b","41.74.177.238","Mozilla/5.0 (Windows NT 10.0; Win64; x64) AppleWebKit/537.36 (KHTML, like Gecko) Chrome/138.0.0.0 Safari/537.36 Edg/138.0.0.0","WebKit","Edge","138.0.0.0","Windows","10.0","https://app.prolific.com/","en-US,en;q=0.9,en-ZA;q=0.8","6122f45e2e93a3ff9a7b7a5d","683db9eb0562dbf637994deb","6880930e8fda0b342f90c6da","2","1","6122f45e2e93a3ff9a7b7a5d","2","1","2025-07-23T07:57:39.552Z","","","","","","","","","","","StressQ","","50","","","","","","","","","","","","","","","","","","","","","","","","","","","","",""
"2541","","<div style=""width:500px;"">
  <p>What best describes how you currently feel?</p>
  </div>","21","html-slider-response","63","687371","0.0-5.0-4.10","185","1","2025-07-23 07:46:13","1f75c3e559b7213887762d5229550c2b","41.74.177.238","Mozilla/5.0 (Windows NT 10.0; Win64; x64) AppleWebKit/537.36 (KHTML, like Gecko) Chrome/138.0.0.0 Safari/537.36 Edg/138.0.0.0","WebKit","Edge","138.0.0.0","Windows","10.0","https://app.prolific.com/","en-US,en;q=0.9,en-ZA;q=0.8","6122f45e2e93a3ff9a7b7a5d","683db9eb0562dbf637994deb","6880930e8fda0b342f90c6da","2","1","6122f45e2e93a3ff9a7b7a5d","2","1","2025-07-23T07:57:42.094Z","","","","","","","","","","","MotivationQ","","50","","","","","","","","","","","","","","","","","","","","","","","","","","","","",""
"","","","","ctl-task-cpt","64","711660","0.0-5.0-0.11","185","1","2025-07-23 07:46:13","1f75c3e559b7213887762d5229550c2b","41.74.177.238","Mozilla/5.0 (Windows NT 10.0; Win64; x64) AppleWebKit/537.36 (KHTML, like Gecko) Chrome/138.0.0.0 Safari/537.36 Edg/138.0.0.0","WebKit","Edge","138.0.0.0","Windows","10.0","https://app.prolific.com/","en-US,en;q=0.9,en-ZA;q=0.8","6122f45e2e93a3ff9a7b7a5d","683db9eb0562dbf637994deb","6880930e8fda0b342f90c6da","2","1","6122f45e2e93a3ff9a7b7a5d","2","1","2025-07-23T07:58:06.383Z","","","","","","","","","","","","","","win-only","0","g1:NW,g2:SE","0.6","12","0","689798.1","1223.1","6226.4","21270.9","1","4","8","6","1","1","1","12","11","0.09090909090909091","1508.8","3000","1885","[""left"",""up""]","{""num_key_presses"":4,""num_perfect"":3,""num_errors"":0,""num_randdir"":1,""num_randdir_good_moves"":1,""num_whilered"":0,""num_whileblue"":0,""num_blue"":2,""num_good_moves"":4}","[419.57142857142856,404.1808016640799,0.7,419.57142857142856,404.1808016640799,108.9,419.57142857142856,404.1808016640799,212,419.57142857142856,404.1808016640799,313.7,419.57142857142856,404.1808016640799,414.6,419.57142857142856,404.1808016640799,517.7,419.57142857142856,404.1808016640799,618,419.57142857142856,404.1808016640799,723.8,413.57142857142856,401.1808016640799,824.4,356.57142857142856,320.1808016640799,928.6,220.07142857142856,215.18080166407992,1028.7,26.57142857142857,96.68080166407994,1132.6,44.57142857142857,89.18080166407994,1233.5,47.57142857142857,95.18080166407994,1346.1,49.07142857142857,96.68080166407994,1448.8,49.07142857142857,96.68080166407994,1553.5,49.07142857142857,96.68080166407994,1660.9,49.07142857142857,96.68080166407994,1762.1,-0.4285714285714306,125.18080166407994,1863.6,-186.42857142857144,185.18080166407992,1964.7,-231.42857142857144,270.6808016640799,2068.7,-246.42857142857144,293.1808016640799,2174,-246.42857142857144,293.1808016640799,2278.4,-246.42857142857144,293.1808016640799,2383.5,-246.42857142857144,293.1808016640799,2496,-246.42857142857144,293.1808016640799,2596.7,-246.42857142857144,293.1808016640799,2697.7,-246.42857142857144,293.1808016640799,2804.7,-246.42857142857144,293.1808016640799,2914,-246.42857142857144,293.1808016640799,3017.9,-246.42857142857144,293.1808016640799,3132.2,-246.42857142857144,293.1808016640799,3232.9,-246.42857142857144,293.1808016640799,3338.3,-246.42857142857144,293.1808016640799,3444.4,-246.42857142857144,293.1808016640799,3545.3,-246.42857142857144,293.1808016640799,3650.3,-246.42857142857144,293.1808016640799,3752.6,-246.42857142857144,293.1808016640799,3861.1,-246.42857142857144,293.1808016640799,3962.3,-246.42857142857144,293.1808016640799,4062.9,-246.42857142857144,293.1808016640799,4167.7,-246.42857142857144,293.1808016640799,4268,-246.42857142857144,293.1808016640799,4368.9,-246.42857142857144,293.1808016640799,4478.5,-246.42857142857144,293.1808016640799,4583.1,-246.42857142857144,293.1808016640799,4695.1,-246.42857142857144,293.1808016640799,4795.5,-246.42857142857144,293.1808016640799,4898.3]","[4791.7,4791.7,2368.6,2009.9,413.2,""smooth"",""up"",""up"",""good_move"",9786.9,4994.7,2062.7,7380.6,343.6,""smooth"",""up"",""up"",""good_move"",12507.7,2720.4,2335.1,9787.4,385.2,""smooth"",""left"",""left"",""good_move"",14926.1,2418.2,2018.6,12508,399.6,""oops"",""left"",""left"",""good_move""]","",""
"3751","","<div style=""width:500px;"">
  <p>What determined the result of this run?</p>
  </div>","98","html-slider-response","65","715412","0.0-5.0-1.11","185","1","2025-07-23 07:46:13","1f75c3e559b7213887762d5229550c2b","41.74.177.238","Mozilla/5.0 (Windows NT 10.0; Win64; x64) AppleWebKit/537.36 (KHTML, like Gecko) Chrome/138.0.0.0 Safari/537.36 Edg/138.0.0.0","WebKit","Edge","138.0.0.0","Windows","10.0","https://app.prolific.com/","en-US,en;q=0.9,en-ZA;q=0.8","6122f45e2e93a3ff9a7b7a5d","683db9eb0562dbf637994deb","6880930e8fda0b342f90c6da","2","1","6122f45e2e93a3ff9a7b7a5d","2","1","2025-07-23T07:58:10.136Z","","","","","","","","","","","AttribQ","","50","","","","","","","","","","","","","","","","","","","","","","","","","","","","",""
"3012","","<div style=""width:500px;"">
  <p>How much control did you have over the ball?</p>
  </div>","96","html-slider-response","66","718425","0.0-5.0-2.11","185","1","2025-07-23 07:46:13","1f75c3e559b7213887762d5229550c2b","41.74.177.238","Mozilla/5.0 (Windows NT 10.0; Win64; x64) AppleWebKit/537.36 (KHTML, like Gecko) Chrome/138.0.0.0 Safari/537.36 Edg/138.0.0.0","WebKit","Edge","138.0.0.0","Windows","10.0","https://app.prolific.com/","en-US,en;q=0.9,en-ZA;q=0.8","6122f45e2e93a3ff9a7b7a5d","683db9eb0562dbf637994deb","6880930e8fda0b342f90c6da","2","1","6122f45e2e93a3ff9a7b7a5d","2","1","2025-07-23T07:58:13.148Z","","","","","","","","","","","ControlQ","","50","","","","","","","","","","","","","","","","","","","","","","","","","","","","",""
"2303","","<div style=""width:500px;"">
  <p>How would you describe your current emotional state?</p>
  </div>","76","html-slider-response","67","720730","0.0-5.0-3.11","185","1","2025-07-23 07:46:13","1f75c3e559b7213887762d5229550c2b","41.74.177.238","Mozilla/5.0 (Windows NT 10.0; Win64; x64) AppleWebKit/537.36 (KHTML, like Gecko) Chrome/138.0.0.0 Safari/537.36 Edg/138.0.0.0","WebKit","Edge","138.0.0.0","Windows","10.0","https://app.prolific.com/","en-US,en;q=0.9,en-ZA;q=0.8","6122f45e2e93a3ff9a7b7a5d","683db9eb0562dbf637994deb","6880930e8fda0b342f90c6da","2","1","6122f45e2e93a3ff9a7b7a5d","2","1","2025-07-23T07:58:15.453Z","","","","","","","","","","","StressQ","","50","","","","","","","","","","","","","","","","","","","","","","","","","","","","",""
"2489","","<div style=""width:500px;"">
  <p>What best describes how you currently feel?</p>
  </div>","18","html-slider-response","68","723220","0.0-5.0-4.11","185","1","2025-07-23 07:46:13","1f75c3e559b7213887762d5229550c2b","41.74.177.238","Mozilla/5.0 (Windows NT 10.0; Win64; x64) AppleWebKit/537.36 (KHTML, like Gecko) Chrome/138.0.0.0 Safari/537.36 Edg/138.0.0.0","WebKit","Edge","138.0.0.0","Windows","10.0","https://app.prolific.com/","en-US,en;q=0.9,en-ZA;q=0.8","6122f45e2e93a3ff9a7b7a5d","683db9eb0562dbf637994deb","6880930e8fda0b342f90c6da","2","1","6122f45e2e93a3ff9a7b7a5d","2","1","2025-07-23T07:58:17.944Z","","","","","","","","","","","MotivationQ","","50","","","","","","","","","","","","","","","","","","","","","","","","","","","","",""
"","","","","ctl-task-cpt","69","743760","0.0-5.0-0.12","185","1","2025-07-23 07:46:13","1f75c3e559b7213887762d5229550c2b","41.74.177.238","Mozilla/5.0 (Windows NT 10.0; Win64; x64) AppleWebKit/537.36 (KHTML, like Gecko) Chrome/138.0.0.0 Safari/537.36 Edg/138.0.0.0","WebKit","Edge","138.0.0.0","Windows","10.0","https://app.prolific.com/","en-US,en;q=0.9,en-ZA;q=0.8","6122f45e2e93a3ff9a7b7a5d","683db9eb0562dbf637994deb","6880930e8fda0b342f90c6da","2","1","6122f45e2e93a3ff9a7b7a5d","2","1","2025-07-23T07:58:38.483Z","","","","","","","","","","","","","","win-only","1","g1:NE,g2:SW","0.7","13","0","725653","1281.8","6286.6","17515.8","1","4","4","6","1","1","1","13","12","0.09848484848484848","1545.8","3000","1550","[""up"",""right""]","{""num_key_presses"":4,""num_perfect"":4,""num_errors"":0,""num_randdir"":0,""num_randdir_good_moves"":0,""num_whilered"":0,""num_whileblue"":0,""num_blue"":0,""num_good_moves"":4}","[406.07142857142856,419.1808016640799,0.3,407.57142857142856,419.1808016640799,104.1,407.57142857142856,419.1808016640799,205.2,406.07142857142856,419.1808016640799,314.6,406.07142857142856,419.1808016640799,415.1,406.07142857142856,419.1808016640799,519,406.07142857142856,420.6808016640799,632.1,404.57142857142856,425.1808016640799,734.7,400.07142857142856,428.1808016640799,834.8,440.57142857142856,398.1808016640799,948,608.5714285714286,273.6808016640799,1048.6,644.5714285714286,239.18080166407992,1149.5,688.0714285714286,182.18080166407992,1263.7,715.0714285714286,125.18080166407994,1366.4,733.0714285714286,101.18080166407994,1469,733.0714285714286,99.68080166407994,1569.4,733.0714285714286,99.68080166407994,1669.6,736.0714285714286,108.68080166407994,1769.8,925.0714285714286,243.68080166407992,1874.2,950.5714285714286,263.1808016640799,1983.5,950.5714285714286,264.6808016640799,2084.8,950.5714285714286,264.6808016640799,2197.5,950.5714285714286,264.6808016640799,2298.9,950.5714285714286,264.6808016640799,2403.9,950.5714285714286,264.6808016640799,2504.7,950.5714285714286,264.6808016640799,2615.2,950.5714285714286,264.6808016640799,2718.9,950.5714285714286,264.6808016640799,2821.7,950.5714285714286,264.6808016640799,2925.2,950.5714285714286,264.6808016640799,3032.6,950.5714285714286,264.6808016640799,3147.1,950.5714285714286,264.6808016640799,3254.7,950.5714285714286,264.6808016640799,3360.1,950.5714285714286,264.6808016640799,3466.8,950.5714285714286,264.6808016640799,3568.9,950.5714285714286,264.6808016640799,3681.5,950.5714285714286,264.6808016640799,3789.7,950.5714285714286,264.6808016640799,3899.3,950.5714285714286,264.6808016640799,4014.7,950.5714285714286,264.6808016640799,4119.4,950.5714285714286,264.6808016640799,4223.9,950.5714285714286,264.6808016640799,4331.4,950.5714285714286,264.6808016640799,4436,950.5714285714286,264.6808016640799,4539.5,950.5714285714286,264.6808016640799,4646.6,950.5714285714286,264.6808016640799,4751.2,950.5714285714286,264.6808016640799,4854.5,950.5714285714286,264.6808016640799,4961.3]","[1640.4,1640.4,1000,0,640.4,""smooth"",""up"",""up"",""good_move"",4928.4,3287.6,2841.7,1640.8,445.9,""smooth"",""up"",""up"",""good_move"",7741.9,2812.9,2369.8,4929,443.1,""smooth"",""right"",""right"",""good_move"",11113.5,3371.3,2865.5,7742.2,505.8,""smooth"",""right"",""right"",""good_move""]","",""
"6889","","<div style=""width:500px;"">
  <p>What determined the result of this run?</p>
  </div>","82","html-slider-response","70","750650","0.0-5.0-1.12","185","1","2025-07-23 07:46:13","1f75c3e559b7213887762d5229550c2b","41.74.177.238","Mozilla/5.0 (Windows NT 10.0; Win64; x64) AppleWebKit/537.36 (KHTML, like Gecko) Chrome/138.0.0.0 Safari/537.36 Edg/138.0.0.0","WebKit","Edge","138.0.0.0","Windows","10.0","https://app.prolific.com/","en-US,en;q=0.9,en-ZA;q=0.8","6122f45e2e93a3ff9a7b7a5d","683db9eb0562dbf637994deb","6880930e8fda0b342f90c6da","2","1","6122f45e2e93a3ff9a7b7a5d","2","1","2025-07-23T07:58:45.374Z","","","","","","","","","","","AttribQ","","50","","","","","","","","","","","","","","","","","","","","","","","","","","","","",""
"7388","","<div style=""width:500px;"">
  <p>How much control did you have over the ball?</p>
  </div>","89","html-slider-response","71","758040","0.0-5.0-2.12","185","1","2025-07-23 07:46:13","1f75c3e559b7213887762d5229550c2b","41.74.177.238","Mozilla/5.0 (Windows NT 10.0; Win64; x64) AppleWebKit/537.36 (KHTML, like Gecko) Chrome/138.0.0.0 Safari/537.36 Edg/138.0.0.0","WebKit","Edge","138.0.0.0","Windows","10.0","https://app.prolific.com/","en-US,en;q=0.9,en-ZA;q=0.8","6122f45e2e93a3ff9a7b7a5d","683db9eb0562dbf637994deb","6880930e8fda0b342f90c6da","2","1","6122f45e2e93a3ff9a7b7a5d","2","1","2025-07-23T07:58:52.764Z","","","","","","","","","","","ControlQ","","50","","","","","","","","","","","","","","","","","","","","","","","","","","","","",""
"3481","","<div style=""width:500px;"">
  <p>How would you describe your current emotional state?</p>
  </div>","75","html-slider-response","72","761523","0.0-5.0-3.12","185","1","2025-07-23 07:46:13","1f75c3e559b7213887762d5229550c2b","41.74.177.238","Mozilla/5.0 (Windows NT 10.0; Win64; x64) AppleWebKit/537.36 (KHTML, like Gecko) Chrome/138.0.0.0 Safari/537.36 Edg/138.0.0.0","WebKit","Edge","138.0.0.0","Windows","10.0","https://app.prolific.com/","en-US,en;q=0.9,en-ZA;q=0.8","6122f45e2e93a3ff9a7b7a5d","683db9eb0562dbf637994deb","6880930e8fda0b342f90c6da","2","1","6122f45e2e93a3ff9a7b7a5d","2","1","2025-07-23T07:58:56.247Z","","","","","","","","","","","StressQ","","50","","","","","","","","","","","","","","","","","","","","","","","","","","","","",""
"3485","","<div style=""width:500px;"">
  <p>What best describes how you currently feel?</p>
  </div>","18","html-slider-response","73","765009","0.0-5.0-4.12","185","1","2025-07-23 07:46:13","1f75c3e559b7213887762d5229550c2b","41.74.177.238","Mozilla/5.0 (Windows NT 10.0; Win64; x64) AppleWebKit/537.36 (KHTML, like Gecko) Chrome/138.0.0.0 Safari/537.36 Edg/138.0.0.0","WebKit","Edge","138.0.0.0","Windows","10.0","https://app.prolific.com/","en-US,en;q=0.9,en-ZA;q=0.8","6122f45e2e93a3ff9a7b7a5d","683db9eb0562dbf637994deb","6880930e8fda0b342f90c6da","2","1","6122f45e2e93a3ff9a7b7a5d","2","1","2025-07-23T07:58:59.732Z","","","","","","","","","","","MotivationQ","","50","","","","","","","","","","","","","","","","","","","","","","","","","","","","",""
"","","","","ctl-task-cpt","74","792208","0.0-5.0-0.13","185","1","2025-07-23 07:46:13","1f75c3e559b7213887762d5229550c2b","41.74.177.238","Mozilla/5.0 (Windows NT 10.0; Win64; x64) AppleWebKit/537.36 (KHTML, like Gecko) Chrome/138.0.0.0 Safari/537.36 Edg/138.0.0.0","WebKit","Edge","138.0.0.0","Windows","10.0","https://app.prolific.com/","en-US,en;q=0.9,en-ZA;q=0.8","6122f45e2e93a3ff9a7b7a5d","683db9eb0562dbf637994deb","6880930e8fda0b342f90c6da","2","1","6122f45e2e93a3ff9a7b7a5d","2","1","2025-07-23T07:59:26.931Z","","","","","","","","","","","","","","win-only","1","g1:NE,g2:SW","0.8","14","0","767436.6","1233.7","6255.6","24177.3","1","4","8","6","1","1","1","14","13","0.10606060606060606","1330.9","3000","1745","[""up"",""right""]","{""num_key_presses"":4,""num_perfect"":4,""num_errors"":0,""num_randdir"":0,""num_randdir_good_moves"":0,""num_whilered"":0,""num_whileblue"":0,""num_blue"":2,""num_good_moves"":4}","[412.07142857142856,407.1808016640799,0.4,413.57142857142856,407.1808016640799,113.1,413.57142857142856,407.1808016640799,217.7,413.57142857142856,407.1808016640799,327.6,413.57142857142856,407.1808016640799,429.6,412.07142857142856,408.6808016640799,530.3,410.57142857142856,411.6808016640799,632.8,406.07142857142856,419.1808016640799,747.1,406.07142857142856,419.1808016640799,848.2,454.07142857142856,378.6808016640799,952.4,682.0714285714286,161.18080166407992,1062,709.0714285714286,131.18080166407992,1166.9,728.5714285714286,110.18080166407994,1275,728.5714285714286,110.18080166407994,1376.9,728.5714285714286,110.18080166407994,1478.8,728.5714285714286,110.18080166407994,1582.8,731.5714285714286,117.68080166407994,1696.5,788.5714285714286,167.18080166407992,1797.7,889.0714285714286,222.68080166407992,1898.2,944.5714285714286,338.1808016640799,2012.7,944.5714285714286,338.1808016640799,2116,944.5714285714286,338.1808016640799,2217.1,944.5714285714286,338.1808016640799,2317.9,944.5714285714286,338.1808016640799,2426.1,944.5714285714286,338.1808016640799,2531.6,944.5714285714286,338.1808016640799,2632.5,944.5714285714286,338.1808016640799,2732.8,944.5714285714286,338.1808016640799,2842.2,944.5714285714286,338.1808016640799,2946.1,944.5714285714286,338.1808016640799,3047.4,944.5714285714286,338.1808016640799,3152.4,944.5714285714286,338.1808016640799,3252.8,944.5714285714286,338.1808016640799,3366.9,944.5714285714286,338.1808016640799,3475.9,944.5714285714286,338.1808016640799,3591.5,944.5714285714286,338.1808016640799,3695.7,944.5714285714286,338.1808016640799,3800.3,944.5714285714286,338.1808016640799,3902.3,944.5714285714286,338.1808016640799,4003,944.5714285714286,338.1808016640799,4112,944.5714285714286,338.1808016640799,4224,944.5714285714286,338.1808016640799,4325,944.5714285714286,338.1808016640799,4433,944.5714285714286,338.1808016640799,4537,944.5714285714286,338.1808016640799,4637.6,944.5714285714286,338.1808016640799,4740.1,944.5714285714286,338.1808016640799,4846.7,944.5714285714286,338.1808016640799,4954.5]","[1537.5,1537.5,1000,0.1,537.4,""smooth"",""up"",""up"",""good_move"",4269.4,2731.6,2255.9,1537.8,475.7,""smooth"",""up"",""up"",""good_move"",10072.6,5802.4,2676.3,6990.8,405.6,""smooth"",""right"",""right"",""good_move"",17801.2,7727.9,3188.3,14156,456.9,""smooth"",""right"",""right"",""good_move""]","",""
"7388","","<div style=""width:500px;"">
  <p>What determined the result of this run?</p>
  </div>","80","html-slider-response","75","799596","0.0-5.0-1.13","185","1","2025-07-23 07:46:13","1f75c3e559b7213887762d5229550c2b","41.74.177.238","Mozilla/5.0 (Windows NT 10.0; Win64; x64) AppleWebKit/537.36 (KHTML, like Gecko) Chrome/138.0.0.0 Safari/537.36 Edg/138.0.0.0","WebKit","Edge","138.0.0.0","Windows","10.0","https://app.prolific.com/","en-US,en;q=0.9,en-ZA;q=0.8","6122f45e2e93a3ff9a7b7a5d","683db9eb0562dbf637994deb","6880930e8fda0b342f90c6da","2","1","6122f45e2e93a3ff9a7b7a5d","2","1","2025-07-23T07:59:34.320Z","","","","","","","","","","","AttribQ","","50","","","","","","","","","","","","","","","","","","","","","","","","","","","","",""
"10275","","<div style=""width:500px;"">
  <p>How much control did you have over the ball?</p>
  </div>","88","html-slider-response","76","809874","0.0-5.0-2.13","185","1","2025-07-23 07:46:13","1f75c3e559b7213887762d5229550c2b","41.74.177.238","Mozilla/5.0 (Windows NT 10.0; Win64; x64) AppleWebKit/537.36 (KHTML, like Gecko) Chrome/138.0.0.0 Safari/537.36 Edg/138.0.0.0","WebKit","Edge","138.0.0.0","Windows","10.0","https://app.prolific.com/","en-US,en;q=0.9,en-ZA;q=0.8","6122f45e2e93a3ff9a7b7a5d","683db9eb0562dbf637994deb","6880930e8fda0b342f90c6da","2","1","6122f45e2e93a3ff9a7b7a5d","2","1","2025-07-23T07:59:44.597Z","","","","","","","","","","","ControlQ","","50","","","","","","","","","","","","","","","","","","","","","","","","","","","","",""
"4295","","<div style=""width:500px;"">
  <p>How would you describe your current emotional state?</p>
