"rt","response_timestamp","stimulus","response","trial_type","trial_index","time_elapsed","internal_node_id","run_id","condition","recorded_at","source_code_version","ip","user_agent","device","browser","browser_version","platform","platform_version","referer","accept_language","PROLIFIC_PID","STUDY_ID","SESSION_ID","WEEK","prolific_id","week","realtime","success","responses","item_order","radio_event_ids","radio_event_times","key_event_times","mouse_event_times","straightlining","zigzagging","honeypot","eventType","view_history","slider_start","which_type","canvas_config","goals_layout","control_level","trial_number","tutorial_trial_number","trial_start_time","phase1_start_time","phase2_start_time","phase3_start_time","goal_1_value","goal_1_distance","goal_2_value","goal_2_distance","goal_selected","outcome","outcome_total","participant_final_score","participant_initial_score","participant_final_score_prop","goal_choice_rt","allocated_time","allocated_time_remaining","goal_direction","counts","mouse_movements","key_presses","question_order","question_id"
"285616","1752050593001","<p style='font-size:40px;line-height:1.25'><strong>Welcome to the experiment!</strong></p><p style='font-size:1.1em;line-height:1.25'>Thank you for participanting in our experiment again! You will be asked to play the Dysfunctional Ball Game again. We will briefly recap the rules before we start.</p><p style='font-size:1.1em;line-height:1.25'>Press <strong>Next</strong> to continue.</p>","0","custom-html-button-response","0","285628","0.0-0.0","2","1","2025-07-09 08:38:22","01610cd0009c79a99da7d0a3353eb402","41.122.128.184","Mozilla/5.0 (Macintosh; Intel Mac OS X 10_15_7) AppleWebKit/537.36 (KHTML, like Gecko) Chrome/128.0.0.0 Safari/537.36","Macintosh","Chrome","128.0.0.0","OS X","10_15_7","https://app.prolific.com/","en-GB,en-US;q=0.9,en;q=0.8","678bad003d15e6aba1ee5a5d","683db7602f5db6a34d12d064","686e2a6e2e413333777736b3","1","678bad003d15e6aba1ee5a5d","1","2025-07-09T08:43:13.004Z","","","","","","","","","","","","","","","","","","","","","","","","","","","","","","","","","","","","","","","","","",""
"171829","","","","fullscreen","1","458484","0.0-1.0","2","1","2025-07-09 08:38:22","01610cd0009c79a99da7d0a3353eb402","41.122.128.184","Mozilla/5.0 (Macintosh; Intel Mac OS X 10_15_7) AppleWebKit/537.36 (KHTML, like Gecko) Chrome/128.0.0.0 Safari/537.36","Macintosh","Chrome","128.0.0.0","OS X","10_15_7","https://app.prolific.com/","en-GB,en-US;q=0.9,en;q=0.8","678bad003d15e6aba1ee5a5d","683db7602f5db6a34d12d064","686e2a6e2e413333777736b3","1","678bad003d15e6aba1ee5a5d","1","","true","","","","","","","","","","","","","","","","","","","","","","","","","","","","","","","","","","","","","","","","",""
"16803","1752050782664","<p style='font-size:1.1em;line-height:1.25'>In the following, we will ask you a few questions relating to your feelings in the last 24 hours.<br></p><p style='font-size:1.1em;line-height:1.25'>Press the <strong>Next</strong> button to continue.</p>","0","custom-html-button-response","2","475290","0.0-2.0-0.0","2","1","2025-07-09 08:38:22","01610cd0009c79a99da7d0a3353eb402","41.122.128.184","Mozilla/5.0 (Macintosh; Intel Mac OS X 10_15_7) AppleWebKit/537.36 (KHTML, like Gecko) Chrome/128.0.0.0 Safari/537.36","Macintosh","Chrome","128.0.0.0","OS X","10_15_7","https://app.prolific.com/","en-GB,en-US;q=0.9,en;q=0.8","678bad003d15e6aba1ee5a5d","683db7602f5db6a34d12d064","686e2a6e2e413333777736b3","1","678bad003d15e6aba1ee5a5d","1","2025-07-09T08:46:22.664Z","","","","","","","","","","","","","","","","","","","","","","","","","","","","","","","","","","","","","","","","","",""
"246058.70000004768","","","","survey-template","3","721366","0.0-2.0-1.0","2","1","2025-07-09 08:38:22","01610cd0009c79a99da7d0a3353eb402","41.122.128.184","Mozilla/5.0 (Macintosh; Intel Mac OS X 10_15_7) AppleWebKit/537.36 (KHTML, like Gecko) Chrome/128.0.0.0 Safari/537.36","Macintosh","Chrome","128.0.0.0","OS X","10_15_7","https://app.prolific.com/","en-GB,en-US;q=0.9,en;q=0.8","678bad003d15e6aba1ee5a5d","683db7602f5db6a34d12d064","686e2a6e2e413333777736b3","1","678bad003d15e6aba1ee5a5d","1","2025-07-09T08:50:28.740Z","","{""Q01"":""1"",""Q02"":""0"",""Q03"":""0"",""Q04"":""2"",""Q05"":""3"",""Q06"":""2"",""Q07"":""1"",""Q08"":""1"",""Q09"":""1"",""Q10"":""0"",""Q11"":""3"",""Q12"":""1"",""Q13"":""5"",""Q14"":""1"",""Q15"":""3"",""Q16"":""2"",""Q17"":""3"",""Q18"":""2"",""Q19"":""3"",""Q20"":""2"",""Q21"":""2"",""Q22"":""1""}","[0,1,2,3,4,5,6,7,8,9,10,11,12,13,14,15,16,17,18,19,20,21]","[""Q01"",""Q02"",""Q03"",""Q04"",""Q05"",""Q06"",""Q07"",""Q08"",""Q10"",""Q09"",""Q11"",""Q12"",""Q13"",""Q14"",""Q13"",""Q15"",""Q16"",""Q17"",""Q18"",""Q19"",""Q20"",""Q21"",""Q22""]","[66749.10000002384,71641,72423.10000002384,74990.30000007153,185120.89999997616,188793.60000002384,190721,192394.80000007153,198004.89999997616,198632.80000007153,201884.80000007153,204901,205432.80000007153,206182.80000007153,209769.20000004768,212197.10000002384,214041.60000002384,217115.70000004768,219578.20000004768,220288.5,221481.70000004768,225993,230038.70000004768]","[]","[0.10000002384185791,64742.800000071526,66749.10000002384,68266.60000002384,69497.10000002384,70093.20000004768,70959.20000004768,71641,72423.10000002384,74990.30000007153,185120.89999997616,188793.60000002384,190721,192394.80000007153,195297,197065.5,198004.89999997616,198632.80000007153,201884.80000007153,204901,205432.80000007153,206182.80000007153,209031.5,209769.20000004768,212197.10000002384,212838,214041.60000002384,214674.89999997616,216195.20000004768,217115.70000004768,217847.89999997616,218598.20000004768,219578.20000004768,220288.5,221481.70000004768,225993,227837.10000002384,229239.20000004768,230038.70000004768,246050.60000002384]","0.3181818181818182","0.5238095238095238","0","drsp","","","","","","","","","","","","","","","","","","","","","","","","","","","","","","",""
"13341.600000023842","","","","survey-template","4","734712","0.0-2.0-2.0","2","1","2025-07-09 08:38:22","01610cd0009c79a99da7d0a3353eb402","41.122.128.184","Mozilla/5.0 (Macintosh; Intel Mac OS X 10_15_7) AppleWebKit/537.36 (KHTML, like Gecko) Chrome/128.0.0.0 Safari/537.36","Macintosh","Chrome","128.0.0.0","OS X","10_15_7","https://app.prolific.com/","en-GB,en-US;q=0.9,en;q=0.8","678bad003d15e6aba1ee5a5d","683db7602f5db6a34d12d064","686e2a6e2e413333777736b3","1","678bad003d15e6aba1ee5a5d","1","2025-07-09T08:50:42.086Z","","{""Q01"":""3"",""Q02"":""1"",""Q03"":""2""}","[0,1,2]","[""Q01"",""Q02"",""Q03""]","[3853,6654,11714]","[]","[3853,6654,11714,13340]","0.3333333333333333","0.5","0","stress","","","","","","","","","","","","","","","","","","","","","","","","","","","","","","",""
"48626","","","","instructions","5","783346","0.0-3.0-0.0","2","1","2025-07-09 08:38:22","01610cd0009c79a99da7d0a3353eb402","41.122.128.184","Mozilla/5.0 (Macintosh; Intel Mac OS X 10_15_7) AppleWebKit/537.36 (KHTML, like Gecko) Chrome/128.0.0.0 Safari/537.36","Macintosh","Chrome","128.0.0.0","OS X","10_15_7","https://app.prolific.com/","en-GB,en-US;q=0.9,en;q=0.8","678bad003d15e6aba1ee5a5d","683db7602f5db6a34d12d064","686e2a6e2e413333777736b3","1","678bad003d15e6aba1ee5a5d","1","","","","","","","","","","","","","[{""page_index"":0,""viewing_time"":48626}]","","","","","","","","","","","","","","","","","","","","","","","","","","","","","",""
"7608","","<p>Before you start with this game please answer the following three questions yourself. </p>
  <p>Through this game, we measure several aspects of your cognitive performance, such as reaction times, multi-tasking capabilities </p>
  <p>and the ability to assess the situation you are in.</p>
  <p></p>
  <p><b>How good do you usually are in such tasks?</b></p>","86","html-slider-response","6","790958","0.0-4.0-0.0","2","1","2025-07-09 08:38:22","01610cd0009c79a99da7d0a3353eb402","41.122.128.184","Mozilla/5.0 (Macintosh; Intel Mac OS X 10_15_7) AppleWebKit/537.36 (KHTML, like Gecko) Chrome/128.0.0.0 Safari/537.36","Macintosh","Chrome","128.0.0.0","OS X","10_15_7","https://app.prolific.com/","en-GB,en-US;q=0.9,en;q=0.8","678bad003d15e6aba1ee5a5d","683db7602f5db6a34d12d064","686e2a6e2e413333777736b3","1","678bad003d15e6aba1ee5a5d","1","2025-07-09T08:51:38.332Z","","","","","","","","","","","PreSkillQ","","50","","","","","","","","","","","","","","","","","","","","","","","","","","","","",""
"4554","","<div style=""width:500px;"">
  <p>How well do you think you will perform in this task compared to other participants?</p>
  </div>","73","html-slider-response","7","795513","0.0-4.0-1.0","2","1","2025-07-09 08:38:22","01610cd0009c79a99da7d0a3353eb402","41.122.128.184","Mozilla/5.0 (Macintosh; Intel Mac OS X 10_15_7) AppleWebKit/537.36 (KHTML, like Gecko) Chrome/128.0.0.0 Safari/537.36","Macintosh","Chrome","128.0.0.0","OS X","10_15_7","https://app.prolific.com/","en-GB,en-US;q=0.9,en;q=0.8","678bad003d15e6aba1ee5a5d","683db7602f5db6a34d12d064","686e2a6e2e413333777736b3","1","678bad003d15e6aba1ee5a5d","1","2025-07-09T08:51:42.887Z","","","","","","","","","","","PrePerfQ","","50","","","","","","","","","","","","","","","","","","","","","","","","","","","","",""
"7247","","<div style=""width:500px;"">
  <p>What best describes how you currently feel?</p>
  </div>","89","html-slider-response","8","802762","0.0-4.0-2.0","2","1","2025-07-09 08:38:22","01610cd0009c79a99da7d0a3353eb402","41.122.128.184","Mozilla/5.0 (Macintosh; Intel Mac OS X 10_15_7) AppleWebKit/537.36 (KHTML, like Gecko) Chrome/128.0.0.0 Safari/537.36","Macintosh","Chrome","128.0.0.0","OS X","10_15_7","https://app.prolific.com/","en-GB,en-US;q=0.9,en;q=0.8","678bad003d15e6aba1ee5a5d","683db7602f5db6a34d12d064","686e2a6e2e413333777736b3","1","678bad003d15e6aba1ee5a5d","1","2025-07-09T08:51:50.136Z","","","","","","","","","","","PreMotivationQ","","50","","","","","","","","","","","","","","","","","","","","","","","","","","","","",""
"","","","","ctl-task-cpt","9","837252","0.0-5.0-0.0","2","1","2025-07-09 08:38:22","01610cd0009c79a99da7d0a3353eb402","41.122.128.184","Mozilla/5.0 (Macintosh; Intel Mac OS X 10_15_7) AppleWebKit/537.36 (KHTML, like Gecko) Chrome/128.0.0.0 Safari/537.36","Macintosh","Chrome","128.0.0.0","OS X","10_15_7","https://app.prolific.com/","en-GB,en-US;q=0.9,en;q=0.8","678bad003d15e6aba1ee5a5d","683db7602f5db6a34d12d064","686e2a6e2e413333777736b3","1","678bad003d15e6aba1ee5a5d","1","2025-07-09T08:52:24.626Z","","","","","","","","","","","","","","win-only","3","g1:SW,g2:NE","1","1","0","809133.2","10076","15077.4","31478.2","1","4","4","6","2","4","4","4","0","0.030303030303030304","1450.6","3000","435","[""up"",""right""]","{""num_key_presses"":6,""num_perfect"":6,""num_errors"":0,""num_randdir"":0,""num_randdir_good_moves"":0,""num_whilered"":0,""num_whileblue"":0,""num_blue"":0,""num_good_moves"":6}","[347.14285714285717,343.04910714285717,0.3,347.14285714285717,343.04910714285717,104.9,347.14285714285717,343.04910714285717,205.4,347.14285714285717,343.04910714285717,310.3,347.14285714285717,343.04910714285717,415,346.14285714285717,342.04910714285717,516.1,315.14285714285717,342.04910714285717,622.8,323.14285714285717,328.04910714285717,725.3,454.14285714285717,205.04910714285714,825.7,523.1428571428571,117.04910714285714,930.1,526.1428571428571,115.04910714285714,1030.8,563.1428571428571,107.04910714285714,1134.6,593.1428571428571,85.04910714285714,1235.9,602.1428571428571,80.04910714285714,1341.3,606.1428571428571,76.04910714285714,1441.4,606.1428571428571,76.04910714285714,1545.9,606.1428571428571,76.04910714285714,1646.6,607.1428571428571,77.04910714285714,1746.9,603.1428571428571,83.04910714285714,1852.1,589.1428571428571,126.04910714285714,1956.2,498.14285714285717,263.04910714285717,2060.4,425.14285714285717,372.04910714285717,2161.9,423.14285714285717,375.04910714285717,2265.8,423.14285714285717,375.04910714285717,2367.3,423.14285714285717,375.04910714285717,2470.9,423.14285714285717,375.04910714285717,2571,423.14285714285717,375.04910714285717,2676.2,423.14285714285717,375.04910714285717,2780.7,423.14285714285717,375.04910714285717,2885,423.14285714285717,375.04910714285717,2991,423.14285714285717,375.04910714285717,3096,423.14285714285717,375.04910714285717,3199.6,423.14285714285717,375.04910714285717,3300.3,423.14285714285717,375.04910714285717,3401.2,423.14285714285717,375.04910714285717,3504.4,423.14285714285717,375.04910714285717,3605.8,423.14285714285717,375.04910714285717,3710.3,423.14285714285717,375.04910714285717,3815.5,423.14285714285717,375.04910714285717,3919.6,423.14285714285717,375.04910714285717,4020,423.14285714285717,375.04910714285717,4120,423.14285714285717,375.04910714285717,4220.3,423.14285714285717,375.04910714285717,4320.6,423.14285714285717,375.04910714285717,4420.6,423.14285714285717,375.04910714285717,4525.9,423.14285714285717,375.04910714285717,4626.4,423.14285714285717,375.04910714285717,4730.1,423.14285714285717,375.04910714285717,4830.4,423.14285714285717,375.04910714285717,4930.4]","[1513,1513.2,1000,0,513.3,""smooth"",""right"",""right"",""good_move"",4371.5,2857.6,2472.4,1514,385.1,""smooth"",""right"",""right"",""good_move"",7337.4,2965.6,2476.9,4371.8,488.7,""smooth"",""up"",""up"",""good_move"",10297.7,2959.9,2514.4,7337.9,445.4,""smooth"",""up"",""up"",""good_move"",13121.4,2823.5,2403.6,10297.9,419.9,""smooth"",""up"",""up"",""good_move"",16311.7,3190.1,2789.5,13121.6,400.6,""smooth"",""right"",""right"",""good_move""]","",""
"5193","","<div style=""width:500px;"">
  <p>What determined the result of this run?</p>
  </div>","96","html-slider-response","10","842447","0.0-5.0-1.0","2","1","2025-07-09 08:38:22","01610cd0009c79a99da7d0a3353eb402","41.122.128.184","Mozilla/5.0 (Macintosh; Intel Mac OS X 10_15_7) AppleWebKit/537.36 (KHTML, like Gecko) Chrome/128.0.0.0 Safari/537.36","Macintosh","Chrome","128.0.0.0","OS X","10_15_7","https://app.prolific.com/","en-GB,en-US;q=0.9,en;q=0.8","678bad003d15e6aba1ee5a5d","683db7602f5db6a34d12d064","686e2a6e2e413333777736b3","1","678bad003d15e6aba1ee5a5d","1","2025-07-09T08:52:29.821Z","","","","","","","","","","","AttribQ","","50","","","","","","","","","","","","","","","","","","","","","","","","","","","","",""
"3272","","<div style=""width:500px;"">
  <p>How much control did you have over the ball?</p>
  </div>","95","html-slider-response","11","845721","0.0-5.0-2.0","2","1","2025-07-09 08:38:22","01610cd0009c79a99da7d0a3353eb402","41.122.128.184","Mozilla/5.0 (Macintosh; Intel Mac OS X 10_15_7) AppleWebKit/537.36 (KHTML, like Gecko) Chrome/128.0.0.0 Safari/537.36","Macintosh","Chrome","128.0.0.0","OS X","10_15_7","https://app.prolific.com/","en-GB,en-US;q=0.9,en;q=0.8","678bad003d15e6aba1ee5a5d","683db7602f5db6a34d12d064","686e2a6e2e413333777736b3","1","678bad003d15e6aba1ee5a5d","1","2025-07-09T08:52:33.095Z","","","","","","","","","","","ControlQ","","50","","","","","","","","","","","","","","","","","","","","","","","","","","","","",""
"4080","","<div style=""width:500px;"">
  <p>How would you describe your current emotional state?</p>
  </div>","1","html-slider-response","12","849803","0.0-5.0-3.0","2","1","2025-07-09 08:38:22","01610cd0009c79a99da7d0a3353eb402","41.122.128.184","Mozilla/5.0 (Macintosh; Intel Mac OS X 10_15_7) AppleWebKit/537.36 (KHTML, like Gecko) Chrome/128.0.0.0 Safari/537.36","Macintosh","Chrome","128.0.0.0","OS X","10_15_7","https://app.prolific.com/","en-GB,en-US;q=0.9,en;q=0.8","678bad003d15e6aba1ee5a5d","683db7602f5db6a34d12d064","686e2a6e2e413333777736b3","1","678bad003d15e6aba1ee5a5d","1","2025-07-09T08:52:37.177Z","","","","","","","","","","","StressQ","","50","","","","","","","","","","","","","","","","","","","","","","","","","","","","",""
"4064","","<div style=""width:500px;"">
  <p>What best describes how you currently feel?</p>
  </div>","92","html-slider-response","13","853870","0.0-5.0-4.0","2","1","2025-07-09 08:38:22","01610cd0009c79a99da7d0a3353eb402","41.122.128.184","Mozilla/5.0 (Macintosh; Intel Mac OS X 10_15_7) AppleWebKit/537.36 (KHTML, like Gecko) Chrome/128.0.0.0 Safari/537.36","Macintosh","Chrome","128.0.0.0","OS X","10_15_7","https://app.prolific.com/","en-GB,en-US;q=0.9,en;q=0.8","678bad003d15e6aba1ee5a5d","683db7602f5db6a34d12d064","686e2a6e2e413333777736b3","1","678bad003d15e6aba1ee5a5d","1","2025-07-09T08:52:41.244Z","","","","","","","","","","","MotivationQ","","50","","","","","","","","","","","","","","","","","","","","","","","","","","","","",""
"","","","","ctl-task-cpt","14","878306","0.0-5.0-0.1","2","1","2025-07-09 08:38:22","01610cd0009c79a99da7d0a3353eb402","41.122.128.184","Mozilla/5.0 (Macintosh; Intel Mac OS X 10_15_7) AppleWebKit/537.36 (KHTML, like Gecko) Chrome/128.0.0.0 Safari/537.36","Macintosh","Chrome","128.0.0.0","OS X","10_15_7","https://app.prolific.com/","en-GB,en-US;q=0.9,en;q=0.8","678bad003d15e6aba1ee5a5d","683db7602f5db6a34d12d064","686e2a6e2e413333777736b3","1","678bad003d15e6aba1ee5a5d","1","2025-07-09T08:53:05.680Z","","","","","","","","","","","","","","win-only","3","g1:SW,g2:NE","0.9","2","0","860235.4","1461.4","6463.7","21430.8","1","4","8","6","2","8","8","12","4","0.09090909090909091","1034.7","3000","200","[""up"",""right""]","{""num_key_presses"":6,""num_perfect"":6,""num_errors"":0,""num_randdir"":0,""num_randdir_good_moves"":0,""num_whilered"":0,""num_whileblue"":0,""num_blue"":0,""num_good_moves"":6}","[351.14285714285717,344.04910714285717,0.1,351.14285714285717,344.04910714285717,102.2,351.14285714285717,344.04910714285717,203.7,350.14285714285717,346.04910714285717,305.4,377.14285714285717,307.04910714285717,409,445.14285714285717,200.04910714285714,509.8,554.1428571428571,83.04910714285714,610.2,574.1428571428571,69.04910714285714,710.3,578.1428571428571,96.04910714285714,814.9,603.1428571428571,75.04910714285714,920.8,610.1428571428571,70.04910714285714,1025.3,610.1428571428571,70.04910714285714,1125.3,610.1428571428571,72.04910714285714,1225.4,609.1428571428571,75.04910714285714,1325.9,557.1428571428571,139.04910714285714,1426.1,413.14285714285717,275.04910714285717,1533.9,394.14285714285717,283.04910714285717,1636.2,394.14285714285717,283.04910714285717,1739.8,394.14285714285717,283.04910714285717,1840,394.14285714285717,283.04910714285717,1940.1,394.14285714285717,283.04910714285717,2044.9,394.14285714285717,283.04910714285717,2149.1,394.14285714285717,283.04910714285717,2250.1,394.14285714285717,283.04910714285717,2353.8,394.14285714285717,283.04910714285717,2454.9,394.14285714285717,283.04910714285717,2559.3,394.14285714285717,283.04910714285717,2665.9,394.14285714285717,283.04910714285717,2769.9,394.14285714285717,283.04910714285717,2870.4,394.14285714285717,283.04910714285717,2975,394.14285714285717,283.04910714285717,3079.5,394.14285714285717,283.04910714285717,3184.6,394.14285714285717,283.04910714285717,3287.4,394.14285714285717,283.04910714285717,3415.9,394.14285714285717,283.04910714285717,3519.7,394.14285714285717,283.04910714285717,3625.1,394.14285714285717,283.04910714285717,3729.8,394.14285714285717,283.04910714285717,3838.4,394.14285714285717,283.04910714285717,3940.4,394.14285714285717,283.04910714285717,4045,394.14285714285717,283.04910714285717,4150.9,394.14285714285717,283.04910714285717,4255,394.14285714285717,283.04910714285717,4359.5,394.14285714285717,283.04910714285717,4459.6,394.14285714285717,283.04910714285717,4559.9,394.14285714285717,283.04910714285717,4666,394.14285714285717,283.04910714285717,4770.2,394.14285714285717,283.04910714285717,4874.5,394.14285714285717,283.04910714285717,4974.9]","[1911.7,1911.7,1000,0,911.7,""smooth"",""right"",""right"",""good_move"",4876.5,2964.4,2470.4,1912.1,494,""smooth"",""right"",""right"",""good_move"",7447,2570.2,2174.5,4876.8,395.7,""smooth"",""up"",""up"",""good_move"",9948.7,2501.4,2114.9,7447.3,386.5,""smooth"",""up"",""up"",""good_move"",12446.9,2497.9,2109.3,9949,388.6,""smooth"",""up"",""up"",""good_move"",14873.6,2426.5,2062.2,12447.1,364.3,""smooth"",""right"",""right"",""good_move""]","",""
"3483","","<div style=""width:500px;"">
  <p>What determined the result of this run?</p>
  </div>","100","html-slider-response","15","881793","0.0-5.0-1.1","2","1","2025-07-09 08:38:22","01610cd0009c79a99da7d0a3353eb402","41.122.128.184","Mozilla/5.0 (Macintosh; Intel Mac OS X 10_15_7) AppleWebKit/537.36 (KHTML, like Gecko) Chrome/128.0.0.0 Safari/537.36","Macintosh","Chrome","128.0.0.0","OS X","10_15_7","https://app.prolific.com/","en-GB,en-US;q=0.9,en;q=0.8","678bad003d15e6aba1ee5a5d","683db7602f5db6a34d12d064","686e2a6e2e413333777736b3","1","678bad003d15e6aba1ee5a5d","1","2025-07-09T08:53:09.167Z","","","","","","","","","","","AttribQ","","50","","","","","","","","","","","","","","","","","","","","","","","","","","","","",""
"13603","","<div style=""width:500px;"">
  <p>How much control did you have over the ball?</p>
  </div>","82","html-slider-response","16","895400","0.0-5.0-2.1","2","1","2025-07-09 08:38:22","01610cd0009c79a99da7d0a3353eb402","41.122.128.184","Mozilla/5.0 (Macintosh; Intel Mac OS X 10_15_7) AppleWebKit/537.36 (KHTML, like Gecko) Chrome/128.0.0.0 Safari/537.36","Macintosh","Chrome","128.0.0.0","OS X","10_15_7","https://app.prolific.com/","en-GB,en-US;q=0.9,en;q=0.8","678bad003d15e6aba1ee5a5d","683db7602f5db6a34d12d064","686e2a6e2e413333777736b3","1","678bad003d15e6aba1ee5a5d","1","2025-07-09T08:53:22.774Z","","","","","","","","","","","ControlQ","","50","","","","","","","","","","","","","","","","","","","","","","","","","","","","",""
"5400","","<div style=""width:500px;"">
  <p>How would you describe your current emotional state?</p>
  </div>","14","html-slider-response","17","900802","0.0-5.0-3.1","2","1","2025-07-09 08:38:22","01610cd0009c79a99da7d0a3353eb402","41.122.128.184","Mozilla/5.0 (Macintosh; Intel Mac OS X 10_15_7) AppleWebKit/537.36 (KHTML, like Gecko) Chrome/128.0.0.0 Safari/537.36","Macintosh","Chrome","128.0.0.0","OS X","10_15_7","https://app.prolific.com/","en-GB,en-US;q=0.9,en;q=0.8","678bad003d15e6aba1ee5a5d","683db7602f5db6a34d12d064","686e2a6e2e413333777736b3","1","678bad003d15e6aba1ee5a5d","1","2025-07-09T08:53:28.176Z","","","","","","","","","","","StressQ","","50","","","","","","","","","","","","","","","","","","","","","","","","","","","","",""
"7852","","<div style=""width:500px;"">
  <p>What best describes how you currently feel?</p>
  </div>","84","html-slider-response","18","908655","0.0-5.0-4.1","2","1","2025-07-09 08:38:22","01610cd0009c79a99da7d0a3353eb402","41.122.128.184","Mozilla/5.0 (Macintosh; Intel Mac OS X 10_15_7) AppleWebKit/537.36 (KHTML, like Gecko) Chrome/128.0.0.0 Safari/537.36","Macintosh","Chrome","128.0.0.0","OS X","10_15_7","https://app.prolific.com/","en-GB,en-US;q=0.9,en;q=0.8","678bad003d15e6aba1ee5a5d","683db7602f5db6a34d12d064","686e2a6e2e413333777736b3","1","678bad003d15e6aba1ee5a5d","1","2025-07-09T08:53:36.029Z","","","","","","","","","","","MotivationQ","","50","","","","","","","","","","","","","","","","","","","","","","","","","","","","",""
"","","","","ctl-task-cpt","19","947349","0.0-5.0-0.2","2","1","2025-07-09 08:38:22","01610cd0009c79a99da7d0a3353eb402","41.122.128.184","Mozilla/5.0 (Macintosh; Intel Mac OS X 10_15_7) AppleWebKit/537.36 (KHTML, like Gecko) Chrome/128.0.0.0 Safari/537.36","Macintosh","Chrome","128.0.0.0","OS X","10_15_7","https://app.prolific.com/","en-GB,en-US;q=0.9,en;q=0.8","678bad003d15e6aba1ee5a5d","683db7602f5db6a34d12d064","686e2a6e2e413333777736b3","1","678bad003d15e6aba1ee5a5d","1","2025-07-09T08:54:14.723Z","","","","","","","","","","","","","","win-only","1","g1:NE,g2:SW","0.8","3","0","915020.1","1100.2","6101.4","35676.4","1","4","4","6","2","4","3","15","12","0.11363636363636363","1342.3","3000","185","[""down"",""left""]","{""num_key_presses"":8,""num_perfect"":6,""num_errors"":1,""num_randdir"":1,""num_randdir_good_moves"":1,""num_whilered"":0,""num_whileblue"":1,""num_blue"":3,""num_good_moves"":7}","[347.14285714285717,348.04910714285717,0.3,347.14285714285717,348.04910714285717,101.2,347.14285714285717,348.04910714285717,201.4,343.14285714285717,355.04910714285717,305.7,305.14285714285717,467.04910714285717,410.4,368.14285714285717,513.0491071428571,511.2,426.14285714285717,382.04910714285717,619.4,416.14285714285717,332.04910714285717,721.2,396.14285714285717,343.04910714285717,829.1,291.14285714285717,475.04910714285717,935.1,169.14285714285714,566.0491071428571,1036.1,112.14285714285714,600.0491071428571,1136.8,89.14285714285714,621.0491071428571,1238,84.14285714285714,624.0491071428571,1341.2,84.14285714285714,624.0491071428571,1442.2,83.14285714285714,624.0491071428571,1542.2,83.14285714285714,624.0491071428571,1650.3,78.14285714285714,606.0491071428571,1750.4,78.14285714285714,606.0491071428571,1850.6,78.14285714285714,606.0491071428571,1955.3,78.14285714285714,606.0491071428571,2056.5,78.14285714285714,606.0491071428571,2161.5,78.14285714285714,606.0491071428571,2263.4,78.14285714285714,606.0491071428571,2365.2,78.14285714285714,606.0491071428571,2465.5,78.14285714285714,606.0491071428571,2565.9,78.14285714285714,606.0491071428571,2671.3,78.14285714285714,606.0491071428571,2771.4,78.14285714285714,606.0491071428571,2875.9,78.14285714285714,606.0491071428571,2976,78.14285714285714,606.0491071428571,3076.7,78.14285714285714,606.0491071428571,3186.8,78.14285714285714,606.0491071428571,3290.9,78.14285714285714,606.0491071428571,3390.9,78.14285714285714,606.0491071428571,3491.5,78.14285714285714,606.0491071428571,3595.8,78.14285714285714,606.0491071428571,3697.2,78.14285714285714,606.0491071428571,3798.6,78.14285714285714,606.0491071428571,3899.1,78.14285714285714,606.0491071428571,4006.2,78.14285714285714,606.0491071428571,4115.1,78.14285714285714,606.0491071428571,4216.5,78.14285714285714,606.0491071428571,4321.2,78.14285714285714,606.0491071428571,4426.6,78.14285714285714,606.0491071428571,4527.3,78.14285714285714,606.0491071428571,4633.7,78.14285714285714,606.0491071428571,4734.8,78.14285714285714,606.0491071428571,4836.3,78.14285714285714,606.0491071428571,4940.6]","[1433.1,1433.1,1000,0,433.1,""smooth"",""left"",""left"",""good_move"",4401.1,2967.6,2611.3,1433.5,356.3,""oops"",""down"",""left"",""good_move"",10617.8,6216.4,2107.8,8167,343,""while_blue"",""left"",""up"",""bad_move"",13733.4,3114.7,2586.1,10618.7,528.6,""smooth"",""down"",""down"",""good_move"",17225.2,3490.9,3083.2,13734.3,407.7,""smooth"",""down"",""down"",""good_move"",19882.1,2655.9,2027.5,17226.3,628.3,""smooth"",""down"",""down"",""good_move"",26576.7,6693.5,2945.2,23159.4,472.2,""smooth"",""down"",""down"",""good_move"",29489,2911.9,2516.9,26577.1,395,""smooth"",""left"",""left"",""good_move""]","",""
"10317","","<div style=""width:500px;"">
  <p>What determined the result of this run?</p>
  </div>","81","html-slider-response","20","957669","0.0-5.0-1.2","2","1","2025-07-09 08:38:22","01610cd0009c79a99da7d0a3353eb402","41.122.128.184","Mozilla/5.0 (Macintosh; Intel Mac OS X 10_15_7) AppleWebKit/537.36 (KHTML, like Gecko) Chrome/128.0.0.0 Safari/537.36","Macintosh","Chrome","128.0.0.0","OS X","10_15_7","https://app.prolific.com/","en-GB,en-US;q=0.9,en;q=0.8","678bad003d15e6aba1ee5a5d","683db7602f5db6a34d12d064","686e2a6e2e413333777736b3","1","678bad003d15e6aba1ee5a5d","1","2025-07-09T08:54:25.044Z","","","","","","","","","","","AttribQ","","50","","","","","","","","","","","","","","","","","","","","","","","","","","","","",""
"2320","","<div style=""width:500px;"">
  <p>How much control did you have over the ball?</p>
  </div>","83","html-slider-response","21","959994","0.0-5.0-2.2","2","1","2025-07-09 08:38:22","01610cd0009c79a99da7d0a3353eb402","41.122.128.184","Mozilla/5.0 (Macintosh; Intel Mac OS X 10_15_7) AppleWebKit/537.36 (KHTML, like Gecko) Chrome/128.0.0.0 Safari/537.36","Macintosh","Chrome","128.0.0.0","OS X","10_15_7","https://app.prolific.com/","en-GB,en-US;q=0.9,en;q=0.8","678bad003d15e6aba1ee5a5d","683db7602f5db6a34d12d064","686e2a6e2e413333777736b3","1","678bad003d15e6aba1ee5a5d","1","2025-07-09T08:54:27.368Z","","","","","","","","","","","ControlQ","","50","","","","","","","","","","","","","","","","","","","","","","","","","","","","",""
"3909","","<div style=""width:500px;"">
  <p>How would you describe your current emotional state?</p>
  </div>","21","html-slider-response","22","963904","0.0-5.0-3.2","2","1","2025-07-09 08:38:22","01610cd0009c79a99da7d0a3353eb402","41.122.128.184","Mozilla/5.0 (Macintosh; Intel Mac OS X 10_15_7) AppleWebKit/537.36 (KHTML, like Gecko) Chrome/128.0.0.0 Safari/537.36","Macintosh","Chrome","128.0.0.0","OS X","10_15_7","https://app.prolific.com/","en-GB,en-US;q=0.9,en;q=0.8","678bad003d15e6aba1ee5a5d","683db7602f5db6a34d12d064","686e2a6e2e413333777736b3","1","678bad003d15e6aba1ee5a5d","1","2025-07-09T08:54:31.278Z","","","","","","","","","","","StressQ","","50","","","","","","","","","","","","","","","","","","","","","","","","","","","","",""
"3286","","<div style=""width:500px;"">
  <p>What best describes how you currently feel?</p>
  </div>","74","html-slider-response","23","967193","0.0-5.0-4.2","2","1","2025-07-09 08:38:22","01610cd0009c79a99da7d0a3353eb402","41.122.128.184","Mozilla/5.0 (Macintosh; Intel Mac OS X 10_15_7) AppleWebKit/537.36 (KHTML, like Gecko) Chrome/128.0.0.0 Safari/537.36","Macintosh","Chrome","128.0.0.0","OS X","10_15_7","https://app.prolific.com/","en-GB,en-US;q=0.9,en;q=0.8","678bad003d15e6aba1ee5a5d","683db7602f5db6a34d12d064","686e2a6e2e413333777736b3","1","678bad003d15e6aba1ee5a5d","1","2025-07-09T08:54:34.567Z","","","","","","","","","","","MotivationQ","","50","","","","","","","","","","","","","","","","","","","","","","","","","","","","",""
"","","","","ctl-task-cpt","24","1014955","0.0-5.0-0.3","2","1","2025-07-09 08:38:22","01610cd0009c79a99da7d0a3353eb402","41.122.128.184","Mozilla/5.0 (Macintosh; Intel Mac OS X 10_15_7) AppleWebKit/537.36 (KHTML, like Gecko) Chrome/128.0.0.0 Safari/537.36","Macintosh","Chrome","128.0.0.0","OS X","10_15_7","https://app.prolific.com/","en-GB,en-US;q=0.9,en;q=0.8","678bad003d15e6aba1ee5a5d","683db7602f5db6a34d12d064","686e2a6e2e413333777736b3","1","678bad003d15e6aba1ee5a5d","1","2025-07-09T08:55:22.329Z","","","","","","","","","","","","","","win-only","0","g1:NW,g2:SE","0.7","4","0","973558.1","1274.7","6291.3","44745","1","4","8","6","2","-8","-9","6","15","0.045454545454545456","1100.3","3000","-2335","[""down"",""right""]","{""num_key_presses"":9,""num_perfect"":5,""num_errors"":1,""num_randdir"":3,""num_randdir_good_moves"":1,""num_whilered"":0,""num_whileblue"":0,""num_blue"":3,""num_good_moves"":6}","[345.14285714285717,349.04910714285717,0.4,345.14285714285717,349.04910714285717,100.9,344.14285714285717,384.04910714285717,216,347.14285714285717,453.04910714285717,316.1,332.14285714285717,800.0491071428571,418.1,490.14285714285717,697.0491071428571,520.7,608.1428571428571,674.0491071428571,687.8,597.1428571428571,622.0491071428571,792.1,609.1428571428571,619.0491071428571,923.8,615.1428571428571,623.0491071428571,1027.1,615.1428571428571,623.0491071428571,1134,615.1428571428571,623.0491071428571,1234.5,614.1428571428571,624.0491071428571,1338.8,529.1428571428571,671.0491071428571,1468.2,388.14285714285717,707.0491071428571,1574.7,385.14285714285717,699.0491071428571,1692.1,385.14285714285717,699.0491071428571,1800.9,385.14285714285717,699.0491071428571,1904.6,385.14285714285717,699.0491071428571,2043,385.14285714285717,699.0491071428571,2147,385.14285714285717,699.0491071428571,2256,385.14285714285717,699.0491071428571,2359.4,385.14285714285717,699.0491071428571,2482.2,385.14285714285717,699.0491071428571,2600.9,385.14285714285717,699.0491071428571,2720.3,385.14285714285717,699.0491071428571,2837.9,385.14285714285717,699.0491071428571,2938.4,385.14285714285717,699.0491071428571,3038.8,385.14285714285717,699.0491071428571,3139.3,385.14285714285717,699.0491071428571,3253.5,385.14285714285717,699.0491071428571,3353.9,385.14285714285717,699.0491071428571,3501,385.14285714285717,699.0491071428571,3605.9,385.14285714285717,699.0491071428571,3706,385.14285714285717,699.0491071428571,3811.7,385.14285714285717,699.0491071428571,3917.3,385.14285714285717,699.0491071428571,4019.2,385.14285714285717,699.0491071428571,4124.3,385.14285714285717,699.0491071428571,4225.7,385.14285714285717,699.0491071428571,4336.8,385.14285714285717,699.0491071428571,4448.1,385.14285714285717,699.0491071428571,4548.8,385.14285714285717,699.0491071428571,4649.7,385.14285714285717,699.0491071428571,4751.1,385.14285714285717,699.0491071428571,4864.9,385.14285714285717,699.0491071428571,4965.8]","[1476.4,1476.4,1000,0,476.4,""smooth"",""right"",""right"",""good_move"",7550.6,6073.6,2328.8,4773.3,448.5,""smooth"",""right"",""right"",""good_move"",10635.5,3084.7,2544.5,7550.8,540.2,""smooth"",""right"",""right"",""good_move"",13606.9,2971.1,2450.5,10635.8,520.7,""smooth"",""down"",""down"",""good_move"",20352.3,6745,2289.6,17599.1,463.6,""oops"",""down"",""up"",""bad_move"",23503.8,3151.2,2516,20352.6,635.2,""smooth"",""down"",""down"",""good_move"",26725.9,3217.7,2781.7,23508.2,436,""oops"",""down"",""up"",""bad_move"",31386.2,4660,2194.5,30561.8,-1370.1,""error"",""-"",""-"",""no_move"",35261.7,3875,2232.9,32388.6,640.2,""oops"",""down"",""down"",""good_move""]","",""
"4208","","<div style=""width:500px;"">
  <p>What determined the result of this run?</p>
  </div>","3","html-slider-response","25","1019164","0.0-5.0-1.3","2","1","2025-07-09 08:38:22","01610cd0009c79a99da7d0a3353eb402","41.122.128.184","Mozilla/5.0 (Macintosh; Intel Mac OS X 10_15_7) AppleWebKit/537.36 (KHTML, like Gecko) Chrome/128.0.0.0 Safari/537.36","Macintosh","Chrome","128.0.0.0","OS X","10_15_7","https://app.prolific.com/","en-GB,en-US;q=0.9,en;q=0.8","678bad003d15e6aba1ee5a5d","683db7602f5db6a34d12d064","686e2a6e2e413333777736b3","1","678bad003d15e6aba1ee5a5d","1","2025-07-09T08:55:26.538Z","","","","","","","","","","","AttribQ","","50","","","","","","","","","","","","","","","","","","","","","","","","","","","","",""
"3392","","<div style=""width:500px;"">
  <p>How much control did you have over the ball?</p>
  </div>","0","html-slider-response","26","1022558","0.0-5.0-2.3","2","1","2025-07-09 08:38:22","01610cd0009c79a99da7d0a3353eb402","41.122.128.184","Mozilla/5.0 (Macintosh; Intel Mac OS X 10_15_7) AppleWebKit/537.36 (KHTML, like Gecko) Chrome/128.0.0.0 Safari/537.36","Macintosh","Chrome","128.0.0.0","OS X","10_15_7","https://app.prolific.com/","en-GB,en-US;q=0.9,en;q=0.8","678bad003d15e6aba1ee5a5d","683db7602f5db6a34d12d064","686e2a6e2e413333777736b3","1","678bad003d15e6aba1ee5a5d","1","2025-07-09T08:55:29.932Z","","","","","","","","","","","ControlQ","","50","","","","","","","","","","","","","","","","","","","","","","","","","","","","",""
"8785","","<div style=""width:500px;"">
  <p>How would you describe your current emotional state?</p>
  </div>","80","html-slider-response","27","1031346","0.0-5.0-3.3","2","1","2025-07-09 08:38:22","01610cd0009c79a99da7d0a3353eb402","41.122.128.184","Mozilla/5.0 (Macintosh; Intel Mac OS X 10_15_7) AppleWebKit/537.36 (KHTML, like Gecko) Chrome/128.0.0.0 Safari/537.36","Macintosh","Chrome","128.0.0.0","OS X","10_15_7","https://app.prolific.com/","en-GB,en-US;q=0.9,en;q=0.8","678bad003d15e6aba1ee5a5d","683db7602f5db6a34d12d064","686e2a6e2e413333777736b3","1","678bad003d15e6aba1ee5a5d","1","2025-07-09T08:55:38.720Z","","","","","","","","","","","StressQ","","50","","","","","","","","","","","","","","","","","","","","","","","","","","","","",""
"3496","","<div style=""width:500px;"">
  <p>What best describes how you currently feel?</p>
  </div>","29","html-slider-response","28","1034845","0.0-5.0-4.3","2","1","2025-07-09 08:38:22","01610cd0009c79a99da7d0a3353eb402","41.122.128.184","Mozilla/5.0 (Macintosh; Intel Mac OS X 10_15_7) AppleWebKit/537.36 (KHTML, like Gecko) Chrome/128.0.0.0 Safari/537.36","Macintosh","Chrome","128.0.0.0","OS X","10_15_7","https://app.prolific.com/","en-GB,en-US;q=0.9,en;q=0.8","678bad003d15e6aba1ee5a5d","683db7602f5db6a34d12d064","686e2a6e2e413333777736b3","1","678bad003d15e6aba1ee5a5d","1","2025-07-09T08:55:42.219Z","","","","","","","","","","","MotivationQ","","50","","","","","","","","","","","","","","","","","","","","","","","","","","","","",""
"","","","","ctl-task-cpt","29","1072198","0.0-5.0-0.4","2","1","2025-07-09 08:38:22","01610cd0009c79a99da7d0a3353eb402","41.122.128.184","Mozilla/5.0 (Macintosh; Intel Mac OS X 10_15_7) AppleWebKit/537.36 (KHTML, like Gecko) Chrome/128.0.0.0 Safari/537.36","Macintosh","Chrome","128.0.0.0","OS X","10_15_7","https://app.prolific.com/","en-GB,en-US;q=0.9,en;q=0.8","678bad003d15e6aba1ee5a5d","683db7602f5db6a34d12d064","686e2a6e2e413333777736b3","1","678bad003d15e6aba1ee5a5d","1","2025-07-09T08:56:19.572Z","","","","","","","","","","","","","","win-only","1","g1:NE,g2:SW","0.6","5","0","1041205.5","902.1","5907","34333.8","1","4","8","6","2","8","8","14","6","0.10606060606060606","1014.8","3000","285","[""down"",""left""]","{""num_key_presses"":10,""num_perfect"":6,""num_errors"":0,""num_randdir"":4,""num_randdir_good_moves"":2,""num_whilered"":0,""num_whileblue"":0,""num_blue"":0,""num_good_moves"":8}","[351.14285714285717,353.04910714285717,0.3,351.14285714285717,353.04910714285717,100.5,351.14285714285717,353.04910714285717,203.3,354.14285714285717,364.04910714285717,307.5,359.14285714285717,383.04910714285717,410,272.14285714285717,482.04910714285717,516.1,165.14285714285714,581.0491071428571,620.4,120.14285714285714,620.0491071428571,727.2,105.14285714285714,630.0491071428571,832.2,105.14285714285714,630.0491071428571,944,105.14285714285714,630.0491071428571,1049.2,105.14285714285714,630.0491071428571,1160.6,105.14285714285714,630.0491071428571,1262.8,105.14285714285714,630.0491071428571,1365.4,92.14285714285714,607.0491071428571,1467.1,89.14285714285714,600.0491071428571,1574.8,89.14285714285714,600.0491071428571,1677.6,89.14285714285714,600.0491071428571,1782.4,89.14285714285714,600.0491071428571,1889.5,89.14285714285714,600.0491071428571,1993.5,89.14285714285714,600.0491071428571,2095.6,89.14285714285714,600.0491071428571,2198.8,89.14285714285714,600.0491071428571,2301.1,89.14285714285714,600.0491071428571,2401.3,89.14285714285714,600.0491071428571,2509.8,89.14285714285714,600.0491071428571,2613.6,89.14285714285714,600.0491071428571,2717.2,89.14285714285714,600.0491071428571,2829.5,89.14285714285714,600.0491071428571,2937.7,89.14285714285714,600.0491071428571,3058.9,89.14285714285714,600.0491071428571,3181.6,89.14285714285714,600.0491071428571,3281.7,89.14285714285714,600.0491071428571,3430.8,89.14285714285714,600.0491071428571,3531.1,89.14285714285714,600.0491071428571,3639.6,89.14285714285714,600.0491071428571,3742.6,89.14285714285714,600.0491071428571,3846.5,89.14285714285714,600.0491071428571,3967.7,89.14285714285714,600.0491071428571,4069.8,89.14285714285714,600.0491071428571,4189.2,89.14285714285714,600.0491071428571,4289.9,89.14285714285714,600.0491071428571,4391.4,89.14285714285714,600.0491071428571,4492.4,89.14285714285714,600.0491071428571,4592.7,89.14285714285714,600.0491071428571,4695.1,89.14285714285714,600.0491071428571,4797.6,89.14285714285714,600.0491071428571,4918.1]","[1578.3,1578.3,1000,0,578.3,""smooth"",""left"",""left"",""good_move"",4406.2,2810.1,2081.9,1596.1,728.2,""smooth"",""left"",""left"",""good_move"",7806.8,3400,2977.2,4406.9,422.8,""smooth"",""left"",""left"",""good_move"",10374.9,2567.5,2164.2,7807.4,403.3,""smooth"",""down"",""down"",""good_move"",13162.8,2787.6,2322.1,10375.2,465.5,""oops"",""down"",""up"",""bad_move"",16214.6,3050.6,2583.3,13164,467.3,""oops"",""down"",""up"",""bad_move"",19257.6,3042.2,2423.1,16215.4,619.1,""smooth"",""down"",""down"",""good_move"",22467,3208.1,2623.4,19258.9,584.9,""smooth"",""down"",""down"",""good_move"",25268.7,2801.1,2221,22467.6,580.1,""oops"",""down"",""down"",""good_move"",28253.4,2984.1,2454.8,25269.4,529.3,""oops"",""down"",""down"",""good_move""]","",""
"5506","","<div style=""width:500px;"">
  <p>What determined the result of this run?</p>
  </div>","100","html-slider-response","30","1077706","0.0-5.0-1.4","2","1","2025-07-09 08:38:22","01610cd0009c79a99da7d0a3353eb402","41.122.128.184","Mozilla/5.0 (Macintosh; Intel Mac OS X 10_15_7) AppleWebKit/537.36 (KHTML, like Gecko) Chrome/128.0.0.0 Safari/537.36","Macintosh","Chrome","128.0.0.0","OS X","10_15_7","https://app.prolific.com/","en-GB,en-US;q=0.9,en;q=0.8","678bad003d15e6aba1ee5a5d","683db7602f5db6a34d12d064","686e2a6e2e413333777736b3","1","678bad003d15e6aba1ee5a5d","1","2025-07-09T08:56:25.080Z","","","","","","","","","","","AttribQ","","50","","","","","","","","","","","","","","","","","","","","","","","","","","","","",""
"6621","","<div style=""width:500px;"">
  <p>How much control did you have over the ball?</p>
  </div>","72","html-slider-response","31","1084328","0.0-5.0-2.4","2","1","2025-07-09 08:38:22","01610cd0009c79a99da7d0a3353eb402","41.122.128.184","Mozilla/5.0 (Macintosh; Intel Mac OS X 10_15_7) AppleWebKit/537.36 (KHTML, like Gecko) Chrome/128.0.0.0 Safari/537.36","Macintosh","Chrome","128.0.0.0","OS X","10_15_7","https://app.prolific.com/","en-GB,en-US;q=0.9,en;q=0.8","678bad003d15e6aba1ee5a5d","683db7602f5db6a34d12d064","686e2a6e2e413333777736b3","1","678bad003d15e6aba1ee5a5d","1","2025-07-09T08:56:31.702Z","","","","","","","","","","","ControlQ","","50","","","","","","","","","","","","","","","","","","","","","","","","","","","","",""
"4100","","<div style=""width:500px;"">
  <p>How would you describe your current emotional state?</p>
  </div>","19","html-slider-response","32","1088430","0.0-5.0-3.4","2","1","2025-07-09 08:38:22","01610cd0009c79a99da7d0a3353eb402","41.122.128.184","Mozilla/5.0 (Macintosh; Intel Mac OS X 10_15_7) AppleWebKit/537.36 (KHTML, like Gecko) Chrome/128.0.0.0 Safari/537.36","Macintosh","Chrome","128.0.0.0","OS X","10_15_7","https://app.prolific.com/","en-GB,en-US;q=0.9,en;q=0.8","678bad003d15e6aba1ee5a5d","683db7602f5db6a34d12d064","686e2a6e2e413333777736b3","1","678bad003d15e6aba1ee5a5d","1","2025-07-09T08:56:35.804Z","","","","","","","","","","","StressQ","","50","","","","","","","","","","","","","","","","","","","","","","","","","","","","",""
"2860","","<div style=""width:500px;"">
  <p>What best describes how you currently feel?</p>
  </div>","74","html-slider-response","33","1091291","0.0-5.0-4.4","2","1","2025-07-09 08:38:22","01610cd0009c79a99da7d0a3353eb402","41.122.128.184","Mozilla/5.0 (Macintosh; Intel Mac OS X 10_15_7) AppleWebKit/537.36 (KHTML, like Gecko) Chrome/128.0.0.0 Safari/537.36","Macintosh","Chrome","128.0.0.0","OS X","10_15_7","https://app.prolific.com/","en-GB,en-US;q=0.9,en;q=0.8","678bad003d15e6aba1ee5a5d","683db7602f5db6a34d12d064","686e2a6e2e413333777736b3","1","678bad003d15e6aba1ee5a5d","1","2025-07-09T08:56:38.666Z","","","","","","","","","","","MotivationQ","","50","","","","","","","","","","","","","","","","","","","","","","","","","","","","",""
"","","","","ctl-task-cpt","34","1141205","0.0-5.0-0.5","2","1","2025-07-09 08:38:22","01610cd0009c79a99da7d0a3353eb402","41.122.128.184","Mozilla/5.0 (Macintosh; Intel Mac OS X 10_15_7) AppleWebKit/537.36 (KHTML, like Gecko) Chrome/128.0.0.0 Safari/537.36","Macintosh","Chrome","128.0.0.0","OS X","10_15_7","https://app.prolific.com/","en-GB,en-US;q=0.9,en;q=0.8","678bad003d15e6aba1ee5a5d","683db7602f5db6a34d12d064","686e2a6e2e413333777736b3","1","678bad003d15e6aba1ee5a5d","1","2025-07-09T08:57:28.579Z","","","","","","","","","","","","","","win-only","0","g1:NW,g2:SE","0.5","6","0","1097650.7","1464.4","6476.8","46897.6","1","4","4","6","2","4","4","18","14","0.13636363636363635","1164.3","3000","250","[""down"",""right""]","{""num_key_presses"":10,""num_perfect"":5,""num_errors"":0,""num_randdir"":5,""num_randdir_good_moves"":3,""num_whilered"":0,""num_whileblue"":0,""num_blue"":3,""num_good_moves"":8}","[354.14285714285717,338.04910714285717,0.4,354.14285714285717,338.04910714285717,100.7,354.14285714285717,338.04910714285717,208.7,349.14285714285717,346.04910714285717,309.8,349.14285714285717,346.04910714285717,415.3,361.14285714285717,367.04910714285717,521.9,473.14285714285717,454.04910714285717,627,572.1428571428571,547.0491071428571,737.7,590.1428571428571,565.0491071428571,846.6,596.1428571428571,572.0491071428571,951.8,622.1428571428571,615.0491071428571,1060.4,623.1428571428571,615.0491071428571,1162.2,623.1428571428571,615.0491071428571,1274.8,622.1428571428571,615.0491071428571,1384.8,559.1428571428571,615.0491071428571,1485.9,361.14285714285717,606.0491071428571,1595.9,167.14285714285714,543.0491071428571,1696,92.14285714285714,504.04910714285717,1799.7,92.14285714285714,504.04910714285717,1904.8,92.14285714285714,504.04910714285717,2010.4,92.14285714285714,504.04910714285717,2112,92.14285714285714,504.04910714285717,2215,92.14285714285714,504.04910714285717,2326.7,92.14285714285714,504.04910714285717,2430.4,92.14285714285714,504.04910714285717,2532.3,92.14285714285714,504.04910714285717,2636.1,92.14285714285714,504.04910714285717,2737.2,92.14285714285714,504.04910714285717,2839.9,92.14285714285714,504.04910714285717,2945.8,92.14285714285714,504.04910714285717,3050.2,92.14285714285714,504.04910714285717,3152,92.14285714285714,504.04910714285717,3258.8,92.14285714285714,504.04910714285717,3364.5,92.14285714285714,504.04910714285717,3475.6,92.14285714285714,504.04910714285717,3577.3,92.14285714285714,504.04910714285717,3681.6,92.14285714285714,504.04910714285717,3785.7,92.14285714285714,504.04910714285717,3894.8,92.14285714285714,504.04910714285717,3997.2,92.14285714285714,504.04910714285717,4101.6,92.14285714285714,504.04910714285717,4202.3,92.14285714285714,504.04910714285717,4310,92.14285714285714,504.04910714285717,4413.4,92.14285714285714,504.04910714285717,4520.4,92.14285714285714,504.04910714285717,4624.2,92.14285714285714,504.04910714285717,4724.6,92.14285714285714,504.04910714285717,4826.3,92.14285714285714,504.04910714285717,4928.4]","[5396.2,5396.2,2818,2012.7,565.5,""oops"",""right"",""down"",""good_move"",8754.7,3357.2,2915,5397.5,442.3,""smooth"",""right"",""right"",""good_move"",11788.9,3033.2,2445.2,8755.7,588,""oops"",""right"",""left"",""bad_move"",15275,3485.6,2815.2,11789.4,670.4,""oops"",""down"",""left"",""bad_move"",19277.1,4001.4,3381.8,15275.7,619.6,""smooth"",""right"",""right"",""good_move"",22057.4,2778.3,2065.5,19279.1,712.8,""oops"",""right"",""down"",""good_move"",24822.8,2764.7,2234.8,22058.1,529.9,""oops"",""right"",""right"",""good_move"",27524.4,2701.3,1867.6,24823.1,833.7,""smooth"",""right"",""right"",""good_move"",33465.1,5939.9,2542.6,30450.7,471.8,""smooth"",""right"",""right"",""good_move"",40284.8,6819.3,2658.7,37201.2,424.9,""smooth"",""down"",""down"",""good_move""]","",""
"3775","","<div style=""width:500px;"">
  <p>What determined the result of this run?</p>
  </div>","91","html-slider-response","35","1144981","0.0-5.0-1.5","2","1","2025-07-09 08:38:22","01610cd0009c79a99da7d0a3353eb402","41.122.128.184","Mozilla/5.0 (Macintosh; Intel Mac OS X 10_15_7) AppleWebKit/537.36 (KHTML, like Gecko) Chrome/128.0.0.0 Safari/537.36","Macintosh","Chrome","128.0.0.0","OS X","10_15_7","https://app.prolific.com/","en-GB,en-US;q=0.9,en;q=0.8","678bad003d15e6aba1ee5a5d","683db7602f5db6a34d12d064","686e2a6e2e413333777736b3","1","678bad003d15e6aba1ee5a5d","1","2025-07-09T08:57:32.355Z","","","","","","","","","","","AttribQ","","50","","","","","","","","","","","","","","","","","","","","","","","","","","","","",""
"2350","","<div style=""width:500px;"">
  <p>How much control did you have over the ball?</p>
  </div>","28","html-slider-response","36","1147334","0.0-5.0-2.5","2","1","2025-07-09 08:38:22","01610cd0009c79a99da7d0a3353eb402","41.122.128.184","Mozilla/5.0 (Macintosh; Intel Mac OS X 10_15_7) AppleWebKit/537.36 (KHTML, like Gecko) Chrome/128.0.0.0 Safari/537.36","Macintosh","Chrome","128.0.0.0","OS X","10_15_7","https://app.prolific.com/","en-GB,en-US;q=0.9,en;q=0.8","678bad003d15e6aba1ee5a5d","683db7602f5db6a34d12d064","686e2a6e2e413333777736b3","1","678bad003d15e6aba1ee5a5d","1","2025-07-09T08:57:34.710Z","","","","","","","","","","","ControlQ","","50","","","","","","","","","","","","","","","","","","","","","","","","","","","","",""
"4008","","<div style=""width:500px;"">
  <p>How would you describe your current emotional state?</p>
  </div>","36","html-slider-response","37","1151347","0.0-5.0-3.5","2","1","2025-07-09 08:38:22","01610cd0009c79a99da7d0a3353eb402","41.122.128.184","Mozilla/5.0 (Macintosh; Intel Mac OS X 10_15_7) AppleWebKit/537.36 (KHTML, like Gecko) Chrome/128.0.0.0 Safari/537.36","Macintosh","Chrome","128.0.0.0","OS X","10_15_7","https://app.prolific.com/","en-GB,en-US;q=0.9,en;q=0.8","678bad003d15e6aba1ee5a5d","683db7602f5db6a34d12d064","686e2a6e2e413333777736b3","1","678bad003d15e6aba1ee5a5d","1","2025-07-09T08:57:38.721Z","","","","","","","","","","","StressQ","","50","","","","","","","","","","","","","","","","","","","","","","","","","","","","",""
"2517","","<div style=""width:500px;"">
  <p>What best describes how you currently feel?</p>
  </div>","64","html-slider-response","38","1153866","0.0-5.0-4.5","2","1","2025-07-09 08:38:22","01610cd0009c79a99da7d0a3353eb402","41.122.128.184","Mozilla/5.0 (Macintosh; Intel Mac OS X 10_15_7) AppleWebKit/537.36 (KHTML, like Gecko) Chrome/128.0.0.0 Safari/537.36","Macintosh","Chrome","128.0.0.0","OS X","10_15_7","https://app.prolific.com/","en-GB,en-US;q=0.9,en;q=0.8","678bad003d15e6aba1ee5a5d","683db7602f5db6a34d12d064","686e2a6e2e413333777736b3","1","678bad003d15e6aba1ee5a5d","1","2025-07-09T08:57:41.241Z","","","","","","","","","","","MotivationQ","","50","","","","","","","","","","","","","","","","","","","","","","","","","","","","",""
"","","","","ctl-task-cpt","39","1189561","0.0-5.0-0.6","2","1","2025-07-09 08:38:22","01610cd0009c79a99da7d0a3353eb402","41.122.128.184","Mozilla/5.0 (Macintosh; Intel Mac OS X 10_15_7) AppleWebKit/537.36 (KHTML, like Gecko) Chrome/128.0.0.0 Safari/537.36","Macintosh","Chrome","128.0.0.0","OS X","10_15_7","https://app.prolific.com/","en-GB,en-US;q=0.9,en;q=0.8","678bad003d15e6aba1ee5a5d","683db7602f5db6a34d12d064","686e2a6e2e413333777736b3","1","678bad003d15e6aba1ee5a5d","1","2025-07-09T08:58:16.935Z","","","","","","","","","","","","","","win-only","1","g1:NE,g2:SW","0.4","7","0","1160223.9","1755.3","6762.9","32672.7","1","4","8","6","2","8","8","26","18","0.19696969696969696","1084.5","3000","1735","[""down"",""left""]","{""num_key_presses"":6,""num_perfect"":3,""num_errors"":0,""num_randdir"":3,""num_randdir_good_moves"":3,""num_whilered"":0,""num_whileblue"":0,""num_blue"":2,""num_good_moves"":6}","[344.14285714285717,350.04910714285717,0.4,344.14285714285717,350.04910714285717,102.1,344.14285714285717,350.04910714285717,211.6,364.14285714285717,357.04910714285717,315.3,395.14285714285717,356.04910714285717,417.2,342.14285714285717,449.04910714285717,525.5,204.14285714285714,581.0491071428571,637,142.14285714285714,609.0491071428571,737.6,131.14285714285714,613.0491071428571,849.1,96.14285714285714,620.0491071428571,953.6,73.14285714285714,623.0491071428571,1053.7,73.14285714285714,624.0491071428571,1162.1,73.14285714285714,624.0491071428571,1269.3,73.14285714285714,623.0491071428571,1370.2,73.14285714285714,615.0491071428571,1471.8,65.14285714285714,571.0491071428571,1576,65.14285714285714,571.0491071428571,1683.4,65.14285714285714,571.0491071428571,1784.9,65.14285714285714,571.0491071428571,1887.4,65.14285714285714,571.0491071428571,1988.5,65.14285714285714,571.0491071428571,2089,65.14285714285714,571.0491071428571,2199.1,65.14285714285714,571.0491071428571,2299.2,65.14285714285714,571.0491071428571,2405.8,65.14285714285714,571.0491071428571,2511.7,65.14285714285714,571.0491071428571,2615,65.14285714285714,571.0491071428571,2715.1,65.14285714285714,571.0491071428571,2820.5,65.14285714285714,571.0491071428571,2921.2,65.14285714285714,571.0491071428571,3025.9,65.14285714285714,571.0491071428571,3132.4,65.14285714285714,571.0491071428571,3232.7,65.14285714285714,571.0491071428571,3337.7,65.14285714285714,571.0491071428571,3449,65.14285714285714,571.0491071428571,3554,65.14285714285714,571.0491071428571,3661.8,65.14285714285714,571.0491071428571,3769.9,65.14285714285714,571.0491071428571,3871.6,65.14285714285714,571.0491071428571,3981.6,65.14285714285714,571.0491071428571,4085.9,65.14285714285714,571.0491071428571,4190.8,65.14285714285714,571.0491071428571,4301.2,65.14285714285714,571.0491071428571,4406.2,65.14285714285714,571.0491071428571,4510.6,65.14285714285714,571.0491071428571,4614.1,65.14285714285714,571.0491071428571,4720.9,65.14285714285714,571.0491071428571,4828.8,65.14285714285714,571.0491071428571,4935.2]","[1713.9,1713.9,1000,0,713.9,""oops"",""left"",""down"",""good_move"",4782.5,3067,2488.6,1715.5,578.4,""smooth"",""left"",""left"",""good_move"",8082.5,3299.3,2830.7,4783.2,468.6,""smooth"",""left"",""left"",""good_move"",11535.2,3452.1,2996,8083.1,456.1,""smooth"",""left"",""left"",""good_move"",22631.4,11095.6,2235.3,19664.1,732,""oops"",""down"",""down"",""good_move"",25574,2939.5,2091,22634.5,848.5,""oops"",""down"",""down"",""good_move""]","",""
"7524","","<div style=""width:500px;"">
  <p>What determined the result of this run?</p>
  </div>","79","html-slider-response","40","1197087","0.0-5.0-1.6","2","1","2025-07-09 08:38:22","01610cd0009c79a99da7d0a3353eb402","41.122.128.184","Mozilla/5.0 (Macintosh; Intel Mac OS X 10_15_7) AppleWebKit/537.36 (KHTML, like Gecko) Chrome/128.0.0.0 Safari/537.36","Macintosh","Chrome","128.0.0.0","OS X","10_15_7","https://app.prolific.com/","en-GB,en-US;q=0.9,en;q=0.8","678bad003d15e6aba1ee5a5d","683db7602f5db6a34d12d064","686e2a6e2e413333777736b3","1","678bad003d15e6aba1ee5a5d","1","2025-07-09T08:58:24.461Z","","","","","","","","","","","AttribQ","","50","","","","","","","","","","","","","","","","","","","","","","","","","","","","",""
"2170","","<div style=""width:500px;"">
  <p>How much control did you have over the ball?</p>
  </div>","29","html-slider-response","41","1199259","0.0-5.0-2.6","2","1","2025-07-09 08:38:22","01610cd0009c79a99da7d0a3353eb402","41.122.128.184","Mozilla/5.0 (Macintosh; Intel Mac OS X 10_15_7) AppleWebKit/537.36 (KHTML, like Gecko) Chrome/128.0.0.0 Safari/537.36","Macintosh","Chrome","128.0.0.0","OS X","10_15_7","https://app.prolific.com/","en-GB,en-US;q=0.9,en;q=0.8","678bad003d15e6aba1ee5a5d","683db7602f5db6a34d12d064","686e2a6e2e413333777736b3","1","678bad003d15e6aba1ee5a5d","1","2025-07-09T08:58:26.633Z","","","","","","","","","","","ControlQ","","50","","","","","","","","","","","","","","","","","","","","","","","","","","","","",""
"2604","","<div style=""width:500px;"">
  <p>How would you describe your current emotional state?</p>
  </div>","61","html-slider-response","42","1201865","0.0-5.0-3.6","2","1","2025-07-09 08:38:22","01610cd0009c79a99da7d0a3353eb402","41.122.128.184","Mozilla/5.0 (Macintosh; Intel Mac OS X 10_15_7) AppleWebKit/537.36 (KHTML, like Gecko) Chrome/128.0.0.0 Safari/537.36","Macintosh","Chrome","128.0.0.0","OS X","10_15_7","https://app.prolific.com/","en-GB,en-US;q=0.9,en;q=0.8","678bad003d15e6aba1ee5a5d","683db7602f5db6a34d12d064","686e2a6e2e413333777736b3","1","678bad003d15e6aba1ee5a5d","1","2025-07-09T08:58:29.239Z","","","","","","","","","","","StressQ","","50","","","","","","","","","","","","","","","","","","","","","","","","","","","","",""
"2845","","<div style=""width:500px;"">
  <p>What best describes how you currently feel?</p>
  </div>","57","html-slider-response","43","1204711","0.0-5.0-4.6","2","1","2025-07-09 08:38:22","01610cd0009c79a99da7d0a3353eb402","41.122.128.184","Mozilla/5.0 (Macintosh; Intel Mac OS X 10_15_7) AppleWebKit/537.36 (KHTML, like Gecko) Chrome/128.0.0.0 Safari/537.36","Macintosh","Chrome","128.0.0.0","OS X","10_15_7","https://app.prolific.com/","en-GB,en-US;q=0.9,en;q=0.8","678bad003d15e6aba1ee5a5d","683db7602f5db6a34d12d064","686e2a6e2e413333777736b3","1","678bad003d15e6aba1ee5a5d","1","2025-07-09T08:58:32.085Z","","","","","","","","","","","MotivationQ","","50","","","","","","","","","","","","","","","","","","","","","","","","","","","","",""
"","","","","ctl-task-cpt","44","1261774","0.0-5.0-0.7","2","1","2025-07-09 08:38:22","01610cd0009c79a99da7d0a3353eb402","41.122.128.184","Mozilla/5.0 (Macintosh; Intel Mac OS X 10_15_7) AppleWebKit/537.36 (KHTML, like Gecko) Chrome/128.0.0.0 Safari/537.36","Macintosh","Chrome","128.0.0.0","OS X","10_15_7","https://app.prolific.com/","en-GB,en-US;q=0.9,en;q=0.8","678bad003d15e6aba1ee5a5d","683db7602f5db6a34d12d064","686e2a6e2e413333777736b3","1","678bad003d15e6aba1ee5a5d","1","2025-07-09T08:59:29.148Z","","","","","","","","","","","","","","win-only","0","g1:NW,g2:SE","0.3","8","0","1211069","966.4","5980.9","54034.3","1","4","4","6","2","4","3","29","26","0.2196969696969697","1181.4","3000","120","[""down"",""right""]","{""num_key_presses"":12,""num_perfect"":4,""num_errors"":1,""num_randdir"":7,""num_randdir_good_moves"":4,""num_whilered"":0,""num_whileblue"":1,""num_blue"":4,""num_good_moves"":9}","[345.14285714285717,347.04910714285717,0.3,345.14285714285717,347.04910714285717,105.2,345.14285714285717,347.04910714285717,206.1,350.14285714285717,360.04910714285717,332.5,397.14285714285717,430.04910714285717,473.8,448.14285714285717,501.04910714285717,578.2,485.14285714285717,558.0491071428571,702.8,573.1428571428571,611.0491071428571,819.3,604.1428571428571,614.0491071428571,921.6,662.1428571428571,642.0491071428571,1036.5,662.1428571428571,643.0491071428571,1142.1,662.1428571428571,643.0491071428571,1256.5,659.1428571428571,643.0491071428571,1358.9,590.1428571428571,632.0491071428571,1459.5,391.14285714285717,616.0491071428571,1565.3,254.14285714285714,600.0491071428571,1671,226.14285714285714,567.0491071428571,1780.3,225.14285714285714,566.0491071428571,1881.3,225.14285714285714,566.0491071428571,1990.7,225.14285714285714,566.0491071428571,2097.9,225.14285714285714,566.0491071428571,2198,225.14285714285714,566.0491071428571,2306.3,225.14285714285714,566.0491071428571,2417.1,225.14285714285714,566.0491071428571,2527.4,225.14285714285714,566.0491071428571,2629.2,225.14285714285714,566.0491071428571,2735,225.14285714285714,566.0491071428571,2836.1,225.14285714285714,566.0491071428571,2936.9,225.14285714285714,566.0491071428571,3094.4,225.14285714285714,566.0491071428571,3204.5,225.14285714285714,566.0491071428571,3316.7,225.14285714285714,566.0491071428571,3416.7,225.14285714285714,566.0491071428571,3523.5,225.14285714285714,566.0491071428571,3629.2,225.14285714285714,566.0491071428571,3735.3,225.14285714285714,566.0491071428571,3837.4,225.14285714285714,566.0491071428571,3949.2,225.14285714285714,566.0491071428571,4050.8,225.14285714285714,566.0491071428571,4157,225.14285714285714,566.0491071428571,4270.9,225.14285714285714,566.0491071428571,4379,225.14285714285714,566.0491071428571,4482.2,225.14285714285714,566.0491071428571,4583.8,225.14285714285714,566.0491071428571,4687.9,225.14285714285714,566.0491071428571,4798.4,225.14285714285714,566.0491071428571,4908.2]","[1600,1600,1000,0,600,""oops"",""right"",""down"",""good_move"",5330.2,3729.3,3061.5,1600.9,667.8,""oops"",""right"",""left"",""bad_move"",9023.1,3691.4,1894.8,5331.7,1796.6,""oops"",""left"",""up"",""bad_move"",12659.8,3616,3141.4,9043.8,474.6,""oops"",""down"",""left"",""bad_move"",18713.5,6053.2,2431.9,15820.5,461.1,""smooth"",""down"",""down"",""good_move"",21606.6,2892.5,1560.7,18714.1,1331.8,""oops"",""down"",""right"",""good_move"",24999.7,3392.7,2910.3,21607,482.4,""oops"",""down"",""right"",""good_move"",27986.9,2986.2,1990.6,25000.8,995.6,""oops"",""down"",""right"",""good_move"",30572.6,2584.8,2172,27987.8,412.9,""smooth"",""down"",""down"",""good_move"",36994.8,6421.4,2335.8,34216.5,442.5,""while_blue"",""down"",""down"",""good_move"",43793.9,6798.7,2685.8,40520.6,587.6,""smooth"",""right"",""right"",""good_move"",47764.3,3969.6,3502,43794.7,467.6,""smooth"",""right"",""right"",""good_move""]","",""
"9983","","<div style=""width:500px;"">
  <p>What determined the result of this run?</p>
  </div>","13","html-slider-response","45","1271758","0.0-5.0-1.7","2","1","2025-07-09 08:38:22","01610cd0009c79a99da7d0a3353eb402","41.122.128.184","Mozilla/5.0 (Macintosh; Intel Mac OS X 10_15_7) AppleWebKit/537.36 (KHTML, like Gecko) Chrome/128.0.0.0 Safari/537.36","Macintosh","Chrome","128.0.0.0","OS X","10_15_7","https://app.prolific.com/","en-GB,en-US;q=0.9,en;q=0.8","678bad003d15e6aba1ee5a5d","683db7602f5db6a34d12d064","686e2a6e2e413333777736b3","1","678bad003d15e6aba1ee5a5d","1","2025-07-09T08:59:39.132Z","","","","","","","","","","","AttribQ","","50","","","","","","","","","","","","","","","","","","","","","","","","","","","","",""
"2555","","<div style=""width:500px;"">
  <p>How much control did you have over the ball?</p>
  </div>","19","html-slider-response","46","1274315","0.0-5.0-2.7","2","1","2025-07-09 08:38:22","01610cd0009c79a99da7d0a3353eb402","41.122.128.184","Mozilla/5.0 (Macintosh; Intel Mac OS X 10_15_7) AppleWebKit/537.36 (KHTML, like Gecko) Chrome/128.0.0.0 Safari/537.36","Macintosh","Chrome","128.0.0.0","OS X","10_15_7","https://app.prolific.com/","en-GB,en-US;q=0.9,en;q=0.8","678bad003d15e6aba1ee5a5d","683db7602f5db6a34d12d064","686e2a6e2e413333777736b3","1","678bad003d15e6aba1ee5a5d","1","2025-07-09T08:59:41.689Z","","","","","","","","","","","ControlQ","","50","","","","","","","","","","","","","","","","","","","","","","","","","","","","",""
"2891","","<div style=""width:500px;"">
  <p>How would you describe your current emotional state?</p>
  </div>","62","html-slider-response","47","1277208","0.0-5.0-3.7","2","1","2025-07-09 08:38:22","01610cd0009c79a99da7d0a3353eb402","41.122.128.184","Mozilla/5.0 (Macintosh; Intel Mac OS X 10_15_7) AppleWebKit/537.36 (KHTML, like Gecko) Chrome/128.0.0.0 Safari/537.36","Macintosh","Chrome","128.0.0.0","OS X","10_15_7","https://app.prolific.com/","en-GB,en-US;q=0.9,en;q=0.8","678bad003d15e6aba1ee5a5d","683db7602f5db6a34d12d064","686e2a6e2e413333777736b3","1","678bad003d15e6aba1ee5a5d","1","2025-07-09T08:59:44.583Z","","","","","","","","","","","StressQ","","50","","","","","","","","","","","","","","","","","","","","","","","","","","","","",""
"5431","","<div style=""width:500px;"">
  <p>What best describes how you currently feel?</p>
  </div>","37","html-slider-response","48","1282642","0.0-5.0-4.7","2","1","2025-07-09 08:38:22","01610cd0009c79a99da7d0a3353eb402","41.122.128.184","Mozilla/5.0 (Macintosh; Intel Mac OS X 10_15_7) AppleWebKit/537.36 (KHTML, like Gecko) Chrome/128.0.0.0 Safari/537.36","Macintosh","Chrome","128.0.0.0","OS X","10_15_7","https://app.prolific.com/","en-GB,en-US;q=0.9,en;q=0.8","678bad003d15e6aba1ee5a5d","683db7602f5db6a34d12d064","686e2a6e2e413333777736b3","1","678bad003d15e6aba1ee5a5d","1","2025-07-09T08:59:50.016Z","","","","","","","","","","","MotivationQ","","50","","","","","","","","","","","","","","","","","","","","","","","","","","","","",""
"","","","","ctl-task-cpt","49","1342700","0.0-5.0-0.8","2","1","2025-07-09 08:38:22","01610cd0009c79a99da7d0a3353eb402","41.122.128.184","Mozilla/5.0 (Macintosh; Intel Mac OS X 10_15_7) AppleWebKit/537.36 (KHTML, like Gecko) Chrome/128.0.0.0 Safari/537.36","Macintosh","Chrome","128.0.0.0","OS X","10_15_7","https://app.prolific.com/","en-GB,en-US;q=0.9,en;q=0.8","678bad003d15e6aba1ee5a5d","683db7602f5db6a34d12d064","686e2a6e2e413333777736b3","1","678bad003d15e6aba1ee5a5d","1","2025-07-09T09:00:50.074Z","","","","","","","","","","","","","","win-only","0","g1:NW,g2:SE","0.2","9","0","1288996.3","2613.4","7630.8","57036.2","1","4","8","6","2","-8","-8","21","29","0.1590909090909091","1176","3000","-1160","[""down"",""right""]","{""num_key_presses"":10,""num_perfect"":2,""num_errors"":0,""num_randdir"":8,""num_randdir_good_moves"":4,""num_whilered"":0,""num_whileblue"":0,""num_blue"":5,""num_good_moves"":5}","[345.14285714285717,349.04910714285717,0.4,345.14285714285717,349.04910714285717,103.3,345.14285714285717,349.04910714285717,268.7,346.14285714285717,349.04910714285717,421.7,403.14285714285717,405.04910714285717,606.4,444.14285714285717,490.04910714285717,758.1,488.14285714285717,536.0491071428571,895.8,602.1428571428571,597.0491071428571,1022.9,606.1428571428571,602.0491071428571,1134.4,606.1428571428571,602.0491071428571,1292.9,606.1428571428571,602.0491071428571,1412.6,606.1428571428571,602.0491071428571,1526,560.1428571428571,604.0491071428571,1636.1,373.14285714285717,605.0491071428571,1763.6,350.14285714285717,577.0491071428571,1870.7,350.14285714285717,577.0491071428571,1992.3,350.14285714285717,577.0491071428571,2106,350.14285714285717,577.0491071428571,2217.3,350.14285714285717,577.0491071428571,2336.6,350.14285714285717,577.0491071428571,2453,350.14285714285717,577.0491071428571,2563.6,350.14285714285717,577.0491071428571,2665.8,350.14285714285717,577.0491071428571,2769.1,350.14285714285717,577.0491071428571,2924.3,350.14285714285717,577.0491071428571,3027.3,350.14285714285717,577.0491071428571,3130.1,350.14285714285717,577.0491071428571,3249,350.14285714285717,577.0491071428571,3360.2,350.14285714285717,577.0491071428571,3470.1,350.14285714285717,577.0491071428571,3583.9,350.14285714285717,577.0491071428571,3690.1,350.14285714285717,577.0491071428571,3798.8,350.14285714285717,577.0491071428571,3901.2,350.14285714285717,577.0491071428571,4058.1,350.14285714285717,577.0491071428571,4162.3,350.14285714285717,577.0491071428571,4272.5,350.14285714285717,577.0491071428571,4398.4,350.14285714285717,577.0491071428571,4542.3,350.14285714285717,577.0491071428571,4661.6,350.14285714285717,577.0491071428571,4768.1,350.14285714285717,577.0491071428571,4916]","[1677.7,1677.7,1000,0,677.7,""oops"",""right"",""left"",""bad_move"",4644.5,2964.8,2447.7,1679.7,517.1,""smooth"",""left"",""left"",""bad_move"",11623.2,6978,2641,8483.2,499,""oops"",""right"",""up"",""bad_move"",15554.5,3930.5,2355.4,11624.2,1574.9,""oops"",""right"",""up"",""bad_move"",23766.7,8211.8,1426.8,21854.7,485.2,""oops"",""right"",""down"",""good_move"",33442.5,9675.4,2613.7,30280.4,548.4,""smooth"",""right"",""right"",""good_move"",37602.7,4159.1,1834.4,33443.6,2324.7,""oops"",""right"",""up"",""bad_move"",40513.8,2910.7,2124.6,37603.1,786.1,""oops"",""right"",""right"",""good_move"",43895,3380.6,2897.4,40514.4,483.2,""oops"",""right"",""right"",""good_move"",46950.2,3054.4,2555.4,43895.8,499,""oops"",""right"",""right"",""good_move""]","",""
"19748","","<div style=""width:500px;"">
  <p>What determined the result of this run?</p>
  </div>","20","html-slider-response","50","1362450","0.0-5.0-1.8","2","1","2025-07-09 08:38:22","01610cd0009c79a99da7d0a3353eb402","41.122.128.184","Mozilla/5.0 (Macintosh; Intel Mac OS X 10_15_7) AppleWebKit/537.36 (KHTML, like Gecko) Chrome/128.0.0.0 Safari/537.36","Macintosh","Chrome","128.0.0.0","OS X","10_15_7","https://app.prolific.com/","en-GB,en-US;q=0.9,en;q=0.8","678bad003d15e6aba1ee5a5d","683db7602f5db6a34d12d064","686e2a6e2e413333777736b3","1","678bad003d15e6aba1ee5a5d","1","2025-07-09T09:01:09.824Z","","","","","","","","","","","AttribQ","","50","","","","","","","","","","","","","","","","","","","","","","","","","","","","",""
"3655","","<div style=""width:500px;"">
  <p>How much control did you have over the ball?</p>
  </div>","15","html-slider-response","51","1366108","0.0-5.0-2.8","2","1","2025-07-09 08:38:22","01610cd0009c79a99da7d0a3353eb402","41.122.128.184","Mozilla/5.0 (Macintosh; Intel Mac OS X 10_15_7) AppleWebKit/537.36 (KHTML, like Gecko) Chrome/128.0.0.0 Safari/537.36","Macintosh","Chrome","128.0.0.0","OS X","10_15_7","https://app.prolific.com/","en-GB,en-US;q=0.9,en;q=0.8","678bad003d15e6aba1ee5a5d","683db7602f5db6a34d12d064","686e2a6e2e413333777736b3","1","678bad003d15e6aba1ee5a5d","1","2025-07-09T09:01:13.482Z","","","","","","","","","","","ControlQ","","50","","","","","","","","","","","","","","","","","","","","","","","","","","","","",""
"3511","","<div style=""width:500px;"">
  <p>How would you describe your current emotional state?</p>
  </div>","69","html-slider-response","52","1369622","0.0-5.0-3.8","2","1","2025-07-09 08:38:22","01610cd0009c79a99da7d0a3353eb402","41.122.128.184","Mozilla/5.0 (Macintosh; Intel Mac OS X 10_15_7) AppleWebKit/537.36 (KHTML, like Gecko) Chrome/128.0.0.0 Safari/537.36","Macintosh","Chrome","128.0.0.0","OS X","10_15_7","https://app.prolific.com/","en-GB,en-US;q=0.9,en;q=0.8","678bad003d15e6aba1ee5a5d","683db7602f5db6a34d12d064","686e2a6e2e413333777736b3","1","678bad003d15e6aba1ee5a5d","1","2025-07-09T09:01:16.996Z","","","","","","","","","","","StressQ","","50","","","","","","","","","","","","","","","","","","","","","","","","","","","","",""
"3821","","<div style=""width:500px;"">
  <p>What best describes how you currently feel?</p>
  </div>","20","html-slider-response","53","1373446","0.0-5.0-4.8","2","1","2025-07-09 08:38:22","01610cd0009c79a99da7d0a3353eb402","41.122.128.184","Mozilla/5.0 (Macintosh; Intel Mac OS X 10_15_7) AppleWebKit/537.36 (KHTML, like Gecko) Chrome/128.0.0.0 Safari/537.36","Macintosh","Chrome","128.0.0.0","OS X","10_15_7","https://app.prolific.com/","en-GB,en-US;q=0.9,en;q=0.8","678bad003d15e6aba1ee5a5d","683db7602f5db6a34d12d064","686e2a6e2e413333777736b3","1","678bad003d15e6aba1ee5a5d","1","2025-07-09T09:01:20.820Z","","","","","","","","","","","MotivationQ","","50","","","","","","","","","","","","","","","","","","","","","","","","","","","","",""
"","","","","ctl-task-cpt","54","1446457","0.0-5.0-0.9","2","1","2025-07-09 08:38:22","01610cd0009c79a99da7d0a3353eb402","41.122.128.184","Mozilla/5.0 (Macintosh; Intel Mac OS X 10_15_7) AppleWebKit/537.36 (KHTML, like Gecko) Chrome/128.0.0.0 Safari/537.36","Macintosh","Chrome","128.0.0.0","OS X","10_15_7","https://app.prolific.com/","en-GB,en-US;q=0.9,en;q=0.8","678bad003d15e6aba1ee5a5d","683db7602f5db6a34d12d064","686e2a6e2e413333777736b3","1","678bad003d15e6aba1ee5a5d","1","2025-07-09T09:02:33.831Z","","","","","","","","","","","","","","win-only","1","g1:NE,g2:SW","0.4","10","0","1379796.5","2605.4","7616.8","69987.4","1","4","4","6","2","-4","-4","17","21","0.12878787878787878","1139.3","3000","-930","[""down"",""left""]","{""num_key_presses"":15,""num_perfect"":6,""num_errors"":0,""num_randdir"":9,""num_randdir_good_moves"":3,""num_whilered"":0,""num_whileblue"":0,""num_blue"":3,""num_good_moves"":8}","[344.14285714285717,352.04910714285717,0.3,344.14285714285717,352.04910714285717,118.7,344.14285714285717,352.04910714285717,227.7,344.14285714285717,352.04910714285717,338,349.14285714285717,355.04910714285717,444,375.14285714285717,369.04910714285717,562.1,345.14285714285717,391.04910714285717,684.3,228.14285714285714,485.04910714285717,792.2,127.14285714285714,577.0491071428571,903.4,106.14285714285714,599.0491071428571,1014.4,98.14285714285714,603.0491071428571,1118,98.14285714285714,603.0491071428571,1218.2,98.14285714285714,603.0491071428571,1327.9,98.14285714285714,603.0491071428571,1430.3,102.14285714285714,600.0491071428571,1532.8,105.14285714285714,589.0491071428571,1649.6,103.14285714285714,546.0491071428571,1750,103.14285714285714,546.0491071428571,1861.5,103.14285714285714,546.0491071428571,1964.3,103.14285714285714,546.0491071428571,2082.1,103.14285714285714,546.0491071428571,2198.4,103.14285714285714,546.0491071428571,2301,103.14285714285714,546.0491071428571,2407.3,103.14285714285714,546.0491071428571,2513,103.14285714285714,546.0491071428571,2636.6,103.14285714285714,546.0491071428571,2747,103.14285714285714,546.0491071428571,2864.9,103.14285714285714,546.0491071428571,2973.6,103.14285714285714,546.0491071428571,3082.6,103.14285714285714,546.0491071428571,3199.4,103.14285714285714,546.0491071428571,3315.6,103.14285714285714,546.0491071428571,3427,103.14285714285714,546.0491071428571,3538.1,103.14285714285714,546.0491071428571,3643.5,103.14285714285714,546.0491071428571,3746.6,103.14285714285714,546.0491071428571,3860.3,103.14285714285714,546.0491071428571,3975.9,103.14285714285714,546.0491071428571,4102.7,103.14285714285714,546.0491071428571,4213.4,103.14285714285714,546.0491071428571,4326,103.14285714285714,546.0491071428571,4429,103.14285714285714,546.0491071428571,4535.4,103.14285714285714,546.0491071428571,4637.4,103.14285714285714,546.0491071428571,4749.5,103.14285714285714,546.0491071428571,4857.3,103.14285714285714,546.0491071428571,4963.9]","[1708.6,1708.6,1000,0,708.6,""smooth"",""right"",""right"",""bad_move"",4802,3090.5,2577.7,1711.5,512.8,""smooth"",""down"",""down"",""good_move"",15231.6,10428.7,2528.5,11980.7,722.4,""smooth"",""down"",""down"",""good_move"",18240.6,3008.6,2362.8,15232,645.8,""oops"",""down"",""down"",""good_move"",21459.4,3214.4,2541.5,18245.1,672.8,""oops"",""left"",""right"",""bad_move"",25200.8,3736.1,3191.7,21464.8,544.3,""oops"",""left"",""up"",""bad_move"",28534.2,3332.2,1884.5,25202,1447.7,""oops"",""left"",""up"",""bad_move"",31537.2,3002.5,2082.5,28534.7,920,""oops"",""right"",""up"",""bad_move"",35199.1,3661.3,3153.1,31537.9,508.2,""smooth"",""down"",""down"",""good_move"",42151.5,6951,2639.4,38920.4,591.8,""oops"",""down"",""left"",""good_move"",46920,4767.1,2565.4,42152.9,2201.7,""smooth"",""down"",""down"",""good_move"",50563.9,3643.2,2853.7,46920.7,789.5,""smooth"",""down"",""down"",""good_move"",53984.9,3420.2,2770.8,50564.7,649.4,""oops"",""left"",""right"",""bad_move"",56643.7,2657.5,2150.2,53986.2,507.3,""oops"",""left"",""up"",""bad_move"",59888.2,3243.7,2714.6,56644.6,529,""oops"",""left"",""down"",""good_move""]","",""
"73388","","<div style=""width:500px;"">
  <p>What determined the result of this run?</p>
  </div>","3","html-slider-response","55","1519857","0.0-5.0-1.9","2","1","2025-07-09 08:38:22","01610cd0009c79a99da7d0a3353eb402","41.122.128.184","Mozilla/5.0 (Macintosh; Intel Mac OS X 10_15_7) AppleWebKit/537.36 (KHTML, like Gecko) Chrome/128.0.0.0 Safari/537.36","Macintosh","Chrome","128.0.0.0","OS X","10_15_7","https://app.prolific.com/","en-GB,en-US;q=0.9,en;q=0.8","678bad003d15e6aba1ee5a5d","683db7602f5db6a34d12d064","686e2a6e2e413333777736b3","1","678bad003d15e6aba1ee5a5d","1","2025-07-09T09:03:47.231Z","","","","","","","","","","","AttribQ","","50","","","","","","","","","","","","","","","","","","","","","","","","","","","","",""
"3294","","<div style=""width:500px;"">
  <p>How much control did you have over the ball?</p>
  </div>","2","html-slider-response","56","1523154","0.0-5.0-2.9","2","1","2025-07-09 08:38:22","01610cd0009c79a99da7d0a3353eb402","41.122.128.184","Mozilla/5.0 (Macintosh; Intel Mac OS X 10_15_7) AppleWebKit/537.36 (KHTML, like Gecko) Chrome/128.0.0.0 Safari/537.36","Macintosh","Chrome","128.0.0.0","OS X","10_15_7","https://app.prolific.com/","en-GB,en-US;q=0.9,en;q=0.8","678bad003d15e6aba1ee5a5d","683db7602f5db6a34d12d064","686e2a6e2e413333777736b3","1","678bad003d15e6aba1ee5a5d","1","2025-07-09T09:03:50.528Z","","","","","","","","","","","ControlQ","","50","","","","","","","","","","","","","","","","","","","","","","","","","","","","",""
"5643","","<div style=""width:500px;"">
  <p>How would you describe your current emotional state?</p>
  </div>","95","html-slider-response","57","1528798","0.0-5.0-3.9","2","1","2025-07-09 08:38:22","01610cd0009c79a99da7d0a3353eb402","41.122.128.184","Mozilla/5.0 (Macintosh; Intel Mac OS X 10_15_7) AppleWebKit/537.36 (KHTML, like Gecko) Chrome/128.0.0.0 Safari/537.36","Macintosh","Chrome","128.0.0.0","OS X","10_15_7","https://app.prolific.com/","en-GB,en-US;q=0.9,en;q=0.8","678bad003d15e6aba1ee5a5d","683db7602f5db6a34d12d064","686e2a6e2e413333777736b3","1","678bad003d15e6aba1ee5a5d","1","2025-07-09T09:03:56.172Z","","","","","","","","","","","StressQ","","50","","","","","","","","","","","","","","","","","","","","","","","","","","","","",""
"3926","","<div style=""width:500px;"">
  <p>What best describes how you currently feel?</p>
  </div>","13","html-slider-response","58","1532726","0.0-5.0-4.9","2","1","2025-07-09 08:38:22","01610cd0009c79a99da7d0a3353eb402","41.122.128.184","Mozilla/5.0 (Macintosh; Intel Mac OS X 10_15_7) AppleWebKit/537.36 (KHTML, like Gecko) Chrome/128.0.0.0 Safari/537.36","Macintosh","Chrome","128.0.0.0","OS X","10_15_7","https://app.prolific.com/","en-GB,en-US;q=0.9,en;q=0.8","678bad003d15e6aba1ee5a5d","683db7602f5db6a34d12d064","686e2a6e2e413333777736b3","1","678bad003d15e6aba1ee5a5d","1","2025-07-09T09:04:00.100Z","","","","","","","","","","","MotivationQ","","50","","","","","","","","","","","","","","","","","","","","","","","","","","","","",""
"","","","","ctl-task-cpt","59","1594518","0.0-5.0-0.10","2","1","2025-07-09 08:38:22","01610cd0009c79a99da7d0a3353eb402","41.122.128.184","Mozilla/5.0 (Macintosh; Intel Mac OS X 10_15_7) AppleWebKit/537.36 (KHTML, like Gecko) Chrome/128.0.0.0 Safari/537.36","Macintosh","Chrome","128.0.0.0","OS X","10_15_7","https://app.prolific.com/","en-GB,en-US;q=0.9,en;q=0.8","678bad003d15e6aba1ee5a5d","683db7602f5db6a34d12d064","686e2a6e2e413333777736b3","1","678bad003d15e6aba1ee5a5d","1","2025-07-09T09:05:01.892Z","","","","","","","","","","","","","","win-only","3","g1:SW,g2:NE","0.5","11","0","1539063.1","1101.4","6112","58766.1","1","4","4","6","2","4","4","21","17","0.1590909090909091","1647.5","3000","870","[""up"",""right""]","{""num_key_presses"":14,""num_perfect"":9,""num_errors"":0,""num_randdir"":5,""num_randdir_good_moves"":1,""num_whilered"":0,""num_whileblue"":0,""num_blue"":3,""num_good_moves"":10}","[350.14285714285717,354.04910714285717,0.8,350.14285714285717,354.04910714285717,105.6,349.14285714285717,355.04910714285717,210.4,344.14285714285717,367.04910714285717,320.7,335.14285714285717,427.04910714285717,431,317.14285714285717,458.04910714285717,640.8,226.14285714285714,541.0491071428571,764.1,195.14285714285714,563.0491071428571,888.8,321.14285714285717,439.04910714285717,1084,531.1428571428571,244.04910714285714,1193.9,633.1428571428571,127.04910714285714,1296.4,638.1428571428571,117.04910714285714,1405.6,638.1428571428571,79.04910714285714,1519.9,639.1428571428571,36.049107142857146,1646.4,639.1428571428571,36.049107142857146,1777,639.1428571428571,54.049107142857146,1903.4,611.1428571428571,169.04910714285714,2014.8,558.1428571428571,227.04910714285714,2117.1,558.1428571428571,227.04910714285714,2258.5,558.1428571428571,227.04910714285714,2415.2,558.1428571428571,227.04910714285714,2527.1,558.1428571428571,227.04910714285714,2628,558.1428571428571,227.04910714285714,2737.7,558.1428571428571,227.04910714285714,2877.7,558.1428571428571,227.04910714285714,2978.8,558.1428571428571,227.04910714285714,3101.7,558.1428571428571,227.04910714285714,3214.6,558.1428571428571,227.04910714285714,3325,558.1428571428571,227.04910714285714,3429.6,558.1428571428571,227.04910714285714,3533.3,558.1428571428571,227.04910714285714,3638,558.1428571428571,227.04910714285714,3744,558.1428571428571,227.04910714285714,3845,558.1428571428571,227.04910714285714,3957.4,558.1428571428571,227.04910714285714,4065,558.1428571428571,227.04910714285714,4172.4,558.1428571428571,227.04910714285714,4282.6,558.1428571428571,227.04910714285714,4392,558.1428571428571,227.04910714285714,4492.5,558.1428571428571,227.04910714285714,4598.8,558.1428571428571,227.04910714285714,4708.5,558.1428571428571,227.04910714285714,4818.1,558.1428571428571,227.04910714285714,4929.7]","[12399.1,12399.2,2886.1,8833.2,679.9,""smooth"",""right"",""right"",""good_move"",15080.2,2676.2,2076.9,12404,599.3,""oops"",""right"",""left"",""bad_move"",18152.5,3071.8,2482.2,15080.7,589.6,""smooth"",""right"",""right"",""good_move"",20969.4,2816.6,2284.8,18152.8,531.8,""oops"",""right"",""left"",""bad_move"",24244,3273.6,2733,20970.4,540.6,""smooth"",""right"",""right"",""good_move"",26902.3,2657.7,2023.2,24244.6,634.5,""smooth"",""right"",""right"",""good_move"",29276.3,2371,1378.9,26905.3,992.1,""smooth"",""right"",""right"",""good_move"",32423.3,3145.1,2543.1,29278.3,601.9,""oops"",""up"",""left"",""bad_move"",36167.7,3743.7,2713,32424,1030.7,""oops"",""up"",""down"",""bad_move"",39142.3,2973.9,2399.4,36168.4,574.5,""oops"",""up"",""right"",""good_move"",42625.7,3478.7,3006.2,39147,472.5,""smooth"",""up"",""up"",""good_move"",45978.1,3351.6,2889.8,42626.5,461.8,""smooth"",""up"",""up"",""good_move"",49268.7,3289.2,2305.4,45979.5,983.8,""smooth"",""up"",""up"",""good_move"",52325.2,3055.6,1716.5,49269.6,1339.1,""smooth"",""up"",""up"",""good_move""]","",""
"3988","","<div style=""width:500px;"">
  <p>What determined the result of this run?</p>
  </div>","1","html-slider-response","60","1598508","0.0-5.0-1.10","2","1","2025-07-09 08:38:22","01610cd0009c79a99da7d0a3353eb402","41.122.128.184","Mozilla/5.0 (Macintosh; Intel Mac OS X 10_15_7) AppleWebKit/537.36 (KHTML, like Gecko) Chrome/128.0.0.0 Safari/537.36","Macintosh","Chrome","128.0.0.0","OS X","10_15_7","https://app.prolific.com/","en-GB,en-US;q=0.9,en;q=0.8","678bad003d15e6aba1ee5a5d","683db7602f5db6a34d12d064","686e2a6e2e413333777736b3","1","678bad003d15e6aba1ee5a5d","1","2025-07-09T09:05:05.882Z","","","","","","","","","","","AttribQ","","50","","","","","","","","","","","","","","","","","","","","","","","","","","","","",""
"65608","","<div style=""width:500px;"">
  <p>How much control did you have over the ball?</p>
  </div>","0","html-slider-response","61","1664123","0.0-5.0-2.10","2","1","2025-07-09 08:38:22","01610cd0009c79a99da7d0a3353eb402","41.122.128.184","Mozilla/5.0 (Macintosh; Intel Mac OS X 10_15_7) AppleWebKit/537.36 (KHTML, like Gecko) Chrome/128.0.0.0 Safari/537.36","Macintosh","Chrome","128.0.0.0","OS X","10_15_7","https://app.prolific.com/","en-GB,en-US;q=0.9,en;q=0.8","678bad003d15e6aba1ee5a5d","683db7602f5db6a34d12d064","686e2a6e2e413333777736b3","1","678bad003d15e6aba1ee5a5d","1","2025-07-09T09:06:11.497Z","","","","","","","","","","","ControlQ","","50","","","","","","","","","","","","","","","","","","","","","","","","","","","","",""
"9021","","<div style=""width:500px;"">
  <p>How would you describe your current emotional state?</p>
  </div>","83","html-slider-response","62","1673148","0.0-5.0-3.10","2","1","2025-07-09 08:38:22","01610cd0009c79a99da7d0a3353eb402","41.122.128.184","Mozilla/5.0 (Macintosh; Intel Mac OS X 10_15_7) AppleWebKit/537.36 (KHTML, like Gecko) Chrome/128.0.0.0 Safari/537.36","Macintosh","Chrome","128.0.0.0","OS X","10_15_7","https://app.prolific.com/","en-GB,en-US;q=0.9,en;q=0.8","678bad003d15e6aba1ee5a5d","683db7602f5db6a34d12d064","686e2a6e2e413333777736b3","1","678bad003d15e6aba1ee5a5d","1","2025-07-09T09:06:20.522Z","","","","","","","","","","","StressQ","","50","","","","","","","","","","","","","","","","","","","","","","","","","","","","",""
"140710","","<div style=""width:500px;"">
  <p>What best describes how you currently feel?</p>
  </div>","4","html-slider-response","63","1813874","0.0-5.0-4.10","2","1","2025-07-09 08:38:22","01610cd0009c79a99da7d0a3353eb402","41.122.128.184","Mozilla/5.0 (Macintosh; Intel Mac OS X 10_15_7) AppleWebKit/537.36 (KHTML, like Gecko) Chrome/128.0.0.0 Safari/537.36","Macintosh","Chrome","128.0.0.0","OS X","10_15_7","https://app.prolific.com/","en-GB,en-US;q=0.9,en;q=0.8","678bad003d15e6aba1ee5a5d","683db7602f5db6a34d12d064","686e2a6e2e413333777736b3","1","678bad003d15e6aba1ee5a5d","1","2025-07-09T09:08:41.248Z","","","","","","","","","","","MotivationQ","","50","","","","","","","","","","","","","","","","","","","","","","","","","","","","",""
"","","","","ctl-task-cpt","64","1892348","0.0-5.0-0.11","2","1","2025-07-09 08:38:22","01610cd0009c79a99da7d0a3353eb402","41.122.128.184","Mozilla/5.0 (Macintosh; Intel Mac OS X 10_15_7) AppleWebKit/537.36 (KHTML, like Gecko) Chrome/128.0.0.0 Safari/537.36","Macintosh","Chrome","128.0.0.0","OS X","10_15_7","https://app.prolific.com/","en-GB,en-US;q=0.9,en;q=0.8","678bad003d15e6aba1ee5a5d","683db7602f5db6a34d12d064","686e2a6e2e413333777736b3","1","678bad003d15e6aba1ee5a5d","1","2025-07-09T09:09:59.722Z","","","","","","","","","","","","","","win-only","0","g1:NW,g2:SE","0.6","12","0","1820208.2","10003.6","15004.9","75447.2","1","4","8","6","2","8","8","29","21","0.2196969696969697","1099.5","3000","695","[""down"",""right""]","{""num_key_presses"":14,""num_perfect"":8,""num_errors"":0,""num_randdir"":6,""num_randdir_good_moves"":2,""num_whilered"":0,""num_whileblue"":0,""num_blue"":4,""num_good_moves"":10}","[314.20625,312.096875,0.3,314.20625,312.096875,110,314.20625,312.096875,222,314.20625,312.096875,330.3,314.20625,312.096875,437,314.20625,312.096875,556.6,314.20625,312.096875,667,314.20625,312.096875,785.4,314.20625,312.096875,894.1,314.20625,312.096875,1004.2,568.20625,581.096875,1113.6,568.20625,581.096875,1220.2,568.20625,581.096875,1325.3,568.20625,581.096875,1436.5,568.20625,581.096875,1538.9,568.20625,581.096875,1653.1,568.20625,581.096875,1755.3,568.20625,581.096875,1859.8,568.20625,581.096875,1962.3,568.20625,581.096875,2075.9,568.20625,581.096875,2195.1,568.20625,581.096875,2300.2,568.20625,581.096875,2415.8,568.20625,581.096875,2517.9,568.20625,581.096875,2627.8,568.20625,581.096875,2728.9,568.20625,581.096875,2836,568.20625,581.096875,2936.6,568.20625,581.096875,3038.1,568.20625,581.096875,3156.3,568.20625,581.096875,3268.5,568.20625,581.096875,3400.6,568.20625,581.096875,3508.6,568.20625,581.096875,3626.7,568.20625,581.096875,3743.3,568.20625,581.096875,3849.9,568.20625,581.096875,3960.3,568.20625,581.096875,4068.1,568.20625,581.096875,4177.1,568.20625,581.096875,4282.2,568.20625,581.096875,4396.5,568.20625,581.096875,4497.1,568.20625,581.096875,4616.1,568.20625,581.096875,4727.5,568.20625,581.096875,4834.7,568.20625,581.096875,4952.1]","[1595.1,1595.1,1000,0,595.1,""smooth"",""right"",""right"",""good_move"",5641.7,4046,3294.1,1595.7,751.9,""smooth"",""right"",""right"",""good_move"",12669.7,7021,2395.8,9599,675,""smooth"",""right"",""right"",""good_move"",21226,8554.3,1159.9,19421.8,644.3,""oops"",""down"",""up"",""bad_move"",25510.7,4283.6,2122.7,21227.1,2161,""smooth"",""down"",""down"",""good_move"",32289.4,6777.6,2427.6,29174.9,686.9,""smooth"",""down"",""down"",""good_move"",35312,3021.3,2453.3,32290.8,567.9,""oops"",""down"",""up"",""bad_move"",38806.1,3493.4,2774.9,35312.8,718.4,""oops"",""down"",""left"",""bad_move"",42423.6,3616.6,2951.4,38807,665.2,""smooth"",""right"",""right"",""good_move"",45345,2920.2,2357.6,42424.8,562.6,""oops"",""down"",""down"",""good_move"",48554.1,3207.4,2538.5,45346.9,668.8,""oops"",""down"",""left"",""bad_move"",54482.1,5926.2,2180.4,48555.9,3745.8,""smooth"",""right"",""right"",""good_move"",57643.5,3158.7,2356.6,54484.8,802.1,""smooth"",""down"",""down"",""good_move"",60092.3,2447.7,1959,57644.6,488.8,""oops"",""down"",""down"",""good_move""]","",""
"23368","","<div style=""width:500px;"">
  <p>What determined the result of this run?</p>
  </div>","21","html-slider-response","65","1915725","0.0-5.0-1.11","2","1","2025-07-09 08:38:22","01610cd0009c79a99da7d0a3353eb402","41.122.128.184","Mozilla/5.0 (Macintosh; Intel Mac OS X 10_15_7) AppleWebKit/537.36 (KHTML, like Gecko) Chrome/128.0.0.0 Safari/537.36","Macintosh","Chrome","128.0.0.0","OS X","10_15_7","https://app.prolific.com/","en-GB,en-US;q=0.9,en;q=0.8","678bad003d15e6aba1ee5a5d","683db7602f5db6a34d12d064","686e2a6e2e413333777736b3","1","678bad003d15e6aba1ee5a5d","1","2025-07-09T09:10:23.099Z","","","","","","","","","","","AttribQ","","50","","","","","","","","","","","","","","","","","","","","","","","","","","","","",""
"6094","","<div style=""width:500px;"">
  <p>How much control did you have over the ball?</p>
  </div>","27","html-slider-response","66","1921845","0.0-5.0-2.11","2","1","2025-07-09 08:38:22","01610cd0009c79a99da7d0a3353eb402","41.122.128.184","Mozilla/5.0 (Macintosh; Intel Mac OS X 10_15_7) AppleWebKit/537.36 (KHTML, like Gecko) Chrome/128.0.0.0 Safari/537.36","Macintosh","Chrome","128.0.0.0","OS X","10_15_7","https://app.prolific.com/","en-GB,en-US;q=0.9,en;q=0.8","678bad003d15e6aba1ee5a5d","683db7602f5db6a34d12d064","686e2a6e2e413333777736b3","1","678bad003d15e6aba1ee5a5d","1","2025-07-09T09:10:29.219Z","","","","","","","","","","","ControlQ","","50","","","","","","","","","","","","","","","","","","","","","","","","","","","","",""
"1812","","<div style=""width:500px;"">
  <p>How would you describe your current emotional state?</p>
  </div>","20","html-slider-response","67","1923660","0.0-5.0-3.11","2","1","2025-07-09 08:38:22","01610cd0009c79a99da7d0a3353eb402","41.122.128.184","Mozilla/5.0 (Macintosh; Intel Mac OS X 10_15_7) AppleWebKit/537.36 (KHTML, like Gecko) Chrome/128.0.0.0 Safari/537.36","Macintosh","Chrome","128.0.0.0","OS X","10_15_7","https://app.prolific.com/","en-GB,en-US;q=0.9,en;q=0.8","678bad003d15e6aba1ee5a5d","683db7602f5db6a34d12d064","686e2a6e2e413333777736b3","1","678bad003d15e6aba1ee5a5d","1","2025-07-09T09:10:31.034Z","","","","","","","","","","","StressQ","","50","","","","","","","","","","","","","","","","","","","","","","","","","","","","",""
"2638","","<div style=""width:500px;"">
  <p>What best describes how you currently feel?</p>
  </div>","62","html-slider-response","68","1926300","0.0-5.0-4.11","2","1","2025-07-09 08:38:22","01610cd0009c79a99da7d0a3353eb402","41.122.128.184","Mozilla/5.0 (Macintosh; Intel Mac OS X 10_15_7) AppleWebKit/537.36 (KHTML, like Gecko) Chrome/128.0.0.0 Safari/537.36","Macintosh","Chrome","128.0.0.0","OS X","10_15_7","https://app.prolific.com/","en-GB,en-US;q=0.9,en;q=0.8","678bad003d15e6aba1ee5a5d","683db7602f5db6a34d12d064","686e2a6e2e413333777736b3","1","678bad003d15e6aba1ee5a5d","1","2025-07-09T09:10:33.674Z","","","","","","","","","","","MotivationQ","","50","","","","","","","","","","","","","","","","","","","","","","","","","","","","",""
"","","","","ctl-task-cpt","69","1964593","0.0-5.0-0.12","2","1","2025-07-09 08:38:22","01610cd0009c79a99da7d0a3353eb402","41.122.128.184","Mozilla/5.0 (Macintosh; Intel Mac OS X 10_15_7) AppleWebKit/537.36 (KHTML, like Gecko) Chrome/128.0.0.0 Safari/537.36","Macintosh","Chrome","128.0.0.0","OS X","10_15_7","https://app.prolific.com/","en-GB,en-US;q=0.9,en;q=0.8","678bad003d15e6aba1ee5a5d","683db7602f5db6a34d12d064","686e2a6e2e413333777736b3","1","678bad003d15e6aba1ee5a5d","1","2025-07-09T09:11:11.967Z","","","","","","","","","","","","","","win-only","1","g1:NE,g2:SW","0.7","13","0","1932627.2","3918.8","8923.6","35266.6","1","4","8","6","2","8","8","37","29","0.2803030303030303","1227.9","3000","2000","[""down"",""left""]","{""num_key_presses"":6,""num_perfect"":5,""num_errors"":0,""num_randdir"":1,""num_randdir_good_moves"":1,""num_whilered"":0,""num_whileblue"":0,""num_blue"":2,""num_good_moves"":6}","[314.20625,319.096875,0.4,314.20625,319.096875,116.9,314.20625,319.096875,229.4,314.20625,319.096875,339.8,314.20625,319.096875,442.6,314.20625,319.096875,549.4,314.20625,319.096875,660.3,314.20625,319.096875,774.5,314.20625,319.096875,885.4,314.20625,319.096875,985.4,314.20625,319.096875,1086.9,314.20625,319.096875,1189.4,78.20625,566.096875,1293.1,78.20625,566.096875,1399,78.20625,566.096875,1499.6,78.20625,566.096875,1599.7,78.20625,566.096875,1708,78.20625,566.096875,1812.5,78.20625,566.096875,1927.2,78.20625,566.096875,2028.8,78.20625,566.096875,2140.8,78.20625,566.096875,2261.6,78.20625,566.096875,2367,78.20625,566.096875,2484.1,78.20625,566.096875,2687.3,78.20625,566.096875,2817.3,78.20625,566.096875,2925.4,78.20625,566.096875,3031.9,78.20625,566.096875,3134.1,78.20625,566.096875,3242.5,78.20625,566.096875,3357,78.20625,566.096875,3473.9,78.20625,566.096875,3590.4,78.20625,566.096875,3695.2,78.20625,566.096875,3802.7,78.20625,566.096875,3921.3,78.20625,566.096875,4022.4,78.20625,566.096875,4127.1,78.20625,566.096875,4229.5,78.20625,566.096875,4330.1,78.20625,566.096875,4435.3,78.20625,566.096875,4546.4,78.20625,566.096875,4651.5,78.20625,566.096875,4762.8,78.20625,566.096875,4871.6,78.20625,566.096875,4988.8]","[4533.7,4533.7,1904.2,2020.2,609.3,""smooth"",""left"",""left"",""good_move"",7991.1,3456.6,2628.5,4534.5,828.1,""smooth"",""left"",""left"",""good_move"",11574.4,3582.9,2568.8,7991.5,1014.1,""smooth"",""left"",""left"",""good_move"",15447.9,3872.7,3235.8,11575.2,636.9,""smooth"",""down"",""down"",""good_move"",19067.9,3607.7,2952.3,15460.2,655.4,""oops"",""down"",""down"",""good_move"",26038.2,6969.8,2715,22719.9,603.3,""smooth"",""down"",""down"",""good_move""]","",""
"9674","","<div style=""width:500px;"">
  <p>What determined the result of this run?</p>
  </div>","100","html-slider-response","70","1974268","0.0-5.0-1.12","2","1","2025-07-09 08:38:22","01610cd0009c79a99da7d0a3353eb402","41.122.128.184","Mozilla/5.0 (Macintosh; Intel Mac OS X 10_15_7) AppleWebKit/537.36 (KHTML, like Gecko) Chrome/128.0.0.0 Safari/537.36","Macintosh","Chrome","128.0.0.0","OS X","10_15_7","https://app.prolific.com/","en-GB,en-US;q=0.9,en;q=0.8","678bad003d15e6aba1ee5a5d","683db7602f5db6a34d12d064","686e2a6e2e413333777736b3","1","678bad003d15e6aba1ee5a5d","1","2025-07-09T09:11:21.642Z","","","","","","","","","","","AttribQ","","50","","","","","","","","","","","","","","","","","","","","","","","","","","","","",""
"5516","","<div style=""width:500px;"">
  <p>How much control did you have over the ball?</p>
  </div>","73","html-slider-response","71","1979785","0.0-5.0-2.12","2","1","2025-07-09 08:38:22","01610cd0009c79a99da7d0a3353eb402","41.122.128.184","Mozilla/5.0 (Macintosh; Intel Mac OS X 10_15_7) AppleWebKit/537.36 (KHTML, like Gecko) Chrome/128.0.0.0 Safari/537.36","Macintosh","Chrome","128.0.0.0","OS X","10_15_7","https://app.prolific.com/","en-GB,en-US;q=0.9,en;q=0.8","678bad003d15e6aba1ee5a5d","683db7602f5db6a34d12d064","686e2a6e2e413333777736b3","1","678bad003d15e6aba1ee5a5d","1","2025-07-09T09:11:27.159Z","","","","","","","","","","","ControlQ","","50","","","","","","","","","","","","","","","","","","","","","","","","","","","","",""
"2824","","<div style=""width:500px;"">
  <p>How would you describe your current emotional state?</p>
  </div>","65","html-slider-response","72","1982611","0.0-5.0-3.12","2","1","2025-07-09 08:38:22","01610cd0009c79a99da7d0a3353eb402","41.122.128.184","Mozilla/5.0 (Macintosh; Intel Mac OS X 10_15_7) AppleWebKit/537.36 (KHTML, like Gecko) Chrome/128.0.0.0 Safari/537.36","Macintosh","Chrome","128.0.0.0","OS X","10_15_7","https://app.prolific.com/","en-GB,en-US;q=0.9,en;q=0.8","678bad003d15e6aba1ee5a5d","683db7602f5db6a34d12d064","686e2a6e2e413333777736b3","1","678bad003d15e6aba1ee5a5d","1","2025-07-09T09:11:29.985Z","","","","","","","","","","","StressQ","","50","","","","","","","","","","","","","","","","","","","","","","","","","","","","",""
"2736","","<div style=""width:500px;"">
  <p>What best describes how you currently feel?</p>
  </div>","23","html-slider-response","73","1985349","0.0-5.0-4.12","2","1","2025-07-09 08:38:22","01610cd0009c79a99da7d0a3353eb402","41.122.128.184","Mozilla/5.0 (Macintosh; Intel Mac OS X 10_15_7) AppleWebKit/537.36 (KHTML, like Gecko) Chrome/128.0.0.0 Safari/537.36","Macintosh","Chrome","128.0.0.0","OS X","10_15_7","https://app.prolific.com/","en-GB,en-US;q=0.9,en;q=0.8","678bad003d15e6aba1ee5a5d","683db7602f5db6a34d12d064","686e2a6e2e413333777736b3","1","678bad003d15e6aba1ee5a5d","1","2025-07-09T09:11:32.723Z","","","","","","","","","","","MotivationQ","","50","","","","","","","","","","","","","","","","","","","","","","","","","","","","",""
"","","","","ctl-task-cpt","74","2028637","0.0-5.0-0.13","2","1","2025-07-09 08:38:22","01610cd0009c79a99da7d0a3353eb402","41.122.128.184","Mozilla/5.0 (Macintosh; Intel Mac OS X 10_15_7) AppleWebKit/537.36 (KHTML, like Gecko) Chrome/128.0.0.0 Safari/537.36","Macintosh","Chrome","128.0.0.0","OS X","10_15_7","https://app.prolific.com/","en-GB,en-US;q=0.9,en;q=0.8","678bad003d15e6aba1ee5a5d","683db7602f5db6a34d12d064","686e2a6e2e413333777736b3","1","678bad003d15e6aba1ee5a5d","1","2025-07-09T09:12:16.011Z","","","","","","","","","","","","","","win-only","0","g1:NW,g2:SE","0.8","14","0","1991678.6","2227.5","7238.9","40253.4","1","4","4","6","2","4","4","41","37","0.3106060606060606","1160.3","3000","1820","[""down"",""right""]","{""num_key_presses"":8,""num_perfect"":7,""num_errors"":0,""num_randdir"":1,""num_randdir_good_moves"":0,""num_whilered"":0,""num_whileblue"":0,""num_blue"":3,""num_good_moves"":7}","[310.20625,314.096875,0.9,310.20625,314.096875,112.5,310.20625,314.096875,364.6,310.20625,314.096875,531.7,310.20625,314.096875,647.9,310.20625,314.096875,851.8,310.20625,314.096875,976.8,310.20625,314.096875,1099.7,588.20625,575.096875,1300.9,588.20625,575.096875,1452.1,588.20625,575.096875,1554.8,588.20625,575.096875,1724.5,588.20625,575.096875,1864.1,588.20625,575.096875,1968.6,588.20625,575.096875,2072.8,588.20625,575.096875,2187,588.20625,575.096875,2291.7,588.20625,575.096875,2401.6,588.20625,575.096875,2586.5,588.20625,575.096875,2688.4,588.20625,575.096875,2797.1,588.20625,575.096875,2898.1,588.20625,575.096875,3001.3,588.20625,575.096875,3121.3,588.20625,575.096875,3231.8,588.20625,575.096875,3351.8,588.20625,575.096875,3464.9,588.20625,575.096875,3566.7,588.20625,575.096875,3668,588.20625,575.096875,3770.9,588.20625,575.096875,3887.3,588.20625,575.096875,3990.9,588.20625,575.096875,4102.3,588.20625,575.096875,4208.4,588.20625,575.096875,4319.4,588.20625,575.096875,4420.2,588.20625,575.096875,4520.8,588.20625,575.096875,4631.8,588.20625,575.096875,4741.4,588.20625,575.096875,4857.4,588.20625,575.096875,4969]","[1712.6,1712.6,1000,0,712.6,""smooth"",""right"",""right"",""good_move"",4502.1,2788.7,2194.3,1713.4,594.4,""smooth"",""right"",""right"",""good_move"",10214.9,5711.5,1897.9,7717.7,599.3,""smooth"",""right"",""right"",""good_move"",13746.9,3531.7,2981.7,10215.2,550,""oops"",""down"",""left"",""bad_move"",17541.9,3794.5,2620.7,13747.4,1173.8,""smooth"",""right"",""right"",""good_move"",26941.6,9399.2,2161.7,23936.7,843.2,""smooth"",""down"",""down"",""good_move"",29933.9,2991.3,2454.5,26942.6,536.8,""smooth"",""down"",""down"",""good_move"",32588.3,2648.2,1973.1,29940.4,674.9,""smooth"",""down"",""down"",""good_move""]","",""
"20870","","<div style=""width:500px;"">
  <p>What determined the result of this run?</p>
  </div>","82","html-slider-response","75","2049509","0.0-5.0-1.13","2","1","2025-07-09 08:38:22","01610cd0009c79a99da7d0a3353eb402","41.122.128.184","Mozilla/5.0 (Macintosh; Intel Mac OS X 10_15_7) AppleWebKit/537.36 (KHTML, like Gecko) Chrome/128.0.0.0 Safari/537.36","Macintosh","Chrome","128.0.0.0","OS X","10_15_7","https://app.prolific.com/","en-GB,en-US;q=0.9,en;q=0.8","678bad003d15e6aba1ee5a5d","683db7602f5db6a34d12d064","686e2a6e2e413333777736b3","1","678bad003d15e6aba1ee5a5d","1","2025-07-09T09:12:36.883Z","","","","","","","","","","","AttribQ","","50","","","","","","","","","","","","","","","","","","","","","","","","","","","","",""
"8074","","<div style=""width:500px;"">
  <p>How much control did you have over the ball?</p>
  </div>","63","html-slider-response","76","2057585","0.0-5.0-2.13","2","1","2025-07-09 08:38:22","01610cd0009c79a99da7d0a3353eb402","41.122.128.184","Mozilla/5.0 (Macintosh; Intel Mac OS X 10_15_7) AppleWebKit/537.36 (KHTML, like Gecko) Chrome/128.0.0.0 Safari/537.36","Macintosh","Chrome","128.0.0.0","OS X","10_15_7","https://app.prolific.com/","en-GB,en-US;q=0.9,en;q=0.8","678bad003d15e6aba1ee5a5d","683db7602f5db6a34d12d064","686e2a6e2e413333777736b3","1","678bad003d15e6aba1ee5a5d","1","2025-07-09T09:12:44.959Z","","","","","","","","","","","ControlQ","","50","","","","","","","","","","","","","","","","","","","","","","","","","","","","",""
"28466","","<div style=""width:500px;"">
  <p>How would you describe your current emotional state?</p>
