"rt","response_timestamp","stimulus","response","trial_type","trial_index","time_elapsed","internal_node_id","run_id","condition","recorded_at","source_code_version","ip","user_agent","device","browser","browser_version","platform","platform_version","referer","accept_language","PROLIFIC_PID","STUDY_ID","SESSION_ID","WEEK","BATCH","prolific_id","week","batch","realtime","success","responses","item_order","radio_event_ids","radio_event_times","key_event_times","mouse_event_times","straightlining","zigzagging","honeypot","eventType","view_history","slider_start","which_type","canvas_config","goals_layout","control_level","trial_number","tutorial_trial_number","trial_start_time","phase1_start_time","phase2_start_time","phase3_start_time","goal_1_value","goal_1_distance","goal_2_value","goal_2_distance","goal_selected","outcome","outcome_total","participant_final_score","participant_initial_score","participant_final_score_prop","goal_choice_rt","allocated_time","allocated_time_remaining","goal_direction","counts","mouse_movements","key_presses","question_order","question_id"
"2161","1753864619757","<p style='font-size:40px;line-height:1.25'><strong>Welcome to the experiment!</strong></p><p style='font-size:1.1em;line-height:1.25'>Thank you for participanting in our experiment again! You will be asked to play the Dysfunctional Ball Game again. We will briefly recap the rules before we start.</p><p style='font-size:1.1em;line-height:1.25'>Press <strong>Next</strong> to continue.</p>","0","custom-html-button-response","0","2165","0.0-0.0","250","1","2025-07-30 08:36:56","1f75c3e559b7213887762d5229550c2b","41.150.225.195","Mozilla/5.0 (Windows NT 10.0; Win64; x64) AppleWebKit/537.36 (KHTML, like Gecko) Chrome/138.0.0.0 Safari/537.36","WebKit","Chrome","138.0.0.0","Windows","10.0","https://app.prolific.com/","en-US,en;q=0.9","6785052a054e7c96c09f69cd","6877631c9844ddd5501205fc","6889d9881ec11170df0b876c","3","1","6785052a054e7c96c09f69cd","3","1","2025-07-30T08:36:59.758Z","","","","","","","","","","","","","","","","","","","","","","","","","","","","","","","","","","","","","","","","","",""
"2499","","","","fullscreen","1","5679","0.0-1.0","250","1","2025-07-30 08:36:56","1f75c3e559b7213887762d5229550c2b","41.150.225.195","Mozilla/5.0 (Windows NT 10.0; Win64; x64) AppleWebKit/537.36 (KHTML, like Gecko) Chrome/138.0.0.0 Safari/537.36","WebKit","Chrome","138.0.0.0","Windows","10.0","https://app.prolific.com/","en-US,en;q=0.9","6785052a054e7c96c09f69cd","6877631c9844ddd5501205fc","6889d9881ec11170df0b876c","3","1","6785052a054e7c96c09f69cd","3","1","","true","","","","","","","","","","","","","","","","","","","","","","","","","","","","","","","","","","","","","","","","",""
"3426","1753864626698","<p style='font-size:1.1em;line-height:1.25'>In the following, we will ask you a few questions relating to your feelings in the last 24 hours.<br></p><p style='font-size:1.1em;line-height:1.25'>Press the <strong>Next</strong> button to continue.</p>","0","custom-html-button-response","2","9106","0.0-2.0-0.0","250","1","2025-07-30 08:36:56","1f75c3e559b7213887762d5229550c2b","41.150.225.195","Mozilla/5.0 (Windows NT 10.0; Win64; x64) AppleWebKit/537.36 (KHTML, like Gecko) Chrome/138.0.0.0 Safari/537.36","WebKit","Chrome","138.0.0.0","Windows","10.0","https://app.prolific.com/","en-US,en;q=0.9","6785052a054e7c96c09f69cd","6877631c9844ddd5501205fc","6889d9881ec11170df0b876c","3","1","6785052a054e7c96c09f69cd","3","1","2025-07-30T08:37:06.699Z","","","","","","","","","","","","","","","","","","","","","","","","","","","","","","","","","","","","","","","","","",""
"217519.70000004768","","","","survey-template","3","226632","0.0-2.0-1.0","250","1","2025-07-30 08:36:56","1f75c3e559b7213887762d5229550c2b","41.150.225.195","Mozilla/5.0 (Windows NT 10.0; Win64; x64) AppleWebKit/537.36 (KHTML, like Gecko) Chrome/138.0.0.0 Safari/537.36","WebKit","Chrome","138.0.0.0","Windows","10.0","https://app.prolific.com/","en-US,en;q=0.9","6785052a054e7c96c09f69cd","6877631c9844ddd5501205fc","6889d9881ec11170df0b876c","3","1","6785052a054e7c96c09f69cd","3","1","2025-07-30T08:40:44.225Z","","{""Q01"":""0"",""Q02"":""0"",""Q03"":""0"",""Q04"":""2"",""Q05"":""1"",""Q06"":""0"",""Q07"":""0"",""Q08"":""0"",""Q09"":""0"",""Q10"":""3"",""Q11"":""1"",""Q12"":""0"",""Q13"":""5"",""Q14"":""3"",""Q15"":""1"",""Q16"":""1"",""Q17"":""0"",""Q18"":""0"",""Q19"":""2"",""Q20"":""1"",""Q21"":""0"",""Q22"":""0""}","[0,1,2,3,4,5,6,7,8,9,10,11,12,13,14,15,16,17,18,19,20,21]","[""Q01"",""Q02"",""Q03"",""Q02"",""Q04"",""Q05"",""Q05"",""Q06"",""Q07"",""Q08"",""Q09"",""Q10"",""Q11"",""Q12"",""Q13"",""Q14"",""Q15"",""Q16"",""Q17"",""Q18"",""Q19"",""Q19"",""Q20"",""Q21"",""Q22""]","[5601.299999952316,15299.299999952316,122160.70000004768,123164.70000004768,126718.89999985695,129742.59999990463,132300.5,140214.39999985695,142666.70000004768,149456.29999995232,153416.59999990463,157046.59999990463,160371,166456.59999990463,168500.59999990463,175766.89999985695,179910.59999990463,184676,190154.09999990463,191754.70000004768,193666.70000004768,197392.20000004768,209102.09999990463,214816.20000004768,216264.09999990463]","[]","[0.2999999523162842,5601.299999952316,15299.299999952316,122160.70000004768,123164.70000004768,126718.89999985695,129742.59999990463,132300.5,140214.39999985695,142666.70000004768,149456.29999995232,153416.59999990463,157046.59999990463,159795,160371,166456.59999990463,168500.59999990463,175766.89999985695,179910.59999990463,184676,190154.09999990463,191754.70000004768,193666.70000004768,197392.20000004768,209102.09999990463,213496.39999985695,214816.20000004768,216264.09999990463,217512.39999985695]","0.5454545454545454","0.3333333333333333","0","drsp","","","","","","","","","","","","","","","","","","","","","","","","","","","","","","",""
"24409","","","","survey-template","4","251042","0.0-2.0-2.0","250","1","2025-07-30 08:36:56","1f75c3e559b7213887762d5229550c2b","41.150.225.195","Mozilla/5.0 (Windows NT 10.0; Win64; x64) AppleWebKit/537.36 (KHTML, like Gecko) Chrome/138.0.0.0 Safari/537.36","WebKit","Chrome","138.0.0.0","Windows","10.0","https://app.prolific.com/","en-US,en;q=0.9","6785052a054e7c96c09f69cd","6877631c9844ddd5501205fc","6889d9881ec11170df0b876c","3","1","6785052a054e7c96c09f69cd","3","1","2025-07-30T08:41:08.635Z","","{""Q01"":""0"",""Q02"":""3"",""Q03"":""1""}","[0,1,2]","[""Q01"",""Q02"",""Q03""]","[7131.799999952316,18174.299999952316,23612.10000014305]","[]","[6043.900000095367,7131.799999952316,18174.299999952316,23612.10000014305,24408]","0.3333333333333333","0.5","0","stress","","","","","","","","","","","","","","","","","","","","","","","","","","","","","","",""
"4832","","","","instructions","5","255875","0.0-3.0-0.0","250","1","2025-07-30 08:36:56","1f75c3e559b7213887762d5229550c2b","41.150.225.195","Mozilla/5.0 (Windows NT 10.0; Win64; x64) AppleWebKit/537.36 (KHTML, like Gecko) Chrome/138.0.0.0 Safari/537.36","WebKit","Chrome","138.0.0.0","Windows","10.0","https://app.prolific.com/","en-US,en;q=0.9","6785052a054e7c96c09f69cd","6877631c9844ddd5501205fc","6889d9881ec11170df0b876c","3","1","6785052a054e7c96c09f69cd","3","1","","","","","","","","","","","","","[{""page_index"":0,""viewing_time"":4832}]","","","","","","","","","","","","","","","","","","","","","","","","","","","","","",""
"4402","","<p>Before you start with this game please answer the following three questions yourself. </p>
  <p>Through this game, we measure several aspects of your cognitive performance, such as reaction times, multi-tasking capabilities </p>
  <p>and the ability to assess the situation you are in.</p>
  <p></p>
  <p><b>How good do you usually are in such tasks?</b></p>","100","html-slider-response","6","260280","0.0-4.0-0.0","250","1","2025-07-30 08:36:56","1f75c3e559b7213887762d5229550c2b","41.150.225.195","Mozilla/5.0 (Windows NT 10.0; Win64; x64) AppleWebKit/537.36 (KHTML, like Gecko) Chrome/138.0.0.0 Safari/537.36","WebKit","Chrome","138.0.0.0","Windows","10.0","https://app.prolific.com/","en-US,en;q=0.9","6785052a054e7c96c09f69cd","6877631c9844ddd5501205fc","6889d9881ec11170df0b876c","3","1","6785052a054e7c96c09f69cd","3","1","2025-07-30T08:41:17.873Z","","","","","","","","","","","PreSkillQ","","50","","","","","","","","","","","","","","","","","","","","","","","","","","","","",""
"5480","","<div style=""width:500px;"">
  <p>How well do you think you will perform in this task compared to other participants?</p>
  </div>","50","html-slider-response","7","265761","0.0-4.0-1.0","250","1","2025-07-30 08:36:56","1f75c3e559b7213887762d5229550c2b","41.150.225.195","Mozilla/5.0 (Windows NT 10.0; Win64; x64) AppleWebKit/537.36 (KHTML, like Gecko) Chrome/138.0.0.0 Safari/537.36","WebKit","Chrome","138.0.0.0","Windows","10.0","https://app.prolific.com/","en-US,en;q=0.9","6785052a054e7c96c09f69cd","6877631c9844ddd5501205fc","6889d9881ec11170df0b876c","3","1","6785052a054e7c96c09f69cd","3","1","2025-07-30T08:41:23.354Z","","","","","","","","","","","PrePerfQ","","50","","","","","","","","","","","","","","","","","","","","","","","","","","","","",""
"3863","","<div style=""width:500px;"">
  <p>What best describes how you currently feel?</p>
  </div>","100","html-slider-response","8","269625","0.0-4.0-2.0","250","1","2025-07-30 08:36:56","1f75c3e559b7213887762d5229550c2b","41.150.225.195","Mozilla/5.0 (Windows NT 10.0; Win64; x64) AppleWebKit/537.36 (KHTML, like Gecko) Chrome/138.0.0.0 Safari/537.36","WebKit","Chrome","138.0.0.0","Windows","10.0","https://app.prolific.com/","en-US,en;q=0.9","6785052a054e7c96c09f69cd","6877631c9844ddd5501205fc","6889d9881ec11170df0b876c","3","1","6785052a054e7c96c09f69cd","3","1","2025-07-30T08:41:27.218Z","","","","","","","","","","","PreMotivationQ","","50","","","","","","","","","","","","","","","","","","","","","","","","","","","","",""
"","","","","ctl-task-cpt","9","295189","0.0-5.0-0.0","250","1","2025-07-30 08:36:56","1f75c3e559b7213887762d5229550c2b","41.150.225.195","Mozilla/5.0 (Windows NT 10.0; Win64; x64) AppleWebKit/537.36 (KHTML, like Gecko) Chrome/138.0.0.0 Safari/537.36","WebKit","Chrome","138.0.0.0","Windows","10.0","https://app.prolific.com/","en-US,en;q=0.9","6785052a054e7c96c09f69cd","6877631c9844ddd5501205fc","6889d9881ec11170df0b876c","3","1","6785052a054e7c96c09f69cd","3","1","2025-07-30T08:41:52.783Z","","","","","","","","","","","","","","win-only","0","g1:NW,g2:SE","1","1","0","273682.5","2160.5","7162.2","22536.8","1","4","4","6","2","4","4","4","0","0.030303030303030304","1459.3","3000","545","[""down"",""right""]","{""num_key_presses"":6,""num_perfect"":6,""num_errors"":0,""num_randdir"":0,""num_randdir_good_moves"":0,""num_whilered"":0,""num_whileblue"":0,""num_blue"":0,""num_good_moves"":6}","[344.4642857142857,331.0736597606114,0.1,344.4642857142857,331.0736597606114,100.8,344.4642857142857,331.0736597606114,205.3,344.4642857142857,331.0736597606114,311,344.4642857142857,331.0736597606114,417.4,344.4642857142857,331.0736597606114,520.7,344.4642857142857,331.0736597606114,625.7,344.4642857142857,331.0736597606114,735,464.4642857142857,632.5736597606113,835.2,536.4642857142857,748.0736597606113,935.3,579.9642857142857,745.0736597606113,1040.5,626.4642857142857,686.5736597606113,1140.5,629.4642857142857,659.5736597606113,1240.9,632.4642857142857,641.5736597606113,1341,632.4642857142857,640.0736597606113,1441.2,632.4642857142857,640.0736597606113,1545.5,632.4642857142857,640.0736597606113,1646.4,632.4642857142857,640.0736597606113,1746.4,632.4642857142857,638.5736597606113,1850.8,632.4642857142857,638.5736597606113,1955.3,632.4642857142857,638.5736597606113,2055.6,632.4642857142857,638.5736597606113,2156.1,632.4642857142857,638.5736597606113,2260.9,632.4642857142857,638.5736597606113,2361.1,632.4642857142857,638.5736597606113,2461.4,632.4642857142857,638.5736597606113,2565,632.4642857142857,638.5736597606113,2665.1,632.4642857142857,638.5736597606113,2765.2,632.4642857142857,638.5736597606113,2870.6,632.4642857142857,638.5736597606113,2970.6,632.4642857142857,638.5736597606113,3071.3,632.4642857142857,638.5736597606113,3175,632.4642857142857,638.5736597606113,3275.4,632.4642857142857,638.5736597606113,3375.9,632.4642857142857,638.5736597606113,3481.2,632.4642857142857,638.5736597606113,3585.3,632.4642857142857,638.5736597606113,3686.5,632.4642857142857,638.5736597606113,3790.6,632.4642857142857,638.5736597606113,3907.4,632.4642857142857,638.5736597606113,4011.5,632.4642857142857,638.5736597606113,4115,632.4642857142857,638.5736597606113,4221.1,632.4642857142857,638.5736597606113,4325.5,632.4642857142857,638.5736597606113,4425.5,632.4642857142857,638.5736597606113,4525.5,632.4642857142857,638.5736597606113,4630.2,632.4642857142857,638.5736597606113,4735.2,632.4642857142857,638.5736597606113,4835.8,632.4642857142857,638.5736597606113,4940.2]","[1551.2,1551.1,1000,0.1,551.1,""smooth"",""right"",""right"",""good_move"",4144,2592.5,2197.9,1551.5,394.6,""smooth"",""down"",""down"",""good_move"",7081.1,2936.1,2395.9,4145,540.2,""smooth"",""right"",""right"",""good_move"",9580.9,2499.5,2105.9,7081.4,393.6,""smooth"",""down"",""down"",""good_move"",12716.1,3135.1,2624.1,9581,511,""smooth"",""right"",""right"",""good_move"",15278.2,2561.9,2091.8,12716.3,470.1,""smooth"",""down"",""down"",""good_move""]","",""
"3758","","<div style=""width:500px;"">
  <p>What determined the result of this run?</p>
  </div>","100","html-slider-response","10","298949","0.0-5.0-1.0","250","1","2025-07-30 08:36:56","1f75c3e559b7213887762d5229550c2b","41.150.225.195","Mozilla/5.0 (Windows NT 10.0; Win64; x64) AppleWebKit/537.36 (KHTML, like Gecko) Chrome/138.0.0.0 Safari/537.36","WebKit","Chrome","138.0.0.0","Windows","10.0","https://app.prolific.com/","en-US,en;q=0.9","6785052a054e7c96c09f69cd","6877631c9844ddd5501205fc","6889d9881ec11170df0b876c","3","1","6785052a054e7c96c09f69cd","3","1","2025-07-30T08:41:56.542Z","","","","","","","","","","","AttribQ","","50","","","","","","","","","","","","","","","","","","","","","","","","","","","","",""
"3425","","<div style=""width:500px;"">
  <p>How much control did you have over the ball?</p>
  </div>","100","html-slider-response","11","302375","0.0-5.0-2.0","250","1","2025-07-30 08:36:56","1f75c3e559b7213887762d5229550c2b","41.150.225.195","Mozilla/5.0 (Windows NT 10.0; Win64; x64) AppleWebKit/537.36 (KHTML, like Gecko) Chrome/138.0.0.0 Safari/537.36","WebKit","Chrome","138.0.0.0","Windows","10.0","https://app.prolific.com/","en-US,en;q=0.9","6785052a054e7c96c09f69cd","6877631c9844ddd5501205fc","6889d9881ec11170df0b876c","3","1","6785052a054e7c96c09f69cd","3","1","2025-07-30T08:41:59.968Z","","","","","","","","","","","ControlQ","","50","","","","","","","","","","","","","","","","","","","","","","","","","","","","",""
"3095","","<div style=""width:500px;"">
  <p>How would you describe your current emotional state?</p>
  </div>","0","html-slider-response","12","305471","0.0-5.0-3.0","250","1","2025-07-30 08:36:56","1f75c3e559b7213887762d5229550c2b","41.150.225.195","Mozilla/5.0 (Windows NT 10.0; Win64; x64) AppleWebKit/537.36 (KHTML, like Gecko) Chrome/138.0.0.0 Safari/537.36","WebKit","Chrome","138.0.0.0","Windows","10.0","https://app.prolific.com/","en-US,en;q=0.9","6785052a054e7c96c09f69cd","6877631c9844ddd5501205fc","6889d9881ec11170df0b876c","3","1","6785052a054e7c96c09f69cd","3","1","2025-07-30T08:42:03.064Z","","","","","","","","","","","StressQ","","50","","","","","","","","","","","","","","","","","","","","","","","","","","","","",""
"2843","","<div style=""width:500px;"">
  <p>What best describes how you currently feel?</p>
  </div>","100","html-slider-response","13","308315","0.0-5.0-4.0","250","1","2025-07-30 08:36:56","1f75c3e559b7213887762d5229550c2b","41.150.225.195","Mozilla/5.0 (Windows NT 10.0; Win64; x64) AppleWebKit/537.36 (KHTML, like Gecko) Chrome/138.0.0.0 Safari/537.36","WebKit","Chrome","138.0.0.0","Windows","10.0","https://app.prolific.com/","en-US,en;q=0.9","6785052a054e7c96c09f69cd","6877631c9844ddd5501205fc","6889d9881ec11170df0b876c","3","1","6785052a054e7c96c09f69cd","3","1","2025-07-30T08:42:05.908Z","","","","","","","","","","","MotivationQ","","50","","","","","","","","","","","","","","","","","","","","","","","","","","","","",""
"","","","","ctl-task-cpt","14","344253","0.0-5.0-0.1","250","1","2025-07-30 08:36:56","1f75c3e559b7213887762d5229550c2b","41.150.225.195","Mozilla/5.0 (Windows NT 10.0; Win64; x64) AppleWebKit/537.36 (KHTML, like Gecko) Chrome/138.0.0.0 Safari/537.36","WebKit","Chrome","138.0.0.0","Windows","10.0","https://app.prolific.com/","en-US,en;q=0.9","6785052a054e7c96c09f69cd","6877631c9844ddd5501205fc","6889d9881ec11170df0b876c","3","1","6785052a054e7c96c09f69cd","3","1","2025-07-30T08:42:41.846Z","","","","","","","","","","","","","","win-only","2","g1:SE,g2:NW","0.9","2","0","312366.9","1665.3","6667","32930.4","1","4","8","6","2","-8","-9","0","4","0","1006.6","3000","-2990","[""left"",""up""]","{""num_key_presses"":5,""num_perfect"":4,""num_errors"":1,""num_randdir"":0,""num_randdir_good_moves"":0,""num_whilered"":0,""num_whileblue"":1,""num_blue"":3,""num_good_moves"":5}","[341.4642857142857,328.0736597606114,0.2,341.4642857142857,328.0736597606114,104.5,341.4642857142857,328.0736597606114,209.5,341.4642857142857,328.0736597606114,310.3,341.4642857142857,328.0736597606114,411.5,341.4642857142857,328.0736597606114,515.7,326.4642857142857,323.5736597606114,623.4,140.46428571428572,104.5736597606114,725.7,86.46428571428572,55.0736597606114,826.1,86.46428571428572,55.0736597606114,931.5,86.46428571428572,55.0736597606114,1040.6,86.46428571428572,55.0736597606114,1143.1,86.46428571428572,85.0736597606114,1243.2,-2.0357142857142847,403.0736597606114,1357.4,-60.535714285714285,433.0736597606114,1474.1,-69.53571428571428,409.0736597606114,1574.7,-72.53571428571428,394.0736597606114,1690.9,-72.53571428571428,394.0736597606114,1791.1,-72.53571428571428,394.0736597606114,1895.8,-72.53571428571428,394.0736597606114,1996,-72.53571428571428,394.0736597606114,2101,-72.53571428571428,394.0736597606114,2207.5,-72.53571428571428,394.0736597606114,2308.6,-72.53571428571428,394.0736597606114,2424.5,-72.53571428571428,394.0736597606114,2541.1,-72.53571428571428,394.0736597606114,2643.3,-72.53571428571428,394.0736597606114,2762.7,-72.53571428571428,394.0736597606114,2865.5,-72.53571428571428,394.0736597606114,2965.9,-72.53571428571428,394.0736597606114,3070,-72.53571428571428,394.0736597606114,3170.3,-72.53571428571428,394.0736597606114,3275.6,-72.53571428571428,394.0736597606114,3376.7,-72.53571428571428,394.0736597606114,3481.6,-72.53571428571428,394.0736597606114,3585.1,-72.53571428571428,394.0736597606114,3685.2,-72.53571428571428,394.0736597606114,3785.2,-72.53571428571428,394.0736597606114,3885.4,-72.53571428571428,394.0736597606114,3990.5,-72.53571428571428,394.0736597606114,4091.3,-72.53571428571428,394.0736597606114,4191.4,-72.53571428571428,394.0736597606114,4291.7,-72.53571428571428,394.0736597606114,4396,-72.53571428571428,394.0736597606114,4501.4,-72.53571428571428,394.0736597606114,4606.3,-72.53571428571428,394.0736597606114,4720.1,-72.53571428571428,394.0736597606114,4826.4,-72.53571428571428,394.0736597606114,4926.8]","[9385.8,9385.8,2764.3,6118.3,503.2,""smooth"",""up"",""up"",""good_move"",13787.1,4400.9,2657.1,9386.2,1743.8,""smooth"",""left"",""left"",""good_move"",17944.6,4157.3,3766.2,13787.3,391.1,""smooth"",""up"",""up"",""good_move"",20719.2,2774.3,2411.9,17944.9,362.4,""smooth"",""left"",""left"",""good_move"",23476,2756.6,2399.6,20719.4,357,""while_blue"",""up"",""up"",""good_move""]","",""
"21770","","<div style=""width:500px;"">
  <p>What determined the result of this run?</p>
  </div>","99","html-slider-response","15","366025","0.0-5.0-1.1","250","1","2025-07-30 08:36:56","1f75c3e559b7213887762d5229550c2b","41.150.225.195","Mozilla/5.0 (Windows NT 10.0; Win64; x64) AppleWebKit/537.36 (KHTML, like Gecko) Chrome/138.0.0.0 Safari/537.36","WebKit","Chrome","138.0.0.0","Windows","10.0","https://app.prolific.com/","en-US,en;q=0.9","6785052a054e7c96c09f69cd","6877631c9844ddd5501205fc","6889d9881ec11170df0b876c","3","1","6785052a054e7c96c09f69cd","3","1","2025-07-30T08:43:03.618Z","","","","","","","","","","","AttribQ","","50","","","","","","","","","","","","","","","","","","","","","","","","","","","","",""
"9187","","<div style=""width:500px;"">
  <p>How much control did you have over the ball?</p>
  </div>","100","html-slider-response","16","375212","0.0-5.0-2.1","250","1","2025-07-30 08:36:56","1f75c3e559b7213887762d5229550c2b","41.150.225.195","Mozilla/5.0 (Windows NT 10.0; Win64; x64) AppleWebKit/537.36 (KHTML, like Gecko) Chrome/138.0.0.0 Safari/537.36","WebKit","Chrome","138.0.0.0","Windows","10.0","https://app.prolific.com/","en-US,en;q=0.9","6785052a054e7c96c09f69cd","6877631c9844ddd5501205fc","6889d9881ec11170df0b876c","3","1","6785052a054e7c96c09f69cd","3","1","2025-07-30T08:43:12.806Z","","","","","","","","","","","ControlQ","","50","","","","","","","","","","","","","","","","","","","","","","","","","","","","",""
"19498","","<div style=""width:500px;"">
  <p>How would you describe your current emotional state?</p>
  </div>","0","html-slider-response","17","394712","0.0-5.0-3.1","250","1","2025-07-30 08:36:56","1f75c3e559b7213887762d5229550c2b","41.150.225.195","Mozilla/5.0 (Windows NT 10.0; Win64; x64) AppleWebKit/537.36 (KHTML, like Gecko) Chrome/138.0.0.0 Safari/537.36","WebKit","Chrome","138.0.0.0","Windows","10.0","https://app.prolific.com/","en-US,en;q=0.9","6785052a054e7c96c09f69cd","6877631c9844ddd5501205fc","6889d9881ec11170df0b876c","3","1","6785052a054e7c96c09f69cd","3","1","2025-07-30T08:43:32.306Z","","","","","","","","","","","StressQ","","50","","","","","","","","","","","","","","","","","","","","","","","","","","","","",""
"3821","","<div style=""width:500px;"">
  <p>What best describes how you currently feel?</p>
  </div>","100","html-slider-response","18","398534","0.0-5.0-4.1","250","1","2025-07-30 08:36:56","1f75c3e559b7213887762d5229550c2b","41.150.225.195","Mozilla/5.0 (Windows NT 10.0; Win64; x64) AppleWebKit/537.36 (KHTML, like Gecko) Chrome/138.0.0.0 Safari/537.36","WebKit","Chrome","138.0.0.0","Windows","10.0","https://app.prolific.com/","en-US,en;q=0.9","6785052a054e7c96c09f69cd","6877631c9844ddd5501205fc","6889d9881ec11170df0b876c","3","1","6785052a054e7c96c09f69cd","3","1","2025-07-30T08:43:36.127Z","","","","","","","","","","","MotivationQ","","50","","","","","","","","","","","","","","","","","","","","","","","","","","","","",""
"","","","","ctl-task-cpt","19","444793","0.0-5.0-0.2","250","1","2025-07-30 08:36:56","1f75c3e559b7213887762d5229550c2b","41.150.225.195","Mozilla/5.0 (Windows NT 10.0; Win64; x64) AppleWebKit/537.36 (KHTML, like Gecko) Chrome/138.0.0.0 Safari/537.36","WebKit","Chrome","138.0.0.0","Windows","10.0","https://app.prolific.com/","en-US,en;q=0.9","6785052a054e7c96c09f69cd","6877631c9844ddd5501205fc","6889d9881ec11170df0b876c","3","1","6785052a054e7c96c09f69cd","3","1","2025-07-30T08:44:22.386Z","","","","","","","","","","","","","","win-only","3","g1:SW,g2:NE","0.8","3","0","402588.3","2355.9","7361.3","43241.4","1","4","8","6","2","-8","-9","0","0","0","1221.3","3000","-2980","[""up"",""right""]","{""num_key_presses"":8,""num_perfect"":6,""num_errors"":1,""num_randdir"":1,""num_randdir_good_moves"":0,""num_whilered"":0,""num_whileblue"":0,""num_blue"":3,""num_good_moves"":6}","[336.9642857142857,335.5736597606114,0.3,336.9642857142857,335.5736597606114,100.3,336.9642857142857,335.5736597606114,204.9,336.9642857142857,335.5736597606114,305.4,336.9642857142857,335.5736597606114,405.4,336.9642857142857,335.5736597606114,509.9,683.4642857142857,166.0736597606114,609.9,677.4642857142857,154.0736597606114,716.6,671.4642857142857,145.0736597606114,816.9,653.4642857142857,104.5736597606114,917.2,651.9642857142857,103.0736597606114,1019.5,605.4642857142857,71.5736597606114,1120,605.4642857142857,67.0736597606114,1231,605.4642857142857,67.0736597606114,1331.6,605.4642857142857,67.0736597606114,1433.6,605.4642857142857,67.0736597606114,1533.8,605.4642857142857,67.0736597606114,1634.2,605.4642857142857,67.0736597606114,1734.4,605.4642857142857,67.0736597606114,1835.6,605.4642857142857,67.0736597606114,1940.5,605.4642857142857,67.0736597606114,2050,605.4642857142857,67.0736597606114,2150.2,605.4642857142857,67.0736597606114,2255.2,605.4642857142857,67.0736597606114,2360.1,605.4642857142857,67.0736597606114,2466.8,605.4642857142857,67.0736597606114,2567.3,605.4642857142857,67.0736597606114,2667.3,605.4642857142857,67.0736597606114,2767.4,605.4642857142857,67.0736597606114,2869.3,605.4642857142857,67.0736597606114,2969.4,605.4642857142857,67.0736597606114,3069.5,605.4642857142857,67.0736597606114,3174.8,605.4642857142857,67.0736597606114,3274.8,605.4642857142857,67.0736597606114,3375.3,605.4642857142857,67.0736597606114,3482.8,605.4642857142857,67.0736597606114,3584.7,605.4642857142857,67.0736597606114,3685,605.4642857142857,67.0736597606114,3789.8,605.4642857142857,67.0736597606114,3897,605.4642857142857,67.0736597606114,3997.2,605.4642857142857,67.0736597606114,4099.8,605.4642857142857,67.0736597606114,4200.1,605.4642857142857,67.0736597606114,4304.4,605.4642857142857,67.0736597606114,4406.4,605.4642857142857,67.0736597606114,4509.7,605.4642857142857,67.0736597606114,4609.8,605.4642857142857,67.0736597606114,4710.1,605.4642857142857,67.0736597606114,4815.8,605.4642857142857,67.0736597606114,4916.4]","[511.3,511.3,1000,0,-488.7,""error"",""-"",""-"",""no_move"",5000.6,4489.1,2815.9,1514.9,669.8,""smooth"",""up"",""up"",""good_move"",11123.6,6122.7,1865.6,8820,438,""smooth"",""right"",""right"",""good_move"",14398.3,3274.3,2816.8,11124,457.5,""oops"",""up"",""down"",""bad_move"",20594,6195,2343.8,17729.3,521,""smooth"",""right"",""right"",""good_move"",23692,3097.8,2626.6,20594.2,471.2,""smooth"",""up"",""up"",""good_move"",29926.7,6234.5,2580.2,26940.9,405.6,""smooth"",""up"",""up"",""good_move"",33319.8,3392.9,3039,29926.9,353.9,""smooth"",""right"",""right"",""good_move""]","",""
"5700","","<div style=""width:500px;"">
  <p>What determined the result of this run?</p>
  </div>","50","html-slider-response","20","450494","0.0-5.0-1.2","250","1","2025-07-30 08:36:56","1f75c3e559b7213887762d5229550c2b","41.150.225.195","Mozilla/5.0 (Windows NT 10.0; Win64; x64) AppleWebKit/537.36 (KHTML, like Gecko) Chrome/138.0.0.0 Safari/537.36","WebKit","Chrome","138.0.0.0","Windows","10.0","https://app.prolific.com/","en-US,en;q=0.9","6785052a054e7c96c09f69cd","6877631c9844ddd5501205fc","6889d9881ec11170df0b876c","3","1","6785052a054e7c96c09f69cd","3","1","2025-07-30T08:44:28.087Z","","","","","","","","","","","AttribQ","","50","","","","","","","","","","","","","","","","","","","","","","","","","","","","",""
"3571","","<div style=""width:500px;"">
  <p>How much control did you have over the ball?</p>
  </div>","51","html-slider-response","21","454066","0.0-5.0-2.2","250","1","2025-07-30 08:36:56","1f75c3e559b7213887762d5229550c2b","41.150.225.195","Mozilla/5.0 (Windows NT 10.0; Win64; x64) AppleWebKit/537.36 (KHTML, like Gecko) Chrome/138.0.0.0 Safari/537.36","WebKit","Chrome","138.0.0.0","Windows","10.0","https://app.prolific.com/","en-US,en;q=0.9","6785052a054e7c96c09f69cd","6877631c9844ddd5501205fc","6889d9881ec11170df0b876c","3","1","6785052a054e7c96c09f69cd","3","1","2025-07-30T08:44:31.659Z","","","","","","","","","","","ControlQ","","50","","","","","","","","","","","","","","","","","","","","","","","","","","","","",""
"4145","","<div style=""width:500px;"">
  <p>How would you describe your current emotional state?</p>
  </div>","0","html-slider-response","22","458212","0.0-5.0-3.2","250","1","2025-07-30 08:36:56","1f75c3e559b7213887762d5229550c2b","41.150.225.195","Mozilla/5.0 (Windows NT 10.0; Win64; x64) AppleWebKit/537.36 (KHTML, like Gecko) Chrome/138.0.0.0 Safari/537.36","WebKit","Chrome","138.0.0.0","Windows","10.0","https://app.prolific.com/","en-US,en;q=0.9","6785052a054e7c96c09f69cd","6877631c9844ddd5501205fc","6889d9881ec11170df0b876c","3","1","6785052a054e7c96c09f69cd","3","1","2025-07-30T08:44:35.805Z","","","","","","","","","","","StressQ","","50","","","","","","","","","","","","","","","","","","","","","","","","","","","","",""
"1999","","<div style=""width:500px;"">
  <p>What best describes how you currently feel?</p>
  </div>","100","html-slider-response","23","460212","0.0-5.0-4.2","250","1","2025-07-30 08:36:56","1f75c3e559b7213887762d5229550c2b","41.150.225.195","Mozilla/5.0 (Windows NT 10.0; Win64; x64) AppleWebKit/537.36 (KHTML, like Gecko) Chrome/138.0.0.0 Safari/537.36","WebKit","Chrome","138.0.0.0","Windows","10.0","https://app.prolific.com/","en-US,en;q=0.9","6785052a054e7c96c09f69cd","6877631c9844ddd5501205fc","6889d9881ec11170df0b876c","3","1","6785052a054e7c96c09f69cd","3","1","2025-07-30T08:44:37.805Z","","","","","","","","","","","MotivationQ","","50","","","","","","","","","","","","","","","","","","","","","","","","","","","","",""
"","","","","ctl-task-cpt","24","499583","0.0-5.0-0.3","250","1","2025-07-30 08:36:56","1f75c3e559b7213887762d5229550c2b","41.150.225.195","Mozilla/5.0 (Windows NT 10.0; Win64; x64) AppleWebKit/537.36 (KHTML, like Gecko) Chrome/138.0.0.0 Safari/537.36","WebKit","Chrome","138.0.0.0","Windows","10.0","https://app.prolific.com/","en-US,en;q=0.9","6785052a054e7c96c09f69cd","6877631c9844ddd5501205fc","6889d9881ec11170df0b876c","3","1","6785052a054e7c96c09f69cd","3","1","2025-07-30T08:45:17.176Z","","","","","","","","","","","","","","win-only","2","g1:SE,g2:NW","0.7","4","0","464264.8","1436.9","6440.7","36352","1","4","4","6","2","-4","-4","0","0","0","1543.7","3000","-2795","[""left"",""up""]","{""num_key_presses"":6,""num_perfect"":5,""num_errors"":0,""num_randdir"":1,""num_randdir_good_moves"":0,""num_whilered"":0,""num_whileblue"":0,""num_blue"":3,""num_good_moves"":5}","[336.9642857142857,341.5736597606114,0.8,336.9642857142857,341.5736597606114,103.7,336.9642857142857,341.5736597606114,204.3,336.9642857142857,341.5736597606114,308.6,336.9642857142857,341.5736597606114,422.7,336.9642857142857,341.5736597606114,523.8,336.9642857142857,341.5736597606114,628.4,336.9642857142857,341.5736597606114,740.4,336.9642857142857,341.5736597606114,844.1,336.9642857142857,341.5736597606114,944.2,336.9642857142857,341.5736597606114,1044.3,354.9642857142857,283.0736597606114,1149.7,72.96428571428572,104.5736597606114,1253.7,45.964285714285715,92.5736597606114,1354.4,45.964285714285715,59.5736597606114,1459.8,45.964285714285715,53.5736597606114,1564.2,45.964285714285715,53.5736597606114,1666.5,51.964285714285715,65.5736597606114,1768.8,92.46428571428572,383.5736597606114,1869.8,63.964285714285715,521.5736597606113,1974.1,-95.03571428571428,505.0736597606114,2079,-123.53571428571428,496.0736597606114,2184.2,-123.53571428571428,496.0736597606114,2289.2,-123.53571428571428,496.0736597606114,2389.5,-123.53571428571428,496.0736597606114,2493.9,-123.53571428571428,496.0736597606114,2599.4,-123.53571428571428,496.0736597606114,2704.2,-123.53571428571428,496.0736597606114,2804.2,-123.53571428571428,496.0736597606114,2904.3,-123.53571428571428,496.0736597606114,3009.5,-123.53571428571428,496.0736597606114,3114.1,-123.53571428571428,496.0736597606114,3215.7,-123.53571428571428,496.0736597606114,3318.4,-123.53571428571428,496.0736597606114,3419.2,-123.53571428571428,496.0736597606114,3519.2,-123.53571428571428,496.0736597606114,3624.1,-123.53571428571428,496.0736597606114,3728.3,-123.53571428571428,496.0736597606114,3835.1,-123.53571428571428,496.0736597606114,3939.3,-123.53571428571428,496.0736597606114,4044.1,-123.53571428571428,496.0736597606114,4148.8,-123.53571428571428,496.0736597606114,4250.4,-123.53571428571428,496.0736597606114,4354,-123.53571428571428,496.0736597606114,4454.5,-123.53571428571428,496.0736597606114,4559.2,-123.53571428571428,496.0736597606114,4659.3,-123.53571428571428,496.0736597606114,4765,-123.53571428571428,496.0736597606114,4865.6,-123.53571428571428,496.0736597606114,4969.2]","[1537.9,1537.9,1000,0,537.9,""oops"",""up"",""down"",""bad_move"",12455.2,10917.1,2841.9,9135.5,477.8,""smooth"",""left"",""left"",""good_move"",15669.3,3213.8,2456.5,12455.5,757.3,""smooth"",""left"",""left"",""good_move"",18782.6,3113.1,2391.2,15669.5,721.9,""smooth"",""left"",""left"",""good_move"",21661.7,2878.9,2443.9,18782.8,435,""smooth"",""up"",""up"",""good_move"",23944.8,2282.8,1936.6,21662,346.2,""smooth"",""up"",""up"",""good_move""]","",""
"3653","","<div style=""width:500px;"">
  <p>What determined the result of this run?</p>
  </div>","50","html-slider-response","25","503237","0.0-5.0-1.3","250","1","2025-07-30 08:36:56","1f75c3e559b7213887762d5229550c2b","41.150.225.195","Mozilla/5.0 (Windows NT 10.0; Win64; x64) AppleWebKit/537.36 (KHTML, like Gecko) Chrome/138.0.0.0 Safari/537.36","WebKit","Chrome","138.0.0.0","Windows","10.0","https://app.prolific.com/","en-US,en;q=0.9","6785052a054e7c96c09f69cd","6877631c9844ddd5501205fc","6889d9881ec11170df0b876c","3","1","6785052a054e7c96c09f69cd","3","1","2025-07-30T08:45:20.831Z","","","","","","","","","","","AttribQ","","50","","","","","","","","","","","","","","","","","","","","","","","","","","","","",""
"6266","","<div style=""width:500px;"">
  <p>How much control did you have over the ball?</p>
  </div>","100","html-slider-response","26","509504","0.0-5.0-2.3","250","1","2025-07-30 08:36:56","1f75c3e559b7213887762d5229550c2b","41.150.225.195","Mozilla/5.0 (Windows NT 10.0; Win64; x64) AppleWebKit/537.36 (KHTML, like Gecko) Chrome/138.0.0.0 Safari/537.36","WebKit","Chrome","138.0.0.0","Windows","10.0","https://app.prolific.com/","en-US,en;q=0.9","6785052a054e7c96c09f69cd","6877631c9844ddd5501205fc","6889d9881ec11170df0b876c","3","1","6785052a054e7c96c09f69cd","3","1","2025-07-30T08:45:27.097Z","","","","","","","","","","","ControlQ","","50","","","","","","","","","","","","","","","","","","","","","","","","","","","","",""
"3845","","<div style=""width:500px;"">
  <p>How would you describe your current emotional state?</p>
  </div>","0","html-slider-response","27","513351","0.0-5.0-3.3","250","1","2025-07-30 08:36:56","1f75c3e559b7213887762d5229550c2b","41.150.225.195","Mozilla/5.0 (Windows NT 10.0; Win64; x64) AppleWebKit/537.36 (KHTML, like Gecko) Chrome/138.0.0.0 Safari/537.36","WebKit","Chrome","138.0.0.0","Windows","10.0","https://app.prolific.com/","en-US,en;q=0.9","6785052a054e7c96c09f69cd","6877631c9844ddd5501205fc","6889d9881ec11170df0b876c","3","1","6785052a054e7c96c09f69cd","3","1","2025-07-30T08:45:30.944Z","","","","","","","","","","","StressQ","","50","","","","","","","","","","","","","","","","","","","","","","","","","","","","",""
"3339","","<div style=""width:500px;"">
  <p>What best describes how you currently feel?</p>
  </div>","100","html-slider-response","28","516690","0.0-5.0-4.3","250","1","2025-07-30 08:36:56","1f75c3e559b7213887762d5229550c2b","41.150.225.195","Mozilla/5.0 (Windows NT 10.0; Win64; x64) AppleWebKit/537.36 (KHTML, like Gecko) Chrome/138.0.0.0 Safari/537.36","WebKit","Chrome","138.0.0.0","Windows","10.0","https://app.prolific.com/","en-US,en;q=0.9","6785052a054e7c96c09f69cd","6877631c9844ddd5501205fc","6889d9881ec11170df0b876c","3","1","6785052a054e7c96c09f69cd","3","1","2025-07-30T08:45:34.284Z","","","","","","","","","","","MotivationQ","","50","","","","","","","","","","","","","","","","","","","","","","","","","","","","",""
"","","","","ctl-task-cpt","29","546992","0.0-5.0-0.4","250","1","2025-07-30 08:36:56","1f75c3e559b7213887762d5229550c2b","41.150.225.195","Mozilla/5.0 (Windows NT 10.0; Win64; x64) AppleWebKit/537.36 (KHTML, like Gecko) Chrome/138.0.0.0 Safari/537.36","WebKit","Chrome","138.0.0.0","Windows","10.0","https://app.prolific.com/","en-US,en;q=0.9","6785052a054e7c96c09f69cd","6877631c9844ddd5501205fc","6889d9881ec11170df0b876c","3","1","6785052a054e7c96c09f69cd","3","1","2025-07-30T08:46:04.585Z","","","","","","","","","","","","","","win-only","3","g1:SW,g2:NE","0.6","5","0","520743.3","1505.8","6511.1","27288.8","1","4","4","6","2","-4","-4","0","0","0","2582.5","3000","-2450","[""up"",""right""]","{""num_key_presses"":5,""num_perfect"":1,""num_errors"":0,""num_randdir"":4,""num_randdir_good_moves"":3,""num_whilered"":0,""num_whileblue"":0,""num_blue"":1,""num_good_moves"":4}","[333.9642857142857,341.5736597606114,0.2,333.9642857142857,341.5736597606114,100.4,333.9642857142857,341.5736597606114,200.6,333.9642857142857,341.5736597606114,304.6,333.9642857142857,341.5736597606114,404.8,333.9642857142857,341.5736597606114,504.9,333.9642857142857,341.5736597606114,610.4,341.4642857142857,338.5736597606114,712.4,519.9642857142857,211.0736597606114,814.3,516.9642857142857,191.5736597606114,914.9,479.4642857142857,224.5736597606114,1015.9,266.4642857142857,452.5736597606114,1120.3,99.96428571428572,589.0736597606113,1233.2,86.46428571428572,593.5736597606113,1335,83.46428571428572,584.5736597606113,1435.2,83.46428571428572,581.5736597606113,1542.4,84.96428571428572,581.5736597606113,1648.3,84.96428571428572,581.5736597606113,1748.7,84.96428571428572,581.5736597606113,1849.2,86.46428571428572,580.0736597606113,1950.6,458.4642857142857,286.0736597606114,2057.3,665.4642857142857,23.5736597606114,2163.4,666.9642857142857,23.5736597606114,2265.2,650.4642857142857,29.5736597606114,2368.5,614.4642857142857,46.0736597606114,2470,599.4642857142857,56.5736597606114,2570.7,599.4642857142857,56.5736597606114,2671.1,599.4642857142857,56.5736597606114,2775,599.4642857142857,56.5736597606114,2876.7,617.4642857142857,107.5736597606114,2982.7,639.9642857142857,220.0736597606114,3083,638.4642857142857,230.5736597606114,3185.2,629.4642857142857,248.5736597606114,3290.2,746.4642857142857,334.0736597606114,3395.6,755.4642857142857,344.5736597606114,3511.4,776.4642857142857,331.0736597606114,3614.2,788.4642857142857,311.5736597606114,3716.8,789.9642857142857,311.5736597606114,3819.7,789.9642857142857,311.5736597606114,3924.5,789.9642857142857,311.5736597606114,4029.5,789.9642857142857,311.5736597606114,4131.7,789.9642857142857,311.5736597606114,4233.6,789.9642857142857,311.5736597606114,4334.6,789.9642857142857,311.5736597606114,4435,789.9642857142857,311.5736597606114,4535.8,789.9642857142857,311.5736597606114,4641.9,789.9642857142857,311.5736597606114,4744.7,789.9642857142857,311.5736597606114,4845.4,789.9642857142857,311.5736597606114,4948.8]","[2174,2174,1000,0,1174,""smooth"",""up"",""up"",""good_move"",5930.4,3755.8,3331.5,2174.6,424.3,""oops"",""up"",""up"",""good_move"",9090,3159.4,2712.1,5930.6,447.3,""oops"",""up"",""right"",""good_move"",15025.5,5935,2014.4,12556.9,454.2,""oops"",""up"",""left"",""bad_move"",17955.5,2929.7,2405.3,15025.8,524.4,""oops"",""up"",""right"",""good_move""]","",""
"4743","","<div style=""width:500px;"">
  <p>What determined the result of this run?</p>
  </div>","0","html-slider-response","30","551738","0.0-5.0-1.4","250","1","2025-07-30 08:36:56","1f75c3e559b7213887762d5229550c2b","41.150.225.195","Mozilla/5.0 (Windows NT 10.0; Win64; x64) AppleWebKit/537.36 (KHTML, like Gecko) Chrome/138.0.0.0 Safari/537.36","WebKit","Chrome","138.0.0.0","Windows","10.0","https://app.prolific.com/","en-US,en;q=0.9","6785052a054e7c96c09f69cd","6877631c9844ddd5501205fc","6889d9881ec11170df0b876c","3","1","6785052a054e7c96c09f69cd","3","1","2025-07-30T08:46:09.331Z","","","","","","","","","","","AttribQ","","50","","","","","","","","","","","","","","","","","","","","","","","","","","","","",""
"7047","","<div style=""width:500px;"">
  <p>How much control did you have over the ball?</p>
  </div>","1","html-slider-response","31","558786","0.0-5.0-2.4","250","1","2025-07-30 08:36:56","1f75c3e559b7213887762d5229550c2b","41.150.225.195","Mozilla/5.0 (Windows NT 10.0; Win64; x64) AppleWebKit/537.36 (KHTML, like Gecko) Chrome/138.0.0.0 Safari/537.36","WebKit","Chrome","138.0.0.0","Windows","10.0","https://app.prolific.com/","en-US,en;q=0.9","6785052a054e7c96c09f69cd","6877631c9844ddd5501205fc","6889d9881ec11170df0b876c","3","1","6785052a054e7c96c09f69cd","3","1","2025-07-30T08:46:16.379Z","","","","","","","","","","","ControlQ","","50","","","","","","","","","","","","","","","","","","","","","","","","","","","","",""
"3850","","<div style=""width:500px;"">
  <p>How would you describe your current emotional state?</p>
  </div>","100","html-slider-response","32","562639","0.0-5.0-3.4","250","1","2025-07-30 08:36:56","1f75c3e559b7213887762d5229550c2b","41.150.225.195","Mozilla/5.0 (Windows NT 10.0; Win64; x64) AppleWebKit/537.36 (KHTML, like Gecko) Chrome/138.0.0.0 Safari/537.36","WebKit","Chrome","138.0.0.0","Windows","10.0","https://app.prolific.com/","en-US,en;q=0.9","6785052a054e7c96c09f69cd","6877631c9844ddd5501205fc","6889d9881ec11170df0b876c","3","1","6785052a054e7c96c09f69cd","3","1","2025-07-30T08:46:20.232Z","","","","","","","","","","","StressQ","","50","","","","","","","","","","","","","","","","","","","","","","","","","","","","",""
"4940","","<div style=""width:500px;"">
  <p>What best describes how you currently feel?</p>
  </div>","100","html-slider-response","33","567580","0.0-5.0-4.4","250","1","2025-07-30 08:36:56","1f75c3e559b7213887762d5229550c2b","41.150.225.195","Mozilla/5.0 (Windows NT 10.0; Win64; x64) AppleWebKit/537.36 (KHTML, like Gecko) Chrome/138.0.0.0 Safari/537.36","WebKit","Chrome","138.0.0.0","Windows","10.0","https://app.prolific.com/","en-US,en;q=0.9","6785052a054e7c96c09f69cd","6877631c9844ddd5501205fc","6889d9881ec11170df0b876c","3","1","6785052a054e7c96c09f69cd","3","1","2025-07-30T08:46:25.173Z","","","","","","","","","","","MotivationQ","","50","","","","","","","","","","","","","","","","","","","","","","","","","","","","",""
"","","","","ctl-task-cpt","34","607711","0.0-5.0-0.5","250","1","2025-07-30 08:36:56","1f75c3e559b7213887762d5229550c2b","41.150.225.195","Mozilla/5.0 (Windows NT 10.0; Win64; x64) AppleWebKit/537.36 (KHTML, like Gecko) Chrome/138.0.0.0 Safari/537.36","WebKit","Chrome","138.0.0.0","Windows","10.0","https://app.prolific.com/","en-US,en;q=0.9","6785052a054e7c96c09f69cd","6877631c9844ddd5501205fc","6889d9881ec11170df0b876c","3","1","6785052a054e7c96c09f69cd","3","1","2025-07-30T08:47:05.304Z","","","","","","","","","","","","","","win-only","3","g1:SW,g2:NE","0.5","6","0","571632.7","1446.7","6451.4","37096.1","1","4","8","6","2","-8","-8","0","0","0","1744.3","3000","-2845","[""up"",""right""]","{""num_key_presses"":8,""num_perfect"":4,""num_errors"":0,""num_randdir"":4,""num_randdir_good_moves"":0,""num_whilered"":0,""num_whileblue"":0,""num_blue"":1,""num_good_moves"":4}","[339.9642857142857,335.5736597606114,0.4,339.9642857142857,334.0736597606114,104.9,339.9642857142857,334.0736597606114,226.8,341.4642857142857,335.5736597606114,328.5,341.4642857142857,334.0736597606114,430.6,342.9642857142857,322.0736597606114,534.1,344.4642857142857,313.0736597606114,661.2,345.9642857142857,293.5736597606114,763.5,345.9642857142857,290.5736597606114,866.4,345.9642857142857,290.5736597606114,969.3,350.4642857142857,311.5736597606114,1069.4,473.4642857142857,284.5736597606114,1173.4,560.4642857142857,163.0736597606114,1275.7,566.4642857142857,110.5736597606114,1378.2,570.9642857142857,77.5736597606114,1480.9,573.9642857142857,70.0736597606114,1583.7,593.4642857142857,68.5736597606114,1684.4,596.4642857142857,68.5736597606114,1784.5,596.4642857142857,68.5736597606114,1896.5,630.9642857142857,89.5736597606114,1999.5,870.9642857142857,188.5736597606114,2099.8,875.4642857142857,190.0736597606114,2200.2,875.4642857142857,190.0736597606114,2309.7,875.4642857142857,190.0736597606114,2420.1,875.4642857142857,190.0736597606114,2530.5,875.4642857142857,190.0736597606114,2632,875.4642857142857,190.0736597606114,2733.6,875.4642857142857,190.0736597606114,2834.1,875.4642857142857,190.0736597606114,2951.4,875.4642857142857,190.0736597606114,3060.7,875.4642857142857,190.0736597606114,3164.6,875.4642857142857,190.0736597606114,3267.4,875.4642857142857,190.0736597606114,3377.2,875.4642857142857,190.0736597606114,3483.9,875.4642857142857,190.0736597606114,3584.1,875.4642857142857,190.0736597606114,3684.5,875.4642857142857,190.0736597606114,3789.8,875.4642857142857,190.0736597606114,3894.3,875.4642857142857,190.0736597606114,3995.4,875.4642857142857,190.0736597606114,4099.4,875.4642857142857,190.0736597606114,4199.5,875.4642857142857,190.0736597606114,4313.5,875.4642857142857,190.0736597606114,4414.3,875.4642857142857,190.0736597606114,4514.6,875.4642857142857,190.0736597606114,4619.1,875.4642857142857,190.0736597606114,4725.2,875.4642857142857,190.0736597606114,4831,875.4642857142857,190.0736597606114,4933.7]","[1461.1,1461.2,1000,0,461.2,""oops"",""up"",""down"",""bad_move"",4944.5,3482.3,2975.7,1462.2,506.6,""smooth"",""up"",""up"",""good_move"",8520.8,3575.9,3069.4,4944.9,506.5,""oops"",""right"",""down"",""bad_move"",12577.3,4056.3,3592.6,8521,463.7,""oops"",""up"",""left"",""bad_move"",16213.1,3635.4,3169,12577.7,466.4,""smooth"",""up"",""up"",""good_move"",18885.9,2672.6,2237.6,16213.3,435,""smooth"",""up"",""up"",""good_move"",24875.4,5989.4,2548.4,21894.4,432.7,""oops"",""up"",""left"",""bad_move"",27731,2855.1,2407.6,24875.9,447.5,""smooth"",""up"",""up"",""good_move""]","",""
"9916","","<div style=""width:500px;"">
  <p>What determined the result of this run?</p>
  </div>","0","html-slider-response","35","617629","0.0-5.0-1.5","250","1","2025-07-30 08:36:56","1f75c3e559b7213887762d5229550c2b","41.150.225.195","Mozilla/5.0 (Windows NT 10.0; Win64; x64) AppleWebKit/537.36 (KHTML, like Gecko) Chrome/138.0.0.0 Safari/537.36","WebKit","Chrome","138.0.0.0","Windows","10.0","https://app.prolific.com/","en-US,en;q=0.9","6785052a054e7c96c09f69cd","6877631c9844ddd5501205fc","6889d9881ec11170df0b876c","3","1","6785052a054e7c96c09f69cd","3","1","2025-07-30T08:47:15.222Z","","","","","","","","","","","AttribQ","","50","","","","","","","","","","","","","","","","","","","","","","","","","","","","",""
"2258","","<div style=""width:500px;"">
  <p>How much control did you have over the ball?</p>
  </div>","0","html-slider-response","36","619888","0.0-5.0-2.5","250","1","2025-07-30 08:36:56","1f75c3e559b7213887762d5229550c2b","41.150.225.195","Mozilla/5.0 (Windows NT 10.0; Win64; x64) AppleWebKit/537.36 (KHTML, like Gecko) Chrome/138.0.0.0 Safari/537.36","WebKit","Chrome","138.0.0.0","Windows","10.0","https://app.prolific.com/","en-US,en;q=0.9","6785052a054e7c96c09f69cd","6877631c9844ddd5501205fc","6889d9881ec11170df0b876c","3","1","6785052a054e7c96c09f69cd","3","1","2025-07-30T08:47:17.481Z","","","","","","","","","","","ControlQ","","50","","","","","","","","","","","","","","","","","","","","","","","","","","","","",""
"431913","","<div style=""width:500px;"">
  <p>How would you describe your current emotional state?</p>
  </div>","100","html-slider-response","37","1051803","0.0-5.0-3.5","250","1","2025-07-30 08:36:56","1f75c3e559b7213887762d5229550c2b","41.150.225.195","Mozilla/5.0 (Windows NT 10.0; Win64; x64) AppleWebKit/537.36 (KHTML, like Gecko) Chrome/138.0.0.0 Safari/537.36","WebKit","Chrome","138.0.0.0","Windows","10.0","https://app.prolific.com/","en-US,en;q=0.9","6785052a054e7c96c09f69cd","6877631c9844ddd5501205fc","6889d9881ec11170df0b876c","3","1","6785052a054e7c96c09f69cd","3","1","2025-07-30T08:54:29.396Z","","","","","","","","","","","StressQ","","50","","","","","","","","","","","","","","","","","","","","","","","","","","","","",""
"4373","","<div style=""width:500px;"">
  <p>What best describes how you currently feel?</p>
  </div>","100","html-slider-response","38","1056178","0.0-5.0-4.5","250","1","2025-07-30 08:36:56","1f75c3e559b7213887762d5229550c2b","41.150.225.195","Mozilla/5.0 (Windows NT 10.0; Win64; x64) AppleWebKit/537.36 (KHTML, like Gecko) Chrome/138.0.0.0 Safari/537.36","WebKit","Chrome","138.0.0.0","Windows","10.0","https://app.prolific.com/","en-US,en;q=0.9","6785052a054e7c96c09f69cd","6877631c9844ddd5501205fc","6889d9881ec11170df0b876c","3","1","6785052a054e7c96c09f69cd","3","1","2025-07-30T08:54:33.771Z","","","","","","","","","","","MotivationQ","","50","","","","","","","","","","","","","","","","","","","","","","","","","","","","",""
"","","","","ctl-task-cpt","39","1101758","0.0-5.0-0.6","250","1","2025-07-30 08:36:56","1f75c3e559b7213887762d5229550c2b","41.150.225.195","Mozilla/5.0 (Windows NT 10.0; Win64; x64) AppleWebKit/537.36 (KHTML, like Gecko) Chrome/138.0.0.0 Safari/537.36","WebKit","Chrome","138.0.0.0","Windows","10.0","https://app.prolific.com/","en-US,en;q=0.9","6785052a054e7c96c09f69cd","6877631c9844ddd5501205fc","6889d9881ec11170df0b876c","3","1","6785052a054e7c96c09f69cd","3","1","2025-07-30T08:55:19.351Z","","","","","","","","","","","","","","win-only","0","g1:NW,g2:SE","0.4","7","0","1060231.7","1991.4","6997.1","42560.8","1","4","8","6","2","-8","-9","0","0","0","5005.7","3000","-2085","[""down"",""right""]","{""num_key_presses"":10,""num_perfect"":4,""num_errors"":1,""num_randdir"":5,""num_randdir_good_moves"":3,""num_whilered"":0,""num_whileblue"":0,""num_blue"":2,""num_good_moves"":7}","[339.9642857142857,335.5736597606114,0.8,339.9642857142857,335.5736597606114,103.8,339.9642857142857,335.5736597606114,208.2,339.9642857142857,335.5736597606114,309.4,339.9642857142857,335.5736597606114,409.8,339.9642857142857,335.5736597606114,514.2,339.9642857142857,335.5736597606114,614.3,339.9642857142857,335.5736597606114,714.9,339.9642857142857,335.5736597606114,819,339.9642857142857,335.5736597606114,923.8,339.9642857142857,335.5736597606114,1024.5,339.9642857142857,335.5736597606114,1129.6,339.9642857142857,335.5736597606114,1232,339.9642857142857,335.5736597606114,1334.9,339.9642857142857,335.5736597606114,1440.9,339.9642857142857,335.5736597606114,1543.8,339.9642857142857,335.5736597606114,1644.3,339.9642857142857,335.5736597606114,1749.6,339.9642857142857,335.5736597606114,1854.1,339.9642857142857,335.5736597606114,1954.9,339.9642857142857,335.5736597606114,2059.9,339.9642857142857,335.5736597606114,2165.9,339.9642857142857,335.5736597606114,2275.3,339.9642857142857,335.5736597606114,2401.9,339.9642857142857,335.5736597606114,2505,339.9642857142857,335.5736597606114,2610,339.9642857142857,335.5736597606114,2718.1,339.9642857142857,335.5736597606114,2824.6,339.9642857142857,335.5736597606114,2929.1,339.9642857142857,335.5736597606114,3031.6,339.9642857142857,335.5736597606114,3143.2,339.9642857142857,335.5736597606114,3244.7,339.9642857142857,335.5736597606114,3350.9,339.9642857142857,335.5736597606114,3454.6,339.9642857142857,335.5736597606114,3561.9,339.9642857142857,335.5736597606114,3674.3,339.9642857142857,335.5736597606114,3774.6,339.9642857142857,335.5736597606114,3883.6,339.9642857142857,335.5736597606114,3984.8,339.9642857142857,335.5736597606114,4089.2,339.9642857142857,335.5736597606114,4189.6,339.9642857142857,335.5736597606114,4306.3,339.9642857142857,335.5736597606114,4409.2,339.9642857142857,335.5736597606114,4521.8,339.9642857142857,335.5736597606114,4624.4,339.9642857142857,335.5736597606114,4738.3,339.9642857142857,335.5736597606114,4842.4,339.9642857142857,335.5736597606114,4945]","[1516.9,1516.9,1000,0,516.9,""oops"",""down"",""down"",""good_move"",4504.4,2987.2,2576.1,1517.2,411.1,""oops"",""right"",""down"",""good_move"",7202.1,2697.6,2234,4504.5,463.6,""smooth"",""right"",""right"",""good_move"",9298,2095.6,1723.1,7202.4,372.5,""oops"",""down"",""up"",""bad_move"",12166.6,2867.8,2445.4,9298.9,422.4,""oops"",""right"",""left"",""bad_move"",18580.7,6413.1,2777.2,15314.7,488.8,""smooth"",""right"",""right"",""good_move"",21196.8,2616,2231.2,18580.8,384.8,""smooth"",""down"",""down"",""good_move"",23496.4,2299.2,1856,21197.2,443.2,""oops"",""right"",""down"",""good_move"",29576.4,6079.8,2545.9,26598.7,431.8,""smooth"",""right"",""right"",""good_move"",32136.6,2559.8,2691,29576.8,-131.2,""error"",""-"",""-"",""no_move""]","",""
"6798","","<div style=""width:500px;"">
  <p>What determined the result of this run?</p>
  </div>","0","html-slider-response","40","1108557","0.0-5.0-1.6","250","1","2025-07-30 08:36:56","1f75c3e559b7213887762d5229550c2b","41.150.225.195","Mozilla/5.0 (Windows NT 10.0; Win64; x64) AppleWebKit/537.36 (KHTML, like Gecko) Chrome/138.0.0.0 Safari/537.36","WebKit","Chrome","138.0.0.0","Windows","10.0","https://app.prolific.com/","en-US,en;q=0.9","6785052a054e7c96c09f69cd","6877631c9844ddd5501205fc","6889d9881ec11170df0b876c","3","1","6785052a054e7c96c09f69cd","3","1","2025-07-30T08:55:26.150Z","","","","","","","","","","","AttribQ","","50","","","","","","","","","","","","","","","","","","","","","","","","","","","","",""
"3015","","<div style=""width:500px;"">
  <p>How much control did you have over the ball?</p>
  </div>","17","html-slider-response","41","1111574","0.0-5.0-2.6","250","1","2025-07-30 08:36:56","1f75c3e559b7213887762d5229550c2b","41.150.225.195","Mozilla/5.0 (Windows NT 10.0; Win64; x64) AppleWebKit/537.36 (KHTML, like Gecko) Chrome/138.0.0.0 Safari/537.36","WebKit","Chrome","138.0.0.0","Windows","10.0","https://app.prolific.com/","en-US,en;q=0.9","6785052a054e7c96c09f69cd","6877631c9844ddd5501205fc","6889d9881ec11170df0b876c","3","1","6785052a054e7c96c09f69cd","3","1","2025-07-30T08:55:29.167Z","","","","","","","","","","","ControlQ","","50","","","","","","","","","","","","","","","","","","","","","","","","","","","","",""
"4098","","<div style=""width:500px;"">
  <p>How would you describe your current emotional state?</p>
  </div>","100","html-slider-response","42","1115674","0.0-5.0-3.6","250","1","2025-07-30 08:36:56","1f75c3e559b7213887762d5229550c2b","41.150.225.195","Mozilla/5.0 (Windows NT 10.0; Win64; x64) AppleWebKit/537.36 (KHTML, like Gecko) Chrome/138.0.0.0 Safari/537.36","WebKit","Chrome","138.0.0.0","Windows","10.0","https://app.prolific.com/","en-US,en;q=0.9","6785052a054e7c96c09f69cd","6877631c9844ddd5501205fc","6889d9881ec11170df0b876c","3","1","6785052a054e7c96c09f69cd","3","1","2025-07-30T08:55:33.267Z","","","","","","","","","","","StressQ","","50","","","","","","","","","","","","","","","","","","","","","","","","","","","","",""
"3656","","<div style=""width:500px;"">
  <p>What best describes how you currently feel?</p>
  </div>","0","html-slider-response","43","1119334","0.0-5.0-4.6","250","1","2025-07-30 08:36:56","1f75c3e559b7213887762d5229550c2b","41.150.225.195","Mozilla/5.0 (Windows NT 10.0; Win64; x64) AppleWebKit/537.36 (KHTML, like Gecko) Chrome/138.0.0.0 Safari/537.36","WebKit","Chrome","138.0.0.0","Windows","10.0","https://app.prolific.com/","en-US,en;q=0.9","6785052a054e7c96c09f69cd","6877631c9844ddd5501205fc","6889d9881ec11170df0b876c","3","1","6785052a054e7c96c09f69cd","3","1","2025-07-30T08:55:36.928Z","","","","","","","","","","","MotivationQ","","50","","","","","","","","","","","","","","","","","","","","","","","","","","","","",""
"","","","","ctl-task-cpt","44","1158882","0.0-5.0-0.7","250","1","2025-07-30 08:36:56","1f75c3e559b7213887762d5229550c2b","41.150.225.195","Mozilla/5.0 (Windows NT 10.0; Win64; x64) AppleWebKit/537.36 (KHTML, like Gecko) Chrome/138.0.0.0 Safari/537.36","WebKit","Chrome","138.0.0.0","Windows","10.0","https://app.prolific.com/","en-US,en;q=0.9","6785052a054e7c96c09f69cd","6877631c9844ddd5501205fc","6889d9881ec11170df0b876c","3","1","6785052a054e7c96c09f69cd","3","1","2025-07-30T08:56:16.475Z","","","","","","","","","","","","","","win-only","3","g1:SW,g2:NE","0.3","8","0","1123388.5","1401.3","6405.5","36521.9","1","4","4","6","1","-1","-1","0","0","0","1454.1","3000","-2150","[""down"",""left""]","{""num_key_presses"":8,""num_perfect"":2,""num_errors"":0,""num_randdir"":6,""num_randdir_good_moves"":3,""num_whilered"":0,""num_whileblue"":0,""num_blue"":2,""num_good_moves"":5}","[339.9642857142857,331.0736597606114,0.2,339.9642857142857,331.0736597606114,102,339.9642857142857,331.0736597606114,203.6,342.9642857142857,422.5736597606114,316.6,329.4642857142857,503.5736597606114,419.5,287.4642857142857,512.5736597606113,524,243.96428571428572,521.5736597606113,638.9,242.46428571428572,512.5736597606113,742.3,242.46428571428572,482.5736597606114,897.7,236.46428571428572,494.5736597606114,1005,204.96428571428572,566.5736597606113,1130,110.46428571428572,620.5736597606113,1230,83.46428571428572,620.5736597606113,1330.7,75.96428571428572,614.5736597606113,1440.2,74.46428571428572,614.5736597606113,1541.6,81.96428571428572,605.5736597606113,1644.9,95.46428571428572,584.5736597606113,1749.3,-57.535714285714285,473.5736597606114,1854.4,-111.53571428571428,437.5736597606114,1954.9,-116.03571428571428,428.5736597606114,2059.3,-114.53571428571428,424.0736597606114,2160.3,-114.53571428571428,424.0736597606114,2264.9,-114.53571428571428,424.0736597606114,2370.2,-114.53571428571428,424.0736597606114,2470.3,-114.53571428571428,424.0736597606114,2583.6,-114.53571428571428,424.0736597606114,2685,-114.53571428571428,424.0736597606114,2789.3,-114.53571428571428,424.0736597606114,2901.8,-114.53571428571428,424.0736597606114,3004.8,-114.53571428571428,424.0736597606114,3133.8,-114.53571428571428,424.0736597606114,3234.3,-114.53571428571428,424.0736597606114,3334.7,-114.53571428571428,424.0736597606114,3434.7,-114.53571428571428,424.0736597606114,3545.5,-114.53571428571428,424.0736597606114,3650.1,-114.53571428571428,424.0736597606114,3750.5,-114.53571428571428,424.0736597606114,3851.1,-114.53571428571428,424.0736597606114,3954.9,-114.53571428571428,424.0736597606114,4063.6,-114.53571428571428,424.0736597606114,4165.4,-114.53571428571428,424.0736597606114,4273.4,-114.53571428571428,424.0736597606114,4380.2,-114.53571428571428,424.0736597606114,4482.3,-114.53571428571428,424.0736597606114,4584.1,-114.53571428571428,424.0736597606114,4694.3,-114.53571428571428,424.0736597606114,4801.3,-114.53571428571428,424.0736597606114,4905.1]","[1480.6,1480.6,1000,0,480.6,""oops"",""left"",""left"",""good_move"",4141.9,2660.9,2208.1,1481,452.8,""smooth"",""down"",""down"",""good_move"",7591.7,3449.4,3060.6,4142.3,388.8,""oops"",""left"",""up"",""bad_move"",14319.5,6727.5,3029.8,10946.1,343.6,""oops"",""down"",""up"",""bad_move"",17625.6,3305.9,2751.1,14319.7,554.8,""oops"",""left"",""right"",""bad_move"",19925.4,2299.3,1694.8,17626.1,604.5,""smooth"",""down"",""down"",""good_move"",25616,5689.9,1802.1,23425.5,388.4,""oops"",""down"",""down"",""good_move"",27768.6,2151.6,1709,25617,442.6,""oops"",""left"",""down"",""good_move""]","",""
"4650","","<div style=""width:500px;"">
  <p>What determined the result of this run?</p>
  </div>","0","html-slider-response","45","1163534","0.0-5.0-1.7","250","1","2025-07-30 08:36:56","1f75c3e559b7213887762d5229550c2b","41.150.225.195","Mozilla/5.0 (Windows NT 10.0; Win64; x64) AppleWebKit/537.36 (KHTML, like Gecko) Chrome/138.0.0.0 Safari/537.36","WebKit","Chrome","138.0.0.0","Windows","10.0","https://app.prolific.com/","en-US,en;q=0.9","6785052a054e7c96c09f69cd","6877631c9844ddd5501205fc","6889d9881ec11170df0b876c","3","1","6785052a054e7c96c09f69cd","3","1","2025-07-30T08:56:21.127Z","","","","","","","","","","","AttribQ","","50","","","","","","","","","","","","","","","","","","","","","","","","","","","","",""
"4515","","<div style=""width:500px;"">
  <p>How much control did you have over the ball?</p>
  </div>","0","html-slider-response","46","1168049","0.0-5.0-2.7","250","1","2025-07-30 08:36:56","1f75c3e559b7213887762d5229550c2b","41.150.225.195","Mozilla/5.0 (Windows NT 10.0; Win64; x64) AppleWebKit/537.36 (KHTML, like Gecko) Chrome/138.0.0.0 Safari/537.36","WebKit","Chrome","138.0.0.0","Windows","10.0","https://app.prolific.com/","en-US,en;q=0.9","6785052a054e7c96c09f69cd","6877631c9844ddd5501205fc","6889d9881ec11170df0b876c","3","1","6785052a054e7c96c09f69cd","3","1","2025-07-30T08:56:25.643Z","","","","","","","","","","","ControlQ","","50","","","","","","","","","","","","","","","","","","","","","","","","","","","","",""
"3419","","<div style=""width:500px;"">
  <p>How would you describe your current emotional state?</p>
  </div>","100","html-slider-response","47","1171469","0.0-5.0-3.7","250","1","2025-07-30 08:36:56","1f75c3e559b7213887762d5229550c2b","41.150.225.195","Mozilla/5.0 (Windows NT 10.0; Win64; x64) AppleWebKit/537.36 (KHTML, like Gecko) Chrome/138.0.0.0 Safari/537.36","WebKit","Chrome","138.0.0.0","Windows","10.0","https://app.prolific.com/","en-US,en;q=0.9","6785052a054e7c96c09f69cd","6877631c9844ddd5501205fc","6889d9881ec11170df0b876c","3","1","6785052a054e7c96c09f69cd","3","1","2025-07-30T08:56:29.062Z","","","","","","","","","","","StressQ","","50","","","","","","","","","","","","","","","","","","","","","","","","","","","","",""
"3321","","<div style=""width:500px;"">
  <p>What best describes how you currently feel?</p>
  </div>","0","html-slider-response","48","1174792","0.0-5.0-4.7","250","1","2025-07-30 08:36:56","1f75c3e559b7213887762d5229550c2b","41.150.225.195","Mozilla/5.0 (Windows NT 10.0; Win64; x64) AppleWebKit/537.36 (KHTML, like Gecko) Chrome/138.0.0.0 Safari/537.36","WebKit","Chrome","138.0.0.0","Windows","10.0","https://app.prolific.com/","en-US,en;q=0.9","6785052a054e7c96c09f69cd","6877631c9844ddd5501205fc","6889d9881ec11170df0b876c","3","1","6785052a054e7c96c09f69cd","3","1","2025-07-30T08:56:32.385Z","","","","","","","","","","","MotivationQ","","50","","","","","","","","","","","","","","","","","","","","","","","","","","","","",""
"","","","","ctl-task-cpt","49","1220759","0.0-5.0-0.8","250","1","2025-07-30 08:36:56","1f75c3e559b7213887762d5229550c2b","41.150.225.195","Mozilla/5.0 (Windows NT 10.0; Win64; x64) AppleWebKit/537.36 (KHTML, like Gecko) Chrome/138.0.0.0 Safari/537.36","WebKit","Chrome","138.0.0.0","Windows","10.0","https://app.prolific.com/","en-US,en;q=0.9","6785052a054e7c96c09f69cd","6877631c9844ddd5501205fc","6889d9881ec11170df0b876c","3","1","6785052a054e7c96c09f69cd","3","1","2025-07-30T08:57:18.353Z","","","","","","","","","","","","","","win-only","2","g1:SE,g2:NW","0.2","9","0","1178844.7","1806.4","6807.3","42950.7","1","4","8","6","2","-8","-8","0","0","0","1422.7","3000","-1870","[""left"",""up""]","{""num_key_presses"":8,""num_perfect"":2,""num_errors"":0,""num_randdir"":6,""num_randdir_good_moves"":4,""num_whilered"":0,""num_whileblue"":0,""num_blue"":3,""num_good_moves"":6}","[338.4642857142857,332.5736597606114,0.2,338.4642857142857,332.5736597606114,123,338.4642857142857,332.5736597606114,223.8,338.4642857142857,332.5736597606114,343.7,338.4642857142857,332.5736597606114,444.4,338.4642857142857,332.5736597606114,548.9,338.4642857142857,332.5736597606114,649,282.9642857142857,269.5736597606114,749.4,150.96428571428572,131.5736597606114,849.5,131.46428571428572,107.5736597606114,955.9,104.46428571428572,86.5736597606114,1072.6,92.46428571428572,65.5736597606114,1173.4,90.96428571428572,65.5736597606114,1275.5,87.96428571428572,64.0736597606114,1379.8,87.96428571428572,64.0736597606114,1485.1,87.96428571428572,64.0736597606114,1588.4,87.96428571428572,64.0736597606114,1689.7,87.96428571428572,64.0736597606114,1794.3,26.464285714285715,146.5736597606114,1898.8,-57.535714285714285,242.5736597606114,1999.6,-78.53571428571428,266.5736597606114,2102.6,-78.53571428571428,266.5736597606114,2212,-78.53571428571428,266.5736597606114,2314.2,-78.53571428571428,266.5736597606114,2414.3,-78.53571428571428,266.5736597606114,2515.8,-78.53571428571428,266.5736597606114,2624.1,-78.53571428571428,266.5736597606114,2729,-78.53571428571428,266.5736597606114,2829.5,-78.53571428571428,266.5736597606114,2929.7,-78.53571428571428,266.5736597606114,3033.9,-78.53571428571428,266.5736597606114,3134.6,-78.53571428571428,266.5736597606114,3235.1,-78.53571428571428,266.5736597606114,3340.1,-78.53571428571428,266.5736597606114,3442.8,-78.53571428571428,266.5736597606114,3546.5,-78.53571428571428,266.5736597606114,3649.1,-78.53571428571428,266.5736597606114,3759.2,-78.53571428571428,266.5736597606114,3859.8,-78.53571428571428,266.5736597606114,3959.8,-78.53571428571428,266.5736597606114,4064.1,-78.53571428571428,266.5736597606114,4164.8,-78.53571428571428,266.5736597606114,4265.4,-78.53571428571428,266.5736597606114,4372.3,-78.53571428571428,266.5736597606114,4477,-78.53571428571428,266.5736597606114,4581,-78.53571428571428,266.5736597606114,4685,-78.53571428571428,266.5736597606114,4795.5,-78.53571428571428,266.5736597606114,4899.1]","[1556.9,1556.9,1000,0,556.9,""oops"",""up"",""up"",""good_move"",4498.7,2941.5,2524.9,1557.3,416.6,""oops"",""left"",""down"",""bad_move"",14568.3,10068.8,1698.1,12233.3,636.9,""oops"",""up"",""up"",""good_move"",21456.3,6886.8,2130.9,18747.2,578.2,""oops"",""left"",""left"",""good_move"",24709.2,3252.5,2764,21456.7,488.5,""oops"",""left"",""up"",""good_move"",28219.6,3509.9,2985.2,24709.7,524.7,""smooth"",""left"",""left"",""good_move"",31206.8,2987,2451.7,28219.8,535.3,""smooth"",""up"",""up"",""good_move"",33687.6,2480.5,2101.8,31207.1,378.7,""oops"",""left"",""down"",""bad_move""]","",""
"10128","","<div style=""width:500px;"">
  <p>What determined the result of this run?</p>
  </div>","0","html-slider-response","50","1230890","0.0-5.0-1.8","250","1","2025-07-30 08:36:56","1f75c3e559b7213887762d5229550c2b","41.150.225.195","Mozilla/5.0 (Windows NT 10.0; Win64; x64) AppleWebKit/537.36 (KHTML, like Gecko) Chrome/138.0.0.0 Safari/537.36","WebKit","Chrome","138.0.0.0","Windows","10.0","https://app.prolific.com/","en-US,en;q=0.9","6785052a054e7c96c09f69cd","6877631c9844ddd5501205fc","6889d9881ec11170df0b876c","3","1","6785052a054e7c96c09f69cd","3","1","2025-07-30T08:57:28.483Z","","","","","","","","","","","AttribQ","","50","","","","","","","","","","","","","","","","","","","","","","","","","","","","",""
"2377","","<div style=""width:500px;"">
  <p>How much control did you have over the ball?</p>
  </div>","0","html-slider-response","51","1233274","0.0-5.0-2.8","250","1","2025-07-30 08:36:56","1f75c3e559b7213887762d5229550c2b","41.150.225.195","Mozilla/5.0 (Windows NT 10.0; Win64; x64) AppleWebKit/537.36 (KHTML, like Gecko) Chrome/138.0.0.0 Safari/537.36","WebKit","Chrome","138.0.0.0","Windows","10.0","https://app.prolific.com/","en-US,en;q=0.9","6785052a054e7c96c09f69cd","6877631c9844ddd5501205fc","6889d9881ec11170df0b876c","3","1","6785052a054e7c96c09f69cd","3","1","2025-07-30T08:57:30.868Z","","","","","","","","","","","ControlQ","","50","","","","","","","","","","","","","","","","","","","","","","","","","","","","",""
"5479","","<div style=""width:500px;"">
  <p>How would you describe your current emotional state?</p>
  </div>","100","html-slider-response","52","1238768","0.0-5.0-3.8","250","1","2025-07-30 08:36:56","1f75c3e559b7213887762d5229550c2b","41.150.225.195","Mozilla/5.0 (Windows NT 10.0; Win64; x64) AppleWebKit/537.36 (KHTML, like Gecko) Chrome/138.0.0.0 Safari/537.36","WebKit","Chrome","138.0.0.0","Windows","10.0","https://app.prolific.com/","en-US,en;q=0.9","6785052a054e7c96c09f69cd","6877631c9844ddd5501205fc","6889d9881ec11170df0b876c","3","1","6785052a054e7c96c09f69cd","3","1","2025-07-30T08:57:36.362Z","","","","","","","","","","","StressQ","","50","","","","","","","","","","","","","","","","","","","","","","","","","","","","",""
"5449","","<div style=""width:500px;"">
  <p>What best describes how you currently feel?</p>
  </div>","0","html-slider-response","53","1244222","0.0-5.0-4.8","250","1","2025-07-30 08:36:56","1f75c3e559b7213887762d5229550c2b","41.150.225.195","Mozilla/5.0 (Windows NT 10.0; Win64; x64) AppleWebKit/537.36 (KHTML, like Gecko) Chrome/138.0.0.0 Safari/537.36","WebKit","Chrome","138.0.0.0","Windows","10.0","https://app.prolific.com/","en-US,en;q=0.9","6785052a054e7c96c09f69cd","6877631c9844ddd5501205fc","6889d9881ec11170df0b876c","3","1","6785052a054e7c96c09f69cd","3","1","2025-07-30T08:57:41.815Z","","","","","","","","","","","MotivationQ","","50","","","","","","","","","","","","","","","","","","","","","","","","","","","","",""
"","","","","ctl-task-cpt","54","1289784","0.0-5.0-0.9","250","1","2025-07-30 08:36:56","1f75c3e559b7213887762d5229550c2b","41.150.225.195","Mozilla/5.0 (Windows NT 10.0; Win64; x64) AppleWebKit/537.36 (KHTML, like Gecko) Chrome/138.0.0.0 Safari/537.36","WebKit","Chrome","138.0.0.0","Windows","10.0","https://app.prolific.com/","en-US,en;q=0.9","6785052a054e7c96c09f69cd","6877631c9844ddd5501205fc","6889d9881ec11170df0b876c","3","1","6785052a054e7c96c09f69cd","3","1","2025-07-30T08:58:27.377Z","","","","","","","","","","","","","","win-only","1","g1:NE,g2:SW","0.4","10","0","1248277.5","1136.8","6149.2","42541","1","4","4","6","2","-4","-4","0","0","0","1334.1","3000","-2640","[""down"",""left""]","{""num_key_presses"":8,""num_perfect"":2,""num_errors"":0,""num_randdir"":6,""num_randdir_good_moves"":2,""num_whilered"":0,""num_whileblue"":0,""num_blue"":4,""num_good_moves"":4}","[339.9642857142857,341.5736597606114,0.3,339.9642857142857,341.5736597606114,102.6,341.4642857142857,344.5736597606114,205.8,341.4642857142857,349.0736597606114,312,339.9642857142857,350.5736597606114,414.5,339.9642857142857,350.5736597606114,520.9,339.9642857142857,350.5736597606114,624.5,291.9642857142857,394.0736597606114,731.2,203.46428571428572,497.5736597606114,835.1,153.96428571428572,539.5736597606113,937.8,92.46428571428572,578.5736597606113,1040.8,81.96428571428572,601.0736597606113,1152.3,80.46428571428572,608.5736597606113,1256.9,80.46428571428572,608.5736597606113,1363.4,80.46428571428572,608.5736597606113,1474.3,80.46428571428572,608.5736597606113,1575.4,80.46428571428572,608.5736597606113,1689.8,80.46428571428572,608.5736597606113,1792,-26.035714285714285,575.5736597606113,1895.3,-131.03571428571428,500.5736597606114,1999.6,-147.53571428571428,452.5736597606114,2104.3,-147.53571428571428,446.5736597606114,2205.5,-147.53571428571428,446.5736597606114,2306.6,-147.53571428571428,446.5736597606114,2409.2,-147.53571428571428,446.5736597606114,2509.5,-147.53571428571428,446.5736597606114,2620.2,-147.53571428571428,446.5736597606114,2724.8,-147.53571428571428,446.5736597606114,2825,-147.53571428571428,446.5736597606114,2925,-147.53571428571428,446.5736597606114,3029.3,-147.53571428571428,446.5736597606114,3129.7,-147.53571428571428,446.5736597606114,3240.2,-147.53571428571428,446.5736597606114,3349,-147.53571428571428,446.5736597606114,3454.4,-147.53571428571428,446.5736597606114,3556.6,-147.53571428571428,446.5736597606114,3659,-147.53571428571428,446.5736597606114,3761,-147.53571428571428,446.5736597606114,3863.7,-147.53571428571428,446.5736597606114,3964.5,-147.53571428571428,446.5736597606114,4069.4,-147.53571428571428,446.5736597606114,4171,-147.53571428571428,446.5736597606114,4274.7,-147.53571428571428,446.5736597606114,4375.9,-147.53571428571428,446.5736597606114,4475.9,-147.53571428571428,446.5736597606114,4579,-147.53571428571428,446.5736597606114,4679,-147.53571428571428,446.5736597606114,4779,-147.53571428571428,446.5736597606114,4884.2,-147.53571428571428,446.5736597606114,4985.5]","[1493.9,1493.9,1000,0,493.9,""smooth"",""left"",""left"",""good_move"",4927.4,3432.9,3029.9,1494.5,403,""oops"",""down"",""right"",""bad_move"",10757.2,5829.5,1852.7,8478.5,426.1,""smooth"",""left"",""left"",""good_move"",13125.8,2368.3,1708.8,10757.5,659.5,""oops"",""down"",""right"",""bad_move"",15758.6,2632.6,1988.3,13126.1,644.3,""oops"",""down"",""right"",""bad_move"",18309.7,2550.8,2112.8,15758.9,438,""oops"",""down"",""down"",""good_move"",21747.5,3437.3,2966.2,18310.2,471.1,""oops"",""down"",""up"",""bad_move"",30354.8,8606.8,1500,28375.9,478.9,""oops"",""left"",""down"",""good_move""]","",""
"7463","","<div style=""width:500px;"">
  <p>What determined the result of this run?</p>
  </div>","51","html-slider-response","55","1297249","0.0-5.0-1.9","250","1","2025-07-30 08:36:56","1f75c3e559b7213887762d5229550c2b","41.150.225.195","Mozilla/5.0 (Windows NT 10.0; Win64; x64) AppleWebKit/537.36 (KHTML, like Gecko) Chrome/138.0.0.0 Safari/537.36","WebKit","Chrome","138.0.0.0","Windows","10.0","https://app.prolific.com/","en-US,en;q=0.9","6785052a054e7c96c09f69cd","6877631c9844ddd5501205fc","6889d9881ec11170df0b876c","3","1","6785052a054e7c96c09f69cd","3","1","2025-07-30T08:58:34.842Z","","","","","","","","","","","AttribQ","","50","","","","","","","","","","","","","","","","","","","","","","","","","","","","",""
"7861","","<div style=""width:500px;"">
  <p>How much control did you have over the ball?</p>
  </div>","0","html-slider-response","56","1305112","0.0-5.0-2.9","250","1","2025-07-30 08:36:56","1f75c3e559b7213887762d5229550c2b","41.150.225.195","Mozilla/5.0 (Windows NT 10.0; Win64; x64) AppleWebKit/537.36 (KHTML, like Gecko) Chrome/138.0.0.0 Safari/537.36","WebKit","Chrome","138.0.0.0","Windows","10.0","https://app.prolific.com/","en-US,en;q=0.9","6785052a054e7c96c09f69cd","6877631c9844ddd5501205fc","6889d9881ec11170df0b876c","3","1","6785052a054e7c96c09f69cd","3","1","2025-07-30T08:58:42.706Z","","","","","","","","","","","ControlQ","","50","","","","","","","","","","","","","","","","","","","","","","","","","","","","",""
"2472","","<div style=""width:500px;"">
  <p>How would you describe your current emotional state?</p>
  </div>","100","html-slider-response","57","1307585","0.0-5.0-3.9","250","1","2025-07-30 08:36:56","1f75c3e559b7213887762d5229550c2b","41.150.225.195","Mozilla/5.0 (Windows NT 10.0; Win64; x64) AppleWebKit/537.36 (KHTML, like Gecko) Chrome/138.0.0.0 Safari/537.36","WebKit","Chrome","138.0.0.0","Windows","10.0","https://app.prolific.com/","en-US,en;q=0.9","6785052a054e7c96c09f69cd","6877631c9844ddd5501205fc","6889d9881ec11170df0b876c","3","1","6785052a054e7c96c09f69cd","3","1","2025-07-30T08:58:45.179Z","","","","","","","","","","","StressQ","","50","","","","","","","","","","","","","","","","","","","","","","","","","","","","",""
"1970","","<div style=""width:500px;"">
  <p>What best describes how you currently feel?</p>
  </div>","0","html-slider-response","58","1309557","0.0-5.0-4.9","250","1","2025-07-30 08:36:56","1f75c3e559b7213887762d5229550c2b","41.150.225.195","Mozilla/5.0 (Windows NT 10.0; Win64; x64) AppleWebKit/537.36 (KHTML, like Gecko) Chrome/138.0.0.0 Safari/537.36","WebKit","Chrome","138.0.0.0","Windows","10.0","https://app.prolific.com/","en-US,en;q=0.9","6785052a054e7c96c09f69cd","6877631c9844ddd5501205fc","6889d9881ec11170df0b876c","3","1","6785052a054e7c96c09f69cd","3","1","2025-07-30T08:58:47.150Z","","","","","","","","","","","MotivationQ","","50","","","","","","","","","","","","","","","","","","","","","","","","","","","","",""
"","","","","ctl-task-cpt","59","1358003","0.0-5.0-0.10","250","1","2025-07-30 08:36:56","1f75c3e559b7213887762d5229550c2b","41.150.225.195","Mozilla/5.0 (Windows NT 10.0; Win64; x64) AppleWebKit/537.36 (KHTML, like Gecko) Chrome/138.0.0.0 Safari/537.36","WebKit","Chrome","138.0.0.0","Windows","10.0","https://app.prolific.com/","en-US,en;q=0.9","6785052a054e7c96c09f69cd","6877631c9844ddd5501205fc","6889d9881ec11170df0b876c","3","1","6785052a054e7c96c09f69cd","3","1","2025-07-30T08:59:35.596Z","","","","","","","","","","","","","","win-only","1","g1:NE,g2:SW","0.5","11","0","1313609.9","2132.5","7137.6","45432.8","1","4","8","6","2","-8","-8","0","0","0","1555","3000","-1420","[""down"",""left""]","{""num_key_presses"":8,""num_perfect"":4,""num_errors"":0,""num_randdir"":4,""num_randdir_good_moves"":2,""num_whilered"":0,""num_whileblue"":0,""num_blue"":4,""num_good_moves"":6}","[335.4642857142857,331.0736597606114,0.1,335.4642857142857,331.0736597606114,109.7,335.4642857142857,331.0736597606114,217.5,335.4642857142857,331.0736597606114,321.5,335.4642857142857,331.0736597606114,424,335.4642857142857,331.0736597606114,539.3,335.4642857142857,331.0736597606114,640.9,335.4642857142857,331.0736597606114,748.1,267.9642857142857,458.5736597606114,852.6,165.96428571428572,584.5736597606113,955,149.46428571428572,601.0736597606113,1062.9,131.46428571428572,611.5736597606113,1174,104.46428571428572,608.5736597606113,1274.9,80.46428571428572,608.5736597606113,1383.8,77.46428571428572,608.5736597606113,1493.1,77.46428571428572,608.5736597606113,1594.9,77.46428571428572,608.5736597606113,1700.5,77.46428571428572,608.5736597606113,1803,77.46428571428572,608.5736597606113,1903.7,77.46428571428572,608.5736597606113,2003.9,-56.035714285714285,551.5736597606113,2105,-80.03571428571428,538.0736597606113,2208.6,-78.53571428571428,491.5736597606114,2309.4,-63.535714285714285,433.0736597606114,2409.5,-63.535714285714285,428.5736597606114,2522.5,-63.535714285714285,428.5736597606114,2624,-63.535714285714285,428.5736597606114,2729.6,-63.535714285714285,428.5736597606114,2834.3,-63.535714285714285,428.5736597606114,2934.6,-63.535714285714285,428.5736597606114,3038.4,-63.535714285714285,428.5736597606114,3154.3,-63.535714285714285,428.5736597606114,3254.4,-63.535714285714285,428.5736597606114,3358.5,-63.535714285714285,428.5736597606114,3465.4,-63.535714285714285,428.5736597606114,3568.8,-63.535714285714285,428.5736597606114,3669.1,-63.535714285714285,428.5736597606114,3769.9,-63.535714285714285,428.5736597606114,3870.5,-63.535714285714285,428.5736597606114,3970.7,-63.535714285714285,428.5736597606114,4073.7,-63.535714285714285,428.5736597606114,4173.7,-63.535714285714285,428.5736597606114,4274,-63.535714285714285,428.5736597606114,4387.8,-63.535714285714285,428.5736597606114,4489.1,-63.535714285714285,428.5736597606114,4593.4,-63.535714285714285,428.5736597606114,4703.1,-63.535714285714285,428.5736597606114,4804.1,-63.535714285714285,428.5736597606114,4905.6]","[1590.8,1590.8,1000,0,590.8,""smooth"",""down"",""down"",""good_move"",4626.8,3035.7,2557,1591.1,478.7,""oops"",""left"",""up"",""bad_move"",7933.6,3306.2,2225,4627.5,1081.1,""smooth"",""left"",""left"",""good_move"",11293.3,3359.2,2913.2,7934.1,446,""smooth"",""down"",""down"",""good_move"",14118.7,2825.1,2395.1,11293.6,430,""smooth"",""left"",""left"",""good_move"",30511.2,16392.3,2131.2,27914.6,465.4,""oops"",""down"",""left"",""good_move"",33991.9,3480.3,2738.9,30511.6,741.4,""oops"",""down"",""down"",""good_move"",36464.5,2472.4,2080.1,33992.1,392.3,""oops"",""down"",""up"",""bad_move""]","",""
"48879","","<div style=""width:500px;"">
  <p>What determined the result of this run?</p>
  </div>","0","html-slider-response","60","1406883","0.0-5.0-1.10","250","1","2025-07-30 08:36:56","1f75c3e559b7213887762d5229550c2b","41.150.225.195","Mozilla/5.0 (Windows NT 10.0; Win64; x64) AppleWebKit/537.36 (KHTML, like Gecko) Chrome/138.0.0.0 Safari/537.36","WebKit","Chrome","138.0.0.0","Windows","10.0","https://app.prolific.com/","en-US,en;q=0.9","6785052a054e7c96c09f69cd","6877631c9844ddd5501205fc","6889d9881ec11170df0b876c","3","1","6785052a054e7c96c09f69cd","3","1","2025-07-30T09:00:24.476Z","","","","","","","","","","","AttribQ","","50","","","","","","","","","","","","","","","","","","","","","","","","","","","","",""
"6025","","<div style=""width:500px;"">
  <p>How much control did you have over the ball?</p>
  </div>","0","html-slider-response","61","1412911","0.0-5.0-2.10","250","1","2025-07-30 08:36:56","1f75c3e559b7213887762d5229550c2b","41.150.225.195","Mozilla/5.0 (Windows NT 10.0; Win64; x64) AppleWebKit/537.36 (KHTML, like Gecko) Chrome/138.0.0.0 Safari/537.36","WebKit","Chrome","138.0.0.0","Windows","10.0","https://app.prolific.com/","en-US,en;q=0.9","6785052a054e7c96c09f69cd","6877631c9844ddd5501205fc","6889d9881ec11170df0b876c","3","1","6785052a054e7c96c09f69cd","3","1","2025-07-30T09:00:30.504Z","","","","","","","","","","","ControlQ","","50","","","","","","","","","","","","","","","","","","","","","","","","","","","","",""
"4152","","<div style=""width:500px;"">
  <p>How would you describe your current emotional state?</p>
  </div>","100","html-slider-response","62","1417067","0.0-5.0-3.10","250","1","2025-07-30 08:36:56","1f75c3e559b7213887762d5229550c2b","41.150.225.195","Mozilla/5.0 (Windows NT 10.0; Win64; x64) AppleWebKit/537.36 (KHTML, like Gecko) Chrome/138.0.0.0 Safari/537.36","WebKit","Chrome","138.0.0.0","Windows","10.0","https://app.prolific.com/","en-US,en;q=0.9","6785052a054e7c96c09f69cd","6877631c9844ddd5501205fc","6889d9881ec11170df0b876c","3","1","6785052a054e7c96c09f69cd","3","1","2025-07-30T09:00:34.661Z","","","","","","","","","","","StressQ","","50","","","","","","","","","","","","","","","","","","","","","","","","","","","","",""
"3239","","<div style=""width:500px;"">
  <p>What best describes how you currently feel?</p>
  </div>","0","html-slider-response","63","1420313","0.0-5.0-4.10","250","1","2025-07-30 08:36:56","1f75c3e559b7213887762d5229550c2b","41.150.225.195","Mozilla/5.0 (Windows NT 10.0; Win64; x64) AppleWebKit/537.36 (KHTML, like Gecko) Chrome/138.0.0.0 Safari/537.36","WebKit","Chrome","138.0.0.0","Windows","10.0","https://app.prolific.com/","en-US,en;q=0.9","6785052a054e7c96c09f69cd","6877631c9844ddd5501205fc","6889d9881ec11170df0b876c","3","1","6785052a054e7c96c09f69cd","3","1","2025-07-30T09:00:37.906Z","","","","","","","","","","","MotivationQ","","50","","","","","","","","","","","","","","","","","","","","","","","","","","","","",""
"","","","","ctl-task-cpt","64","1454108","0.0-5.0-0.11","250","1","2025-07-30 08:36:56","1f75c3e559b7213887762d5229550c2b","41.150.225.195","Mozilla/5.0 (Windows NT 10.0; Win64; x64) AppleWebKit/537.36 (KHTML, like Gecko) Chrome/138.0.0.0 Safari/537.36","WebKit","Chrome","138.0.0.0","Windows","10.0","https://app.prolific.com/","en-US,en;q=0.9","6785052a054e7c96c09f69cd","6877631c9844ddd5501205fc","6889d9881ec11170df0b876c","3","1","6785052a054e7c96c09f69cd","3","1","2025-07-30T09:01:11.701Z","","","","","","","","","","","","","","win-only","3","g1:SW,g2:NE","0.6","12","0","1424366","8601.7","13604.1","30766.3","1","4","4","6","1","1","1","1","0","0.007575757575757576","2064.7","3000","1075","[""down"",""left""]","{""num_key_presses"":6,""num_perfect"":4,""num_errors"":0,""num_randdir"":2,""num_randdir_good_moves"":1,""num_whilered"":0,""num_whileblue"":0,""num_blue"":0,""num_good_moves"":5}","[333.9642857142857,337.0736597606114,0.3,333.9642857142857,337.0736597606114,107.6,333.9642857142857,337.0736597606114,237.8,333.9642857142857,337.0736597606114,343.5,333.9642857142857,337.0736597606114,463.5,333.9642857142857,337.0736597606114,579.2,342.9642857142857,323.5736597606114,694,458.4642857142857,178.0736597606114,804.7,488.4642857142857,134.5736597606114,907.3,509.4642857142857,107.5736597606114,1010,518.4642857142857,89.5736597606114,1119.3,516.9642857142857,94.0736597606114,1224.6,407.4642857142857,320.5736597606114,1338.8,293.4642857142857,494.5736597606114,1469.5,143.46428571428572,650.5736597606113,1574.3,38.464285714285715,694.0736597606113,1677.3,38.464285714285715,686.5736597606113,1778.2,77.46428571428572,617.5736597606113,1880.2,89.46428571428572,604.0736597606113,1984.4,89.46428571428572,602.5736597606113,2085.5,89.46428571428572,602.5736597606113,2185.5,89.46428571428572,602.5736597606113,2285.9,89.46428571428572,601.0736597606113,2388.5,-33.535714285714285,569.5736597606113,2504.6,-114.53571428571428,538.0736597606113,2610.8,-153.53571428571428,518.5736597606113,2712.4,-153.53571428571428,517.0736597606113,2821.2,-153.53571428571428,517.0736597606113,2929.1,-153.53571428571428,517.0736597606113,3040.1,-153.53571428571428,517.0736597606113,3144.2,-153.53571428571428,517.0736597606113,3257.9,-153.53571428571428,517.0736597606113,3365.8,-153.53571428571428,517.0736597606113,3467.1,-153.53571428571428,517.0736597606113,3572.3,-153.53571428571428,517.0736597606113,3675.3,-153.53571428571428,517.0736597606113,3785.7,-153.53571428571428,517.0736597606113,3889.9,-153.53571428571428,517.0736597606113,4001.5,-153.53571428571428,517.0736597606113,4119.8,-153.53571428571428,517.0736597606113,4229.3,-153.53571428571428,515.5736597606113,4334.1,-153.53571428571428,515.5736597606113,4442.4,-153.53571428571428,515.5736597606113,4550.6,-153.53571428571428,515.5736597606113,4653,-153.53571428571428,515.5736597606113,4754.4,-153.53571428571428,515.5736597606113,4855,-153.53571428571428,515.5736597606113,4959.6]","[1610.4,1610.4,1000,0,610.4,""smooth"",""left"",""left"",""good_move"",3929.5,2318.6,1646.8,1610.9,671.8,""oops"",""down"",""left"",""good_move"",7126.2,3196.4,2749.3,3929.8,447.1,""smooth"",""down"",""down"",""good_move"",10748.8,3622.1,3123.6,7126.7,498.5,""oops"",""down"",""right"",""bad_move"",14096.5,3347.3,2909.3,10749.2,438,""smooth"",""down"",""down"",""good_move"",17025.6,2928.8,2481.8,14096.8,447,""smooth"",""left"",""left"",""good_move""]","",""
"9973","","<div style=""width:500px;"">
  <p>What determined the result of this run?</p>
  </div>","67","html-slider-response","65","1464083","0.0-5.0-1.11","250","1","2025-07-30 08:36:56","1f75c3e559b7213887762d5229550c2b","41.150.225.195","Mozilla/5.0 (Windows NT 10.0; Win64; x64) AppleWebKit/537.36 (KHTML, like Gecko) Chrome/138.0.0.0 Safari/537.36","WebKit","Chrome","138.0.0.0","Windows","10.0","https://app.prolific.com/","en-US,en;q=0.9","6785052a054e7c96c09f69cd","6877631c9844ddd5501205fc","6889d9881ec11170df0b876c","3","1","6785052a054e7c96c09f69cd","3","1","2025-07-30T09:01:21.677Z","","","","","","","","","","","AttribQ","","50","","","","","","","","","","","","","","","","","","","","","","","","","","","","",""
"5687","","<div style=""width:500px;"">
  <p>How much control did you have over the ball?</p>
  </div>","65","html-slider-response","66","1469773","0.0-5.0-2.11","250","1","2025-07-30 08:36:56","1f75c3e559b7213887762d5229550c2b","41.150.225.195","Mozilla/5.0 (Windows NT 10.0; Win64; x64) AppleWebKit/537.36 (KHTML, like Gecko) Chrome/138.0.0.0 Safari/537.36","WebKit","Chrome","138.0.0.0","Windows","10.0","https://app.prolific.com/","en-US,en;q=0.9","6785052a054e7c96c09f69cd","6877631c9844ddd5501205fc","6889d9881ec11170df0b876c","3","1","6785052a054e7c96c09f69cd","3","1","2025-07-30T09:01:27.366Z","","","","","","","","","","","ControlQ","","50","","","","","","","","","","","","","","","","","","","","","","","","","","","","",""
"4086","","<div style=""width:500px;"">
  <p>How would you describe your current emotional state?</p>
  </div>","100","html-slider-response","67","1473861","0.0-5.0-3.11","250","1","2025-07-30 08:36:56","1f75c3e559b7213887762d5229550c2b","41.150.225.195","Mozilla/5.0 (Windows NT 10.0; Win64; x64) AppleWebKit/537.36 (KHTML, like Gecko) Chrome/138.0.0.0 Safari/537.36","WebKit","Chrome","138.0.0.0","Windows","10.0","https://app.prolific.com/","en-US,en;q=0.9","6785052a054e7c96c09f69cd","6877631c9844ddd5501205fc","6889d9881ec11170df0b876c","3","1","6785052a054e7c96c09f69cd","3","1","2025-07-30T09:01:31.454Z","","","","","","","","","","","StressQ","","50","","","","","","","","","","","","","","","","","","","","","","","","","","","","",""
"2301","","<div style=""width:500px;"">
  <p>What best describes how you currently feel?</p>
  </div>","0","html-slider-response","68","1476163","0.0-5.0-4.11","250","1","2025-07-30 08:36:56","1f75c3e559b7213887762d5229550c2b","41.150.225.195","Mozilla/5.0 (Windows NT 10.0; Win64; x64) AppleWebKit/537.36 (KHTML, like Gecko) Chrome/138.0.0.0 Safari/537.36","WebKit","Chrome","138.0.0.0","Windows","10.0","https://app.prolific.com/","en-US,en;q=0.9","6785052a054e7c96c09f69cd","6877631c9844ddd5501205fc","6889d9881ec11170df0b876c","3","1","6785052a054e7c96c09f69cd","3","1","2025-07-30T09:01:33.756Z","","","","","","","","","","","MotivationQ","","50","","","","","","","","","","","","","","","","","","","","","","","","","","","","",""
"","","","","ctl-task-cpt","69","1520250","0.0-5.0-0.12","250","1","2025-07-30 08:36:56","1f75c3e559b7213887762d5229550c2b","41.150.225.195","Mozilla/5.0 (Windows NT 10.0; Win64; x64) AppleWebKit/537.36 (KHTML, like Gecko) Chrome/138.0.0.0 Safari/537.36","WebKit","Chrome","138.0.0.0","Windows","10.0","https://app.prolific.com/","en-US,en;q=0.9","6785052a054e7c96c09f69cd","6877631c9844ddd5501205fc","6889d9881ec11170df0b876c","3","1","6785052a054e7c96c09f69cd","3","1","2025-07-30T09:02:17.843Z","","","","","","","","","","","","","","win-only","2","g1:SE,g2:NW","0.7","13","0","1480218.2","4739.3","9753.1","41057","1","4","4","6","2","-4","-4","0","1","0","1797.7","3000","-1895","[""left"",""up""]","{""num_key_presses"":10,""num_perfect"":7,""num_errors"":0,""num_randdir"":3,""num_randdir_good_moves"":0,""num_whilered"":0,""num_whileblue"":0,""num_blue"":1,""num_good_moves"":7}","[338.4642857142857,335.5736597606114,0.2,338.4642857142857,335.5736597606114,118.6,338.4642857142857,335.5736597606114,221.5,338.4642857142857,335.5736597606114,322.4,338.4642857142857,335.5736597606114,428.4,338.4642857142857,335.5736597606114,534.6,338.4642857142857,335.5736597606114,637.2,338.4642857142857,335.5736597606114,738.2,338.4642857142857,335.5736597606114,856.5,338.4642857142857,335.5736597606114,957.8,284.4642857142857,290.5736597606114,1063.4,20.464285714285715,152.5736597606114,1177.5,-15.535714285714285,128.5736597606114,1289.4,-11.035714285714285,110.5736597606114,1393.7,14.464285714285715,85.0736597606114,1503.3,29.464285714285715,70.0736597606114,1606.9,95.46428571428572,50.5736597606114,1714.1,95.46428571428572,50.5736597606114,1820.6,95.46428571428572,50.5736597606114,1921.2,95.46428571428572,50.5736597606114,2023.8,95.46428571428572,50.5736597606114,2132.2,14.464285714285715,197.5736597606114,2256.7,-66.53571428571428,278.5736597606114,2368.2,-114.53571428571428,290.5736597606114,2472,-114.53571428571428,290.5736597606114,2577.3,-114.53571428571428,289.0736597606114,2677.6,-114.53571428571428,289.0736597606114,2786.1,-114.53571428571428,289.0736597606114,2908.1,-114.53571428571428,289.0736597606114,3030.5,-114.53571428571428,289.0736597606114,3155.4,-114.53571428571428,289.0736597606114,3279.9,-114.53571428571428,289.0736597606114,3380.5,-114.53571428571428,289.0736597606114,3483.7,-114.53571428571428,289.0736597606114,3597.5,-114.53571428571428,289.0736597606114,3700,-114.53571428571428,289.0736597606114,3811.7,-114.53571428571428,289.0736597606114,3934.8,-114.53571428571428,289.0736597606114,4035,-114.53571428571428,289.0736597606114,4137,-114.53571428571428,289.0736597606114,4267.3,-114.53571428571428,289.0736597606114,4367.9,-114.53571428571428,289.0736597606114,4468,-114.53571428571428,289.0736597606114,4573.7,-114.53571428571428,289.0736597606114,4695.1,-114.53571428571428,289.0736597606114,4806.1,-114.53571428571428,289.0736597606114,4910.3]","[1531.6,1531.6,1000,0,531.6,""smooth"",""up"",""up"",""good_move"",3948.2,2416.1,1864.9,1532.1,551.2,""smooth"",""left"",""left"",""good_move"",5926,1977.5,1524.8,3948.5,452.7,""oops"",""up"",""down"",""bad_move"",8963.8,3037.3,2537.5,5926.5,499.8,""oops"",""left"",""right"",""bad_move"",14682.9,5718.7,2256.6,11975.6,450.7,""smooth"",""up"",""up"",""good_move"",17772.8,3089.6,2491.3,14683.2,598.3,""smooth"",""up"",""up"",""good_move"",19763.4,1990.5,1567.2,17773,423.3,""smooth"",""left"",""left"",""good_move"",22238,2473.8,2096,19764.2,377.9,""oops"",""left"",""down"",""bad_move"",25370.7,3132.3,2695.8,22238.4,436.5,""smooth"",""left"",""left"",""good_move"",28893.5,3522.5,3043.2,25371,479.3,""smooth"",""up"",""up"",""good_move""]","",""
"3641","","<div style=""width:500px;"">
  <p>What determined the result of this run?</p>
  </div>","0","html-slider-response","70","1523894","0.0-5.0-1.12","250","1","2025-07-30 08:36:56","1f75c3e559b7213887762d5229550c2b","41.150.225.195","Mozilla/5.0 (Windows NT 10.0; Win64; x64) AppleWebKit/537.36 (KHTML, like Gecko) Chrome/138.0.0.0 Safari/537.36","WebKit","Chrome","138.0.0.0","Windows","10.0","https://app.prolific.com/","en-US,en;q=0.9","6785052a054e7c96c09f69cd","6877631c9844ddd5501205fc","6889d9881ec11170df0b876c","3","1","6785052a054e7c96c09f69cd","3","1","2025-07-30T09:02:21.487Z","","","","","","","","","","","AttribQ","","50","","","","","","","","","","","","","","","","","","","","","","","","","","","","",""
"2738","","<div style=""width:500px;"">
  <p>How much control did you have over the ball?</p>
  </div>","0","html-slider-response","71","1526634","0.0-5.0-2.12","250","1","2025-07-30 08:36:56","1f75c3e559b7213887762d5229550c2b","41.150.225.195","Mozilla/5.0 (Windows NT 10.0; Win64; x64) AppleWebKit/537.36 (KHTML, like Gecko) Chrome/138.0.0.0 Safari/537.36","WebKit","Chrome","138.0.0.0","Windows","10.0","https://app.prolific.com/","en-US,en;q=0.9","6785052a054e7c96c09f69cd","6877631c9844ddd5501205fc","6889d9881ec11170df0b876c","3","1","6785052a054e7c96c09f69cd","3","1","2025-07-30T09:02:24.228Z","","","","","","","","","","","ControlQ","","50","","","","","","","","","","","","","","","","","","","","","","","","","","","","",""
"3716","","<div style=""width:500px;"">
  <p>How would you describe your current emotional state?</p>
  </div>","100","html-slider-response","72","1530356","0.0-5.0-3.12","250","1","2025-07-30 08:36:56","1f75c3e559b7213887762d5229550c2b","41.150.225.195","Mozilla/5.0 (Windows NT 10.0; Win64; x64) AppleWebKit/537.36 (KHTML, like Gecko) Chrome/138.0.0.0 Safari/537.36","WebKit","Chrome","138.0.0.0","Windows","10.0","https://app.prolific.com/","en-US,en;q=0.9","6785052a054e7c96c09f69cd","6877631c9844ddd5501205fc","6889d9881ec11170df0b876c","3","1","6785052a054e7c96c09f69cd","3","1","2025-07-30T09:02:27.950Z","","","","","","","","","","","StressQ","","50","","","","","","","","","","","","","","","","","","","","","","","","","","","","",""
"3078","","<div style=""width:500px;"">
  <p>What best describes how you currently feel?</p>
  </div>","0","html-slider-response","73","1533436","0.0-5.0-4.12","250","1","2025-07-30 08:36:56","1f75c3e559b7213887762d5229550c2b","41.150.225.195","Mozilla/5.0 (Windows NT 10.0; Win64; x64) AppleWebKit/537.36 (KHTML, like Gecko) Chrome/138.0.0.0 Safari/537.36","WebKit","Chrome","138.0.0.0","Windows","10.0","https://app.prolific.com/","en-US,en;q=0.9","6785052a054e7c96c09f69cd","6877631c9844ddd5501205fc","6889d9881ec11170df0b876c","3","1","6785052a054e7c96c09f69cd","3","1","2025-07-30T09:02:31.030Z","","","","","","","","","","","MotivationQ","","50","","","","","","","","","","","","","","","","","","","","","","","","","","","","",""
"","","","","ctl-task-cpt","74","1572557","0.0-5.0-0.13","250","1","2025-07-30 08:36:56","1f75c3e559b7213887762d5229550c2b","41.150.225.195","Mozilla/5.0 (Windows NT 10.0; Win64; x64) AppleWebKit/537.36 (KHTML, like Gecko) Chrome/138.0.0.0 Safari/537.36","WebKit","Chrome","138.0.0.0","Windows","10.0","https://app.prolific.com/","en-US,en;q=0.9","6785052a054e7c96c09f69cd","6877631c9844ddd5501205fc","6889d9881ec11170df0b876c","3","1","6785052a054e7c96c09f69cd","3","1","2025-07-30T09:03:10.150Z","","","","","","","","","","","","","","win-only","1","g1:NE,g2:SW","0.8","14","0","1537495.5","3267.6","8273.3","36085.9","1","4","8","6","2","8","8","8","0","0.06060606060606061","5005.7","3000","385","[""down"",""left""]","{""num_key_presses"":8,""num_perfect"":6,""num_errors"":0,""num_randdir"":2,""num_randdir_good_moves"":1,""num_whilered"":0,""num_whileblue"":0,""num_blue"":2,""num_good_moves"":7}","[333.9642857142857,335.5736597606114,0.3,333.9642857142857,332.5736597606114,118.4,333.9642857142857,332.5736597606114,219,333.9642857142857,332.5736597606114,329.4,333.9642857142857,332.5736597606114,433.7,333.9642857142857,332.5736597606114,539.6,333.9642857142857,332.5736597606114,642.8,333.9642857142857,332.5736597606114,746.5,333.9642857142857,332.5736597606114,848.7,333.9642857142857,332.5736597606114,949,333.9642857142857,332.5736597606114,1057.4,333.9642857142857,332.5736597606114,1159.1,333.9642857142857,332.5736597606114,1275.7,333.9642857142857,332.5736597606114,1379,333.9642857142857,332.5736597606114,1479,333.9642857142857,332.5736597606114,1579.6,333.9642857142857,332.5736597606114,1685.5,333.9642857142857,332.5736597606114,1788.8,333.9642857142857,332.5736597606114,1905.9,333.9642857142857,332.5736597606114,2019,333.9642857142857,332.5736597606114,2125.2,333.9642857142857,332.5736597606114,2228.6,333.9642857142857,332.5736597606114,2329.6,333.9642857142857,332.5736597606114,2429.8,333.9642857142857,332.5736597606114,2534.5,333.9642857142857,332.5736597606114,2638.8,333.9642857142857,332.5736597606114,2755.5,333.9642857142857,332.5736597606114,2855.5,333.9642857142857,332.5736597606114,2957.2,333.9642857142857,332.5736597606114,3057.5,333.9642857142857,332.5736597606114,3158.9,333.9642857142857,332.5736597606114,3258.9,333.9642857142857,332.5736597606114,3363.8,333.9642857142857,332.5736597606114,3468,333.9642857142857,332.5736597606114,3572.9,333.9642857142857,332.5736597606114,3674.5,333.9642857142857,332.5736597606114,3774.9,333.9642857142857,332.5736597606114,3879.7,333.9642857142857,332.5736597606114,3981.7,333.9642857142857,332.5736597606114,4084.1,333.9642857142857,332.5736597606114,4188.2,333.9642857142857,332.5736597606114,4306.5,333.9642857142857,332.5736597606114,4408,333.9642857142857,332.5736597606114,4515.3,333.9642857142857,332.5736597606114,4622,333.9642857142857,332.5736597606114,4724.5,333.9642857142857,332.5736597606114,4839.3,333.9642857142857,332.5736597606114,4943.3]","[4994.9,4994.9,2419.3,2015.6,560,""oops"",""down"",""down"",""good_move"",8098.6,3103.3,2615.4,4995.3,487.9,""smooth"",""left"",""left"",""good_move"",10830,2730.9,1734.1,8099.1,996.8,""smooth"",""down"",""down"",""good_move"",14141,3310.7,2843.3,10830.3,467.4,""smooth"",""left"",""left"",""good_move"",16750.4,2609.2,2050.5,14141.2,558.7,""smooth"",""down"",""down"",""good_move"",19382,2631.4,2207.2,16750.6,424.2,""oops"",""left"",""right"",""bad_move"",25295.4,5912.9,1760.1,23038.5,496.8,""smooth"",""left"",""left"",""good_move"",27666.9,2371.3,1874.3,25295.6,497,""smooth"",""left"",""left"",""good_move""]","",""
"10421","","<div style=""width:500px;"">
  <p>What determined the result of this run?</p>
  </div>","50","html-slider-response","75","1582982","0.0-5.0-1.13","250","1","2025-07-30 08:36:56","1f75c3e559b7213887762d5229550c2b","41.150.225.195","Mozilla/5.0 (Windows NT 10.0; Win64; x64) AppleWebKit/537.36 (KHTML, like Gecko) Chrome/138.0.0.0 Safari/537.36","WebKit","Chrome","138.0.0.0","Windows","10.0","https://app.prolific.com/","en-US,en;q=0.9","6785052a054e7c96c09f69cd","6877631c9844ddd5501205fc","6889d9881ec11170df0b876c","3","1","6785052a054e7c96c09f69cd","3","1","2025-07-30T09:03:20.575Z","","","","","","","","","","","AttribQ","","50","","","","","","","","","","","","","","","","","","","","","","","","","","","","",""
"2870","","<div style=""width:500px;"">
  <p>How much control did you have over the ball?</p>
  </div>","50","html-slider-response","76","1585855","0.0-5.0-2.13","250","1","2025-07-30 08:36:56","1f75c3e559b7213887762d5229550c2b","41.150.225.195","Mozilla/5.0 (Windows NT 10.0; Win64; x64) AppleWebKit/537.36 (KHTML, like Gecko) Chrome/138.0.0.0 Safari/537.36","WebKit","Chrome","138.0.0.0","Windows","10.0","https://app.prolific.com/","en-US,en;q=0.9","6785052a054e7c96c09f69cd","6877631c9844ddd5501205fc","6889d9881ec11170df0b876c","3","1","6785052a054e7c96c09f69cd","3","1","2025-07-30T09:03:23.448Z","","","","","","","","","","","ControlQ","","50","","","","","","","","","","","","","","","","","","","","","","","","","","","","",""
"4694","","<div style=""width:500px;"">
  <p>How would you describe your current emotional state?</p>
  </div>","100","html-slider-response","77","1590551","0.0-5.0-3.13","250","1","2025-07-30 08:36:56","1f75c3e559b7213887762d5229550c2b","41.150.225.195","Mozilla/5.0 (Windows NT 10.0; Win64; x64) AppleWebKit/537.36 (KHTML, like Gecko) Chrome/138.0.0.0 Safari/537.36","WebKit","Chrome","138.0.0.0","Windows","10.0","https://app.prolific.com/","en-US,en;q=0.9","6785052a054e7c96c09f69cd","6877631c9844ddd5501205fc","6889d9881ec11170df0b876c","3","1","6785052a054e7c96c09f69cd","3","1","2025-07-30T09:03:28.145Z","","","","","","","","","","","StressQ","","50","","","","","","","","","","","","","","","","","","","","","","","","","","","","",""
"3003","","<div style=""width:500px;"">
  <p>What best describes how you currently feel?</p>
