"rt","response_timestamp","stimulus","response","trial_type","trial_index","time_elapsed","internal_node_id","run_id","condition","recorded_at","source_code_version","ip","user_agent","device","browser","browser_version","platform","platform_version","referer","accept_language","PROLIFIC_PID","STUDY_ID","SESSION_ID","WEEK","BATCH","prolific_id","week","batch","realtime","success","responses","item_order","radio_event_ids","radio_event_times","key_event_times","mouse_event_times","straightlining","zigzagging","honeypot","eventType","view_history","slider_start","which_type","canvas_config","goals_layout","control_level","trial_number","tutorial_trial_number","trial_start_time","phase1_start_time","phase2_start_time","phase3_start_time","goal_1_value","goal_1_distance","goal_2_value","goal_2_distance","goal_selected","outcome","outcome_total","participant_final_score","participant_initial_score","participant_final_score_prop","goal_choice_rt","allocated_time","allocated_time_remaining","goal_direction","counts","mouse_movements","key_presses","question_order","question_id"
"4472","1752681888328","<p style='font-size:40px;line-height:1.25'><strong>Welcome to the experiment!</strong></p><p style='font-size:1.1em;line-height:1.25'>Thank you for participanting in our experiment again! You will be asked to play the Dysfunctional Ball Game again. We will briefly recap the rules before we start.</p><p style='font-size:1.1em;line-height:1.25'>Press <strong>Next</strong> to continue.</p>","0","custom-html-button-response","0","4488","0.0-0.0","119","1","2025-07-16 16:04:39","1f75c3e559b7213887762d5229550c2b","41.144.1.125","Mozilla/5.0 (Windows NT 10.0; Win64; x64; rv:140.0) Gecko/20100101 Firefox/140.0","","Firefox","140.0","Windows","10.0","https://app.prolific.com/","en-US,en;q=0.5","669f76a7112b8713f104644c","686e379bc37a29ffa5cdc956","6877cd52ec1f42db46c7ba0e","1","1","669f76a7112b8713f104644c","1","1","2025-07-16T16:04:48.329Z","","","","","","","","","","","","","","","","","","","","","","","","","","","","","","","","","","","","","","","","","",""
"57545","","","","fullscreen","1","63155","0.0-1.0","119","1","2025-07-16 16:04:39","1f75c3e559b7213887762d5229550c2b","41.144.1.125","Mozilla/5.0 (Windows NT 10.0; Win64; x64; rv:140.0) Gecko/20100101 Firefox/140.0","","Firefox","140.0","Windows","10.0","https://app.prolific.com/","en-US,en;q=0.5","669f76a7112b8713f104644c","686e379bc37a29ffa5cdc956","6877cd52ec1f42db46c7ba0e","1","1","669f76a7112b8713f104644c","1","1","","true","","","","","","","","","","","","","","","","","","","","","","","","","","","","","","","","","","","","","","","","",""
"39861","1752681986870","<p style='font-size:1.1em;line-height:1.25'>In the following, we will ask you a few questions relating to your feelings in the last 24 hours.<br></p><p style='font-size:1.1em;line-height:1.25'>Press the <strong>Next</strong> button to continue.</p>","0","custom-html-button-response","2","103029","0.0-2.0-0.0","119","1","2025-07-16 16:04:39","1f75c3e559b7213887762d5229550c2b","41.144.1.125","Mozilla/5.0 (Windows NT 10.0; Win64; x64; rv:140.0) Gecko/20100101 Firefox/140.0","","Firefox","140.0","Windows","10.0","https://app.prolific.com/","en-US,en;q=0.5","669f76a7112b8713f104644c","686e379bc37a29ffa5cdc956","6877cd52ec1f42db46c7ba0e","1","1","669f76a7112b8713f104644c","1","1","2025-07-16T16:06:26.870Z","","","","","","","","","","","","","","","","","","","","","","","","","","","","","","","","","","","","","","","","","",""
"137880","","","","survey-template","3","240916","0.0-2.0-1.0","119","1","2025-07-16 16:04:39","1f75c3e559b7213887762d5229550c2b","41.144.1.125","Mozilla/5.0 (Windows NT 10.0; Win64; x64; rv:140.0) Gecko/20100101 Firefox/140.0","","Firefox","140.0","Windows","10.0","https://app.prolific.com/","en-US,en;q=0.5","669f76a7112b8713f104644c","686e379bc37a29ffa5cdc956","6877cd52ec1f42db46c7ba0e","1","1","669f76a7112b8713f104644c","1","1","2025-07-16T16:08:44.758Z","","{""Q01"":""2"",""Q02"":""1"",""Q03"":""1"",""Q04"":""1"",""Q05"":""2"",""Q06"":""3"",""Q07"":""3"",""Q08"":""1"",""Q09"":""2"",""Q10"":""2"",""Q11"":""1"",""Q12"":""4"",""Q13"":""5"",""Q14"":""4"",""Q15"":""4"",""Q16"":""4"",""Q17"":""3"",""Q18"":""3"",""Q19"":""0"",""Q20"":""2"",""Q21"":""0"",""Q22"":""3""}","[0,1,2,3,4,5,6,7,8,9,10,11,12,13,14,15,16,17,18,19,20,21]","[""Q01"",""Q02"",""Q03"",""Q04"",""Q05"",""Q06"",""Q07"",""Q08"",""Q09"",""Q10"",""Q10"",""Q11"",""Q12"",""Q13"",""Q14"",""Q14"",""Q15"",""Q16"",""Q17"",""Q18"",""Q19"",""Q20"",""Q21"",""Q22""]","[4562,15331,25532,27952,32215,46376,57479,59888,75687,77851,78185,85867,89627,94446,101328,102346,107988,111825,113267,116096,118692,128650,133133,135382]","[]","[0,4562,11749,12837,13026,13759,13942,14168,15331,25532,27952,30580,32215,46376,56387,57479,59035,59888,60837,74807,75687,77851,78185,85867,87961,89627,93306,94446,95233,101328,102346,107988,110820,111825,113267,115079,116096,117548,118692,120131,127164,128650,132213,133133,135382,137879]","0.22727272727272727","0.38095238095238093","0","drsp","","","","","","","","","","","","","","","","","","","","","","","","","","","","","","",""
"47942","","","","survey-template","4","288861","0.0-2.0-2.0","119","1","2025-07-16 16:04:39","1f75c3e559b7213887762d5229550c2b","41.144.1.125","Mozilla/5.0 (Windows NT 10.0; Win64; x64; rv:140.0) Gecko/20100101 Firefox/140.0","","Firefox","140.0","Windows","10.0","https://app.prolific.com/","en-US,en;q=0.5","669f76a7112b8713f104644c","686e379bc37a29ffa5cdc956","6877cd52ec1f42db46c7ba0e","1","1","669f76a7112b8713f104644c","1","1","2025-07-16T16:09:32.702Z","","{""Q01"":""3"",""Q02"":""4"",""Q03"":""3""}","[0,1,2]","[""Q01"",""Q02"",""Q03""]","[4494,35843,44585]","[]","[3522,4494,35843,43672,44585,47942]","0.6666666666666666","0","0","stress","","","","","","","","","","","","","","","","","","","","","","","","","","","","","","",""
"48356","","","","instructions","5","337219","0.0-3.0-0.0","119","1","2025-07-16 16:04:39","1f75c3e559b7213887762d5229550c2b","41.144.1.125","Mozilla/5.0 (Windows NT 10.0; Win64; x64; rv:140.0) Gecko/20100101 Firefox/140.0","","Firefox","140.0","Windows","10.0","https://app.prolific.com/","en-US,en;q=0.5","669f76a7112b8713f104644c","686e379bc37a29ffa5cdc956","6877cd52ec1f42db46c7ba0e","1","1","669f76a7112b8713f104644c","1","1","","","","","","","","","","","","","[{""page_index"":0,""viewing_time"":48356}]","","","","","","","","","","","","","","","","","","","","","","","","","","","","","",""
"10655","","<p>Before you start with this game please answer the following three questions yourself. </p>
  <p>Through this game, we measure several aspects of your cognitive performance, such as reaction times, multi-tasking capabilities </p>
  <p>and the ability to assess the situation you are in.</p>
  <p></p>
  <p><b>How good do you usually are in such tasks?</b></p>","81","html-slider-response","6","347874","0.0-4.0-0.0","119","1","2025-07-16 16:04:39","1f75c3e559b7213887762d5229550c2b","41.144.1.125","Mozilla/5.0 (Windows NT 10.0; Win64; x64; rv:140.0) Gecko/20100101 Firefox/140.0","","Firefox","140.0","Windows","10.0","https://app.prolific.com/","en-US,en;q=0.5","669f76a7112b8713f104644c","686e379bc37a29ffa5cdc956","6877cd52ec1f42db46c7ba0e","1","1","669f76a7112b8713f104644c","1","1","2025-07-16T16:10:31.715Z","","","","","","","","","","","PreSkillQ","","50","","","","","","","","","","","","","","","","","","","","","","","","","","","","",""
"3683","","<div style=""width:500px;"">
  <p>How well do you think you will perform in this task compared to other participants?</p>
  </div>","91","html-slider-response","7","351559","0.0-4.0-1.0","119","1","2025-07-16 16:04:39","1f75c3e559b7213887762d5229550c2b","41.144.1.125","Mozilla/5.0 (Windows NT 10.0; Win64; x64; rv:140.0) Gecko/20100101 Firefox/140.0","","Firefox","140.0","Windows","10.0","https://app.prolific.com/","en-US,en;q=0.5","669f76a7112b8713f104644c","686e379bc37a29ffa5cdc956","6877cd52ec1f42db46c7ba0e","1","1","669f76a7112b8713f104644c","1","1","2025-07-16T16:10:35.402Z","","","","","","","","","","","PrePerfQ","","50","","","","","","","","","","","","","","","","","","","","","","","","","","","","",""
"4785","","<div style=""width:500px;"">
  <p>What best describes how you currently feel?</p>
  </div>","91","html-slider-response","8","356347","0.0-4.0-2.0","119","1","2025-07-16 16:04:39","1f75c3e559b7213887762d5229550c2b","41.144.1.125","Mozilla/5.0 (Windows NT 10.0; Win64; x64; rv:140.0) Gecko/20100101 Firefox/140.0","","Firefox","140.0","Windows","10.0","https://app.prolific.com/","en-US,en;q=0.5","669f76a7112b8713f104644c","686e379bc37a29ffa5cdc956","6877cd52ec1f42db46c7ba0e","1","1","669f76a7112b8713f104644c","1","1","2025-07-16T16:10:40.188Z","","","","","","","","","","","PreMotivationQ","","50","","","","","","","","","","","","","","","","","","","","","","","","","","","","",""
"","","","","ctl-task-cpt","9","404301","0.0-5.0-0.0","119","1","2025-07-16 16:04:39","1f75c3e559b7213887762d5229550c2b","41.144.1.125","Mozilla/5.0 (Windows NT 10.0; Win64; x64; rv:140.0) Gecko/20100101 Firefox/140.0","","Firefox","140.0","Windows","10.0","https://app.prolific.com/","en-US,en;q=0.5","669f76a7112b8713f104644c","686e379bc37a29ffa5cdc956","6877cd52ec1f42db46c7ba0e","1","1","669f76a7112b8713f104644c","1","1","2025-07-16T16:11:28.142Z","","","","","","","","","","","","","","win-only","1","g1:NE,g2:SW","1","1","0","362667","17589","22591","44941","1","4","4","6","2","4","3","3","0","0.022727272727272728","5002","3000","1890","[""down"",""left""]","{""num_key_presses"":8,""num_perfect"":6,""num_errors"":1,""num_randdir"":0,""num_randdir_good_moves"":0,""num_whilered"":1,""num_whileblue"":0,""num_blue"":1,""num_good_moves"":6}","[297.22857753208706,300.92857448032925,1,297.22857753208706,300.92857448032925,110,297.22857753208706,300.92857448032925,218,297.22857753208706,300.92857448032925,330,297.22857753208706,300.92857448032925,443,297.22857753208706,300.92857448032925,548,297.22857753208706,300.92857448032925,659,297.22857753208706,300.92857448032925,773,297.22857753208706,300.92857448032925,892,297.22857753208706,300.92857448032925,1009,298.22857753208706,296.92857448032925,1111,326.22857753208706,267.92857448032925,1213,336.22857753208706,255.92857448032925,1323,345.22857753208706,248.92857448032925,1444,347.22857753208706,246.92857448032925,1558,347.22857753208706,246.92857448032925,1672,347.22857753208706,246.92857448032925,1772,347.22857753208706,246.92857448032925,1874,347.22857753208706,246.92857448032925,1976,347.22857753208706,246.92857448032925,2091,347.22857753208706,246.92857448032925,2192,347.22857753208706,246.92857448032925,2302,347.22857753208706,246.92857448032925,2407,347.22857753208706,246.92857448032925,2521,347.22857753208706,246.92857448032925,2621,347.22857753208706,246.92857448032925,2723,347.22857753208706,246.92857448032925,2840,347.22857753208706,246.92857448032925,2954,347.22857753208706,246.92857448032925,3058,347.22857753208706,246.92857448032925,3172,347.22857753208706,246.92857448032925,3282,347.22857753208706,246.92857448032925,3387,347.22857753208706,246.92857448032925,3490,347.22857753208706,246.92857448032925,3610,347.22857753208706,246.92857448032925,3711,347.22857753208706,246.92857448032925,3821,347.22857753208706,246.92857448032925,3939,347.22857753208706,246.92857448032925,4052,347.22857753208706,246.92857448032925,4152,347.22857753208706,246.92857448032925,4254,347.22857753208706,246.92857448032925,4361,347.22857753208706,246.92857448032925,4469,347.22857753208706,246.92857448032925,4571,347.22857753208706,246.92857448032925,4685,347.22857753208706,246.92857448032925,4786,347.22857753208706,246.92857448032925,4890]","[2121,2121,1000,0,1121,""smooth"",""left"",""left"",""good_move"",2368,246,2523.1,2122,-2277.1,""error"",""-"",""-"",""no_move"",2542,174,2523.1,2122,-2102.1,""while_red"",""-"",""-"",""no_move"",6336,3968,2484.7,3388,463.3,""smooth"",""left"",""left"",""good_move"",9347,3010,2476.2,6338,532.8,""smooth"",""left"",""left"",""good_move"",16190,6842,2596.1,13087,506.9,""smooth"",""down"",""down"",""good_move"",19504,3313,2894.3,16191,418.7,""smooth"",""down"",""down"",""good_move"",22089,2584,2110.9,19505,473.1,""smooth"",""down"",""down"",""good_move""]","",""
"4241","","<div style=""width:500px;"">
  <p>What determined the result of this run?</p>
  </div>","92","html-slider-response","10","408546","0.0-5.0-1.0","119","1","2025-07-16 16:04:39","1f75c3e559b7213887762d5229550c2b","41.144.1.125","Mozilla/5.0 (Windows NT 10.0; Win64; x64; rv:140.0) Gecko/20100101 Firefox/140.0","","Firefox","140.0","Windows","10.0","https://app.prolific.com/","en-US,en;q=0.5","669f76a7112b8713f104644c","686e379bc37a29ffa5cdc956","6877cd52ec1f42db46c7ba0e","1","1","669f76a7112b8713f104644c","1","1","2025-07-16T16:11:32.387Z","","","","","","","","","","","AttribQ","","50","","","","","","","","","","","","","","","","","","","","","","","","","","","","",""
"3212","","<div style=""width:500px;"">
  <p>How much control did you have over the ball?</p>
  </div>","93","html-slider-response","11","411758","0.0-5.0-2.0","119","1","2025-07-16 16:04:39","1f75c3e559b7213887762d5229550c2b","41.144.1.125","Mozilla/5.0 (Windows NT 10.0; Win64; x64; rv:140.0) Gecko/20100101 Firefox/140.0","","Firefox","140.0","Windows","10.0","https://app.prolific.com/","en-US,en;q=0.5","669f76a7112b8713f104644c","686e379bc37a29ffa5cdc956","6877cd52ec1f42db46c7ba0e","1","1","669f76a7112b8713f104644c","1","1","2025-07-16T16:11:35.599Z","","","","","","","","","","","ControlQ","","50","","","","","","","","","","","","","","","","","","","","","","","","","","","","",""
"6307","","<div style=""width:500px;"">
  <p>How would you describe your current emotional state?</p>
  </div>","8","html-slider-response","12","418067","0.0-5.0-3.0","119","1","2025-07-16 16:04:39","1f75c3e559b7213887762d5229550c2b","41.144.1.125","Mozilla/5.0 (Windows NT 10.0; Win64; x64; rv:140.0) Gecko/20100101 Firefox/140.0","","Firefox","140.0","Windows","10.0","https://app.prolific.com/","en-US,en;q=0.5","669f76a7112b8713f104644c","686e379bc37a29ffa5cdc956","6877cd52ec1f42db46c7ba0e","1","1","669f76a7112b8713f104644c","1","1","2025-07-16T16:11:41.908Z","","","","","","","","","","","StressQ","","50","","","","","","","","","","","","","","","","","","","","","","","","","","","","",""
"4370","","<div style=""width:500px;"">
  <p>What best describes how you currently feel?</p>
  </div>","89","html-slider-response","13","422437","0.0-5.0-4.0","119","1","2025-07-16 16:04:39","1f75c3e559b7213887762d5229550c2b","41.144.1.125","Mozilla/5.0 (Windows NT 10.0; Win64; x64; rv:140.0) Gecko/20100101 Firefox/140.0","","Firefox","140.0","Windows","10.0","https://app.prolific.com/","en-US,en;q=0.5","669f76a7112b8713f104644c","686e379bc37a29ffa5cdc956","6877cd52ec1f42db46c7ba0e","1","1","669f76a7112b8713f104644c","1","1","2025-07-16T16:11:46.278Z","","","","","","","","","","","MotivationQ","","50","","","","","","","","","","","","","","","","","","","","","","","","","","","","",""
"","","","","ctl-task-cpt","14","462532","0.0-5.0-0.1","119","1","2025-07-16 16:04:39","1f75c3e559b7213887762d5229550c2b","41.144.1.125","Mozilla/5.0 (Windows NT 10.0; Win64; x64; rv:140.0) Gecko/20100101 Firefox/140.0","","Firefox","140.0","Windows","10.0","https://app.prolific.com/","en-US,en;q=0.5","669f76a7112b8713f104644c","686e379bc37a29ffa5cdc956","6877cd52ec1f42db46c7ba0e","1","1","669f76a7112b8713f104644c","1","1","2025-07-16T16:12:26.374Z","","","","","","","","","","","","","","win-only","2","g1:SE,g2:NW","0.9","2","0","428756","4742","9755","37088","1","4","8","6","2","8","7","10","3","0.07575757575757576","2059","3000","2005","[""left"",""up""]","{""num_key_presses"":7,""num_perfect"":6,""num_errors"":1,""num_randdir"":0,""num_randdir_good_moves"":0,""num_whilered"":0,""num_whileblue"":0,""num_blue"":2,""num_good_moves"":6}","[294.22857753208706,298.92857448032925,0,294.22857753208706,298.92857448032925,110,294.22857753208706,298.92857448032925,220,294.22857753208706,298.92857448032925,335,294.22857753208706,298.92857448032925,449,294.22857753208706,298.92857448032925,569,294.22857753208706,298.92857448032925,682,312.22857753208706,311.92857448032925,788,120.22857753208706,147.92857448032925,895,111.22857753208706,125.92857448032925,997,111.22857753208706,125.92857448032925,1114,111.22857753208706,125.92857448032925,1218,98.22857753208706,112.92857448032925,1329,67.22857753208706,91.92857448032925,1433,65.22857753208706,91.92857448032925,1546,65.22857753208706,91.92857448032925,1650,65.22857753208706,91.92857448032925,1750,50.22857753208705,63.92857448032924,1863,50.22857753208705,63.92857448032924,1986,50.22857753208705,63.92857448032924,2096,50.22857753208705,63.92857448032924,2209,50.22857753208705,63.92857448032924,2310,50.22857753208705,63.92857448032924,2418,154.22857753208706,123.92857448032925,2531,286.22857753208706,266.92857448032925,2637,286.22857753208706,266.92857448032925,2745,289.22857753208706,272.92857448032925,2846,304.22857753208706,285.92857448032925,2948,335.22857753208706,318.92857448032925,3062,337.22857753208706,320.92857448032925,3186,338.22857753208706,323.92857448032925,3290,338.22857753208706,323.92857448032925,3396,338.22857753208706,323.92857448032925,3496,338.22857753208706,323.92857448032925,3598,338.22857753208706,323.92857448032925,3709,338.22857753208706,323.92857448032925,3813,338.22857753208706,323.92857448032925,3928,338.22857753208706,323.92857448032925,4029,338.22857753208706,323.92857448032925,4132,338.22857753208706,323.92857448032925,4245,338.22857753208706,323.92857448032925,4350,338.22857753208706,323.92857448032925,4461,338.22857753208706,323.92857448032925,4575,338.22857753208706,323.92857448032925,4677,338.22857753208706,323.92857448032925,4781,338.22857753208706,323.92857448032925,4895,338.22857753208706,323.92857448032925,4999]","[369,369,1000,0,-631,""error"",""-"",""-"",""no_move"",4568,4200,2698.5,1371,500.5,""smooth"",""left"",""left"",""good_move"",7739,3168,2399.7,4571,768.3,""smooth"",""left"",""left"",""good_move"",10691,2951,2466.6,7740,484.4,""smooth"",""left"",""left"",""good_move"",20419,9728,2151.8,17681,586.2,""smooth"",""up"",""up"",""good_move"",23513,3092,1806.3,20421,1285.7,""smooth"",""up"",""up"",""good_move"",27056,3542,3049.7,23514,492.3,""smooth"",""up"",""up"",""good_move""]","",""
"5035","","<div style=""width:500px;"">
  <p>What determined the result of this run?</p>
  </div>","93","html-slider-response","15","467568","0.0-5.0-1.1","119","1","2025-07-16 16:04:39","1f75c3e559b7213887762d5229550c2b","41.144.1.125","Mozilla/5.0 (Windows NT 10.0; Win64; x64; rv:140.0) Gecko/20100101 Firefox/140.0","","Firefox","140.0","Windows","10.0","https://app.prolific.com/","en-US,en;q=0.5","669f76a7112b8713f104644c","686e379bc37a29ffa5cdc956","6877cd52ec1f42db46c7ba0e","1","1","669f76a7112b8713f104644c","1","1","2025-07-16T16:12:31.409Z","","","","","","","","","","","AttribQ","","50","","","","","","","","","","","","","","","","","","","","","","","","","","","","",""
"2977","","<div style=""width:500px;"">
  <p>How much control did you have over the ball?</p>
  </div>","93","html-slider-response","16","470547","0.0-5.0-2.1","119","1","2025-07-16 16:04:39","1f75c3e559b7213887762d5229550c2b","41.144.1.125","Mozilla/5.0 (Windows NT 10.0; Win64; x64; rv:140.0) Gecko/20100101 Firefox/140.0","","Firefox","140.0","Windows","10.0","https://app.prolific.com/","en-US,en;q=0.5","669f76a7112b8713f104644c","686e379bc37a29ffa5cdc956","6877cd52ec1f42db46c7ba0e","1","1","669f76a7112b8713f104644c","1","1","2025-07-16T16:12:34.388Z","","","","","","","","","","","ControlQ","","50","","","","","","","","","","","","","","","","","","","","","","","","","","","","",""
"3853","","<div style=""width:500px;"">
  <p>How would you describe your current emotional state?</p>
  </div>","6","html-slider-response","17","474402","0.0-5.0-3.1","119","1","2025-07-16 16:04:39","1f75c3e559b7213887762d5229550c2b","41.144.1.125","Mozilla/5.0 (Windows NT 10.0; Win64; x64; rv:140.0) Gecko/20100101 Firefox/140.0","","Firefox","140.0","Windows","10.0","https://app.prolific.com/","en-US,en;q=0.5","669f76a7112b8713f104644c","686e379bc37a29ffa5cdc956","6877cd52ec1f42db46c7ba0e","1","1","669f76a7112b8713f104644c","1","1","2025-07-16T16:12:38.243Z","","","","","","","","","","","StressQ","","50","","","","","","","","","","","","","","","","","","","","","","","","","","","","",""
"5914","","<div style=""width:500px;"">
  <p>What best describes how you currently feel?</p>
  </div>","97","html-slider-response","18","480318","0.0-5.0-4.1","119","1","2025-07-16 16:04:39","1f75c3e559b7213887762d5229550c2b","41.144.1.125","Mozilla/5.0 (Windows NT 10.0; Win64; x64; rv:140.0) Gecko/20100101 Firefox/140.0","","Firefox","140.0","Windows","10.0","https://app.prolific.com/","en-US,en;q=0.5","669f76a7112b8713f104644c","686e379bc37a29ffa5cdc956","6877cd52ec1f42db46c7ba0e","1","1","669f76a7112b8713f104644c","1","1","2025-07-16T16:12:44.159Z","","","","","","","","","","","MotivationQ","","50","","","","","","","","","","","","","","","","","","","","","","","","","","","","",""
"","","","","ctl-task-cpt","19","515525","0.0-5.0-0.2","119","1","2025-07-16 16:04:39","1f75c3e559b7213887762d5229550c2b","41.144.1.125","Mozilla/5.0 (Windows NT 10.0; Win64; x64; rv:140.0) Gecko/20100101 Firefox/140.0","","Firefox","140.0","Windows","10.0","https://app.prolific.com/","en-US,en;q=0.5","669f76a7112b8713f104644c","686e379bc37a29ffa5cdc956","6877cd52ec1f42db46c7ba0e","1","1","669f76a7112b8713f104644c","1","1","2025-07-16T16:13:19.367Z","","","","","","","","","","","","","","win-only","2","g1:SE,g2:NW","0.8","3","0","486636","1435","6436","32188","1","4","4","6","2","4","4","14","10","0.10606060606060606","1700","3000","2035","[""left"",""up""]","{""num_key_presses"":6,""num_perfect"":6,""num_errors"":0,""num_randdir"":0,""num_randdir_good_moves"":0,""num_whilered"":0,""num_whileblue"":0,""num_blue"":2,""num_good_moves"":6}","[298.22857753208706,290.92857448032925,1,298.22857753208706,290.92857448032925,104,298.22857753208706,290.92857448032925,212,298.22857753208706,290.92857448032925,323,298.22857753208706,290.92857448032925,424,298.22857753208706,290.92857448032925,537,298.22857753208706,290.92857448032925,641,298.22857753208706,290.92857448032925,752,240.22857753208706,258.92857448032925,856,126.22857753208706,153.92857448032925,970,122.22857753208706,149.92857448032925,1074,122.22857753208706,149.92857448032925,1183,111.22857753208706,126.92857448032925,1283,66.22857753208706,81.92857448032925,1383,64.22857753208706,74.92857448032925,1492,64.22857753208706,74.92857448032925,1611,64.22857753208706,74.92857448032925,1725,64.22857753208706,74.92857448032925,1836,64.22857753208706,74.92857448032925,1944,83.22857753208706,83.92857448032925,2068,112.22857753208706,102.92857448032925,2177,147.22857753208706,133.92857448032925,2278,270.22857753208706,222.92857448032925,2378,270.22857753208706,222.92857448032925,2486,270.22857753208706,222.92857448032925,2609,335.22857753208706,285.92857448032925,2724,341.22857753208706,292.92857448032925,2824,341.22857753208706,295.92857448032925,2927,341.22857753208706,308.92857448032925,3027,341.22857753208706,316.92857448032925,3128,341.22857753208706,316.92857448032925,3232,341.22857753208706,316.92857448032925,3338,341.22857753208706,316.92857448032925,3438,341.22857753208706,316.92857448032925,3548,341.22857753208706,316.92857448032925,3654,341.22857753208706,316.92857448032925,3754,341.22857753208706,316.92857448032925,3865,341.22857753208706,316.92857448032925,3969,341.22857753208706,316.92857448032925,4089,341.22857753208706,316.92857448032925,4208,341.22857753208706,316.92857448032925,4318,341.22857753208706,316.92857448032925,4425,341.22857753208706,316.92857448032925,4538,341.22857753208706,316.92857448032925,4652,341.22857753208706,316.92857448032925,4764,341.22857753208706,316.92857448032925,4864,341.22857753208706,316.92857448032925,4966]","[1589,1589,1000,0,589,""smooth"",""left"",""left"",""good_move"",8447,6858,2388.3,5624,434.7,""smooth"",""left"",""left"",""good_move"",15376,6929,2715.6,12188,472.4,""smooth"",""left"",""left"",""good_move"",18711,3335,2384.6,15376,950.4,""smooth"",""up"",""up"",""good_move"",22382,3670,3257.9,18712,412.1,""smooth"",""up"",""up"",""good_move"",25486,3103,2414.9,22383,688.1,""smooth"",""up"",""up"",""good_move""]","",""
"5255","","<div style=""width:500px;"">
  <p>What determined the result of this run?</p>
  </div>","91","html-slider-response","20","520784","0.0-5.0-1.2","119","1","2025-07-16 16:04:39","1f75c3e559b7213887762d5229550c2b","41.144.1.125","Mozilla/5.0 (Windows NT 10.0; Win64; x64; rv:140.0) Gecko/20100101 Firefox/140.0","","Firefox","140.0","Windows","10.0","https://app.prolific.com/","en-US,en;q=0.5","669f76a7112b8713f104644c","686e379bc37a29ffa5cdc956","6877cd52ec1f42db46c7ba0e","1","1","669f76a7112b8713f104644c","1","1","2025-07-16T16:13:24.625Z","","","","","","","","","","","AttribQ","","50","","","","","","","","","","","","","","","","","","","","","","","","","","","","",""
"4173","","<div style=""width:500px;"">
  <p>How much control did you have over the ball?</p>
  </div>","97","html-slider-response","21","524959","0.0-5.0-2.2","119","1","2025-07-16 16:04:39","1f75c3e559b7213887762d5229550c2b","41.144.1.125","Mozilla/5.0 (Windows NT 10.0; Win64; x64; rv:140.0) Gecko/20100101 Firefox/140.0","","Firefox","140.0","Windows","10.0","https://app.prolific.com/","en-US,en;q=0.5","669f76a7112b8713f104644c","686e379bc37a29ffa5cdc956","6877cd52ec1f42db46c7ba0e","1","1","669f76a7112b8713f104644c","1","1","2025-07-16T16:13:28.800Z","","","","","","","","","","","ControlQ","","50","","","","","","","","","","","","","","","","","","","","","","","","","","","","",""
"4356","","<div style=""width:500px;"">
  <p>How would you describe your current emotional state?</p>
  </div>","19","html-slider-response","22","529317","0.0-5.0-3.2","119","1","2025-07-16 16:04:39","1f75c3e559b7213887762d5229550c2b","41.144.1.125","Mozilla/5.0 (Windows NT 10.0; Win64; x64; rv:140.0) Gecko/20100101 Firefox/140.0","","Firefox","140.0","Windows","10.0","https://app.prolific.com/","en-US,en;q=0.5","669f76a7112b8713f104644c","686e379bc37a29ffa5cdc956","6877cd52ec1f42db46c7ba0e","1","1","669f76a7112b8713f104644c","1","1","2025-07-16T16:13:33.158Z","","","","","","","","","","","StressQ","","50","","","","","","","","","","","","","","","","","","","","","","","","","","","","",""
"3125","","<div style=""width:500px;"">
  <p>What best describes how you currently feel?</p>
  </div>","99","html-slider-response","23","532444","0.0-5.0-4.2","119","1","2025-07-16 16:04:39","1f75c3e559b7213887762d5229550c2b","41.144.1.125","Mozilla/5.0 (Windows NT 10.0; Win64; x64; rv:140.0) Gecko/20100101 Firefox/140.0","","Firefox","140.0","Windows","10.0","https://app.prolific.com/","en-US,en;q=0.5","669f76a7112b8713f104644c","686e379bc37a29ffa5cdc956","6877cd52ec1f42db46c7ba0e","1","1","669f76a7112b8713f104644c","1","1","2025-07-16T16:13:36.285Z","","","","","","","","","","","MotivationQ","","50","","","","","","","","","","","","","","","","","","","","","","","","","","","","",""
"","","","","ctl-task-cpt","24","563792","0.0-5.0-0.3","119","1","2025-07-16 16:04:39","1f75c3e559b7213887762d5229550c2b","41.144.1.125","Mozilla/5.0 (Windows NT 10.0; Win64; x64; rv:140.0) Gecko/20100101 Firefox/140.0","","Firefox","140.0","Windows","10.0","https://app.prolific.com/","en-US,en;q=0.5","669f76a7112b8713f104644c","686e379bc37a29ffa5cdc956","6877cd52ec1f42db46c7ba0e","1","1","669f76a7112b8713f104644c","1","1","2025-07-16T16:14:07.633Z","","","","","","","","","","","","","","win-only","1","g1:NE,g2:SW","0.7","4","0","538762","1536","6541","28334","1","4","8","6","2","8","8","22","14","0.16666666666666666","1001","3000","1965","[""down"",""left""]","{""num_key_presses"":6,""num_perfect"":6,""num_errors"":0,""num_randdir"":0,""num_randdir_good_moves"":0,""num_whilered"":0,""num_whileblue"":0,""num_blue"":1,""num_good_moves"":6}","[290.22857753208706,300.92857448032925,1,290.22857753208706,300.92857448032925,115,290.22857753208706,300.92857448032925,231,290.22857753208706,300.92857448032925,335,290.22857753208706,300.92857448032925,442,285.22857753208706,301.92857448032925,551,52.22857753208705,545.9285744803292,673,24.22857753208705,567.9285744803292,777,24.22857753208705,567.9285744803292,880,24.22857753208705,567.9285744803292,996,24.22857753208705,567.9285744803292,1096,24.22857753208705,567.9285744803292,1197,24.22857753208705,567.9285744803292,1311,24.22857753208705,567.9285744803292,1411,24.22857753208705,567.9285744803292,1511,24.22857753208705,567.9285744803292,1629,33.22857753208705,551.9285744803292,1732,194.22857753208706,338.92857448032925,1842,280.22857753208706,260.92857448032925,1949,356.22857753208706,183.92857448032925,2057,356.22857753208706,183.92857448032925,2164,356.22857753208706,183.92857448032925,2274,353.22857753208706,205.92857448032925,2381,349.22857753208706,218.92857448032925,2491,347.22857753208706,228.92857448032925,2591,346.22857753208706,235.92857448032925,2691,346.22857753208706,235.92857448032925,2795,346.22857753208706,235.92857448032925,2897,346.22857753208706,235.92857448032925,3006,346.22857753208706,235.92857448032925,3118,346.22857753208706,235.92857448032925,3223,346.22857753208706,235.92857448032925,3326,346.22857753208706,235.92857448032925,3427,346.22857753208706,235.92857448032925,3537,346.22857753208706,235.92857448032925,3637,346.22857753208706,235.92857448032925,3756,346.22857753208706,235.92857448032925,3868,346.22857753208706,235.92857448032925,3970,346.22857753208706,235.92857448032925,4070,346.22857753208706,235.92857448032925,4181,346.22857753208706,235.92857448032925,4307,346.22857753208706,235.92857448032925,4417,346.22857753208706,235.92857448032925,4526,346.22857753208706,235.92857448032925,4633,346.22857753208706,235.92857448032925,4752,346.22857753208706,235.92857448032925,4852,346.22857753208706,235.92857448032925,4954]","[1685,1685,1000,0,685,""smooth"",""down"",""down"",""good_move"",5224,3539,3018,1685,521,""smooth"",""down"",""down"",""good_move"",8331,3106,2664.7,5225,441.3,""smooth"",""down"",""down"",""good_move"",11277,2946,2376.5,8331,569.5,""smooth"",""left"",""left"",""good_move"",18347,7070,2912.2,14949,485.8,""smooth"",""left"",""left"",""good_move"",21543,3195,1793.8,18348,1401.2,""smooth"",""left"",""left"",""good_move""]","",""
"4183","","<div style=""width:500px;"">
  <p>What determined the result of this run?</p>
  </div>","94","html-slider-response","25","567978","0.0-5.0-1.3","119","1","2025-07-16 16:04:39","1f75c3e559b7213887762d5229550c2b","41.144.1.125","Mozilla/5.0 (Windows NT 10.0; Win64; x64; rv:140.0) Gecko/20100101 Firefox/140.0","","Firefox","140.0","Windows","10.0","https://app.prolific.com/","en-US,en;q=0.5","669f76a7112b8713f104644c","686e379bc37a29ffa5cdc956","6877cd52ec1f42db46c7ba0e","1","1","669f76a7112b8713f104644c","1","1","2025-07-16T16:14:11.819Z","","","","","","","","","","","AttribQ","","50","","","","","","","","","","","","","","","","","","","","","","","","","","","","",""
"5713","","<div style=""width:500px;"">
  <p>How much control did you have over the ball?</p>
  </div>","88","html-slider-response","26","573691","0.0-5.0-2.3","119","1","2025-07-16 16:04:39","1f75c3e559b7213887762d5229550c2b","41.144.1.125","Mozilla/5.0 (Windows NT 10.0; Win64; x64; rv:140.0) Gecko/20100101 Firefox/140.0","","Firefox","140.0","Windows","10.0","https://app.prolific.com/","en-US,en;q=0.5","669f76a7112b8713f104644c","686e379bc37a29ffa5cdc956","6877cd52ec1f42db46c7ba0e","1","1","669f76a7112b8713f104644c","1","1","2025-07-16T16:14:17.533Z","","","","","","","","","","","ControlQ","","50","","","","","","","","","","","","","","","","","","","","","","","","","","","","",""
"6370","","<div style=""width:500px;"">
  <p>How would you describe your current emotional state?</p>
  </div>","0","html-slider-response","27","580063","0.0-5.0-3.3","119","1","2025-07-16 16:04:39","1f75c3e559b7213887762d5229550c2b","41.144.1.125","Mozilla/5.0 (Windows NT 10.0; Win64; x64; rv:140.0) Gecko/20100101 Firefox/140.0","","Firefox","140.0","Windows","10.0","https://app.prolific.com/","en-US,en;q=0.5","669f76a7112b8713f104644c","686e379bc37a29ffa5cdc956","6877cd52ec1f42db46c7ba0e","1","1","669f76a7112b8713f104644c","1","1","2025-07-16T16:14:23.904Z","","","","","","","","","","","StressQ","","50","","","","","","","","","","","","","","","","","","","","","","","","","","","","",""
"4391","","<div style=""width:500px;"">
  <p>What best describes how you currently feel?</p>
  </div>","88","html-slider-response","28","584454","0.0-5.0-4.3","119","1","2025-07-16 16:04:39","1f75c3e559b7213887762d5229550c2b","41.144.1.125","Mozilla/5.0 (Windows NT 10.0; Win64; x64; rv:140.0) Gecko/20100101 Firefox/140.0","","Firefox","140.0","Windows","10.0","https://app.prolific.com/","en-US,en;q=0.5","669f76a7112b8713f104644c","686e379bc37a29ffa5cdc956","6877cd52ec1f42db46c7ba0e","1","1","669f76a7112b8713f104644c","1","1","2025-07-16T16:14:28.295Z","","","","","","","","","","","MotivationQ","","50","","","","","","","","","","","","","","","","","","","","","","","","","","","","",""
"","","","","ctl-task-cpt","29","622387","0.0-5.0-0.4","119","1","2025-07-16 16:04:39","1f75c3e559b7213887762d5229550c2b","41.144.1.125","Mozilla/5.0 (Windows NT 10.0; Win64; x64; rv:140.0) Gecko/20100101 Firefox/140.0","","Firefox","140.0","Windows","10.0","https://app.prolific.com/","en-US,en;q=0.5","669f76a7112b8713f104644c","686e379bc37a29ffa5cdc956","6877cd52ec1f42db46c7ba0e","1","1","669f76a7112b8713f104644c","1","1","2025-07-16T16:15:06.228Z","","","","","","","","","","","","","","win-only","1","g1:NE,g2:SW","0.6","5","0","590774","1949","6979","34923","1","4","8","6","2","8","8","30","22","0.22727272727272727","1349","3000","1960","[""down"",""left""]","{""num_key_presses"":6,""num_perfect"":4,""num_errors"":0,""num_randdir"":2,""num_randdir_good_moves"":2,""num_whilered"":0,""num_whileblue"":0,""num_blue"":3,""num_good_moves"":6}","[298.22857753208706,290.92857448032925,0,298.22857753208706,290.92857448032925,100,298.22857753208706,290.92857448032925,202,298.22857753208706,290.92857448032925,303,298.22857753208706,290.92857448032925,403,298.22857753208706,290.92857448032925,516,167.22857753208706,417.92857448032925,626,97.22857753208706,504.92857448032925,735,95.22857753208706,506.92857448032925,847,95.22857753208706,506.92857448032925,970,83.22857753208706,516.9285744803292,1089,82.22857753208706,516.9285744803292,1191,82.22857753208706,516.9285744803292,1304,82.22857753208706,516.9285744803292,1414,82.22857753208706,516.9285744803292,1524,82.22857753208706,516.9285744803292,1633,82.22857753208706,516.9285744803292,1737,82.22857753208706,516.9285744803292,1868,97.22857753208706,510.92857448032925,2006,373.22857753208706,256.92857448032925,2139,416.22857753208706,231.92857448032925,2253,416.22857753208706,231.92857448032925,2365,377.22857753208706,251.92857448032925,2490,363.22857753208706,256.92857448032925,2596,363.22857753208706,256.92857448032925,2704,361.22857753208706,256.92857448032925,2817,352.22857753208706,256.92857448032925,2921,350.22857753208706,256.92857448032925,3030,350.22857753208706,256.92857448032925,3150,350.22857753208706,256.92857448032925,3269,350.22857753208706,256.92857448032925,3378,350.22857753208706,256.92857448032925,3482,350.22857753208706,256.92857448032925,3587,350.22857753208706,256.92857448032925,3691,350.22857753208706,256.92857448032925,3804,350.22857753208706,256.92857448032925,3908,350.22857753208706,256.92857448032925,4008,350.22857753208706,256.92857448032925,4124,350.22857753208706,256.92857448032925,4245,350.22857753208706,256.92857448032925,4345,350.22857753208706,256.92857448032925,4448,350.22857753208706,256.92857448032925,4550,350.22857753208706,256.92857448032925,4659,350.22857753208706,256.92857448032925,4775,350.22857753208706,256.92857448032925,4881,350.22857753208706,256.92857448032925,4998]","[8350,8350,2021,5741,589,""smooth"",""down"",""down"",""good_move"",11334,2978,2103.1,8356,874.9,""smooth"",""down"",""down"",""good_move"",14239,2904,2403.3,11335,500.7,""oops"",""down"",""left"",""good_move"",17841,3601,3113.5,14240,487.5,""oops"",""down"",""left"",""good_move"",20802,2960,2177.6,17843,781.4,""smooth"",""left"",""left"",""good_move"",27644,6841,2710.3,24423,510.7,""smooth"",""down"",""down"",""good_move""]","",""
"4606","","<div style=""width:500px;"">
  <p>What determined the result of this run?</p>
  </div>","95","html-slider-response","30","626995","0.0-5.0-1.4","119","1","2025-07-16 16:04:39","1f75c3e559b7213887762d5229550c2b","41.144.1.125","Mozilla/5.0 (Windows NT 10.0; Win64; x64; rv:140.0) Gecko/20100101 Firefox/140.0","","Firefox","140.0","Windows","10.0","https://app.prolific.com/","en-US,en;q=0.5","669f76a7112b8713f104644c","686e379bc37a29ffa5cdc956","6877cd52ec1f42db46c7ba0e","1","1","669f76a7112b8713f104644c","1","1","2025-07-16T16:15:10.836Z","","","","","","","","","","","AttribQ","","50","","","","","","","","","","","","","","","","","","","","","","","","","","","","",""
"3730","","<div style=""width:500px;"">
  <p>How much control did you have over the ball?</p>
  </div>","90","html-slider-response","31","630726","0.0-5.0-2.4","119","1","2025-07-16 16:04:39","1f75c3e559b7213887762d5229550c2b","41.144.1.125","Mozilla/5.0 (Windows NT 10.0; Win64; x64; rv:140.0) Gecko/20100101 Firefox/140.0","","Firefox","140.0","Windows","10.0","https://app.prolific.com/","en-US,en;q=0.5","669f76a7112b8713f104644c","686e379bc37a29ffa5cdc956","6877cd52ec1f42db46c7ba0e","1","1","669f76a7112b8713f104644c","1","1","2025-07-16T16:15:14.567Z","","","","","","","","","","","ControlQ","","50","","","","","","","","","","","","","","","","","","","","","","","","","","","","",""
"3546","","<div style=""width:500px;"">
  <p>How would you describe your current emotional state?</p>
  </div>","4","html-slider-response","32","634273","0.0-5.0-3.4","119","1","2025-07-16 16:04:39","1f75c3e559b7213887762d5229550c2b","41.144.1.125","Mozilla/5.0 (Windows NT 10.0; Win64; x64; rv:140.0) Gecko/20100101 Firefox/140.0","","Firefox","140.0","Windows","10.0","https://app.prolific.com/","en-US,en;q=0.5","669f76a7112b8713f104644c","686e379bc37a29ffa5cdc956","6877cd52ec1f42db46c7ba0e","1","1","669f76a7112b8713f104644c","1","1","2025-07-16T16:15:18.114Z","","","","","","","","","","","StressQ","","50","","","","","","","","","","","","","","","","","","","","","","","","","","","","",""
"11325","","<div style=""width:500px;"">
  <p>What best describes how you currently feel?</p>
  </div>","98","html-slider-response","33","645600","0.0-5.0-4.4","119","1","2025-07-16 16:04:39","1f75c3e559b7213887762d5229550c2b","41.144.1.125","Mozilla/5.0 (Windows NT 10.0; Win64; x64; rv:140.0) Gecko/20100101 Firefox/140.0","","Firefox","140.0","Windows","10.0","https://app.prolific.com/","en-US,en;q=0.5","669f76a7112b8713f104644c","686e379bc37a29ffa5cdc956","6877cd52ec1f42db46c7ba0e","1","1","669f76a7112b8713f104644c","1","1","2025-07-16T16:15:29.442Z","","","","","","","","","","","MotivationQ","","50","","","","","","","","","","","","","","","","","","","","","","","","","","","","",""
"","","","","ctl-task-cpt","34","678103","0.0-5.0-0.5","119","1","2025-07-16 16:04:39","1f75c3e559b7213887762d5229550c2b","41.144.1.125","Mozilla/5.0 (Windows NT 10.0; Win64; x64; rv:140.0) Gecko/20100101 Firefox/140.0","","Firefox","140.0","Windows","10.0","https://app.prolific.com/","en-US,en;q=0.5","669f76a7112b8713f104644c","686e379bc37a29ffa5cdc956","6877cd52ec1f42db46c7ba0e","1","1","669f76a7112b8713f104644c","1","1","2025-07-16T16:16:01.945Z","","","","","","","","","","","","","","win-only","1","g1:NE,g2:SW","0.5","6","0","651919","1618","6624","29489","1","4","4","6","2","4","4","34","30","0.25757575757575757","1363","3000","2035","[""down"",""left""]","{""num_key_presses"":6,""num_perfect"":4,""num_errors"":0,""num_randdir"":2,""num_randdir_good_moves"":2,""num_whilered"":0,""num_whileblue"":0,""num_blue"":2,""num_good_moves"":6}","[293.22857753208706,299.92857448032925,1,293.22857753208706,299.92857448032925,102,293.22857753208706,299.92857448032925,214,293.22857753208706,299.92857448032925,315,293.22857753208706,299.92857448032925,426,293.22857753208706,299.92857448032925,530,279.22857753208706,311.92857448032925,635,150.22857753208706,438.92857448032925,739,97.22857753208706,504.92857448032925,860,77.22857753208706,531.9285744803292,982,57.22857753208705,551.9285744803292,1084,55.22857753208705,552.9285744803292,1190,55.22857753208705,552.9285744803292,1301,55.22857753208705,552.9285744803292,1410,55.22857753208705,552.9285744803292,1533,55.22857753208705,552.9285744803292,1655,55.22857753208705,552.9285744803292,1760,58.22857753208705,546.9285744803292,1871,181.22857753208706,420.92857448032925,1987,277.22857753208706,308.92857448032925,2099,277.22857753208706,308.92857448032925,2209,277.22857753208706,308.92857448032925,2312,284.22857753208706,293.92857448032925,2422,322.22857753208706,247.92857448032925,2540,329.22857753208706,236.92857448032925,2647,330.22857753208706,236.92857448032925,2759,332.22857753208706,236.92857448032925,2859,332.22857753208706,236.92857448032925,2966,332.22857753208706,236.92857448032925,3080,332.22857753208706,236.92857448032925,3193,332.22857753208706,236.92857448032925,3302,332.22857753208706,236.92857448032925,3407,332.22857753208706,236.92857448032925,3507,332.22857753208706,236.92857448032925,3607,332.22857753208706,236.92857448032925,3708,332.22857753208706,236.92857448032925,3808,332.22857753208706,236.92857448032925,3923,332.22857753208706,236.92857448032925,4033,332.22857753208706,236.92857448032925,4142,332.22857753208706,236.92857448032925,4246,332.22857753208706,236.92857448032925,4352,332.22857753208706,236.92857448032925,4464,332.22857753208706,236.92857448032925,4573,332.22857753208706,236.92857448032925,4685,332.22857753208706,236.92857448032925,4786,332.22857753208706,236.92857448032925,4889]","[4435,4435,1910.3,2015,509.7,""smooth"",""down"",""down"",""good_move"",7218,2783,2254.1,4435,528.9,""smooth"",""down"",""down"",""good_move"",10287,3069,2629.5,7218,439.5,""smooth"",""down"",""down"",""good_move"",13042,2755,2215.8,10287,539.2,""smooth"",""left"",""left"",""good_move"",16209,3166,2577.5,13043,588.5,""oops"",""left"",""left"",""good_move"",22556,6347,2131.2,19918,506.8,""oops"",""left"",""left"",""good_move""]","",""
"4028","","<div style=""width:500px;"">
  <p>What determined the result of this run?</p>
  </div>","92","html-slider-response","35","682133","0.0-5.0-1.5","119","1","2025-07-16 16:04:39","1f75c3e559b7213887762d5229550c2b","41.144.1.125","Mozilla/5.0 (Windows NT 10.0; Win64; x64; rv:140.0) Gecko/20100101 Firefox/140.0","","Firefox","140.0","Windows","10.0","https://app.prolific.com/","en-US,en;q=0.5","669f76a7112b8713f104644c","686e379bc37a29ffa5cdc956","6877cd52ec1f42db46c7ba0e","1","1","669f76a7112b8713f104644c","1","1","2025-07-16T16:16:05.974Z","","","","","","","","","","","AttribQ","","50","","","","","","","","","","","","","","","","","","","","","","","","","","","","",""
"5091","","<div style=""width:500px;"">
  <p>How much control did you have over the ball?</p>
  </div>","99","html-slider-response","36","687225","0.0-5.0-2.5","119","1","2025-07-16 16:04:39","1f75c3e559b7213887762d5229550c2b","41.144.1.125","Mozilla/5.0 (Windows NT 10.0; Win64; x64; rv:140.0) Gecko/20100101 Firefox/140.0","","Firefox","140.0","Windows","10.0","https://app.prolific.com/","en-US,en;q=0.5","669f76a7112b8713f104644c","686e379bc37a29ffa5cdc956","6877cd52ec1f42db46c7ba0e","1","1","669f76a7112b8713f104644c","1","1","2025-07-16T16:16:11.066Z","","","","","","","","","","","ControlQ","","50","","","","","","","","","","","","","","","","","","","","","","","","","","","","",""
"7412","","<div style=""width:500px;"">
  <p>How would you describe your current emotional state?</p>
  </div>","8","html-slider-response","37","694638","0.0-5.0-3.5","119","1","2025-07-16 16:04:39","1f75c3e559b7213887762d5229550c2b","41.144.1.125","Mozilla/5.0 (Windows NT 10.0; Win64; x64; rv:140.0) Gecko/20100101 Firefox/140.0","","Firefox","140.0","Windows","10.0","https://app.prolific.com/","en-US,en;q=0.5","669f76a7112b8713f104644c","686e379bc37a29ffa5cdc956","6877cd52ec1f42db46c7ba0e","1","1","669f76a7112b8713f104644c","1","1","2025-07-16T16:16:18.479Z","","","","","","","","","","","StressQ","","50","","","","","","","","","","","","","","","","","","","","","","","","","","","","",""
"5783","","<div style=""width:500px;"">
  <p>What best describes how you currently feel?</p>
  </div>","95","html-slider-response","38","700425","0.0-5.0-4.5","119","1","2025-07-16 16:04:39","1f75c3e559b7213887762d5229550c2b","41.144.1.125","Mozilla/5.0 (Windows NT 10.0; Win64; x64; rv:140.0) Gecko/20100101 Firefox/140.0","","Firefox","140.0","Windows","10.0","https://app.prolific.com/","en-US,en;q=0.5","669f76a7112b8713f104644c","686e379bc37a29ffa5cdc956","6877cd52ec1f42db46c7ba0e","1","1","669f76a7112b8713f104644c","1","1","2025-07-16T16:16:24.266Z","","","","","","","","","","","MotivationQ","","50","","","","","","","","","","","","","","","","","","","","","","","","","","","","",""
"","","","","ctl-task-cpt","39","733444","0.0-5.0-0.6","119","1","2025-07-16 16:04:39","1f75c3e559b7213887762d5229550c2b","41.144.1.125","Mozilla/5.0 (Windows NT 10.0; Win64; x64; rv:140.0) Gecko/20100101 Firefox/140.0","","Firefox","140.0","Windows","10.0","https://app.prolific.com/","en-US,en;q=0.5","669f76a7112b8713f104644c","686e379bc37a29ffa5cdc956","6877cd52ec1f42db46c7ba0e","1","1","669f76a7112b8713f104644c","1","1","2025-07-16T16:16:57.285Z","","","","","","","","","","","","","","win-only","2","g1:SE,g2:NW","0.4","7","0","706743","3052","8068","30007","1","4","4","6","2","4","4","38","34","0.2878787878787879","1470","3000","1955","[""left"",""up""]","{""num_key_presses"":6,""num_perfect"":3,""num_errors"":0,""num_randdir"":3,""num_randdir_good_moves"":3,""num_whilered"":0,""num_whileblue"":0,""num_blue"":1,""num_good_moves"":6}","[298.22857753208706,296.92857448032925,0,298.22857753208706,296.92857448032925,109,298.22857753208706,296.92857448032925,222,298.22857753208706,296.92857448032925,323,298.22857753208706,296.92857448032925,431,287.22857753208706,288.92857448032925,550,138.22857753208706,138.92857448032925,651,136.22857753208706,124.92857448032925,763,136.22857753208706,124.92857448032925,864,103.22857753208706,96.92857448032925,964,82.22857753208706,80.92857448032925,1085,80.22857753208706,78.92857448032925,1197,79.22857753208706,77.92857448032925,1301,79.22857753208706,77.92857448032925,1403,79.22857753208706,77.92857448032925,1504,79.22857753208706,77.92857448032925,1612,79.22857753208706,77.92857448032925,1715,79.22857753208706,77.92857448032925,1820,79.22857753208706,77.92857448032925,1930,193.22857753208706,164.92857448032925,2049,256.22857753208706,231.92857448032925,2150,264.22857753208706,240.92857448032925,2267,264.22857753208706,240.92857448032925,2380,311.22857753208706,283.92857448032925,2500,338.22857753208706,323.92857448032925,2604,349.22857753208706,336.92857448032925,2710,349.22857753208706,336.92857448032925,2811,349.22857753208706,336.92857448032925,2914,349.22857753208706,336.92857448032925,3019,349.22857753208706,336.92857448032925,3119,349.22857753208706,336.92857448032925,3241,349.22857753208706,336.92857448032925,3345,349.22857753208706,336.92857448032925,3460,349.22857753208706,336.92857448032925,3581,349.22857753208706,336.92857448032925,3688,349.22857753208706,336.92857448032925,3799,349.22857753208706,336.92857448032925,3908,349.22857753208706,336.92857448032925,4015,349.22857753208706,336.92857448032925,4127,349.22857753208706,336.92857448032925,4227,349.22857753208706,336.92857448032925,4355,349.22857753208706,336.92857448032925,4460,349.22857753208706,336.92857448032925,4561,349.22857753208706,336.92857448032925,4695,349.22857753208706,336.92857448032925,4800,349.22857753208706,336.92857448032925,4912]","[1737,1737,1000,0,737,""smooth"",""left"",""left"",""good_move"",4931,3194,2481.2,1737,712.8,""oops"",""left"",""left"",""good_move"",7925,2992,2183.2,4933,808.8,""smooth"",""left"",""left"",""good_move"",15034,7109,2804.1,11637,592.9,""oops"",""up"",""up"",""good_move"",18428,3394,2721,15035,672,""oops"",""up"",""up"",""good_move"",21636,3208,2119,18428,1089,""smooth"",""up"",""up"",""good_move""]","",""
"3737","","<div style=""width:500px;"">
  <p>What determined the result of this run?</p>
  </div>","98","html-slider-response","40","737184","0.0-5.0-1.6","119","1","2025-07-16 16:04:39","1f75c3e559b7213887762d5229550c2b","41.144.1.125","Mozilla/5.0 (Windows NT 10.0; Win64; x64; rv:140.0) Gecko/20100101 Firefox/140.0","","Firefox","140.0","Windows","10.0","https://app.prolific.com/","en-US,en;q=0.5","669f76a7112b8713f104644c","686e379bc37a29ffa5cdc956","6877cd52ec1f42db46c7ba0e","1","1","669f76a7112b8713f104644c","1","1","2025-07-16T16:17:01.025Z","","","","","","","","","","","AttribQ","","50","","","","","","","","","","","","","","","","","","","","","","","","","","","","",""
"2896","","<div style=""width:500px;"">
  <p>How much control did you have over the ball?</p>
  </div>","96","html-slider-response","41","740082","0.0-5.0-2.6","119","1","2025-07-16 16:04:39","1f75c3e559b7213887762d5229550c2b","41.144.1.125","Mozilla/5.0 (Windows NT 10.0; Win64; x64; rv:140.0) Gecko/20100101 Firefox/140.0","","Firefox","140.0","Windows","10.0","https://app.prolific.com/","en-US,en;q=0.5","669f76a7112b8713f104644c","686e379bc37a29ffa5cdc956","6877cd52ec1f42db46c7ba0e","1","1","669f76a7112b8713f104644c","1","1","2025-07-16T16:17:03.923Z","","","","","","","","","","","ControlQ","","50","","","","","","","","","","","","","","","","","","","","","","","","","","","","",""
"3734","","<div style=""width:500px;"">
  <p>How would you describe your current emotional state?</p>
  </div>","3","html-slider-response","42","743818","0.0-5.0-3.6","119","1","2025-07-16 16:04:39","1f75c3e559b7213887762d5229550c2b","41.144.1.125","Mozilla/5.0 (Windows NT 10.0; Win64; x64; rv:140.0) Gecko/20100101 Firefox/140.0","","Firefox","140.0","Windows","10.0","https://app.prolific.com/","en-US,en;q=0.5","669f76a7112b8713f104644c","686e379bc37a29ffa5cdc956","6877cd52ec1f42db46c7ba0e","1","1","669f76a7112b8713f104644c","1","1","2025-07-16T16:17:07.659Z","","","","","","","","","","","StressQ","","50","","","","","","","","","","","","","","","","","","","","","","","","","","","","",""
"4086","","<div style=""width:500px;"">
  <p>What best describes how you currently feel?</p>
  </div>","99","html-slider-response","43","747906","0.0-5.0-4.6","119","1","2025-07-16 16:04:39","1f75c3e559b7213887762d5229550c2b","41.144.1.125","Mozilla/5.0 (Windows NT 10.0; Win64; x64; rv:140.0) Gecko/20100101 Firefox/140.0","","Firefox","140.0","Windows","10.0","https://app.prolific.com/","en-US,en;q=0.5","669f76a7112b8713f104644c","686e379bc37a29ffa5cdc956","6877cd52ec1f42db46c7ba0e","1","1","669f76a7112b8713f104644c","1","1","2025-07-16T16:17:11.747Z","","","","","","","","","","","MotivationQ","","50","","","","","","","","","","","","","","","","","","","","","","","","","","","","",""
"","","","","ctl-task-cpt","44","817012","0.0-5.0-0.7","119","1","2025-07-16 16:04:39","1f75c3e559b7213887762d5229550c2b","41.144.1.125","Mozilla/5.0 (Windows NT 10.0; Win64; x64; rv:140.0) Gecko/20100101 Firefox/140.0","","Firefox","140.0","Windows","10.0","https://app.prolific.com/","en-US,en;q=0.5","669f76a7112b8713f104644c","686e379bc37a29ffa5cdc956","6877cd52ec1f42db46c7ba0e","1","1","669f76a7112b8713f104644c","1","1","2025-07-16T16:18:20.853Z","","","","","","","","","","","","","","win-only","0","g1:NW,g2:SE","0.3","8","0","754226","1344","6351","66091","1","4","8","6","2","8","8","46","38","0.3484848484848485","1441","3000","500","[""down"",""right""]","{""num_key_presses"":16,""num_perfect"":6,""num_errors"":0,""num_randdir"":10,""num_randdir_good_moves"":5,""num_whilered"":0,""num_whileblue"":0,""num_blue"":3,""num_good_moves"":11}","[293.22857753208706,296.92857448032925,0,293.22857753208706,296.92857448032925,110,293.22857753208706,296.92857448032925,227,293.22857753208706,296.92857448032925,329,293.22857753208706,296.92857448032925,434,293.22857753208706,296.92857448032925,545,366.22857753208706,352.92857448032925,647,483.22857753208706,495.92857448032925,756,483.22857753208706,495.92857448032925,862,483.22857753208706,495.92857448032925,965,530.228577532087,527.9285744803292,1080,533.228577532087,531.9285744803292,1193,534.228577532087,531.9285744803292,1300,534.228577532087,531.9285744803292,1401,534.228577532087,531.9285744803292,1516,534.228577532087,531.9285744803292,1628,534.228577532087,531.9285744803292,1747,452.22857753208706,505.92857448032925,1847,286.22857753208706,320.92857448032925,1960,285.22857753208706,313.92857448032925,2067,285.22857753208706,313.92857448032925,2176,262.22857753208706,266.92857448032925,2277,252.22857753208706,255.92857448032925,2388,252.22857753208706,255.92857448032925,2496,252.22857753208706,255.92857448032925,2597,252.22857753208706,255.92857448032925,2713,252.22857753208706,255.92857448032925,2817,252.22857753208706,255.92857448032925,2926,252.22857753208706,255.92857448032925,3050,252.22857753208706,255.92857448032925,3153,252.22857753208706,255.92857448032925,3259,252.22857753208706,255.92857448032925,3371,252.22857753208706,255.92857448032925,3475,252.22857753208706,255.92857448032925,3578,252.22857753208706,255.92857448032925,3694,252.22857753208706,255.92857448032925,3809,252.22857753208706,255.92857448032925,3912,252.22857753208706,255.92857448032925,4026,252.22857753208706,255.92857448032925,4126,252.22857753208706,255.92857448032925,4244,252.22857753208706,255.92857448032925,4356,252.22857753208706,255.92857448032925,4461,252.22857753208706,255.92857448032925,4566,252.22857753208706,255.92857448032925,4679,252.22857753208706,255.92857448032925,4782,252.22857753208706,255.92857448032925,4893]","[4834,4834,2357.2,2007,469.8,""smooth"",""down"",""down"",""good_move"",10918,6084,2806.4,7582,529.6,""oops"",""down"",""right"",""good_move"",14115,3196,2675.9,10919,520.1,""smooth"",""right"",""right"",""good_move"",16724,2609,2116.6,14115,492.4,""oops"",""right"",""up"",""bad_move"",20066,3342,2326.7,16724,1015.3,""smooth"",""right"",""right"",""good_move"",27863,7797,2962.6,24182,718.4,""oops"",""down"",""down"",""good_move"",31981,4118,3524,27863,594,""oops"",""down"",""left"",""bad_move"",35398,3417,2467.1,31981,949.9,""oops"",""down"",""down"",""good_move"",38327,2929,2463.1,35398,465.9,""oops"",""down"",""up"",""bad_move"",41867,3539,3141.8,38328,397.2,""oops"",""right"",""right"",""good_move"",44667,2796,2410.1,41871,385.9,""oops"",""down"",""left"",""bad_move"",48337,3670,3244.2,44667,425.8,""oops"",""down"",""up"",""bad_move"",51520,3183,2132.8,48337,1050.2,""smooth"",""right"",""right"",""good_move"",54169,2648,2264.2,51521,383.8,""smooth"",""down"",""down"",""good_move"",56860,2691,2310.4,54169,381.6,""smooth"",""down"",""down"",""good_move"",59437,2576,2228.2,56861,347.8,""oops"",""down"",""down"",""good_move""]","",""
"6310","","<div style=""width:500px;"">
  <p>What determined the result of this run?</p>
  </div>","94","html-slider-response","45","823323","0.0-5.0-1.7","119","1","2025-07-16 16:04:39","1f75c3e559b7213887762d5229550c2b","41.144.1.125","Mozilla/5.0 (Windows NT 10.0; Win64; x64; rv:140.0) Gecko/20100101 Firefox/140.0","","Firefox","140.0","Windows","10.0","https://app.prolific.com/","en-US,en;q=0.5","669f76a7112b8713f104644c","686e379bc37a29ffa5cdc956","6877cd52ec1f42db46c7ba0e","1","1","669f76a7112b8713f104644c","1","1","2025-07-16T16:18:27.164Z","","","","","","","","","","","AttribQ","","50","","","","","","","","","","","","","","","","","","","","","","","","","","","","",""
"2563","","<div style=""width:500px;"">
  <p>How much control did you have over the ball?</p>
  </div>","90","html-slider-response","46","825888","0.0-5.0-2.7","119","1","2025-07-16 16:04:39","1f75c3e559b7213887762d5229550c2b","41.144.1.125","Mozilla/5.0 (Windows NT 10.0; Win64; x64; rv:140.0) Gecko/20100101 Firefox/140.0","","Firefox","140.0","Windows","10.0","https://app.prolific.com/","en-US,en;q=0.5","669f76a7112b8713f104644c","686e379bc37a29ffa5cdc956","6877cd52ec1f42db46c7ba0e","1","1","669f76a7112b8713f104644c","1","1","2025-07-16T16:18:29.729Z","","","","","","","","","","","ControlQ","","50","","","","","","","","","","","","","","","","","","","","","","","","","","","","",""
"5269","","<div style=""width:500px;"">
  <p>How would you describe your current emotional state?</p>
  </div>","29","html-slider-response","47","831159","0.0-5.0-3.7","119","1","2025-07-16 16:04:39","1f75c3e559b7213887762d5229550c2b","41.144.1.125","Mozilla/5.0 (Windows NT 10.0; Win64; x64; rv:140.0) Gecko/20100101 Firefox/140.0","","Firefox","140.0","Windows","10.0","https://app.prolific.com/","en-US,en;q=0.5","669f76a7112b8713f104644c","686e379bc37a29ffa5cdc956","6877cd52ec1f42db46c7ba0e","1","1","669f76a7112b8713f104644c","1","1","2025-07-16T16:18:35.000Z","","","","","","","","","","","StressQ","","50","","","","","","","","","","","","","","","","","","","","","","","","","","","","",""
"2718","","<div style=""width:500px;"">
  <p>What best describes how you currently feel?</p>
  </div>","84","html-slider-response","48","833880","0.0-5.0-4.7","119","1","2025-07-16 16:04:39","1f75c3e559b7213887762d5229550c2b","41.144.1.125","Mozilla/5.0 (Windows NT 10.0; Win64; x64; rv:140.0) Gecko/20100101 Firefox/140.0","","Firefox","140.0","Windows","10.0","https://app.prolific.com/","en-US,en;q=0.5","669f76a7112b8713f104644c","686e379bc37a29ffa5cdc956","6877cd52ec1f42db46c7ba0e","1","1","669f76a7112b8713f104644c","1","1","2025-07-16T16:18:37.721Z","","","","","","","","","","","MotivationQ","","50","","","","","","","","","","","","","","","","","","","","","","","","","","","","",""
"","","","","ctl-task-cpt","49","918761","0.0-5.0-0.8","119","1","2025-07-16 16:04:39","1f75c3e559b7213887762d5229550c2b","41.144.1.125","Mozilla/5.0 (Windows NT 10.0; Win64; x64; rv:140.0) Gecko/20100101 Firefox/140.0","","Firefox","140.0","Windows","10.0","https://app.prolific.com/","en-US,en;q=0.5","669f76a7112b8713f104644c","686e379bc37a29ffa5cdc956","6877cd52ec1f42db46c7ba0e","1","1","669f76a7112b8713f104644c","1","1","2025-07-16T16:20:02.603Z","","","","","","","","","","","","","","win-only","0","g1:NW,g2:SE","0.2","9","0","840200","1921","6927","81871","1","4","8","6","2","-8","-8","38","46","0.2878787878787879","1685","3000","-935","[""down"",""right""]","{""num_key_presses"":21,""num_perfect"":5,""num_errors"":0,""num_randdir"":16,""num_randdir_good_moves"":8,""num_whilered"":0,""num_whileblue"":0,""num_blue"":3,""num_good_moves"":13}","[300.22857753208706,296.92857448032925,0,300.22857753208706,296.92857448032925,113,300.22857753208706,296.92857448032925,224,300.22857753208706,296.92857448032925,327,300.22857753208706,296.92857448032925,427,300.22857753208706,296.92857448032925,549,397.22857753208706,394.92857448032925,656,422.22857753208706,434.92857448032925,756,422.22857753208706,434.92857448032925,864,422.22857753208706,434.92857448032925,973,484.22857753208706,482.92857448032925,1077,515.228577532087,517.9285744803292,1191,525.228577532087,528.9285744803292,1299,532.228577532087,550.9285744803292,1424,532.228577532087,550.9285744803292,1527,532.228577532087,550.9285744803292,1649,532.228577532087,550.9285744803292,1756,532.228577532087,550.9285744803292,1864,532.228577532087,550.9285744803292,1972,532.228577532087,550.9285744803292,2082,495.22857753208706,528.9285744803292,2185,405.22857753208706,431.92857448032925,2294,375.22857753208706,386.92857448032925,2406,375.22857753208706,386.92857448032925,2511,373.22857753208706,384.92857448032925,2629,300.22857753208706,323.92857448032925,2745,269.22857753208706,299.92857448032925,2852,260.22857753208706,274.92857448032925,2952,257.22857753208706,265.92857448032925,3059,257.22857753208706,262.92857448032925,3170,256.22857753208706,260.92857448032925,3287,256.22857753208706,260.92857448032925,3393,256.22857753208706,260.92857448032925,3495,256.22857753208706,260.92857448032925,3600,256.22857753208706,260.92857448032925,3712,256.22857753208706,260.92857448032925,3821,256.22857753208706,260.92857448032925,3929,256.22857753208706,260.92857448032925,4039,256.22857753208706,260.92857448032925,4155,256.22857753208706,260.92857448032925,4266,256.22857753208706,260.92857448032925,4366,256.22857753208706,260.92857448032925,4473,256.22857753208706,260.92857448032925,4593,256.22857753208706,260.92857448032925,4710,256.22857753208706,260.92857448032925,4815,256.22857753208706,260.92857448032925,4926]","[1677,1677,1000,0,677,""oops"",""down"",""up"",""bad_move"",8465,6788,2301.3,5778,385.7,""smooth"",""right"",""right"",""good_move"",10752,2287,1273.7,8465,1013.3,""oops"",""right"",""down"",""good_move"",13475,2722,2330.6,10753,391.4,""oops"",""down"",""up"",""bad_move"",16606,3131,2695.9,13475,435.1,""oops"",""right"",""up"",""bad_move"",19615,3008,2592.5,16607,416.5,""smooth"",""right"",""right"",""good_move"",22601,2985,2630.3,19616,354.7,""oops"",""right"",""down"",""good_move"",25246,2645,2215.2,22601,429.8,""oops"",""down"",""left"",""bad_move"",31506,6260,2160.3,28900,445.7,""oops"",""right"",""down"",""good_move"",34905,3399,3038.2,31506,360.8,""oops"",""down"",""up"",""bad_move"",38363,3458,3068.4,34905,389.6,""oops"",""right"",""down"",""good_move"",45910,7547,2895,42520,495,""oops"",""right"",""left"",""bad_move"",49171,3261,2467.8,45910,793.2,""smooth"",""down"",""down"",""good_move"",52099,2928,2502.3,49171,425.7,""smooth"",""down"",""down"",""good_move"",54774,2675,2210.9,52099,464.1,""oops"",""down"",""right"",""good_move"",57533,2759,2360.4,54774,398.6,""oops"",""right"",""right"",""good_move"",60564,3031,2689.4,57533,341.6,""oops"",""right"",""left"",""bad_move"",63683,3116,2355.1,60567,760.9,""oops"",""right"",""down"",""good_move"",66307,2623,2232.3,63684,390.7,""oops"",""right"",""left"",""bad_move"",69610,3302,2933.9,66308,368.1,""oops"",""right"",""right"",""good_move"",72510,2900,2510.6,69610,389.4,""smooth"",""right"",""right"",""good_move""]","",""
"7200","","<div style=""width:500px;"">
  <p>What determined the result of this run?</p>
  </div>","89","html-slider-response","50","925963","0.0-5.0-1.8","119","1","2025-07-16 16:04:39","1f75c3e559b7213887762d5229550c2b","41.144.1.125","Mozilla/5.0 (Windows NT 10.0; Win64; x64; rv:140.0) Gecko/20100101 Firefox/140.0","","Firefox","140.0","Windows","10.0","https://app.prolific.com/","en-US,en;q=0.5","669f76a7112b8713f104644c","686e379bc37a29ffa5cdc956","6877cd52ec1f42db46c7ba0e","1","1","669f76a7112b8713f104644c","1","1","2025-07-16T16:20:09.805Z","","","","","","","","","","","AttribQ","","50","","","","","","","","","","","","","","","","","","","","","","","","","","","","",""
"7971","","<div style=""width:500px;"">
  <p>How much control did you have over the ball?</p>
  </div>","27","html-slider-response","51","933937","0.0-5.0-2.8","119","1","2025-07-16 16:04:39","1f75c3e559b7213887762d5229550c2b","41.144.1.125","Mozilla/5.0 (Windows NT 10.0; Win64; x64; rv:140.0) Gecko/20100101 Firefox/140.0","","Firefox","140.0","Windows","10.0","https://app.prolific.com/","en-US,en;q=0.5","669f76a7112b8713f104644c","686e379bc37a29ffa5cdc956","6877cd52ec1f42db46c7ba0e","1","1","669f76a7112b8713f104644c","1","1","2025-07-16T16:20:17.778Z","","","","","","","","","","","ControlQ","","50","","","","","","","","","","","","","","","","","","","","","","","","","","","","",""
"3824","","<div style=""width:500px;"">
  <p>How would you describe your current emotional state?</p>
  </div>","33","html-slider-response","52","937763","0.0-5.0-3.8","119","1","2025-07-16 16:04:39","1f75c3e559b7213887762d5229550c2b","41.144.1.125","Mozilla/5.0 (Windows NT 10.0; Win64; x64; rv:140.0) Gecko/20100101 Firefox/140.0","","Firefox","140.0","Windows","10.0","https://app.prolific.com/","en-US,en;q=0.5","669f76a7112b8713f104644c","686e379bc37a29ffa5cdc956","6877cd52ec1f42db46c7ba0e","1","1","669f76a7112b8713f104644c","1","1","2025-07-16T16:20:21.604Z","","","","","","","","","","","StressQ","","50","","","","","","","","","","","","","","","","","","","","","","","","","","","","",""
"5926","","<div style=""width:500px;"">
  <p>What best describes how you currently feel?</p>
  </div>","71","html-slider-response","53","943691","0.0-5.0-4.8","119","1","2025-07-16 16:04:39","1f75c3e559b7213887762d5229550c2b","41.144.1.125","Mozilla/5.0 (Windows NT 10.0; Win64; x64; rv:140.0) Gecko/20100101 Firefox/140.0","","Firefox","140.0","Windows","10.0","https://app.prolific.com/","en-US,en;q=0.5","669f76a7112b8713f104644c","686e379bc37a29ffa5cdc956","6877cd52ec1f42db46c7ba0e","1","1","669f76a7112b8713f104644c","1","1","2025-07-16T16:20:27.532Z","","","","","","","","","","","MotivationQ","","50","","","","","","","","","","","","","","","","","","","","","","","","","","","","",""
"","","","","ctl-task-cpt","54","1020672","0.0-5.0-0.9","119","1","2025-07-16 16:04:39","1f75c3e559b7213887762d5229550c2b","41.144.1.125","Mozilla/5.0 (Windows NT 10.0; Win64; x64; rv:140.0) Gecko/20100101 Firefox/140.0","","Firefox","140.0","Windows","10.0","https://app.prolific.com/","en-US,en;q=0.5","669f76a7112b8713f104644c","686e379bc37a29ffa5cdc956","6877cd52ec1f42db46c7ba0e","1","1","669f76a7112b8713f104644c","1","1","2025-07-16T16:21:44.513Z","","","","","","","","","","","","","","win-only","3","g1:SW,g2:NE","0.4","10","0","950009","1396","6406","73975","1","4","4","6","2","4","4","42","38","0.3181818181818182","2186","3000","500","[""up"",""right""]","{""num_key_presses"":16,""num_perfect"":8,""num_errors"":0,""num_randdir"":8,""num_randdir_good_moves"":3,""num_whilered"":0,""num_whileblue"":0,""num_blue"":6,""num_good_moves"":11}","[300.22857753208706,291.92857448032925,0,300.22857753208706,291.92857448032925,103,300.22857753208706,291.92857448032925,222,300.22857753208706,291.92857448032925,337,300.22857753208706,291.92857448032925,439,300.22857753208706,291.92857448032925,541,300.22857753208706,291.92857448032925,656,300.22857753208706,287.92857448032925,770,301.22857753208706,284.92857448032925,891,291.22857753208706,286.92857448032925,991,389.22857753208706,153.92857448032925,1096,636.228577532087,-84.07142551967075,1201,636.228577532087,-84.07142551967075,1319,637.228577532087,-83.07142551967075,1440,594.228577532087,-11.071425519670761,1551,569.228577532087,9.928574480329239,1655,569.228577532087,9.928574480329239,1766,568.228577532087,14.928574480329239,1889,562.228577532087,24.92857448032924,1990,562.228577532087,24.92857448032924,2096,562.228577532087,24.92857448032924,2198,562.228577532087,24.92857448032924,2320,562.228577532087,24.92857448032924,2435,528.228577532087,58.92857448032924,2536,370.22857753208706,252.92857448032925,2645,330.22857753208706,285.92857448032925,2748,330.22857753208706,285.92857448032925,2857,301.22857753208706,313.92857448032925,2975,282.22857753208706,323.92857448032925,3079,281.22857753208706,323.92857448032925,3190,276.22857753208706,328.92857448032925,3294,268.22857753208706,334.92857448032925,3406,268.22857753208706,333.92857448032925,3517,268.22857753208706,333.92857448032925,3626,268.22857753208706,333.92857448032925,3731,268.22857753208706,333.92857448032925,3839,268.22857753208706,333.92857448032925,3947,268.22857753208706,333.92857448032925,4050,268.22857753208706,333.92857448032925,4150,268.22857753208706,333.92857448032925,4266,268.22857753208706,333.92857448032925,4380,268.22857753208706,333.92857448032925,4480,268.22857753208706,333.92857448032925,4587,268.22857753208706,333.92857448032925,4693,268.22857753208706,333.92857448032925,4805,268.22857753208706,333.92857448032925,4911]","[5021,5021,2511.1,2006,503.9,""oops"",""up"",""right"",""good_move"",11151,6130,2389.8,8326,435.2,""oops"",""right"",""down"",""bad_move"",14275,3124,2658.8,11151,465.2,""smooth"",""right"",""right"",""good_move"",19576,5301,1861.6,17144,570.4,""smooth"",""right"",""right"",""good_move"",25009,5433,2059.4,22549,400.6,""oops"",""up"",""down"",""bad_move"",28150,3141,2626.1,25009,514.9,""smooth"",""up"",""up"",""good_move"",31275,3125,2076.1,28150,1048.9,""smooth"",""up"",""up"",""good_move"",34538,3263,2194,31275,1069,""oops"",""up"",""left"",""bad_move"",41603,7065,2859.7,38349,394.3,""oops"",""up"",""right"",""good_move"",44474,2871,1781.2,41603,1089.8,""oops"",""up"",""down"",""bad_move"",47247,2772,2330,44475,442,""smooth"",""up"",""up"",""good_move"",50201,2954,2385.1,47247,568.9,""oops"",""up"",""up"",""good_move"",57048,6847,2536.3,53967,544.7,""oops"",""up"",""left"",""bad_move"",60101,3053,2542.6,57048,510.4,""smooth"",""up"",""up"",""good_move"",64132,4031,3573.1,60101,457.9,""smooth"",""up"",""up"",""good_move"",67275,3143,2396.5,64132,746.5,""smooth"",""right"",""right"",""good_move""]","",""
"2974","","<div style=""width:500px;"">
  <p>What determined the result of this run?</p>
  </div>","93","html-slider-response","55","1023647","0.0-5.0-1.9","119","1","2025-07-16 16:04:39","1f75c3e559b7213887762d5229550c2b","41.144.1.125","Mozilla/5.0 (Windows NT 10.0; Win64; x64; rv:140.0) Gecko/20100101 Firefox/140.0","","Firefox","140.0","Windows","10.0","https://app.prolific.com/","en-US,en;q=0.5","669f76a7112b8713f104644c","686e379bc37a29ffa5cdc956","6877cd52ec1f42db46c7ba0e","1","1","669f76a7112b8713f104644c","1","1","2025-07-16T16:21:47.488Z","","","","","","","","","","","AttribQ","","50","","","","","","","","","","","","","","","","","","","","","","","","","","","","",""
"2808","","<div style=""width:500px;"">
  <p>How much control did you have over the ball?</p>
  </div>","97","html-slider-response","56","1026455","0.0-5.0-2.9","119","1","2025-07-16 16:04:39","1f75c3e559b7213887762d5229550c2b","41.144.1.125","Mozilla/5.0 (Windows NT 10.0; Win64; x64; rv:140.0) Gecko/20100101 Firefox/140.0","","Firefox","140.0","Windows","10.0","https://app.prolific.com/","en-US,en;q=0.5","669f76a7112b8713f104644c","686e379bc37a29ffa5cdc956","6877cd52ec1f42db46c7ba0e","1","1","669f76a7112b8713f104644c","1","1","2025-07-16T16:21:50.296Z","","","","","","","","","","","ControlQ","","50","","","","","","","","","","","","","","","","","","","","","","","","","","","","",""
"6418","","<div style=""width:500px;"">
  <p>How would you describe your current emotional state?</p>
  </div>","17","html-slider-response","57","1032875","0.0-5.0-3.9","119","1","2025-07-16 16:04:39","1f75c3e559b7213887762d5229550c2b","41.144.1.125","Mozilla/5.0 (Windows NT 10.0; Win64; x64; rv:140.0) Gecko/20100101 Firefox/140.0","","Firefox","140.0","Windows","10.0","https://app.prolific.com/","en-US,en;q=0.5","669f76a7112b8713f104644c","686e379bc37a29ffa5cdc956","6877cd52ec1f42db46c7ba0e","1","1","669f76a7112b8713f104644c","1","1","2025-07-16T16:21:56.716Z","","","","","","","","","","","StressQ","","50","","","","","","","","","","","","","","","","","","","","","","","","","","","","",""
"2540","","<div style=""width:500px;"">
  <p>What best describes how you currently feel?</p>
  </div>","84","html-slider-response","58","1035415","0.0-5.0-4.9","119","1","2025-07-16 16:04:39","1f75c3e559b7213887762d5229550c2b","41.144.1.125","Mozilla/5.0 (Windows NT 10.0; Win64; x64; rv:140.0) Gecko/20100101 Firefox/140.0","","Firefox","140.0","Windows","10.0","https://app.prolific.com/","en-US,en;q=0.5","669f76a7112b8713f104644c","686e379bc37a29ffa5cdc956","6877cd52ec1f42db46c7ba0e","1","1","669f76a7112b8713f104644c","1","1","2025-07-16T16:21:59.256Z","","","","","","","","","","","MotivationQ","","50","","","","","","","","","","","","","","","","","","","","","","","","","","","","",""
"","","","","ctl-task-cpt","59","1084293","0.0-5.0-0.10","119","1","2025-07-16 16:04:39","1f75c3e559b7213887762d5229550c2b","41.144.1.125","Mozilla/5.0 (Windows NT 10.0; Win64; x64; rv:140.0) Gecko/20100101 Firefox/140.0","","Firefox","140.0","Windows","10.0","https://app.prolific.com/","en-US,en;q=0.5","669f76a7112b8713f104644c","686e379bc37a29ffa5cdc956","6877cd52ec1f42db46c7ba0e","1","1","669f76a7112b8713f104644c","1","1","2025-07-16T16:22:48.134Z","","","","","","","","","","","","","","win-only","0","g1:NW,g2:SE","0.5","11","0","1041734","1665","6682","45863","1","4","4","6","2","4","4","46","42","0.3484848484848485","1914","3000","140","[""down"",""right""]","{""num_key_presses"":12,""num_perfect"":7,""num_errors"":0,""num_randdir"":5,""num_randdir_good_moves"":2,""num_whilered"":0,""num_whileblue"":0,""num_blue"":1,""num_good_moves"":9}","[294.22857753208706,296.92857448032925,0,294.22857753208706,296.92857448032925,119,294.22857753208706,296.92857448032925,233,294.22857753208706,296.92857448032925,336,294.22857753208706,296.92857448032925,438,294.22857753208706,296.92857448032925,548,294.22857753208706,296.92857448032925,656,379.22857753208706,378.92857448032925,772,443.22857753208706,435.92857448032925,891,443.22857753208706,435.92857448032925,1001,443.22857753208706,435.92857448032925,1105,491.22857753208706,494.92857448032925,1219,503.22857753208706,509.92857448032925,1319,526.228577532087,554.9285744803292,1468,528.228577532087,554.9285744803292,1573,528.228577532087,554.9285744803292,1678,528.228577532087,554.9285744803292,1781,528.228577532087,554.9285744803292,1896,528.228577532087,554.9285744803292,1997,528.228577532087,554.9285744803292,2110,528.228577532087,554.9285744803292,2223,528.228577532087,554.9285744803292,2332,489.22857753208706,537.9285744803292,2454,315.22857753208706,393.92857448032925,2556,300.22857753208706,346.92857448032925,2658,297.22857753208706,312.92857448032925,2767,297.22857753208706,312.92857448032925,2887,297.22857753208706,312.92857448032925,2988,253.22857753208706,273.92857448032925,3096,252.22857753208706,265.92857448032925,3216,249.22857753208706,261.92857448032925,3321,248.22857753208706,256.92857448032925,3435,248.22857753208706,256.92857448032925,3546,248.22857753208706,256.92857448032925,3658,248.22857753208706,256.92857448032925,3782,248.22857753208706,256.92857448032925,3898,248.22857753208706,256.92857448032925,3999,248.22857753208706,256.92857448032925,4102,248.22857753208706,256.92857448032925,4205,248.22857753208706,256.92857448032925,4318,248.22857753208706,256.92857448032925,4430,248.22857753208706,256.92857448032925,4531,248.22857753208706,256.92857448032925,4633,248.22857753208706,256.92857448032925,4741,248.22857753208706,256.92857448032925,4847,248.22857753208706,256.92857448032925,4964]","[1910,1910,1000,0,910,""oops"",""down"",""up"",""bad_move"",5096,3186,2604.8,1910,581.2,""smooth"",""right"",""right"",""good_move"",7892,2796,2196.6,5096,599.4,""oops"",""right"",""left"",""bad_move"",14877,6985,2630.6,11592,654.4,""smooth"",""right"",""right"",""good_move"",18061,3183,2495.1,14878,687.9,""oops"",""right"",""right"",""good_move"",21100,3039,1584.1,18061,1454.9,""smooth"",""down"",""down"",""good_move"",24152,3052,1746.3,21100,1305.7,""oops"",""down"",""right"",""good_move"",27279,3127,2126.4,24152,1000.6,""oops"",""down"",""left"",""bad_move"",30373,3094,2038.3,27279,1055.7,""smooth"",""down"",""down"",""good_move"",33346,2973,1949.3,30373,1023.7,""smooth"",""down"",""down"",""good_move"",36124,2778,2348.9,33346,429.1,""smooth"",""down"",""down"",""good_move"",38896,2771,2385.3,36125,385.7,""smooth"",""right"",""right"",""good_move""]","",""
"7379","","<div style=""width:500px;"">
  <p>What determined the result of this run?</p>
  </div>","93","html-slider-response","60","1091673","0.0-5.0-1.10","119","1","2025-07-16 16:04:39","1f75c3e559b7213887762d5229550c2b","41.144.1.125","Mozilla/5.0 (Windows NT 10.0; Win64; x64; rv:140.0) Gecko/20100101 Firefox/140.0","","Firefox","140.0","Windows","10.0","https://app.prolific.com/","en-US,en;q=0.5","669f76a7112b8713f104644c","686e379bc37a29ffa5cdc956","6877cd52ec1f42db46c7ba0e","1","1","669f76a7112b8713f104644c","1","1","2025-07-16T16:22:55.514Z","","","","","","","","","","","AttribQ","","50","","","","","","","","","","","","","","","","","","","","","","","","","","","","",""
"7753","","<div style=""width:500px;"">
  <p>How much control did you have over the ball?</p>
  </div>","93","html-slider-response","61","1099428","0.0-5.0-2.10","119","1","2025-07-16 16:04:39","1f75c3e559b7213887762d5229550c2b","41.144.1.125","Mozilla/5.0 (Windows NT 10.0; Win64; x64; rv:140.0) Gecko/20100101 Firefox/140.0","","Firefox","140.0","Windows","10.0","https://app.prolific.com/","en-US,en;q=0.5","669f76a7112b8713f104644c","686e379bc37a29ffa5cdc956","6877cd52ec1f42db46c7ba0e","1","1","669f76a7112b8713f104644c","1","1","2025-07-16T16:23:03.270Z","","","","","","","","","","","ControlQ","","50","","","","","","","","","","","","","","","","","","","","","","","","","","","","",""
"5563","","<div style=""width:500px;"">
  <p>How would you describe your current emotional state?</p>
  </div>","7","html-slider-response","62","1104993","0.0-5.0-3.10","119","1","2025-07-16 16:04:39","1f75c3e559b7213887762d5229550c2b","41.144.1.125","Mozilla/5.0 (Windows NT 10.0; Win64; x64; rv:140.0) Gecko/20100101 Firefox/140.0","","Firefox","140.0","Windows","10.0","https://app.prolific.com/","en-US,en;q=0.5","669f76a7112b8713f104644c","686e379bc37a29ffa5cdc956","6877cd52ec1f42db46c7ba0e","1","1","669f76a7112b8713f104644c","1","1","2025-07-16T16:23:08.834Z","","","","","","","","","","","StressQ","","50","","","","","","","","","","","","","","","","","","","","","","","","","","","","",""
"8379","","<div style=""width:500px;"">
  <p>What best describes how you currently feel?</p>
  </div>","92","html-slider-response","63","1113375","0.0-5.0-4.10","119","1","2025-07-16 16:04:39","1f75c3e559b7213887762d5229550c2b","41.144.1.125","Mozilla/5.0 (Windows NT 10.0; Win64; x64; rv:140.0) Gecko/20100101 Firefox/140.0","","Firefox","140.0","Windows","10.0","https://app.prolific.com/","en-US,en;q=0.5","669f76a7112b8713f104644c","686e379bc37a29ffa5cdc956","6877cd52ec1f42db46c7ba0e","1","1","669f76a7112b8713f104644c","1","1","2025-07-16T16:23:17.216Z","","","","","","","","","","","MotivationQ","","50","","","","","","","","","","","","","","","","","","","","","","","","","","","","",""
"","","","","ctl-task-cpt","64","1154130","0.0-5.0-0.11","119","1","2025-07-16 16:04:39","1f75c3e559b7213887762d5229550c2b","41.144.1.125","Mozilla/5.0 (Windows NT 10.0; Win64; x64; rv:140.0) Gecko/20100101 Firefox/140.0","","Firefox","140.0","Windows","10.0","https://app.prolific.com/","en-US,en;q=0.5","669f76a7112b8713f104644c","686e379bc37a29ffa5cdc956","6877cd52ec1f42db46c7ba0e","1","1","669f76a7112b8713f104644c","1","1","2025-07-16T16:23:57.971Z","","","","","","","","","","","","","","win-only","3","g1:SW,g2:NE","0.6","12","0","1119693","2331","7345","37745","1","4","8","6","2","8","8","54","46","0.4090909090909091","2404","3000","925","[""up"",""right""]","{""num_key_presses"":8,""num_perfect"":6,""num_errors"":0,""num_randdir"":2,""num_randdir_good_moves"":1,""num_whilered"":0,""num_whileblue"":0,""num_blue"":1,""num_good_moves"":7}","[294.22857753208706,296.92857448032925,0,294.22857753208706,296.92857448032925,100,294.22857753208706,296.92857448032925,203,294.22857753208706,296.92857448032925,304,294.22857753208706,296.92857448032925,415,294.22857753208706,296.92857448032925,518,294.22857753208706,296.92857448032925,629,294.22857753208706,296.92857448032925,743,285.22857753208706,317.92857448032925,847,284.22857753208706,321.92857448032925,953,283.22857753208706,324.92857448032925,1060,268.22857753208706,334.92857448032925,1176,262.22857753208706,336.92857448032925,1277,444.22857753208706,97.92857448032925,1377,444.22857753208706,97.92857448032925,1478,444.22857753208706,97.92857448032925,1589,444.22857753208706,93.92857448032925,1700,468.22857753208706,86.92857448032925,1800,484.22857753208706,70.92857448032925,1911,502.22857753208706,58.92857448032924,2017,513.228577532087,53.92857448032924,2127,530.228577532087,45.92857448032924,2233,530.228577532087,45.92857448032924,2363,530.228577532087,45.92857448032924,2472,530.228577532087,45.92857448032924,2572,530.228577532087,45.92857448032924,2676,530.228577532087,45.92857448032924,2777,530.228577532087,45.92857448032924,2879,530.228577532087,45.92857448032924,2979,530.228577532087,45.92857448032924,3110,530.228577532087,45.92857448032924,3225,530.228577532087,45.92857448032924,3327,530.228577532087,45.92857448032924,3443,511.22857753208706,61.92857448032924,3544,375.22857753208706,323.92857448032925,3658,375.22857753208706,323.92857448032925,3763,375.22857753208706,323.92857448032925,3879,375.22857753208706,323.92857448032925,3979,375.22857753208706,323.92857448032925,4091,296.22857753208706,357.92857448032925,4200,247.22857753208706,392.92857448032925,4306,220.22857753208706,407.92857448032925,4413,224.22857753208706,383.92857448032925,4520,231.22857753208706,367.92857448032925,4632,235.22857753208706,351.92857448032925,4737,235.22857753208706,343.92857448032925,4845,235.22857753208706,343.92857448032925,4967]","[1628,1628,1000,0,628,""oops"",""up"",""up"",""good_move"",5751,4123,2948.6,1628,1174.4,""oops"",""up"",""left"",""bad_move"",10103,4351,3158.4,5752,1193.6,""smooth"",""right"",""right"",""good_move"",13318,3214,2590.4,10104,623.6,""smooth"",""right"",""right"",""good_move"",16221,2903,2412.6,13318,490.4,""smooth"",""right"",""right"",""good_move"",23373,7152,2289.5,19960,1123.5,""smooth"",""up"",""up"",""good_move"",26559,3186,2259.8,23373,926.2,""smooth"",""up"",""up"",""good_move"",30110,3551,2680.6,26559,870.4,""smooth"",""right"",""right"",""good_move""]","",""
"6576","","<div style=""width:500px;"">
  <p>What determined the result of this run?</p>
  </div>","94","html-slider-response","65","1160708","0.0-5.0-1.11","119","1","2025-07-16 16:04:39","1f75c3e559b7213887762d5229550c2b","41.144.1.125","Mozilla/5.0 (Windows NT 10.0; Win64; x64; rv:140.0) Gecko/20100101 Firefox/140.0","","Firefox","140.0","Windows","10.0","https://app.prolific.com/","en-US,en;q=0.5","669f76a7112b8713f104644c","686e379bc37a29ffa5cdc956","6877cd52ec1f42db46c7ba0e","1","1","669f76a7112b8713f104644c","1","1","2025-07-16T16:24:04.549Z","","","","","","","","","","","AttribQ","","50","","","","","","","","","","","","","","","","","","","","","","","","","","","","",""
"4050","","<div style=""width:500px;"">
  <p>How much control did you have over the ball?</p>
  </div>","94","html-slider-response","66","1164758","0.0-5.0-2.11","119","1","2025-07-16 16:04:39","1f75c3e559b7213887762d5229550c2b","41.144.1.125","Mozilla/5.0 (Windows NT 10.0; Win64; x64; rv:140.0) Gecko/20100101 Firefox/140.0","","Firefox","140.0","Windows","10.0","https://app.prolific.com/","en-US,en;q=0.5","669f76a7112b8713f104644c","686e379bc37a29ffa5cdc956","6877cd52ec1f42db46c7ba0e","1","1","669f76a7112b8713f104644c","1","1","2025-07-16T16:24:08.599Z","","","","","","","","","","","ControlQ","","50","","","","","","","","","","","","","","","","","","","","","","","","","","","","",""
"5682","","<div style=""width:500px;"">
  <p>How would you describe your current emotional state?</p>
  </div>","8","html-slider-response","67","1170441","0.0-5.0-3.11","119","1","2025-07-16 16:04:39","1f75c3e559b7213887762d5229550c2b","41.144.1.125","Mozilla/5.0 (Windows NT 10.0; Win64; x64; rv:140.0) Gecko/20100101 Firefox/140.0","","Firefox","140.0","Windows","10.0","https://app.prolific.com/","en-US,en;q=0.5","669f76a7112b8713f104644c","686e379bc37a29ffa5cdc956","6877cd52ec1f42db46c7ba0e","1","1","669f76a7112b8713f104644c","1","1","2025-07-16T16:24:14.282Z","","","","","","","","","","","StressQ","","50","","","","","","","","","","","","","","","","","","","","","","","","","","","","",""
"5034","","<div style=""width:500px;"">
  <p>What best describes how you currently feel?</p>
  </div>","92","html-slider-response","68","1175476","0.0-5.0-4.11","119","1","2025-07-16 16:04:39","1f75c3e559b7213887762d5229550c2b","41.144.1.125","Mozilla/5.0 (Windows NT 10.0; Win64; x64; rv:140.0) Gecko/20100101 Firefox/140.0","","Firefox","140.0","Windows","10.0","https://app.prolific.com/","en-US,en;q=0.5","669f76a7112b8713f104644c","686e379bc37a29ffa5cdc956","6877cd52ec1f42db46c7ba0e","1","1","669f76a7112b8713f104644c","1","1","2025-07-16T16:24:19.317Z","","","","","","","","","","","MotivationQ","","50","","","","","","","","","","","","","","","","","","","","","","","","","","","","",""
"","","","","ctl-task-cpt","69","1211300","0.0-5.0-0.12","119","1","2025-07-16 16:04:39","1f75c3e559b7213887762d5229550c2b","41.144.1.125","Mozilla/5.0 (Windows NT 10.0; Win64; x64; rv:140.0) Gecko/20100101 Firefox/140.0","","Firefox","140.0","Windows","10.0","https://app.prolific.com/","en-US,en;q=0.5","669f76a7112b8713f104644c","686e379bc37a29ffa5cdc956","6877cd52ec1f42db46c7ba0e","1","1","669f76a7112b8713f104644c","1","1","2025-07-16T16:24:55.141Z","","","","","","","","","","","","","","win-only","1","g1:NE,g2:SW","0.7","13","0","1181795","2222","7234","32818","1","4","8","6","2","8","7","61","54","0.4621212121212121","2063","3000","1770","[""down"",""left""]","{""num_key_presses"":8,""num_perfect"":7,""num_errors"":1,""num_randdir"":0,""num_randdir_good_moves"":0,""num_whilered"":0,""num_whileblue"":1,""num_blue"":1,""num_good_moves"":7}","[295.22857753208706,298.92857448032925,0,295.22857753208706,298.92857448032925,114,295.22857753208706,298.92857448032925,237,295.22857753208706,298.92857448032925,345,295.22857753208706,298.92857448032925,448,295.22857753208706,298.92857448032925,567,313.22857753208706,276.92857448032925,672,327.22857753208706,269.92857448032925,800,331.22857753208706,267.92857448032925,907,338.22857753208706,260.92857448032925,1011,338.22857753208706,262.92857448032925,1111,187.22857753208706,428.92857448032925,1213,59.22857753208705,575.9285744803292,1313,29.22857753208705,588.9285744803292,1428,29.22857753208705,588.9285744803292,1528,39.22857753208705,569.9285744803292,1643,45.22857753208705,540.9285744803292,1756,45.22857753208705,540.9285744803292,1857,45.22857753208705,540.9285744803292,1966,45.22857753208705,540.9285744803292,2068,45.22857753208705,540.9285744803292,2191,45.22857753208705,540.9285744803292,2292,45.22857753208705,540.9285744803292,2395,45.22857753208705,540.9285744803292,2513,45.22857753208705,540.9285744803292,2617,45.22857753208705,540.9285744803292,2741,45.22857753208705,540.9285744803292,2850,45.22857753208705,540.9285744803292,2961,45.22857753208705,540.9285744803292,3072,45.22857753208705,540.9285744803292,3189,45.22857753208705,540.9285744803292,3291,45.22857753208705,540.9285744803292,3409,45.22857753208705,540.9285744803292,3523,45.22857753208705,540.9285744803292,3641,45.22857753208705,540.9285744803292,3744,72.22857753208706,508.92857448032925,3854,310.22857753208706,274.92857448032925,3958,444.22857753208706,143.92857448032925,4072,437.22857753208706,143.92857448032925,4186,421.22857753208706,167.92857448032925,4292,378.22857753208706,223.92857448032925,4403,368.22857753208706,242.92857448032925,4522,359.22857753208706,254.92857448032925,4624,352.22857753208706,258.92857448032925,4732,351.22857753208706,258.92857448032925,4837,349.22857753208706,253.92857448032925,4940]","[1676,1676,1000,0,676,""smooth"",""down"",""down"",""good_move"",4980,3304,2742.8,1676,561.2,""smooth"",""down"",""down"",""good_move"",8144,3163,2701.5,4981,461.5,""smooth"",""down"",""down"",""good_move"",11335,3190,2776,8145,414,""while_blue"",""left"",""up"",""bad_move"",15086,3751,3237.5,11335,513.5,""smooth"",""left"",""left"",""good_move"",18772,3686,3041.5,15086,644.5,""smooth"",""left"",""left"",""good_move"",22054,3281,2418.4,18773,862.6,""smooth"",""left"",""left"",""good_move"",25309,3255,1814.4,22054,1440.6,""smooth"",""down"",""down"",""good_move""]","",""
"5704","","<div style=""width:500px;"">
  <p>What determined the result of this run?</p>
  </div>","90","html-slider-response","70","1217005","0.0-5.0-1.12","119","1","2025-07-16 16:04:39","1f75c3e559b7213887762d5229550c2b","41.144.1.125","Mozilla/5.0 (Windows NT 10.0; Win64; x64; rv:140.0) Gecko/20100101 Firefox/140.0","","Firefox","140.0","Windows","10.0","https://app.prolific.com/","en-US,en;q=0.5","669f76a7112b8713f104644c","686e379bc37a29ffa5cdc956","6877cd52ec1f42db46c7ba0e","1","1","669f76a7112b8713f104644c","1","1","2025-07-16T16:25:00.846Z","","","","","","","","","","","AttribQ","","50","","","","","","","","","","","","","","","","","","","","","","","","","","","","",""
"4625","","<div style=""width:500px;"">
  <p>How much control did you have over the ball?</p>
  </div>","93","html-slider-response","71","1221631","0.0-5.0-2.12","119","1","2025-07-16 16:04:39","1f75c3e559b7213887762d5229550c2b","41.144.1.125","Mozilla/5.0 (Windows NT 10.0; Win64; x64; rv:140.0) Gecko/20100101 Firefox/140.0","","Firefox","140.0","Windows","10.0","https://app.prolific.com/","en-US,en;q=0.5","669f76a7112b8713f104644c","686e379bc37a29ffa5cdc956","6877cd52ec1f42db46c7ba0e","1","1","669f76a7112b8713f104644c","1","1","2025-07-16T16:25:05.472Z","","","","","","","","","","","ControlQ","","50","","","","","","","","","","","","","","","","","","","","","","","","","","","","",""
"6072","","<div style=""width:500px;"">
  <p>How would you describe your current emotional state?</p>
  </div>","7","html-slider-response","72","1227705","0.0-5.0-3.12","119","1","2025-07-16 16:04:39","1f75c3e559b7213887762d5229550c2b","41.144.1.125","Mozilla/5.0 (Windows NT 10.0; Win64; x64; rv:140.0) Gecko/20100101 Firefox/140.0","","Firefox","140.0","Windows","10.0","https://app.prolific.com/","en-US,en;q=0.5","669f76a7112b8713f104644c","686e379bc37a29ffa5cdc956","6877cd52ec1f42db46c7ba0e","1","1","669f76a7112b8713f104644c","1","1","2025-07-16T16:25:11.546Z","","","","","","","","","","","StressQ","","50","","","","","","","","","","","","","","","","","","","","","","","","","","","","",""
"4018","","<div style=""width:500px;"">
  <p>What best describes how you currently feel?</p>
  </div>","95","html-slider-response","73","1231724","0.0-5.0-4.12","119","1","2025-07-16 16:04:39","1f75c3e559b7213887762d5229550c2b","41.144.1.125","Mozilla/5.0 (Windows NT 10.0; Win64; x64; rv:140.0) Gecko/20100101 Firefox/140.0","","Firefox","140.0","Windows","10.0","https://app.prolific.com/","en-US,en;q=0.5","669f76a7112b8713f104644c","686e379bc37a29ffa5cdc956","6877cd52ec1f42db46c7ba0e","1","1","669f76a7112b8713f104644c","1","1","2025-07-16T16:25:15.565Z","","","","","","","","","","","MotivationQ","","50","","","","","","","","","","","","","","","","","","","","","","","","","","","","",""
"","","","","ctl-task-cpt","74","1264494","0.0-5.0-0.13","119","1","2025-07-16 16:04:39","1f75c3e559b7213887762d5229550c2b","41.144.1.125","Mozilla/5.0 (Windows NT 10.0; Win64; x64; rv:140.0) Gecko/20100101 Firefox/140.0","","Firefox","140.0","Windows","10.0","https://app.prolific.com/","en-US,en;q=0.5","669f76a7112b8713f104644c","686e379bc37a29ffa5cdc956","6877cd52ec1f42db46c7ba0e","1","1","669f76a7112b8713f104644c","1","1","2025-07-16T16:25:48.335Z","","","","","","","","","","","","","","win-only","3","g1:SW,g2:NE","0.8","14","0","1238043","2127","7130","29759","1","4","4","6","2","4","4","65","61","0.49242424242424243","2565","3000","545","[""up"",""right""]","{""num_key_presses"":6,""num_perfect"":6,""num_errors"":0,""num_randdir"":0,""num_randdir_good_moves"":0,""num_whilered"":0,""num_whileblue"":0,""num_blue"":0,""num_good_moves"":6}","[296.22857753208706,292.92857448032925,0,296.22857753208706,292.92857448032925,103,296.22857753208706,292.92857448032925,210,296.22857753208706,292.92857448032925,326,296.22857753208706,292.92857448032925,442,296.22857753208706,292.92857448032925,543,325.22857753208706,264.92857448032925,658,546.228577532087,68.92857448032925,777,582.228577532087,40.92857448032924,889,582.228577532087,40.92857448032924,990,610.228577532087,12.928574480329239,1131,619.228577532087,-4.071425519670761,1255,600.228577532087,8.928574480329239,1368,567.228577532087,26.92857448032924,1475,558.228577532087,39.92857448032924,1585,554.228577532087,42.92857448032924,1690,533.228577532087,56.92857448032924,1798,532.228577532087,56.92857448032924,1916,532.228577532087,53.92857448032924,2022,535.228577532087,48.92857448032924,2132,535.228577532087,48.92857448032924,2239,535.228577532087,48.92857448032924,2345,535.228577532087,48.92857448032924,2452,535.228577532087,48.92857448032924,2574,535.228577532087,48.92857448032924,2691,535.228577532087,48.92857448032924,2798,535.228577532087,48.92857448032924,2909,535.228577532087,48.92857448032924,3017,535.228577532087,48.92857448032924,3118,535.228577532087,48.92857448032924,3222,535.228577532087,48.92857448032924,3328,535.228577532087,48.92857448032924,3430,535.228577532087,48.92857448032924,3531,535.228577532087,48.92857448032924,3650,471.22857753208706,86.92857448032925,3762,390.22857753208706,159.92857448032925,3866,354.22857753208706,196.92857448032925,3979,345.22857753208706,201.92857448032925,4082,345.22857753208706,201.92857448032925,4190,345.22857753208706,201.92857448032925,4300,345.22857753208706,201.92857448032925,4403,345.22857753208706,201.92857448032925,4535,345.22857753208706,201.92857448032925,4637,345.22857753208706,201.92857448032925,4744,345.22857753208706,201.92857448032925,4849,345.22857753208706,201.92857448032925,4969]","[5821,5821,1000,0,4821,""smooth"",""up"",""up"",""good_move"",9023,3202,2565.1,5821,636.9,""smooth"",""up"",""up"",""good_move"",12130,3106,2555.8,9024,550.2,""smooth"",""right"",""right"",""good_move"",15585,3454,2853.8,12131,600.2,""smooth"",""right"",""right"",""good_move"",19205,3621,3013.8,15585,607.2,""smooth"",""right"",""right"",""good_move"",22331,3124,2370.3,19207,753.7,""smooth"",""up"",""up"",""good_move""]","",""
"4910","","<div style=""width:500px;"">
  <p>What determined the result of this run?</p>
  </div>","94","html-slider-response","75","1269407","0.0-5.0-1.13","119","1","2025-07-16 16:04:39","1f75c3e559b7213887762d5229550c2b","41.144.1.125","Mozilla/5.0 (Windows NT 10.0; Win64; x64; rv:140.0) Gecko/20100101 Firefox/140.0","","Firefox","140.0","Windows","10.0","https://app.prolific.com/","en-US,en;q=0.5","669f76a7112b8713f104644c","686e379bc37a29ffa5cdc956","6877cd52ec1f42db46c7ba0e","1","1","669f76a7112b8713f104644c","1","1","2025-07-16T16:25:53.248Z","","","","","","","","","","","AttribQ","","50","","","","","","","","","","","","","","","","","","","","","","","","","","","","",""
"4202","","<div style=""width:500px;"">
  <p>How much control did you have over the ball?</p>
  </div>","96","html-slider-response","76","1273610","0.0-5.0-2.13","119","1","2025-07-16 16:04:39","1f75c3e559b7213887762d5229550c2b","41.144.1.125","Mozilla/5.0 (Windows NT 10.0; Win64; x64; rv:140.0) Gecko/20100101 Firefox/140.0","","Firefox","140.0","Windows","10.0","https://app.prolific.com/","en-US,en;q=0.5","669f76a7112b8713f104644c","686e379bc37a29ffa5cdc956","6877cd52ec1f42db46c7ba0e","1","1","669f76a7112b8713f104644c","1","1","2025-07-16T16:25:57.452Z","","","","","","","","","","","ControlQ","","50","","","","","","","","","","","","","","","","","","","","","","","","","","","","",""
"4906","","<div style=""width:500px;"">
  <p>How would you describe your current emotional state?</p>
  </div>","5","html-slider-response","77","1278517","0.0-5.0-3.13","119","1","2025-07-16 16:04:39","1f75c3e559b7213887762d5229550c2b","41.144.1.125","Mozilla/5.0 (Windows NT 10.0; Win64; x64; rv:140.0) Gecko/20100101 Firefox/140.0","","Firefox","140.0","Windows","10.0","https://app.prolific.com/","en-US,en;q=0.5","669f76a7112b8713f104644c","686e379bc37a29ffa5cdc956","6877cd52ec1f42db46c7ba0e","1","1","669f76a7112b8713f104644c","1","1","2025-07-16T16:26:02.358Z","","","","","","","","","","","StressQ","","50","","","","","","","","","","","","","","","","","","","","","","","","","","","","",""
"4219","","<div style=""width:500px;"">
  <p>What best describes how you currently feel?</p>
  </div>","93","html-slider-response","78","1282737","0.0-5.0-4.13","119","1","2025-07-16 16:04:39","1f75c3e559b7213887762d5229550c2b","41.144.1.125","Mozilla/5.0 (Windows NT 10.0; Win64; x64; rv:140.0) Gecko/20100101 Firefox/140.0","","Firefox","140.0","Windows","10.0","https://app.prolific.com/","en-US,en;q=0.5","669f76a7112b8713f104644c","686e379bc37a29ffa5cdc956","6877cd52ec1f42db46c7ba0e","1","1","669f76a7112b8713f104644c","1","1","2025-07-16T16:26:06.578Z","","","","","","","","","","","MotivationQ","","50","","","","","","","","","","","","","","","","","","","","","","","","","","","","",""
"","","","","ctl-task-cpt","79","1324249","0.0-5.0-0.14","119","1","2025-07-16 16:04:39","1f75c3e559b7213887762d5229550c2b","41.144.1.125","Mozilla/5.0 (Windows NT 10.0; Win64; x64; rv:140.0) Gecko/20100101 Firefox/140.0","","Firefox","140.0","Windows","10.0","https://app.prolific.com/","en-US,en;q=0.5","669f76a7112b8713f104644c","686e379bc37a29ffa5cdc956","6877cd52ec1f42db46c7ba0e","1","1","669f76a7112b8713f104644c","1","1","2025-07-16T16:26:48.090Z","","","","","","","","","","","","","","win-only","0","g1:NW,g2:SE","0.9","15","0","1289056","2124","7141","38488","1","4","8","6","2","8","8","73","65","0.553030303030303","1608","3000","985","[""down"",""right""]","{""num_key_presses"":8,""num_perfect"":7,""num_errors"":0,""num_randdir"":1,""num_randdir_good_moves"":0,""num_whilered"":0,""num_whileblue"":0,""num_blue"":2,""num_good_moves"":7}","[293.22857753208706,292.92857448032925,1,293.22857753208706,292.92857448032925,111,293.22857753208706,292.92857448032925,217,293.22857753208706,292.92857448032925,330,293.22857753208706,292.92857448032925,435,293.22857753208706,292.92857448032925,544,293.22857753208706,292.92857448032925,656,370.22857753208706,343.92857448032925,757,522.228577532087,521.9285744803292,858,528.228577532087,529.9285744803292,959,528.228577532087,529.9285744803292,1061,532.228577532087,535.9285744803292,1165,533.228577532087,536.9285744803292,1274,534.228577532087,537.9285744803292,1375,534.228577532087,537.9285744803292,1478,534.228577532087,537.9285744803292,1609,534.228577532087,537.9285744803292,1719,534.228577532087,537.9285744803292,1826,534.228577532087,537.9285744803292,1937,534.228577532087,537.9285744803292,2049,534.228577532087,537.9285744803292,2157,534.228577532087,537.9285744803292,2257,534.228577532087,537.9285744803292,2358,534.228577532087,537.9285744803292,2460,534.228577532087,537.9285744803292,2577,534.228577532087,537.9285744803292,2679,534.228577532087,537.9285744803292,2789,534.228577532087,537.9285744803292,2892,534.228577532087,537.9285744803292,3008,534.228577532087,537.9285744803292,3112,534.228577532087,537.9285744803292,3227,534.228577532087,537.9285744803292,3341,534.228577532087,537.9285744803292,3457,534.228577532087,537.9285744803292,3560,534.228577532087,537.9285744803292,3660,534.228577532087,537.9285744803292,3761,534.228577532087,537.9285744803292,3874,534.228577532087,537.9285744803292,3975,534.228577532087,537.9285744803292,4075,534.228577532087,537.9285744803292,4176,534.228577532087,537.9285744803292,4284,534.228577532087,537.9285744803292,4384,534.228577532087,537.9285744803292,4495,534.228577532087,537.9285744803292,4600,534.228577532087,537.9285744803292,4708,534.228577532087,537.9285744803292,4814,534.228577532087,537.9285744803292,4920]","[2477,2477,1000,0,1477,""smooth"",""down"",""down"",""good_move"",5435,2958,2100,2477,858,""smooth"",""right"",""right"",""good_move"",12248,6813,2549.8,8752,946.2,""smooth"",""right"",""right"",""good_move"",15029,2781,2219.9,12248,561.1,""oops"",""down"",""left"",""bad_move"",21406,6377,2051.1,18844,510.9,""smooth"",""down"",""down"",""good_move"",24353,2947,2283.5,21406,663.5,""smooth"",""down"",""down"",""good_move"",27566,3213,2655,24353,558,""smooth"",""right"",""right"",""good_move"",31024,3458,2571.3,27566,886.7,""smooth"",""right"",""right"",""good_move""]","",""
"3829","","<div style=""width:500px;"">
