"rt","response_timestamp","stimulus","response","trial_type","trial_index","time_elapsed","internal_node_id","run_id","condition","recorded_at","source_code_version","ip","user_agent","device","browser","browser_version","platform","platform_version","referer","accept_language","PROLIFIC_PID","STUDY_ID","SESSION_ID","WEEK","BATCH","prolific_id","week","batch","realtime","success","responses","item_order","radio_event_ids","radio_event_times","key_event_times","mouse_event_times","straightlining","zigzagging","honeypot","eventType","view_history","slider_start","which_type","canvas_config","goals_layout","control_level","trial_number","tutorial_trial_number","trial_start_time","phase1_start_time","phase2_start_time","phase3_start_time","goal_1_value","goal_1_distance","goal_2_value","goal_2_distance","goal_selected","outcome","outcome_total","participant_final_score","participant_initial_score","participant_final_score_prop","goal_choice_rt","allocated_time","allocated_time_remaining","goal_direction","counts","mouse_movements","key_presses","question_order","question_id"
"76723","1753257256211","<p style='font-size:40px;line-height:1.25'><strong>Welcome to the experiment!</strong></p><p style='font-size:1.1em;line-height:1.25'>Thank you for participanting in our experiment again! You will be asked to play the Dysfunctional Ball Game again. We will briefly recap the rules before we start.</p><p style='font-size:1.1em;line-height:1.25'>Press <strong>Next</strong> to continue.</p>","0","custom-html-button-response","0","76729","0.0-0.0","186","1","2025-07-23 07:52:58","1f75c3e559b7213887762d5229550c2b","86.167.102.64","Mozilla/5.0 (Windows NT 10.0; Win64; x64) AppleWebKit/537.36 (KHTML, like Gecko) Chrome/138.0.0.0 Safari/537.36","WebKit","Chrome","138.0.0.0","Windows","10.0","https://app.prolific.com/","en-US,en;q=0.9","59cb95053306be000195be2e","683db9eb0562dbf637994deb","68808e1ccc20849007f21a4a","2","1","59cb95053306be000195be2e","2","1","2025-07-23T07:54:16.214Z","","","","","","","","","","","","","","","","","","","","","","","","","","","","","","","","","","","","","","","","","",""
"2945","","","","fullscreen","1","80688","0.0-1.0","186","1","2025-07-23 07:52:58","1f75c3e559b7213887762d5229550c2b","86.167.102.64","Mozilla/5.0 (Windows NT 10.0; Win64; x64) AppleWebKit/537.36 (KHTML, like Gecko) Chrome/138.0.0.0 Safari/537.36","WebKit","Chrome","138.0.0.0","Windows","10.0","https://app.prolific.com/","en-US,en;q=0.9","59cb95053306be000195be2e","683db9eb0562dbf637994deb","68808e1ccc20849007f21a4a","2","1","59cb95053306be000195be2e","2","1","","true","","","","","","","","","","","","","","","","","","","","","","","","","","","","","","","","","","","","","","","","",""
"3846","1753257264023","<p style='font-size:1.1em;line-height:1.25'>In the following, we will ask you a few questions relating to your feelings in the last 24 hours.<br></p><p style='font-size:1.1em;line-height:1.25'>Press the <strong>Next</strong> button to continue.</p>","0","custom-html-button-response","2","84539","0.0-2.0-0.0","186","1","2025-07-23 07:52:58","1f75c3e559b7213887762d5229550c2b","86.167.102.64","Mozilla/5.0 (Windows NT 10.0; Win64; x64) AppleWebKit/537.36 (KHTML, like Gecko) Chrome/138.0.0.0 Safari/537.36","WebKit","Chrome","138.0.0.0","Windows","10.0","https://app.prolific.com/","en-US,en;q=0.9","59cb95053306be000195be2e","683db9eb0562dbf637994deb","68808e1ccc20849007f21a4a","2","1","59cb95053306be000195be2e","2","1","2025-07-23T07:54:24.025Z","","","","","","","","","","","","","","","","","","","","","","","","","","","","","","","","","","","","","","","","","",""
"121001.70000000019","","","","survey-template","3","205551","0.0-2.0-1.0","186","1","2025-07-23 07:52:58","1f75c3e559b7213887762d5229550c2b","86.167.102.64","Mozilla/5.0 (Windows NT 10.0; Win64; x64) AppleWebKit/537.36 (KHTML, like Gecko) Chrome/138.0.0.0 Safari/537.36","WebKit","Chrome","138.0.0.0","Windows","10.0","https://app.prolific.com/","en-US,en;q=0.9","59cb95053306be000195be2e","683db9eb0562dbf637994deb","68808e1ccc20849007f21a4a","2","1","59cb95053306be000195be2e","2","1","2025-07-23T07:56:25.036Z","","{""Q01"":""3"",""Q02"":""1"",""Q03"":""0"",""Q04"":""3"",""Q05"":""1"",""Q06"":""2"",""Q07"":""2"",""Q08"":""0"",""Q09"":""0"",""Q10"":""0"",""Q11"":""0"",""Q12"":""0"",""Q13"":""5"",""Q14"":""0"",""Q15"":""0"",""Q16"":""0"",""Q17"":""1"",""Q18"":""0"",""Q19"":""0"",""Q20"":""2"",""Q21"":""1"",""Q22"":""1""}","[0,1,2,3,4,5,6,7,8,9,10,11,12,13,14,15,16,17,18,19,20,21]","[""Q01"",""Q02"",""Q03"",""Q04"",""Q05"",""Q06"",""Q07"",""Q08"",""Q09"",""Q10"",""Q11"",""Q12"",""Q13"",""Q14"",""Q15"",""Q16"",""Q17"",""Q18"",""Q19"",""Q20"",""Q21"",""Q22"",""Q22""]","[15984.200000000186,22053.200000000186,25807.900000000373,27004.400000000373,28632,31043.400000000373,32701,34751,36329.200000000186,37644.700000000186,43539.5,49686.5,73259.6000000001,75300.20000000019,78204.6000000001,79744.5,83658,84874.40000000037,86865.5,92760.70000000019,110083.30000000028,112298.6000000001,118264]","[]","[0.40000000037252903,15984.200000000186,22053.200000000186,25807.900000000373,27004.400000000373,28632,31043.400000000373,32701,34751,36329.200000000186,37644.700000000186,43539.5,49686.5,73259.6000000001,75300.20000000019,77722.70000000019,78204.6000000001,79744.5,83658,84874.40000000037,86865.5,92760.70000000019,110083.30000000028,112298.6000000001,118264,120991.80000000028]","0.5","0.3333333333333333","0","drsp","","","","","","","","","","","","","","","","","","","","","","","","","","","","","","",""
"18251.600000000093","","","","survey-template","4","223807","0.0-2.0-2.0","186","1","2025-07-23 07:52:58","1f75c3e559b7213887762d5229550c2b","86.167.102.64","Mozilla/5.0 (Windows NT 10.0; Win64; x64) AppleWebKit/537.36 (KHTML, like Gecko) Chrome/138.0.0.0 Safari/537.36","WebKit","Chrome","138.0.0.0","Windows","10.0","https://app.prolific.com/","en-US,en;q=0.9","59cb95053306be000195be2e","683db9eb0562dbf637994deb","68808e1ccc20849007f21a4a","2","1","59cb95053306be000195be2e","2","1","2025-07-23T07:56:43.292Z","","{""Q01"":""3"",""Q02"":""4"",""Q03"":""1""}","[0,1,2]","[""Q01"",""Q02"",""Q03""]","[12461.299999999814,15110.200000000186,17297.799999999814]","[]","[12461.299999999814,15110.200000000186,17297.799999999814,18249.100000000093]","0.6666666666666666","0","0","stress","","","","","","","","","","","","","","","","","","","","","","","","","","","","","","",""
"30030","","","","instructions","5","253839","0.0-3.0-0.0","186","1","2025-07-23 07:52:58","1f75c3e559b7213887762d5229550c2b","86.167.102.64","Mozilla/5.0 (Windows NT 10.0; Win64; x64) AppleWebKit/537.36 (KHTML, like Gecko) Chrome/138.0.0.0 Safari/537.36","WebKit","Chrome","138.0.0.0","Windows","10.0","https://app.prolific.com/","en-US,en;q=0.9","59cb95053306be000195be2e","683db9eb0562dbf637994deb","68808e1ccc20849007f21a4a","2","1","59cb95053306be000195be2e","2","1","","","","","","","","","","","","","[{""page_index"":0,""viewing_time"":30030}]","","","","","","","","","","","","","","","","","","","","","","","","","","","","","",""
"73109","","<p>Before you start with this game please answer the following three questions yourself. </p>
  <p>Through this game, we measure several aspects of your cognitive performance, such as reaction times, multi-tasking capabilities </p>
  <p>and the ability to assess the situation you are in.</p>
  <p></p>
  <p><b>How good do you usually are in such tasks?</b></p>","58","html-slider-response","6","326951","0.0-4.0-0.0","186","1","2025-07-23 07:52:58","1f75c3e559b7213887762d5229550c2b","86.167.102.64","Mozilla/5.0 (Windows NT 10.0; Win64; x64) AppleWebKit/537.36 (KHTML, like Gecko) Chrome/138.0.0.0 Safari/537.36","WebKit","Chrome","138.0.0.0","Windows","10.0","https://app.prolific.com/","en-US,en;q=0.9","59cb95053306be000195be2e","683db9eb0562dbf637994deb","68808e1ccc20849007f21a4a","2","1","59cb95053306be000195be2e","2","1","2025-07-23T07:58:26.436Z","","","","","","","","","","","PreSkillQ","","50","","","","","","","","","","","","","","","","","","","","","","","","","","","","",""
"8039","","<div style=""width:500px;"">
  <p>How well do you think you will perform in this task compared to other participants?</p>
  </div>","52","html-slider-response","7","334994","0.0-4.0-1.0","186","1","2025-07-23 07:52:58","1f75c3e559b7213887762d5229550c2b","86.167.102.64","Mozilla/5.0 (Windows NT 10.0; Win64; x64) AppleWebKit/537.36 (KHTML, like Gecko) Chrome/138.0.0.0 Safari/537.36","WebKit","Chrome","138.0.0.0","Windows","10.0","https://app.prolific.com/","en-US,en;q=0.9","59cb95053306be000195be2e","683db9eb0562dbf637994deb","68808e1ccc20849007f21a4a","2","1","59cb95053306be000195be2e","2","1","2025-07-23T07:58:34.479Z","","","","","","","","","","","PrePerfQ","","50","","","","","","","","","","","","","","","","","","","","","","","","","","","","",""
"3922","","<div style=""width:500px;"">
  <p>What best describes how you currently feel?</p>
  </div>","77","html-slider-response","8","338919","0.0-4.0-2.0","186","1","2025-07-23 07:52:58","1f75c3e559b7213887762d5229550c2b","86.167.102.64","Mozilla/5.0 (Windows NT 10.0; Win64; x64) AppleWebKit/537.36 (KHTML, like Gecko) Chrome/138.0.0.0 Safari/537.36","WebKit","Chrome","138.0.0.0","Windows","10.0","https://app.prolific.com/","en-US,en;q=0.9","59cb95053306be000195be2e","683db9eb0562dbf637994deb","68808e1ccc20849007f21a4a","2","1","59cb95053306be000195be2e","2","1","2025-07-23T07:58:38.404Z","","","","","","","","","","","PreMotivationQ","","50","","","","","","","","","","","","","","","","","","","","","","","","","","","","",""
"","","","","ctl-task-cpt","9","377005","0.0-5.0-0.0","186","1","2025-07-23 07:52:58","1f75c3e559b7213887762d5229550c2b","86.167.102.64","Mozilla/5.0 (Windows NT 10.0; Win64; x64) AppleWebKit/537.36 (KHTML, like Gecko) Chrome/138.0.0.0 Safari/537.36","WebKit","Chrome","138.0.0.0","Windows","10.0","https://app.prolific.com/","en-US,en;q=0.9","59cb95053306be000195be2e","683db9eb0562dbf637994deb","68808e1ccc20849007f21a4a","2","1","59cb95053306be000195be2e","2","1","2025-07-23T07:59:16.490Z","","","","","","","","","","","","","","win-only","0","g1:NW,g2:SE","1","1","0","340739.7","3230.9","8233.4","35071.2","1","4","4","6","2","-4","-6","0","0","0","1637.8","3000","-2710","[""down"",""right""]","{""num_key_presses"":6,""num_perfect"":4,""num_errors"":2,""num_randdir"":0,""num_randdir_good_moves"":0,""num_whilered"":0,""num_whileblue"":1,""num_blue"":3,""num_good_moves"":5}","[419.0714133126395,416.57142761775424,1,419.0714133126395,416.57142761775424,103.4,419.0714133126395,416.57142761775424,205.2,419.0714133126395,416.57142761775424,305.4,419.0714133126395,416.57142761775424,411.8,419.0714133126395,416.57142761775424,520.2,419.0714133126395,416.57142761775424,625.4,419.0714133126395,416.57142761775424,734.3,419.0714133126395,416.57142761775424,834.9,419.0714133126395,416.57142761775424,935.9,419.0714133126395,416.57142761775424,1035.9,419.0714133126395,416.57142761775424,1137.5,652.8214133126395,609.0714276177542,1241.1,827.8214133126395,749.0714276177542,1343.8,827.8214133126395,750.3214276177542,1453.1,827.8214133126395,750.3214276177542,1555.4,827.8214133126395,751.5714276177542,1657.1,827.8214133126395,751.5714276177542,1766.8,827.8214133126395,751.5714276177542,1869.3,827.8214133126395,751.5714276177542,1970.5,827.8214133126395,751.5714276177542,2075.5,827.8214133126395,751.5714276177542,2175.6,827.8214133126395,751.5714276177542,2275.8,827.8214133126395,751.5714276177542,2384.7,827.8214133126395,751.5714276177542,2484.9,827.8214133126395,751.5714276177542,2585.3,827.8214133126395,751.5714276177542,2686.1,827.8214133126395,751.5714276177542,2790.8,827.8214133126395,751.5714276177542,2891.4,827.8214133126395,751.5714276177542,3000.7,827.8214133126395,751.5714276177542,3100.8,827.8214133126395,751.5714276177542,3200.9,827.8214133126395,751.5714276177542,3301.2,827.8214133126395,751.5714276177542,3405.5,827.8214133126395,751.5714276177542,3510.8,827.8214133126395,751.5714276177542,3610.9,827.8214133126395,751.5714276177542,3711.4,827.8214133126395,751.5714276177542,3811.5,827.8214133126395,751.5714276177542,3911.6,827.8214133126395,751.5714276177542,4011.7,827.8214133126395,751.5714276177542,4111.9,827.8214133126395,751.5714276177542,4216.8,827.8214133126395,751.5714276177542,4317.9,827.8214133126395,751.5714276177542,4418.5,827.8214133126395,751.5714276177542,4519.2,827.8214133126395,751.5714276177542,4620.5,827.8214133126395,751.5714276177542,4720.9,827.8214133126395,751.5714276177542,4825.2,827.8214133126395,751.5714276177542,4925.3]","[331.1,331.1,1000,0.1,-669,""error"",""-"",""-"",""no_move"",4149.7,3817.4,2431.1,1333.3,385.3,""while_blue"",""down"",""down"",""good_move"",6796.7,2645.3,2130.9,4151.5,514.3,""smooth"",""down"",""down"",""good_move"",12786.2,5988.3,2470.9,9862.9,452.4,""smooth"",""down"",""down"",""good_move"",16150.1,3363.1,2815.9,12787,547.2,""smooth"",""right"",""right"",""good_move"",22727.4,6575.7,2728.4,19453.8,545.2,""smooth"",""right"",""right"",""good_move""]","",""
"6054","","<div style=""width:500px;"">
  <p>What determined the result of this run?</p>
  </div>","91","html-slider-response","10","383062","0.0-5.0-1.0","186","1","2025-07-23 07:52:58","1f75c3e559b7213887762d5229550c2b","86.167.102.64","Mozilla/5.0 (Windows NT 10.0; Win64; x64) AppleWebKit/537.36 (KHTML, like Gecko) Chrome/138.0.0.0 Safari/537.36","WebKit","Chrome","138.0.0.0","Windows","10.0","https://app.prolific.com/","en-US,en;q=0.9","59cb95053306be000195be2e","683db9eb0562dbf637994deb","68808e1ccc20849007f21a4a","2","1","59cb95053306be000195be2e","2","1","2025-07-23T07:59:22.547Z","","","","","","","","","","","AttribQ","","50","","","","","","","","","","","","","","","","","","","","","","","","","","","","",""
"4196","","<div style=""width:500px;"">
  <p>How much control did you have over the ball?</p>
  </div>","99","html-slider-response","11","387261","0.0-5.0-2.0","186","1","2025-07-23 07:52:58","1f75c3e559b7213887762d5229550c2b","86.167.102.64","Mozilla/5.0 (Windows NT 10.0; Win64; x64) AppleWebKit/537.36 (KHTML, like Gecko) Chrome/138.0.0.0 Safari/537.36","WebKit","Chrome","138.0.0.0","Windows","10.0","https://app.prolific.com/","en-US,en;q=0.9","59cb95053306be000195be2e","683db9eb0562dbf637994deb","68808e1ccc20849007f21a4a","2","1","59cb95053306be000195be2e","2","1","2025-07-23T07:59:26.746Z","","","","","","","","","","","ControlQ","","50","","","","","","","","","","","","","","","","","","","","","","","","","","","","",""
"5765","","<div style=""width:500px;"">
  <p>How would you describe your current emotional state?</p>
  </div>","27","html-slider-response","12","393029","0.0-5.0-3.0","186","1","2025-07-23 07:52:58","1f75c3e559b7213887762d5229550c2b","86.167.102.64","Mozilla/5.0 (Windows NT 10.0; Win64; x64) AppleWebKit/537.36 (KHTML, like Gecko) Chrome/138.0.0.0 Safari/537.36","WebKit","Chrome","138.0.0.0","Windows","10.0","https://app.prolific.com/","en-US,en;q=0.9","59cb95053306be000195be2e","683db9eb0562dbf637994deb","68808e1ccc20849007f21a4a","2","1","59cb95053306be000195be2e","2","1","2025-07-23T07:59:32.514Z","","","","","","","","","","","StressQ","","50","","","","","","","","","","","","","","","","","","","","","","","","","","","","",""
"2970","","<div style=""width:500px;"">
  <p>What best describes how you currently feel?</p>
  </div>","62","html-slider-response","13","396002","0.0-5.0-4.0","186","1","2025-07-23 07:52:58","1f75c3e559b7213887762d5229550c2b","86.167.102.64","Mozilla/5.0 (Windows NT 10.0; Win64; x64) AppleWebKit/537.36 (KHTML, like Gecko) Chrome/138.0.0.0 Safari/537.36","WebKit","Chrome","138.0.0.0","Windows","10.0","https://app.prolific.com/","en-US,en;q=0.9","59cb95053306be000195be2e","683db9eb0562dbf637994deb","68808e1ccc20849007f21a4a","2","1","59cb95053306be000195be2e","2","1","2025-07-23T07:59:35.487Z","","","","","","","","","","","MotivationQ","","50","","","","","","","","","","","","","","","","","","","","","","","","","","","","",""
"","","","","ctl-task-cpt","14","425320","0.0-5.0-0.1","186","1","2025-07-23 07:52:58","1f75c3e559b7213887762d5229550c2b","86.167.102.64","Mozilla/5.0 (Windows NT 10.0; Win64; x64) AppleWebKit/537.36 (KHTML, like Gecko) Chrome/138.0.0.0 Safari/537.36","WebKit","Chrome","138.0.0.0","Windows","10.0","https://app.prolific.com/","en-US,en;q=0.9","59cb95053306be000195be2e","683db9eb0562dbf637994deb","68808e1ccc20849007f21a4a","2","1","59cb95053306be000195be2e","2","1","2025-07-23T08:00:04.805Z","","","","","","","","","","","","","","win-only","2","g1:SE,g2:NW","0.9","2","0","397818.9","1435.9","6438.1","26308.6","1","4","8","6","2","8","8","8","0","0.06060606060606061","1230.6","3000","860","[""left"",""up""]","{""num_key_presses"":6,""num_perfect"":6,""num_errors"":0,""num_randdir"":0,""num_randdir_good_moves"":0,""num_whilered"":0,""num_whileblue"":0,""num_blue"":1,""num_good_moves"":6}","[416.5714133126395,407.82142761775424,0.8,416.5714133126395,407.82142761775424,100.4,416.5714133126395,407.82142761775424,200.6,416.5714133126395,407.82142761775424,301.4,416.5714133126395,407.82142761775424,410.6,416.5714133126395,407.82142761775424,510.6,411.5714133126395,405.32142761775424,617.9,76.5714133126395,150.32142761775424,718.8,46.57141331263951,11.571427617754253,821.5,46.57141331263951,11.571427617754253,932.9,46.57141331263951,14.071427617754253,1035.9,69.0714133126395,51.57142761775425,1138.9,70.3214133126395,55.32142761775425,1239.9,70.3214133126395,55.32142761775425,1341.8,70.3214133126395,55.32142761775425,1452.1,70.3214133126395,55.32142761775425,1558.8,70.3214133126395,55.32142761775425,1662.7,70.3214133126395,55.32142761775425,1763.2,70.3214133126395,55.32142761775425,1865.4,70.3214133126395,55.32142761775425,1965.5,70.3214133126395,55.32142761775425,2066.6,70.3214133126395,55.32142761775425,2170.7,70.3214133126395,55.32142761775425,2275.2,70.3214133126395,55.32142761775425,2381,70.3214133126395,55.32142761775425,2481.9,70.3214133126395,55.32142761775425,2586.5,70.3214133126395,55.32142761775425,2695.7,70.3214133126395,55.32142761775425,2801.2,70.3214133126395,55.32142761775425,2906.1,70.3214133126395,55.32142761775425,3008.3,70.3214133126395,55.32142761775425,3109.4,70.3214133126395,55.32142761775425,3214,70.3214133126395,55.32142761775425,3316.4,70.3214133126395,55.32142761775425,3424.7,70.3214133126395,55.32142761775425,3525.5,70.3214133126395,55.32142761775425,3631.3,70.3214133126395,55.32142761775425,3736.5,70.3214133126395,55.32142761775425,3845.6,70.3214133126395,55.32142761775425,3946.3,70.3214133126395,55.32142761775425,4058.6,70.3214133126395,55.32142761775425,4160.1,70.3214133126395,55.32142761775425,4260.2,70.3214133126395,55.32142761775425,4366.4,70.3214133126395,55.32142761775425,4466.8,70.3214133126395,55.32142761775425,4571,70.3214133126395,55.32142761775425,4675.8,70.3214133126395,55.32142761775425,4781.1,70.3214133126395,55.32142761775425,4881,70.3214133126395,55.32142761775425,4986.9]","[1404.2,1404.2,1000,0,404.2,""smooth"",""left"",""left"",""good_move"",4208.8,2802.4,2403,1406.4,399.4,""smooth"",""left"",""left"",""good_move"",7180.1,2966.6,2586.1,4213.6,380.5,""smooth"",""left"",""left"",""good_move"",13497.4,6315.8,2779.4,10295.3,422.7,""smooth"",""up"",""up"",""good_move"",16824,3325.5,2857.5,13498.5,468,""smooth"",""up"",""up"",""good_move"",19774.2,2948.5,2546,16825.7,402.5,""smooth"",""up"",""up"",""good_move""]","",""
"6601","","<div style=""width:500px;"">
  <p>What determined the result of this run?</p>
  </div>","92","html-slider-response","15","431923","0.0-5.0-1.1","186","1","2025-07-23 07:52:58","1f75c3e559b7213887762d5229550c2b","86.167.102.64","Mozilla/5.0 (Windows NT 10.0; Win64; x64) AppleWebKit/537.36 (KHTML, like Gecko) Chrome/138.0.0.0 Safari/537.36","WebKit","Chrome","138.0.0.0","Windows","10.0","https://app.prolific.com/","en-US,en;q=0.9","59cb95053306be000195be2e","683db9eb0562dbf637994deb","68808e1ccc20849007f21a4a","2","1","59cb95053306be000195be2e","2","1","2025-07-23T08:00:11.409Z","","","","","","","","","","","AttribQ","","50","","","","","","","","","","","","","","","","","","","","","","","","","","","","",""
"3450","","<div style=""width:500px;"">
  <p>How much control did you have over the ball?</p>
  </div>","100","html-slider-response","16","435376","0.0-5.0-2.1","186","1","2025-07-23 07:52:58","1f75c3e559b7213887762d5229550c2b","86.167.102.64","Mozilla/5.0 (Windows NT 10.0; Win64; x64) AppleWebKit/537.36 (KHTML, like Gecko) Chrome/138.0.0.0 Safari/537.36","WebKit","Chrome","138.0.0.0","Windows","10.0","https://app.prolific.com/","en-US,en;q=0.9","59cb95053306be000195be2e","683db9eb0562dbf637994deb","68808e1ccc20849007f21a4a","2","1","59cb95053306be000195be2e","2","1","2025-07-23T08:00:14.862Z","","","","","","","","","","","ControlQ","","50","","","","","","","","","","","","","","","","","","","","","","","","","","","","",""
"3601","","<div style=""width:500px;"">
  <p>How would you describe your current emotional state?</p>
  </div>","8","html-slider-response","17","438980","0.0-5.0-3.1","186","1","2025-07-23 07:52:58","1f75c3e559b7213887762d5229550c2b","86.167.102.64","Mozilla/5.0 (Windows NT 10.0; Win64; x64) AppleWebKit/537.36 (KHTML, like Gecko) Chrome/138.0.0.0 Safari/537.36","WebKit","Chrome","138.0.0.0","Windows","10.0","https://app.prolific.com/","en-US,en;q=0.9","59cb95053306be000195be2e","683db9eb0562dbf637994deb","68808e1ccc20849007f21a4a","2","1","59cb95053306be000195be2e","2","1","2025-07-23T08:00:18.465Z","","","","","","","","","","","StressQ","","50","","","","","","","","","","","","","","","","","","","","","","","","","","","","",""
"2426","","<div style=""width:500px;"">
  <p>What best describes how you currently feel?</p>
  </div>","71","html-slider-response","18","441409","0.0-5.0-4.1","186","1","2025-07-23 07:52:58","1f75c3e559b7213887762d5229550c2b","86.167.102.64","Mozilla/5.0 (Windows NT 10.0; Win64; x64) AppleWebKit/537.36 (KHTML, like Gecko) Chrome/138.0.0.0 Safari/537.36","WebKit","Chrome","138.0.0.0","Windows","10.0","https://app.prolific.com/","en-US,en;q=0.9","59cb95053306be000195be2e","683db9eb0562dbf637994deb","68808e1ccc20849007f21a4a","2","1","59cb95053306be000195be2e","2","1","2025-07-23T08:00:20.894Z","","","","","","","","","","","MotivationQ","","50","","","","","","","","","","","","","","","","","","","","","","","","","","","","",""
"","","","","ctl-task-cpt","19","483717","0.0-5.0-0.2","186","1","2025-07-23 07:52:58","1f75c3e559b7213887762d5229550c2b","86.167.102.64","Mozilla/5.0 (Windows NT 10.0; Win64; x64) AppleWebKit/537.36 (KHTML, like Gecko) Chrome/138.0.0.0 Safari/537.36","WebKit","Chrome","138.0.0.0","Windows","10.0","https://app.prolific.com/","en-US,en;q=0.9","59cb95053306be000195be2e","683db9eb0562dbf637994deb","68808e1ccc20849007f21a4a","2","1","59cb95053306be000195be2e","2","1","2025-07-23T08:01:03.202Z","","","","","","","","","","","","","","win-only","2","g1:SE,g2:NW","0.8","3","0","443225.8","1400","6404.4","39298.7","1","4","8","6","2","-8","-9","0","8","0","1148.1","3000","-2315","[""left"",""up""]","{""num_key_presses"":8,""num_perfect"":5,""num_errors"":1,""num_randdir"":2,""num_randdir_good_moves"":1,""num_whilered"":0,""num_whileblue"":0,""num_blue"":3,""num_good_moves"":6}","[412.8214133126395,415.32142761775424,1.2,412.8214133126395,415.32142761775424,104,412.8214133126395,415.32142761775424,204.3,412.8214133126395,415.32142761775424,307.2,412.8214133126395,415.32142761775424,407.5,412.8214133126395,415.32142761775424,518.7,199.0714133126395,241.57142761775424,633.5,131.5714133126395,191.57142761775424,736.8,109.0714133126395,156.57142761775424,837.5,96.5714133126395,136.57142761775424,943.4,96.5714133126395,126.57142761775425,1047.6,96.5714133126395,124.07142761775425,1168.5,96.5714133126395,124.07142761775425,1275.4,96.5714133126395,124.07142761775425,1376.8,96.5714133126395,124.07142761775425,1489.4,96.5714133126395,124.07142761775425,1592.7,96.5714133126395,124.07142761775425,1692.8,96.5714133126395,124.07142761775425,1802.5,96.5714133126395,124.07142761775425,1903.9,96.5714133126395,124.07142761775425,2006.2,96.5714133126395,124.07142761775425,2106.3,96.5714133126395,124.07142761775425,2206.5,96.5714133126395,124.07142761775425,2312.8,96.5714133126395,124.07142761775425,2421.8,96.5714133126395,124.07142761775425,2523.4,96.5714133126395,124.07142761775425,2628.7,96.5714133126395,124.07142761775425,2739.1,96.5714133126395,124.07142761775425,2839.2,96.5714133126395,124.07142761775425,2955.1,96.5714133126395,124.07142761775425,3057,96.5714133126395,124.07142761775425,3162,96.5714133126395,124.07142761775425,3273,96.5714133126395,124.07142761775425,3376.3,96.5714133126395,124.07142761775425,3489,96.5714133126395,124.07142761775425,3591.5,96.5714133126395,124.07142761775425,3691.9,96.5714133126395,124.07142761775425,3798.2,96.5714133126395,124.07142761775425,3899.1,96.5714133126395,124.07142761775425,4003,96.5714133126395,124.07142761775425,4103.7,96.5714133126395,124.07142761775425,4206.3,96.5714133126395,124.07142761775425,4307.1,96.5714133126395,124.07142761775425,4413.7,96.5714133126395,124.07142761775425,4514.1,96.5714133126395,124.07142761775425,4616.2,96.5714133126395,124.07142761775425,4717.3,96.5714133126395,124.07142761775425,4822.6,96.5714133126395,124.07142761775425,4925.9]","[4579.6,4579.7,2193.4,2011.8,374.5,""smooth"",""left"",""left"",""good_move"",6902.4,2321.1,1796.6,4581.4,524.5,""smooth"",""left"",""left"",""good_move"",9482.3,2578.4,1881.2,6903.9,697.2,""smooth"",""left"",""left"",""good_move"",13182,3698.4,2951.9,9483.6,746.5,""oops"",""up"",""up"",""good_move"",19861.2,6677.5,1958.4,17446.9,455.9,""oops"",""up"",""down"",""bad_move"",25427.5,5565.1,1998.3,23052.5,376.8,""smooth"",""up"",""up"",""good_move"",27211,1782.3,2755.3,25428.7,-973,""error"",""-"",""-"",""no_move"",30289.8,3077.5,1618.7,28215.4,455.7,""smooth"",""up"",""up"",""good_move""]","",""
"3781","","<div style=""width:500px;"">
  <p>What determined the result of this run?</p>
  </div>","34","html-slider-response","20","487503","0.0-5.0-1.2","186","1","2025-07-23 07:52:58","1f75c3e559b7213887762d5229550c2b","86.167.102.64","Mozilla/5.0 (Windows NT 10.0; Win64; x64) AppleWebKit/537.36 (KHTML, like Gecko) Chrome/138.0.0.0 Safari/537.36","WebKit","Chrome","138.0.0.0","Windows","10.0","https://app.prolific.com/","en-US,en;q=0.9","59cb95053306be000195be2e","683db9eb0562dbf637994deb","68808e1ccc20849007f21a4a","2","1","59cb95053306be000195be2e","2","1","2025-07-23T08:01:06.988Z","","","","","","","","","","","AttribQ","","50","","","","","","","","","","","","","","","","","","","","","","","","","","","","",""
"3192","","<div style=""width:500px;"">
  <p>How much control did you have over the ball?</p>
  </div>","44","html-slider-response","21","490698","0.0-5.0-2.2","186","1","2025-07-23 07:52:58","1f75c3e559b7213887762d5229550c2b","86.167.102.64","Mozilla/5.0 (Windows NT 10.0; Win64; x64) AppleWebKit/537.36 (KHTML, like Gecko) Chrome/138.0.0.0 Safari/537.36","WebKit","Chrome","138.0.0.0","Windows","10.0","https://app.prolific.com/","en-US,en;q=0.9","59cb95053306be000195be2e","683db9eb0562dbf637994deb","68808e1ccc20849007f21a4a","2","1","59cb95053306be000195be2e","2","1","2025-07-23T08:01:10.183Z","","","","","","","","","","","ControlQ","","50","","","","","","","","","","","","","","","","","","","","","","","","","","","","",""
"2941","","<div style=""width:500px;"">
  <p>How would you describe your current emotional state?</p>
  </div>","58","html-slider-response","22","493641","0.0-5.0-3.2","186","1","2025-07-23 07:52:58","1f75c3e559b7213887762d5229550c2b","86.167.102.64","Mozilla/5.0 (Windows NT 10.0; Win64; x64) AppleWebKit/537.36 (KHTML, like Gecko) Chrome/138.0.0.0 Safari/537.36","WebKit","Chrome","138.0.0.0","Windows","10.0","https://app.prolific.com/","en-US,en;q=0.9","59cb95053306be000195be2e","683db9eb0562dbf637994deb","68808e1ccc20849007f21a4a","2","1","59cb95053306be000195be2e","2","1","2025-07-23T08:01:13.126Z","","","","","","","","","","","StressQ","","50","","","","","","","","","","","","","","","","","","","","","","","","","","","","",""
"2578","","<div style=""width:500px;"">
  <p>What best describes how you currently feel?</p>
  </div>","35","html-slider-response","23","496222","0.0-5.0-4.2","186","1","2025-07-23 07:52:58","1f75c3e559b7213887762d5229550c2b","86.167.102.64","Mozilla/5.0 (Windows NT 10.0; Win64; x64) AppleWebKit/537.36 (KHTML, like Gecko) Chrome/138.0.0.0 Safari/537.36","WebKit","Chrome","138.0.0.0","Windows","10.0","https://app.prolific.com/","en-US,en;q=0.9","59cb95053306be000195be2e","683db9eb0562dbf637994deb","68808e1ccc20849007f21a4a","2","1","59cb95053306be000195be2e","2","1","2025-07-23T08:01:15.707Z","","","","","","","","","","","MotivationQ","","50","","","","","","","","","","","","","","","","","","","","","","","","","","","","",""
"","","","","ctl-task-cpt","24","533341","0.0-5.0-0.3","186","1","2025-07-23 07:52:58","1f75c3e559b7213887762d5229550c2b","86.167.102.64","Mozilla/5.0 (Windows NT 10.0; Win64; x64) AppleWebKit/537.36 (KHTML, like Gecko) Chrome/138.0.0.0 Safari/537.36","WebKit","Chrome","138.0.0.0","Windows","10.0","https://app.prolific.com/","en-US,en;q=0.9","59cb95053306be000195be2e","683db9eb0562dbf637994deb","68808e1ccc20849007f21a4a","2","1","59cb95053306be000195be2e","2","1","2025-07-23T08:01:52.826Z","","","","","","","","","","","","","","win-only","0","g1:NW,g2:SE","0.7","4","0","498040.2","1387.7","6408.5","34095.1","1","4","4","6","2","-4","-5","0","0","0","1188.8","3000","-2300","[""down"",""right""]","{""num_key_presses"":9,""num_perfect"":5,""num_errors"":1,""num_randdir"":3,""num_randdir_good_moves"":0,""num_whilered"":0,""num_whileblue"":0,""num_blue"":1,""num_good_moves"":5}","[417.8214133126395,406.57142761775424,0.9,417.8214133126395,406.57142761775424,106,417.8214133126395,406.57142761775424,215.6,417.8214133126395,406.57142761775424,320.3,417.8214133126395,406.57142761775424,431.4,417.8214133126395,406.57142761775424,538.2,534.0714133126395,491.57142761775424,645.3,842.8214133126395,761.5714276177542,750.3,842.8214133126395,762.8214276177542,863.8,842.8214133126395,762.8214276177542,964.2,840.3214133126395,765.3214276177542,1069.2,829.0714133126395,765.3214276177542,1173.6,827.8214133126395,765.3214276177542,1275.5,827.8214133126395,765.3214276177542,1380.3,827.8214133126395,765.3214276177542,1482,827.8214133126395,765.3214276177542,1583.9,827.8214133126395,765.3214276177542,1687,827.8214133126395,765.3214276177542,1799.1,827.8214133126395,765.3214276177542,1899.4,827.8214133126395,765.3214276177542,2005.4,827.8214133126395,765.3214276177542,2111,827.8214133126395,765.3214276177542,2211.1,827.8214133126395,765.3214276177542,2313.7,827.8214133126395,765.3214276177542,2415.4,827.8214133126395,765.3214276177542,2519.3,827.8214133126395,765.3214276177542,2626.6,827.8214133126395,765.3214276177542,2731.3,827.8214133126395,765.3214276177542,2834.2,827.8214133126395,765.3214276177542,2935.1,827.8214133126395,765.3214276177542,3044.7,827.8214133126395,765.3214276177542,3148.4,827.8214133126395,765.3214276177542,3249.3,827.8214133126395,765.3214276177542,3349.9,827.8214133126395,765.3214276177542,3454.4,827.8214133126395,765.3214276177542,3562.4,827.8214133126395,765.3214276177542,3662.9,827.8214133126395,765.3214276177542,3763.2,827.8214133126395,765.3214276177542,3864.5,827.8214133126395,765.3214276177542,3967.3,827.8214133126395,765.3214276177542,4075,827.8214133126395,765.3214276177542,4176.2,827.8214133126395,765.3214276177542,4278.2,827.8214133126395,765.3214276177542,4379.5,827.8214133126395,765.3214276177542,4479.6,827.8214133126395,765.3214276177542,4582.7,827.8214133126395,765.3214276177542,4694.3,827.8214133126395,765.3214276177542,4799.3,827.8214133126395,765.3214276177542,4902]","[1715.1,1715.2,1000,0,715.2,""oops"",""right"",""left"",""bad_move"",4173.2,2455.4,1863.5,1717.9,591.9,""oops"",""down"",""left"",""bad_move"",6540,2365,1825.2,4175,539.8,""smooth"",""down"",""down"",""good_move"",9411.3,2869.8,2511.2,6541.5,358.6,""smooth"",""down"",""down"",""good_move"",12959.7,3545,3129.9,9414.7,415.1,""smooth"",""down"",""down"",""good_move"",15985.8,3024.7,2603.2,12961.1,421.5,""oops"",""right"",""left"",""bad_move"",19419,3430.9,1982.9,18972.4,-1536.3,""error"",""-"",""-"",""no_move"",22623,3202.7,1606.8,20421.7,594.5,""smooth"",""right"",""right"",""good_move"",25385.1,2761.1,2165.8,22624.1,595.3,""smooth"",""right"",""right"",""good_move""]","",""
"4143","","<div style=""width:500px;"">
  <p>What determined the result of this run?</p>
  </div>","8","html-slider-response","25","537487","0.0-5.0-1.3","186","1","2025-07-23 07:52:58","1f75c3e559b7213887762d5229550c2b","86.167.102.64","Mozilla/5.0 (Windows NT 10.0; Win64; x64) AppleWebKit/537.36 (KHTML, like Gecko) Chrome/138.0.0.0 Safari/537.36","WebKit","Chrome","138.0.0.0","Windows","10.0","https://app.prolific.com/","en-US,en;q=0.9","59cb95053306be000195be2e","683db9eb0562dbf637994deb","68808e1ccc20849007f21a4a","2","1","59cb95053306be000195be2e","2","1","2025-07-23T08:01:56.972Z","","","","","","","","","","","AttribQ","","50","","","","","","","","","","","","","","","","","","","","","","","","","","","","",""
"2794","","<div style=""width:500px;"">
  <p>How much control did you have over the ball?</p>
  </div>","6","html-slider-response","26","540282","0.0-5.0-2.3","186","1","2025-07-23 07:52:58","1f75c3e559b7213887762d5229550c2b","86.167.102.64","Mozilla/5.0 (Windows NT 10.0; Win64; x64) AppleWebKit/537.36 (KHTML, like Gecko) Chrome/138.0.0.0 Safari/537.36","WebKit","Chrome","138.0.0.0","Windows","10.0","https://app.prolific.com/","en-US,en;q=0.9","59cb95053306be000195be2e","683db9eb0562dbf637994deb","68808e1ccc20849007f21a4a","2","1","59cb95053306be000195be2e","2","1","2025-07-23T08:01:59.768Z","","","","","","","","","","","ControlQ","","50","","","","","","","","","","","","","","","","","","","","","","","","","","","","",""
"3155","","<div style=""width:500px;"">
  <p>How would you describe your current emotional state?</p>
  </div>","60","html-slider-response","27","543439","0.0-5.0-3.3","186","1","2025-07-23 07:52:58","1f75c3e559b7213887762d5229550c2b","86.167.102.64","Mozilla/5.0 (Windows NT 10.0; Win64; x64) AppleWebKit/537.36 (KHTML, like Gecko) Chrome/138.0.0.0 Safari/537.36","WebKit","Chrome","138.0.0.0","Windows","10.0","https://app.prolific.com/","en-US,en;q=0.9","59cb95053306be000195be2e","683db9eb0562dbf637994deb","68808e1ccc20849007f21a4a","2","1","59cb95053306be000195be2e","2","1","2025-07-23T08:02:02.925Z","","","","","","","","","","","StressQ","","50","","","","","","","","","","","","","","","","","","","","","","","","","","","","",""
"3118","","<div style=""width:500px;"">
  <p>What best describes how you currently feel?</p>
  </div>","45","html-slider-response","28","546563","0.0-5.0-4.3","186","1","2025-07-23 07:52:58","1f75c3e559b7213887762d5229550c2b","86.167.102.64","Mozilla/5.0 (Windows NT 10.0; Win64; x64) AppleWebKit/537.36 (KHTML, like Gecko) Chrome/138.0.0.0 Safari/537.36","WebKit","Chrome","138.0.0.0","Windows","10.0","https://app.prolific.com/","en-US,en;q=0.9","59cb95053306be000195be2e","683db9eb0562dbf637994deb","68808e1ccc20849007f21a4a","2","1","59cb95053306be000195be2e","2","1","2025-07-23T08:02:06.048Z","","","","","","","","","","","MotivationQ","","50","","","","","","","","","","","","","","","","","","","","","","","","","","","","",""
"","","","","ctl-task-cpt","29","574442","0.0-5.0-0.4","186","1","2025-07-23 07:52:58","1f75c3e559b7213887762d5229550c2b","86.167.102.64","Mozilla/5.0 (Windows NT 10.0; Win64; x64) AppleWebKit/537.36 (KHTML, like Gecko) Chrome/138.0.0.0 Safari/537.36","WebKit","Chrome","138.0.0.0","Windows","10.0","https://app.prolific.com/","en-US,en;q=0.9","59cb95053306be000195be2e","683db9eb0562dbf637994deb","68808e1ccc20849007f21a4a","2","1","59cb95053306be000195be2e","2","1","2025-07-23T08:02:33.927Z","","","","","","","","","","","","","","win-only","0","g1:NW,g2:SE","0.6","5","0","548383.4","1549.3","6553.9","24850.7","1","4","8","6","2","-8","-9","0","0","0","922.3","3000","-2195","[""down"",""right""]","{""num_key_presses"":5,""num_perfect"":2,""num_errors"":1,""num_randdir"":2,""num_randdir_good_moves"":0,""num_whilered"":0,""num_whileblue"":1,""num_blue"":1,""num_good_moves"":2}","[422.8214133126395,406.57142761775424,2.2,422.8214133126395,406.57142761775424,102.3,422.8214133126395,406.57142761775424,204.2,422.8214133126395,406.57142761775424,310.3,422.8214133126395,406.57142761775424,414.1,422.8214133126395,406.57142761775424,517.9,747.8214133126395,711.5714276177542,621.4,770.3214133126395,741.5714276177542,728.6,770.3214133126395,744.0714276177542,830.7,770.3214133126395,744.0714276177542,930.8,770.3214133126395,744.0714276177542,1036.3,770.3214133126395,744.0714276177542,1137.5,770.3214133126395,744.0714276177542,1241.5,770.3214133126395,744.0714276177542,1349.6,770.3214133126395,744.0714276177542,1452.2,770.3214133126395,744.0714276177542,1553.6,770.3214133126395,744.0714276177542,1660.6,770.3214133126395,744.0714276177542,1766.3,770.3214133126395,744.0714276177542,1885.3,770.3214133126395,744.0714276177542,1985.9,770.3214133126395,744.0714276177542,2086.4,770.3214133126395,744.0714276177542,2191.2,771.5714133126395,744.0714276177542,2292.7,771.5714133126395,744.0714276177542,2394.9,771.5714133126395,744.0714276177542,2498.2,771.5714133126395,744.0714276177542,2599.8,771.5714133126395,744.0714276177542,2703,771.5714133126395,744.0714276177542,2809.1,771.5714133126395,744.0714276177542,2911.9,771.5714133126395,744.0714276177542,3013.2,771.5714133126395,744.0714276177542,3123.9,771.5714133126395,744.0714276177542,3228.2,771.5714133126395,744.0714276177542,3332.1,771.5714133126395,744.0714276177542,3436.2,771.5714133126395,744.0714276177542,3544.6,771.5714133126395,744.0714276177542,3645.6,771.5714133126395,744.0714276177542,3750.5,771.5714133126395,744.0714276177542,3852.7,771.5714133126395,744.0714276177542,3955,771.5714133126395,744.0714276177542,4071.4,771.5714133126395,744.0714276177542,4181.2,771.5714133126395,744.0714276177542,4286.6,771.5714133126395,744.0714276177542,4388.7,771.5714133126395,744.0714276177542,4492.6,771.5714133126395,744.0714276177542,4598.7,771.5714133126395,744.0714276177542,4701.2,771.5714133126395,744.0714276177542,4801.3,771.5714133126395,744.0714276177542,4901.5]","[1685.2,1685.1,1000,0.1,685.1,""smooth"",""right"",""right"",""good_move"",5094.8,3407.6,3013,1687.2,394.6,""smooth"",""right"",""right"",""good_move"",8244.4,3148.3,2262.4,5096.6,885.4,""oops"",""right"",""up"",""bad_move"",11310.1,3063.6,2680.3,8246.5,383.3,""while_blue"",""down"",""left"",""bad_move"",14455.3,3143.4,2031.4,11311.9,1112,""oops"",""down"",""up"",""bad_move""]","",""
"17460","","<div style=""width:500px;"">
  <p>What determined the result of this run?</p>
  </div>","30","html-slider-response","30","591906","0.0-5.0-1.4","186","1","2025-07-23 07:52:58","1f75c3e559b7213887762d5229550c2b","86.167.102.64","Mozilla/5.0 (Windows NT 10.0; Win64; x64) AppleWebKit/537.36 (KHTML, like Gecko) Chrome/138.0.0.0 Safari/537.36","WebKit","Chrome","138.0.0.0","Windows","10.0","https://app.prolific.com/","en-US,en;q=0.9","59cb95053306be000195be2e","683db9eb0562dbf637994deb","68808e1ccc20849007f21a4a","2","1","59cb95053306be000195be2e","2","1","2025-07-23T08:02:51.391Z","","","","","","","","","","","AttribQ","","50","","","","","","","","","","","","","","","","","","","","","","","","","","","","",""
"12584","","<div style=""width:500px;"">
  <p>How much control did you have over the ball?</p>
  </div>","22","html-slider-response","31","604493","0.0-5.0-2.4","186","1","2025-07-23 07:52:58","1f75c3e559b7213887762d5229550c2b","86.167.102.64","Mozilla/5.0 (Windows NT 10.0; Win64; x64) AppleWebKit/537.36 (KHTML, like Gecko) Chrome/138.0.0.0 Safari/537.36","WebKit","Chrome","138.0.0.0","Windows","10.0","https://app.prolific.com/","en-US,en;q=0.9","59cb95053306be000195be2e","683db9eb0562dbf637994deb","68808e1ccc20849007f21a4a","2","1","59cb95053306be000195be2e","2","1","2025-07-23T08:03:03.979Z","","","","","","","","","","","ControlQ","","50","","","","","","","","","","","","","","","","","","","","","","","","","","","","",""
"5675","","<div style=""width:500px;"">
  <p>How would you describe your current emotional state?</p>
  </div>","60","html-slider-response","32","610172","0.0-5.0-3.4","186","1","2025-07-23 07:52:58","1f75c3e559b7213887762d5229550c2b","86.167.102.64","Mozilla/5.0 (Windows NT 10.0; Win64; x64) AppleWebKit/537.36 (KHTML, like Gecko) Chrome/138.0.0.0 Safari/537.36","WebKit","Chrome","138.0.0.0","Windows","10.0","https://app.prolific.com/","en-US,en;q=0.9","59cb95053306be000195be2e","683db9eb0562dbf637994deb","68808e1ccc20849007f21a4a","2","1","59cb95053306be000195be2e","2","1","2025-07-23T08:03:09.657Z","","","","","","","","","","","StressQ","","50","","","","","","","","","","","","","","","","","","","","","","","","","","","","",""
"10587","","<div style=""width:500px;"">
  <p>What best describes how you currently feel?</p>
  </div>","52","html-slider-response","33","620762","0.0-5.0-4.4","186","1","2025-07-23 07:52:58","1f75c3e559b7213887762d5229550c2b","86.167.102.64","Mozilla/5.0 (Windows NT 10.0; Win64; x64) AppleWebKit/537.36 (KHTML, like Gecko) Chrome/138.0.0.0 Safari/537.36","WebKit","Chrome","138.0.0.0","Windows","10.0","https://app.prolific.com/","en-US,en;q=0.9","59cb95053306be000195be2e","683db9eb0562dbf637994deb","68808e1ccc20849007f21a4a","2","1","59cb95053306be000195be2e","2","1","2025-07-23T08:03:20.248Z","","","","","","","","","","","MotivationQ","","50","","","","","","","","","","","","","","","","","","","","","","","","","","","","",""
"","","","","ctl-task-cpt","34","688303","0.0-5.0-0.5","186","1","2025-07-23 07:52:58","1f75c3e559b7213887762d5229550c2b","86.167.102.64","Mozilla/5.0 (Windows NT 10.0; Win64; x64) AppleWebKit/537.36 (KHTML, like Gecko) Chrome/138.0.0.0 Safari/537.36","WebKit","Chrome","138.0.0.0","Windows","10.0","https://app.prolific.com/","en-US,en;q=0.9","59cb95053306be000195be2e","683db9eb0562dbf637994deb","68808e1ccc20849007f21a4a","2","1","59cb95053306be000195be2e","2","1","2025-07-23T08:04:27.788Z","","","","","","","","","","","","","","win-only","2","g1:SE,g2:NW","0.5","6","0","622581.4","1455.7","6464.6","64501.6","1","4","4","6","2","4","3","3","0","0.022727272727272728","1174.6","3000","865","[""left"",""up""]","{""num_key_presses"":15,""num_perfect"":8,""num_errors"":1,""num_randdir"":6,""num_randdir_good_moves"":2,""num_whilered"":0,""num_whileblue"":0,""num_blue"":2,""num_good_moves"":10}","[412.8214133126395,410.32142761775424,1.5,412.8214133126395,410.32142761775424,102.3,412.8214133126395,410.32142761775424,212.2,412.8214133126395,410.32142761775424,322.2,504.0714133126395,536.5714276177542,436,517.8214133126395,556.5714276177542,537.2,217.8214133126395,276.57142761775424,641.4,131.5714133126395,146.57142761775424,751.8,130.3214133126395,145.32142761775424,855.7,130.3214133126395,145.32142761775424,957.7,117.8214133126395,116.57142761775425,1063.4,116.5714133126395,111.57142761775425,1165.9,116.5714133126395,111.57142761775425,1269.5,116.5714133126395,111.57142761775425,1371.6,116.5714133126395,111.57142761775425,1472.4,116.5714133126395,111.57142761775425,1574.8,116.5714133126395,111.57142761775425,1684.8,116.5714133126395,111.57142761775425,1794,116.5714133126395,111.57142761775425,1904.2,116.5714133126395,111.57142761775425,2004.4,116.5714133126395,111.57142761775425,2107.3,116.5714133126395,111.57142761775425,2211.8,116.5714133126395,111.57142761775425,2318.7,116.5714133126395,111.57142761775425,2420.8,116.5714133126395,111.57142761775425,2524.2,116.5714133126395,111.57142761775425,2629,116.5714133126395,111.57142761775425,2729.6,116.5714133126395,111.57142761775425,2836.2,116.5714133126395,111.57142761775425,2945.1,116.5714133126395,111.57142761775425,3045.6,116.5714133126395,111.57142761775425,3151.6,116.5714133126395,111.57142761775425,3257.8,116.5714133126395,111.57142761775425,3358.1,116.5714133126395,111.57142761775425,3465.7,116.5714133126395,111.57142761775425,3571,116.5714133126395,111.57142761775425,3671.2,116.5714133126395,111.57142761775425,3771.9,116.5714133126395,111.57142761775425,3872.4,116.5714133126395,111.57142761775425,3984.9,116.5714133126395,111.57142761775425,4090.4,116.5714133126395,111.57142761775425,4192.8,116.5714133126395,111.57142761775425,4300.7,116.5714133126395,111.57142761775425,4401.1,116.5714133126395,111.57142761775425,4506.5,116.5714133126395,111.57142761775425,4606.8,116.5714133126395,111.57142761775425,4707.3,116.5714133126395,111.57142761775425,4810.7,116.5714133126395,111.57142761775425,4912.4]","[1647.6,1647.6,1000,0,647.6,""smooth"",""left"",""left"",""good_move"",4551.9,2898.4,2511.2,1653.5,387.2,""smooth"",""left"",""left"",""good_move"",7126.4,2571.4,2177.5,4555,393.9,""oops"",""left"",""down"",""bad_move"",14185.7,7047.7,2871.4,10941.8,372.5,""oops"",""left"",""right"",""bad_move"",17546.3,3357,2923.1,14189.3,433.9,""oops"",""up"",""left"",""good_move"",18915.4,1366.1,1311.5,17549.3,54.6,""error"",""-"",""-"",""no_move"",22420.5,3503.2,1993.4,19927.7,499.4,""smooth"",""up"",""up"",""good_move"",26032.2,3609.6,2670.4,22422.6,939.2,""oops"",""up"",""right"",""bad_move"",29867.4,3832.3,2821.9,26035.1,1010.4,""smooth"",""up"",""up"",""good_move"",33829.8,3960.4,2189.9,29869.4,1770.5,""smooth"",""up"",""up"",""good_move"",37776.7,3945.5,2321.9,33831.2,1623.6,""oops"",""up"",""down"",""bad_move"",40954.2,3175.1,2560.3,37779.1,614.8,""smooth"",""left"",""left"",""good_move"",45145.8,4189.8,1989.9,40956.1,2199.8,""oops"",""left"",""left"",""good_move"",52562.2,7411.7,2251.9,49566.5,743.8,""smooth"",""up"",""up"",""good_move"",57545.3,4980.8,3063.2,52564.5,1917.6,""smooth"",""up"",""up"",""good_move""]","",""
"3551","","<div style=""width:500px;"">
  <p>What determined the result of this run?</p>
  </div>","55","html-slider-response","35","691859","0.0-5.0-1.5","186","1","2025-07-23 07:52:58","1f75c3e559b7213887762d5229550c2b","86.167.102.64","Mozilla/5.0 (Windows NT 10.0; Win64; x64) AppleWebKit/537.36 (KHTML, like Gecko) Chrome/138.0.0.0 Safari/537.36","WebKit","Chrome","138.0.0.0","Windows","10.0","https://app.prolific.com/","en-US,en;q=0.9","59cb95053306be000195be2e","683db9eb0562dbf637994deb","68808e1ccc20849007f21a4a","2","1","59cb95053306be000195be2e","2","1","2025-07-23T08:04:31.345Z","","","","","","","","","","","AttribQ","","50","","","","","","","","","","","","","","","","","","","","","","","","","","","","",""
"3056","","<div style=""width:500px;"">
  <p>How much control did you have over the ball?</p>
  </div>","43","html-slider-response","36","694920","0.0-5.0-2.5","186","1","2025-07-23 07:52:58","1f75c3e559b7213887762d5229550c2b","86.167.102.64","Mozilla/5.0 (Windows NT 10.0; Win64; x64) AppleWebKit/537.36 (KHTML, like Gecko) Chrome/138.0.0.0 Safari/537.36","WebKit","Chrome","138.0.0.0","Windows","10.0","https://app.prolific.com/","en-US,en;q=0.9","59cb95053306be000195be2e","683db9eb0562dbf637994deb","68808e1ccc20849007f21a4a","2","1","59cb95053306be000195be2e","2","1","2025-07-23T08:04:34.405Z","","","","","","","","","","","ControlQ","","50","","","","","","","","","","","","","","","","","","","","","","","","","","","","",""
"4468","","<div style=""width:500px;"">
  <p>How would you describe your current emotional state?</p>
  </div>","37","html-slider-response","37","699395","0.0-5.0-3.5","186","1","2025-07-23 07:52:58","1f75c3e559b7213887762d5229550c2b","86.167.102.64","Mozilla/5.0 (Windows NT 10.0; Win64; x64) AppleWebKit/537.36 (KHTML, like Gecko) Chrome/138.0.0.0 Safari/537.36","WebKit","Chrome","138.0.0.0","Windows","10.0","https://app.prolific.com/","en-US,en;q=0.9","59cb95053306be000195be2e","683db9eb0562dbf637994deb","68808e1ccc20849007f21a4a","2","1","59cb95053306be000195be2e","2","1","2025-07-23T08:04:38.881Z","","","","","","","","","","","StressQ","","50","","","","","","","","","","","","","","","","","","","","","","","","","","","","",""
"3328","","<div style=""width:500px;"">
  <p>What best describes how you currently feel?</p>
  </div>","55","html-slider-response","38","702729","0.0-5.0-4.5","186","1","2025-07-23 07:52:58","1f75c3e559b7213887762d5229550c2b","86.167.102.64","Mozilla/5.0 (Windows NT 10.0; Win64; x64) AppleWebKit/537.36 (KHTML, like Gecko) Chrome/138.0.0.0 Safari/537.36","WebKit","Chrome","138.0.0.0","Windows","10.0","https://app.prolific.com/","en-US,en;q=0.9","59cb95053306be000195be2e","683db9eb0562dbf637994deb","68808e1ccc20849007f21a4a","2","1","59cb95053306be000195be2e","2","1","2025-07-23T08:04:42.215Z","","","","","","","","","","","MotivationQ","","50","","","","","","","","","","","","","","","","","","","","","","","","","","","","",""
"","","","","ctl-task-cpt","39","779857","0.0-5.0-0.6","186","1","2025-07-23 07:52:58","1f75c3e559b7213887762d5229550c2b","86.167.102.64","Mozilla/5.0 (Windows NT 10.0; Win64; x64) AppleWebKit/537.36 (KHTML, like Gecko) Chrome/138.0.0.0 Safari/537.36","WebKit","Chrome","138.0.0.0","Windows","10.0","https://app.prolific.com/","en-US,en;q=0.9","59cb95053306be000195be2e","683db9eb0562dbf637994deb","68808e1ccc20849007f21a4a","2","1","59cb95053306be000195be2e","2","1","2025-07-23T08:05:59.342Z","","","","","","","","","","","","","","win-only","0","g1:NW,g2:SE","0.4","7","0","704550.3","2848.4","7864.6","74066.4","1","4","4","6","2","4","4","7","3","0.05303030303030303","1432.6","3000","1770","[""down"",""right""]","{""num_key_presses"":14,""num_perfect"":5,""num_errors"":0,""num_randdir"":9,""num_randdir_good_moves"":5,""num_whilered"":0,""num_whileblue"":0,""num_blue"":2,""num_good_moves"":10}","[415.3214133126395,421.57142761775424,4.6,415.3214133126395,421.57142761775424,111.7,415.3214133126395,421.57142761775424,217.3,415.3214133126395,421.57142761775424,317.5,415.3214133126395,421.57142761775424,424.5,415.3214133126395,421.57142761775424,528.9,415.3214133126395,421.57142761775424,629,415.3214133126395,421.57142761775424,766,445.3214133126395,459.07142761775424,872.9,730.3214133126395,756.5714276177542,988.4,731.5714133126395,757.8214276177542,1092.7,731.5714133126395,757.8214276177542,1226.5,731.5714133126395,757.8214276177542,1358,731.5714133126395,757.8214276177542,1474.5,731.5714133126395,757.8214276177542,1580.2,731.5714133126395,757.8214276177542,1685.2,731.5714133126395,757.8214276177542,1785.2,731.5714133126395,757.8214276177542,1888.8,731.5714133126395,757.8214276177542,1997.6,731.5714133126395,757.8214276177542,2112.9,731.5714133126395,757.8214276177542,2216.9,731.5714133126395,757.8214276177542,2323.7,731.5714133126395,757.8214276177542,2424.4,731.5714133126395,757.8214276177542,2557,731.5714133126395,757.8214276177542,2683.6,731.5714133126395,757.8214276177542,2812.7,731.5714133126395,757.8214276177542,2937.1,731.5714133126395,757.8214276177542,3064.4,731.5714133126395,757.8214276177542,3165.2,731.5714133126395,757.8214276177542,3265.4,731.5714133126395,757.8214276177542,3365.9,731.5714133126395,757.8214276177542,3492.6,731.5714133126395,757.8214276177542,3621.9,731.5714133126395,757.8214276177542,3747.8,731.5714133126395,757.8214276177542,3873.8,731.5714133126395,757.8214276177542,3999,731.5714133126395,757.8214276177542,4136.8,731.5714133126395,757.8214276177542,4267.3,731.5714133126395,757.8214276177542,4396.4,731.5714133126395,757.8214276177542,4528.1,731.5714133126395,757.8214276177542,4657.1,731.5714133126395,757.8214276177542,4793.2,731.5714133126395,757.8214276177542,4915.4]","[1780.5,1780.5,1000,0,780.5,""smooth"",""right"",""right"",""good_move"",8128.2,6346.6,2319.7,5233.5,575,""smooth"",""right"",""right"",""good_move"",11512.5,3383.1,2710.7,8129.4,672.4,""smooth"",""right"",""right"",""good_move"",18081.8,6567.5,1907.9,15687,486.9,""oops"",""down"",""down"",""good_move"",21545.8,3461.9,2794.1,18083.9,667.8,""oops"",""down"",""up"",""bad_move"",28103.3,6555.7,3236.9,21547.6,3318.8,""smooth"",""down"",""down"",""good_move"",30861.8,2757.2,2019.7,28104.8,737.3,""oops"",""down"",""left"",""bad_move"",37573.6,6710.1,1881.4,30863.5,4828.8,""oops"",""down"",""up"",""bad_move"",43986.3,6411.5,3163.9,37574.8,3247.6,""oops"",""down"",""right"",""good_move"",47073.2,3085.5,2407.3,43987.7,678.3,""oops"",""down"",""down"",""good_move"",50226.1,3150.1,2438.3,47076,711.8,""oops"",""down"",""down"",""good_move"",53390.7,3163,2689.5,50227.7,473.5,""oops"",""down"",""up"",""bad_move"",61288.6,7895.8,2242.1,53392.8,5653.7,""oops"",""down"",""down"",""good_move"",64882.7,3592.9,3030.5,61289.9,562.4,""smooth"",""down"",""down"",""good_move""]","",""
"20771","","<div style=""width:500px;"">
  <p>What determined the result of this run?</p>
  </div>","56","html-slider-response","40","800637","0.0-5.0-1.6","186","1","2025-07-23 07:52:58","1f75c3e559b7213887762d5229550c2b","86.167.102.64","Mozilla/5.0 (Windows NT 10.0; Win64; x64) AppleWebKit/537.36 (KHTML, like Gecko) Chrome/138.0.0.0 Safari/537.36","WebKit","Chrome","138.0.0.0","Windows","10.0","https://app.prolific.com/","en-US,en;q=0.9","59cb95053306be000195be2e","683db9eb0562dbf637994deb","68808e1ccc20849007f21a4a","2","1","59cb95053306be000195be2e","2","1","2025-07-23T08:06:20.122Z","","","","","","","","","","","AttribQ","","50","","","","","","","","","","","","","","","","","","","","","","","","","","","","",""
"2378","","<div style=""width:500px;"">
  <p>How much control did you have over the ball?</p>
  </div>","57","html-slider-response","41","803019","0.0-5.0-2.6","186","1","2025-07-23 07:52:58","1f75c3e559b7213887762d5229550c2b","86.167.102.64","Mozilla/5.0 (Windows NT 10.0; Win64; x64) AppleWebKit/537.36 (KHTML, like Gecko) Chrome/138.0.0.0 Safari/537.36","WebKit","Chrome","138.0.0.0","Windows","10.0","https://app.prolific.com/","en-US,en;q=0.9","59cb95053306be000195be2e","683db9eb0562dbf637994deb","68808e1ccc20849007f21a4a","2","1","59cb95053306be000195be2e","2","1","2025-07-23T08:06:22.505Z","","","","","","","","","","","ControlQ","","50","","","","","","","","","","","","","","","","","","","","","","","","","","","","",""
"3051","","<div style=""width:500px;"">
  <p>How would you describe your current emotional state?</p>
  </div>","38","html-slider-response","42","806074","0.0-5.0-3.6","186","1","2025-07-23 07:52:58","1f75c3e559b7213887762d5229550c2b","86.167.102.64","Mozilla/5.0 (Windows NT 10.0; Win64; x64) AppleWebKit/537.36 (KHTML, like Gecko) Chrome/138.0.0.0 Safari/537.36","WebKit","Chrome","138.0.0.0","Windows","10.0","https://app.prolific.com/","en-US,en;q=0.9","59cb95053306be000195be2e","683db9eb0562dbf637994deb","68808e1ccc20849007f21a4a","2","1","59cb95053306be000195be2e","2","1","2025-07-23T08:06:25.561Z","","","","","","","","","","","StressQ","","50","","","","","","","","","","","","","","","","","","","","","","","","","","","","",""
"2483","","<div style=""width:500px;"">
  <p>What best describes how you currently feel?</p>
  </div>","39","html-slider-response","43","808564","0.0-5.0-4.6","186","1","2025-07-23 07:52:58","1f75c3e559b7213887762d5229550c2b","86.167.102.64","Mozilla/5.0 (Windows NT 10.0; Win64; x64) AppleWebKit/537.36 (KHTML, like Gecko) Chrome/138.0.0.0 Safari/537.36","WebKit","Chrome","138.0.0.0","Windows","10.0","https://app.prolific.com/","en-US,en;q=0.9","59cb95053306be000195be2e","683db9eb0562dbf637994deb","68808e1ccc20849007f21a4a","2","1","59cb95053306be000195be2e","2","1","2025-07-23T08:06:28.050Z","","","","","","","","","","","MotivationQ","","50","","","","","","","","","","","","","","","","","","","","","","","","","","","","",""
"","","","","ctl-task-cpt","44","892686","0.0-5.0-0.7","186","1","2025-07-23 07:52:58","1f75c3e559b7213887762d5229550c2b","86.167.102.64","Mozilla/5.0 (Windows NT 10.0; Win64; x64) AppleWebKit/537.36 (KHTML, like Gecko) Chrome/138.0.0.0 Safari/537.36","WebKit","Chrome","138.0.0.0","Windows","10.0","https://app.prolific.com/","en-US,en;q=0.9","59cb95053306be000195be2e","683db9eb0562dbf637994deb","68808e1ccc20849007f21a4a","2","1","59cb95053306be000195be2e","2","1","2025-07-23T08:07:52.171Z","","","","","","","","","","","","","","win-only","1","g1:NE,g2:SW","0.3","8","0","810384.2","49312","54338.6","81090.2","1","4","8","6","2","8","8","15","7","0.11363636363636363","1336","3000","1950","[""down"",""left""]","{""num_key_presses"":8,""num_perfect"":2,""num_errors"":0,""num_randdir"":6,""num_randdir_good_moves"":5,""num_whilered"":0,""num_whileblue"":0,""num_blue"":1,""num_good_moves"":7}","[421.5714133126395,414.07142761775424,9.3,421.5714133126395,414.07142761775424,138.2,421.5714133126395,414.07142761775424,252,576.5714133126395,545.3214276177542,371.9,579.0714133126395,549.0714276177542,489.6,330.3214133126395,689.0714276177542,610.7,316.5714133126395,692.8214276177542,728.7,316.5714133126395,692.8214276177542,843.9,190.3214133126395,721.5714276177542,964.5,167.8214133126395,730.3214276177542,1090.7,125.3214133126395,734.0714276177542,1216,91.5714133126395,735.3214276177542,1343.5,91.5714133126395,735.3214276177542,1464,91.5714133126395,735.3214276177542,1569.2,91.5714133126395,735.3214276177542,1703.2,91.5714133126395,735.3214276177542,1803.3,91.5714133126395,735.3214276177542,1909.6,91.5714133126395,735.3214276177542,2041.8,91.5714133126395,735.3214276177542,2158.3,91.5714133126395,735.3214276177542,2258.5,91.5714133126395,735.3214276177542,2361,91.5714133126395,735.3214276177542,2493.6,91.5714133126395,735.3214276177542,2598.3,91.5714133126395,735.3214276177542,2731.8,91.5714133126395,735.3214276177542,2869.1,91.5714133126395,735.3214276177542,2970.5,91.5714133126395,735.3214276177542,3108.5,91.5714133126395,735.3214276177542,3212.5,91.5714133126395,735.3214276177542,3314.6,91.5714133126395,735.3214276177542,3418.6,91.5714133126395,735.3214276177542,3520.6,91.5714133126395,735.3214276177542,3655.1,91.5714133126395,735.3214276177542,3787,91.5714133126395,735.3214276177542,3887.5,91.5714133126395,735.3214276177542,4020.7,91.5714133126395,735.3214276177542,4122.8,91.5714133126395,735.3214276177542,4226.2,91.5714133126395,735.3214276177542,4357.3,91.5714133126395,735.3214276177542,4488.3,91.5714133126395,735.3214276177542,4616.6,91.5714133126395,735.3214276177542,4754.3,91.5714133126395,735.3214276177542,4857.9,91.5714133126395,735.3214276177542,4958]","[1525.1,1525.1,1000,0,525.1,""oops"",""down"",""down"",""good_move"",7593.3,6067,2264.8,4848.2,480.4,""oops"",""down"",""right"",""bad_move"",10593,2997.9,2253.7,7595.2,744.2,""oops"",""left"",""left"",""good_move"",13244.6,2649.5,2176.5,10595.1,473,""smooth"",""left"",""left"",""good_move"",16711.7,3465.1,2998.6,13246.6,466.5,""oops"",""left"",""left"",""good_move"",19810.8,3095.9,2544.3,16714.9,551.6,""smooth"",""down"",""down"",""good_move"",23618.2,3805,3329.3,19813.2,475.7,""oops"",""left"",""left"",""good_move"",26522.7,2902.3,2115,23620.4,787.3,""oops"",""down"",""down"",""good_move""]","",""
"4247","","<div style=""width:500px;"">
  <p>What determined the result of this run?</p>
  </div>","65","html-slider-response","45","896935","0.0-5.0-1.7","186","1","2025-07-23 07:52:58","1f75c3e559b7213887762d5229550c2b","86.167.102.64","Mozilla/5.0 (Windows NT 10.0; Win64; x64) AppleWebKit/537.36 (KHTML, like Gecko) Chrome/138.0.0.0 Safari/537.36","WebKit","Chrome","138.0.0.0","Windows","10.0","https://app.prolific.com/","en-US,en;q=0.9","59cb95053306be000195be2e","683db9eb0562dbf637994deb","68808e1ccc20849007f21a4a","2","1","59cb95053306be000195be2e","2","1","2025-07-23T08:07:56.420Z","","","","","","","","","","","AttribQ","","50","","","","","","","","","","","","","","","","","","","","","","","","","","","","",""
"4061","","<div style=""width:500px;"">
  <p>How much control did you have over the ball?</p>
  </div>","72","html-slider-response","46","901000","0.0-5.0-2.7","186","1","2025-07-23 07:52:58","1f75c3e559b7213887762d5229550c2b","86.167.102.64","Mozilla/5.0 (Windows NT 10.0; Win64; x64) AppleWebKit/537.36 (KHTML, like Gecko) Chrome/138.0.0.0 Safari/537.36","WebKit","Chrome","138.0.0.0","Windows","10.0","https://app.prolific.com/","en-US,en;q=0.9","59cb95053306be000195be2e","683db9eb0562dbf637994deb","68808e1ccc20849007f21a4a","2","1","59cb95053306be000195be2e","2","1","2025-07-23T08:08:00.485Z","","","","","","","","","","","ControlQ","","50","","","","","","","","","","","","","","","","","","","","","","","","","","","","",""
"3003","","<div style=""width:500px;"">
  <p>How would you describe your current emotional state?</p>
  </div>","35","html-slider-response","47","904008","0.0-5.0-3.7","186","1","2025-07-23 07:52:58","1f75c3e559b7213887762d5229550c2b","86.167.102.64","Mozilla/5.0 (Windows NT 10.0; Win64; x64) AppleWebKit/537.36 (KHTML, like Gecko) Chrome/138.0.0.0 Safari/537.36","WebKit","Chrome","138.0.0.0","Windows","10.0","https://app.prolific.com/","en-US,en;q=0.9","59cb95053306be000195be2e","683db9eb0562dbf637994deb","68808e1ccc20849007f21a4a","2","1","59cb95053306be000195be2e","2","1","2025-07-23T08:08:03.493Z","","","","","","","","","","","StressQ","","50","","","","","","","","","","","","","","","","","","","","","","","","","","","","",""
"3001","","<div style=""width:500px;"">
  <p>What best describes how you currently feel?</p>
  </div>","69","html-slider-response","48","907018","0.0-5.0-4.7","186","1","2025-07-23 07:52:58","1f75c3e559b7213887762d5229550c2b","86.167.102.64","Mozilla/5.0 (Windows NT 10.0; Win64; x64) AppleWebKit/537.36 (KHTML, like Gecko) Chrome/138.0.0.0 Safari/537.36","WebKit","Chrome","138.0.0.0","Windows","10.0","https://app.prolific.com/","en-US,en;q=0.9","59cb95053306be000195be2e","683db9eb0562dbf637994deb","68808e1ccc20849007f21a4a","2","1","59cb95053306be000195be2e","2","1","2025-07-23T08:08:06.503Z","","","","","","","","","","","MotivationQ","","50","","","","","","","","","","","","","","","","","","","","","","","","","","","","",""
"","","","","ctl-task-cpt","49","966024","0.0-5.0-0.8","186","1","2025-07-23 07:52:58","1f75c3e559b7213887762d5229550c2b","86.167.102.64","Mozilla/5.0 (Windows NT 10.0; Win64; x64) AppleWebKit/537.36 (KHTML, like Gecko) Chrome/138.0.0.0 Safari/537.36","WebKit","Chrome","138.0.0.0","Windows","10.0","https://app.prolific.com/","en-US,en;q=0.9","59cb95053306be000195be2e","683db9eb0562dbf637994deb","68808e1ccc20849007f21a4a","2","1","59cb95053306be000195be2e","2","1","2025-07-23T08:09:05.509Z","","","","","","","","","","","","","","win-only","2","g1:SE,g2:NW","0.2","9","0","908835.6","1186.5","6195.5","55984.2","1","4","4","6","2","-4","-5","10","15","0.07575757575757576","1244.4","3000","-900","[""left"",""up""]","{""num_key_presses"":14,""num_perfect"":2,""num_errors"":1,""num_randdir"":11,""num_randdir_good_moves"":5,""num_whilered"":0,""num_whileblue"":1,""num_blue"":1,""num_good_moves"":7}","[416.5714133126395,411.57142761775424,5.3,416.5714133126395,411.57142761775424,110.9,416.5714133126395,411.57142761775424,221,416.5714133126395,411.57142761775424,338.6,500.3214133126395,522.8214276177542,450.2,536.5714133126395,566.5714276177542,560.7,277.8214133126395,241.57142761775424,670.7,216.5714133126395,121.57142761775425,780,216.5714133126395,121.57142761775425,916,100.3214133126395,94.07142761775425,1030.1,77.8214133126395,81.57142761775425,1147.7,77.8214133126395,81.57142761775425,1272.1,77.8214133126395,81.57142761775425,1385.4,77.8214133126395,81.57142761775425,1487.8,77.8214133126395,81.57142761775425,1612.9,77.8214133126395,81.57142761775425,1729.7,77.8214133126395,81.57142761775425,1837.1,77.8214133126395,81.57142761775425,1948.2,77.8214133126395,81.57142761775425,2070.2,77.8214133126395,81.57142761775425,2183.2,77.8214133126395,81.57142761775425,2293.3,77.8214133126395,81.57142761775425,2396.5,77.8214133126395,81.57142761775425,2499,77.8214133126395,81.57142761775425,2619.9,77.8214133126395,81.57142761775425,2731.5,77.8214133126395,81.57142761775425,2850.5,77.8214133126395,81.57142761775425,2959,77.8214133126395,81.57142761775425,3087.4,77.8214133126395,81.57142761775425,3198.5,77.8214133126395,81.57142761775425,3303.2,77.8214133126395,81.57142761775425,3415,77.8214133126395,81.57142761775425,3536,77.8214133126395,81.57142761775425,3653.8,77.8214133126395,81.57142761775425,3767.4,77.8214133126395,81.57142761775425,3877.3,77.8214133126395,81.57142761775425,3991.3,77.8214133126395,81.57142761775425,4099.8,77.8214133126395,81.57142761775425,4207.1,77.8214133126395,81.57142761775425,4318.7,77.8214133126395,81.57142761775425,4426.3,77.8214133126395,81.57142761775425,4534.1,77.8214133126395,81.57142761775425,4637,77.8214133126395,81.57142761775425,4739,77.8214133126395,81.57142761775425,4840.5,77.8214133126395,81.57142761775425,4943.5]","[1544.9,1544.9,1000,0,544.9,""smooth"",""left"",""left"",""good_move"",5548.7,4002.3,2977.5,1546.4,1024.8,""oops"",""left"",""down"",""bad_move"",8456.5,2904.9,2023.2,5551.6,881.7,""oops"",""up"",""left"",""good_move"",11989.6,3522.6,2788.9,8467,733.7,""while_blue"",""up"",""right"",""bad_move"",15269.6,3275,2872.9,11994.6,402.1,""oops"",""left"",""up"",""good_move"",19039.8,3768.5,3026.5,15271.3,742,""oops"",""left"",""down"",""bad_move"",22804.6,3760.4,2386.1,19044.2,1374.3,""oops"",""left"",""left"",""good_move"",26457.8,3650.9,1963.3,22807,1687.5,""smooth"",""left"",""left"",""good_move"",29564.9,3103.2,2250.7,26461.7,852.6,""oops"",""up"",""up"",""good_move"",33421.3,3846.3,2340.5,29575,1505.8,""oops"",""up"",""down"",""bad_move"",36809.2,3380.5,2510.7,33428.7,869.9,""oops"",""up"",""down"",""bad_move"",40338.7,3521.7,2882.2,36817.1,639.5,""oops"",""up"",""up"",""good_move"",43410.5,3062.8,1983.2,40347.8,1079.6,""oops"",""up"",""down"",""bad_move"",46540.9,3128.5,2289.4,43412.4,839.1,""oops"",""up"",""right"",""bad_move""]","",""
"4884","","<div style=""width:500px;"">
  <p>What determined the result of this run?</p>
  </div>","41","html-slider-response","50","970910","0.0-5.0-1.8","186","1","2025-07-23 07:52:58","1f75c3e559b7213887762d5229550c2b","86.167.102.64","Mozilla/5.0 (Windows NT 10.0; Win64; x64) AppleWebKit/537.36 (KHTML, like Gecko) Chrome/138.0.0.0 Safari/537.36","WebKit","Chrome","138.0.0.0","Windows","10.0","https://app.prolific.com/","en-US,en;q=0.9","59cb95053306be000195be2e","683db9eb0562dbf637994deb","68808e1ccc20849007f21a4a","2","1","59cb95053306be000195be2e","2","1","2025-07-23T08:09:10.395Z","","","","","","","","","","","AttribQ","","50","","","","","","","","","","","","","","","","","","","","","","","","","","","","",""
"2715","","<div style=""width:500px;"">
  <p>How much control did you have over the ball?</p>
  </div>","26","html-slider-response","51","973627","0.0-5.0-2.8","186","1","2025-07-23 07:52:58","1f75c3e559b7213887762d5229550c2b","86.167.102.64","Mozilla/5.0 (Windows NT 10.0; Win64; x64) AppleWebKit/537.36 (KHTML, like Gecko) Chrome/138.0.0.0 Safari/537.36","WebKit","Chrome","138.0.0.0","Windows","10.0","https://app.prolific.com/","en-US,en;q=0.9","59cb95053306be000195be2e","683db9eb0562dbf637994deb","68808e1ccc20849007f21a4a","2","1","59cb95053306be000195be2e","2","1","2025-07-23T08:09:13.113Z","","","","","","","","","","","ControlQ","","50","","","","","","","","","","","","","","","","","","","","","","","","","","","","",""
"3308","","<div style=""width:500px;"">
  <p>How would you describe your current emotional state?</p>
  </div>","76","html-slider-response","52","976941","0.0-5.0-3.8","186","1","2025-07-23 07:52:58","1f75c3e559b7213887762d5229550c2b","86.167.102.64","Mozilla/5.0 (Windows NT 10.0; Win64; x64) AppleWebKit/537.36 (KHTML, like Gecko) Chrome/138.0.0.0 Safari/537.36","WebKit","Chrome","138.0.0.0","Windows","10.0","https://app.prolific.com/","en-US,en;q=0.9","59cb95053306be000195be2e","683db9eb0562dbf637994deb","68808e1ccc20849007f21a4a","2","1","59cb95053306be000195be2e","2","1","2025-07-23T08:09:16.426Z","","","","","","","","","","","StressQ","","50","","","","","","","","","","","","","","","","","","","","","","","","","","","","",""
"2753","","<div style=""width:500px;"">
  <p>What best describes how you currently feel?</p>
  </div>","21","html-slider-response","53","979700","0.0-5.0-4.8","186","1","2025-07-23 07:52:58","1f75c3e559b7213887762d5229550c2b","86.167.102.64","Mozilla/5.0 (Windows NT 10.0; Win64; x64) AppleWebKit/537.36 (KHTML, like Gecko) Chrome/138.0.0.0 Safari/537.36","WebKit","Chrome","138.0.0.0","Windows","10.0","https://app.prolific.com/","en-US,en;q=0.9","59cb95053306be000195be2e","683db9eb0562dbf637994deb","68808e1ccc20849007f21a4a","2","1","59cb95053306be000195be2e","2","1","2025-07-23T08:09:19.185Z","","","","","","","","","","","MotivationQ","","50","","","","","","","","","","","","","","","","","","","","","","","","","","","","",""
"","","","","ctl-task-cpt","54","1008790","0.0-5.0-0.9","186","1","2025-07-23 07:52:58","1f75c3e559b7213887762d5229550c2b","86.167.102.64","Mozilla/5.0 (Windows NT 10.0; Win64; x64) AppleWebKit/537.36 (KHTML, like Gecko) Chrome/138.0.0.0 Safari/537.36","WebKit","Chrome","138.0.0.0","Windows","10.0","https://app.prolific.com/","en-US,en;q=0.9","59cb95053306be000195be2e","683db9eb0562dbf637994deb","68808e1ccc20849007f21a4a","2","1","59cb95053306be000195be2e","2","1","2025-07-23T08:09:48.275Z","","","","","","","","","","","","","","win-only","0","g1:NW,g2:SE","0.4","10","0","981520.6","1334.1","6340","26063.4","1","4","8","6","2","8","8","18","10","0.13636363636363635","1210.3","3000","1800","[""down"",""right""]","{""num_key_presses"":6,""num_perfect"":3,""num_errors"":0,""num_randdir"":3,""num_randdir_good_moves"":3,""num_whilered"":0,""num_whileblue"":0,""num_blue"":0,""num_good_moves"":6}","[415.3214133126395,421.57142761775424,5.6,415.3214133126395,421.57142761775424,118.8,415.3214133126395,421.57142761775424,236.7,415.3214133126395,421.57142761775424,354.6,415.3214133126395,421.57142761775424,473,415.3214133126395,421.57142761775424,576.8,710.3214133126395,610.3214276177542,684.3,747.8214133126395,650.3214276177542,816.7,754.0714133126395,657.8214276177542,916.9,759.0714133126395,699.0714276177542,1052.6,759.0714133126395,709.0714276177542,1152.6,759.0714133126395,711.5714276177542,1273.3,759.0714133126395,711.5714276177542,1400.1,759.0714133126395,711.5714276177542,1513,759.0714133126395,711.5714276177542,1624.6,759.0714133126395,711.5714276177542,1739.9,759.0714133126395,711.5714276177542,1855.3,759.0714133126395,711.5714276177542,1969.5,759.0714133126395,711.5714276177542,2090.9,759.0714133126395,711.5714276177542,2212.4,759.0714133126395,711.5714276177542,2328.8,759.0714133126395,711.5714276177542,2438.6,759.0714133126395,711.5714276177542,2556.2,759.0714133126395,711.5714276177542,2669.5,759.0714133126395,711.5714276177542,2784.6,759.0714133126395,711.5714276177542,2899.3,759.0714133126395,711.5714276177542,3017.9,759.0714133126395,711.5714276177542,3121.6,759.0714133126395,711.5714276177542,3236,759.0714133126395,711.5714276177542,3348.4,759.0714133126395,711.5714276177542,3469.3,759.0714133126395,711.5714276177542,3583.8,759.0714133126395,711.5714276177542,3694.5,759.0714133126395,711.5714276177542,3808.1,759.0714133126395,711.5714276177542,3926.7,759.0714133126395,711.5714276177542,4036.5,759.0714133126395,711.5714276177542,4136.5,759.0714133126395,711.5714276177542,4249.4,759.0714133126395,711.5714276177542,4352.1,759.0714133126395,711.5714276177542,4455.4,759.0714133126395,711.5714276177542,4559.9,759.0714133126395,711.5714276177542,4662.4,759.0714133126395,711.5714276177542,4772.4,759.0714133126395,711.5714276177542,4890.5]","[2396.5,2396.5,1000,0,1396.5,""smooth"",""right"",""right"",""good_move"",6048.5,3649.8,2890.4,2398.7,759.4,""smooth"",""right"",""right"",""good_move"",8695.1,2638.7,2186.9,6056.5,451.7,""oops"",""right"",""right"",""good_move"",12982.9,4286.2,2628.5,8696.7,1657.7,""oops"",""down"",""down"",""good_move"",16645.3,3659.9,3269.7,12985.4,390.2,""smooth"",""down"",""down"",""good_move"",19474.5,2826.7,2476.3,16647.8,350.4,""oops"",""down"",""down"",""good_move""]","",""
"6630","","<div style=""width:500px;"">
  <p>What determined the result of this run?</p>
  </div>","89","html-slider-response","55","1015422","0.0-5.0-1.9","186","1","2025-07-23 07:52:58","1f75c3e559b7213887762d5229550c2b","86.167.102.64","Mozilla/5.0 (Windows NT 10.0; Win64; x64) AppleWebKit/537.36 (KHTML, like Gecko) Chrome/138.0.0.0 Safari/537.36","WebKit","Chrome","138.0.0.0","Windows","10.0","https://app.prolific.com/","en-US,en;q=0.9","59cb95053306be000195be2e","683db9eb0562dbf637994deb","68808e1ccc20849007f21a4a","2","1","59cb95053306be000195be2e","2","1","2025-07-23T08:09:54.907Z","","","","","","","","","","","AttribQ","","50","","","","","","","","","","","","","","","","","","","","","","","","","","","","",""
"2764","","<div style=""width:500px;"">
  <p>How much control did you have over the ball?</p>
  </div>","62","html-slider-response","56","1018189","0.0-5.0-2.9","186","1","2025-07-23 07:52:58","1f75c3e559b7213887762d5229550c2b","86.167.102.64","Mozilla/5.0 (Windows NT 10.0; Win64; x64) AppleWebKit/537.36 (KHTML, like Gecko) Chrome/138.0.0.0 Safari/537.36","WebKit","Chrome","138.0.0.0","Windows","10.0","https://app.prolific.com/","en-US,en;q=0.9","59cb95053306be000195be2e","683db9eb0562dbf637994deb","68808e1ccc20849007f21a4a","2","1","59cb95053306be000195be2e","2","1","2025-07-23T08:09:57.674Z","","","","","","","","","","","ControlQ","","50","","","","","","","","","","","","","","","","","","","","","","","","","","","","",""
"2010","","<div style=""width:500px;"">
  <p>How would you describe your current emotional state?</p>
  </div>","31","html-slider-response","57","1020202","0.0-5.0-3.9","186","1","2025-07-23 07:52:58","1f75c3e559b7213887762d5229550c2b","86.167.102.64","Mozilla/5.0 (Windows NT 10.0; Win64; x64) AppleWebKit/537.36 (KHTML, like Gecko) Chrome/138.0.0.0 Safari/537.36","WebKit","Chrome","138.0.0.0","Windows","10.0","https://app.prolific.com/","en-US,en;q=0.9","59cb95053306be000195be2e","683db9eb0562dbf637994deb","68808e1ccc20849007f21a4a","2","1","59cb95053306be000195be2e","2","1","2025-07-23T08:09:59.687Z","","","","","","","","","","","StressQ","","50","","","","","","","","","","","","","","","","","","","","","","","","","","","","",""
"2191","","<div style=""width:500px;"">
  <p>What best describes how you currently feel?</p>
  </div>","60","html-slider-response","58","1022398","0.0-5.0-4.9","186","1","2025-07-23 07:52:58","1f75c3e559b7213887762d5229550c2b","86.167.102.64","Mozilla/5.0 (Windows NT 10.0; Win64; x64) AppleWebKit/537.36 (KHTML, like Gecko) Chrome/138.0.0.0 Safari/537.36","WebKit","Chrome","138.0.0.0","Windows","10.0","https://app.prolific.com/","en-US,en;q=0.9","59cb95053306be000195be2e","683db9eb0562dbf637994deb","68808e1ccc20849007f21a4a","2","1","59cb95053306be000195be2e","2","1","2025-07-23T08:10:01.883Z","","","","","","","","","","","MotivationQ","","50","","","","","","","","","","","","","","","","","","","","","","","","","","","","",""
"","","","","ctl-task-cpt","59","1080896","0.0-5.0-0.10","186","1","2025-07-23 07:52:58","1f75c3e559b7213887762d5229550c2b","86.167.102.64","Mozilla/5.0 (Windows NT 10.0; Win64; x64) AppleWebKit/537.36 (KHTML, like Gecko) Chrome/138.0.0.0 Safari/537.36","WebKit","Chrome","138.0.0.0","Windows","10.0","https://app.prolific.com/","en-US,en;q=0.9","59cb95053306be000195be2e","683db9eb0562dbf637994deb","68808e1ccc20849007f21a4a","2","1","59cb95053306be000195be2e","2","1","2025-07-23T08:11:00.381Z","","","","","","","","","","","","","","win-only","0","g1:NW,g2:SE","0.5","11","0","1024214.9","17763.6","22791.3","55457.1","1","4","8","6","2","8","8","26","18","0.19696969696969696","1278.5","3000","1485","[""down"",""right""]","{""num_key_presses"":10,""num_perfect"":5,""num_errors"":0,""num_randdir"":5,""num_randdir_good_moves"":3,""num_whilered"":0,""num_whileblue"":0,""num_blue"":0,""num_good_moves"":8}","[411.5714133126395,414.07142761775424,3.5,411.5714133126395,414.07142761775424,105.9,411.5714133126395,414.07142761775424,221,411.5714133126395,414.07142761775424,340.8,411.5714133126395,414.07142761775424,454.2,489.0714133126395,511.57142761775424,591.5,659.0714133126395,704.0714276177542,709.3,671.5714133126395,719.0714276177542,832.2,681.5714133126395,725.3214276177542,952.2,711.5714133126395,737.8214276177542,1063.1,711.5714133126395,737.8214276177542,1193,711.5714133126395,737.8214276177542,1302.2,711.5714133126395,737.8214276177542,1420.6,711.5714133126395,737.8214276177542,1523.5,711.5714133126395,737.8214276177542,1643.3,711.5714133126395,737.8214276177542,1758.6,711.5714133126395,737.8214276177542,1873,711.5714133126395,737.8214276177542,1983.9,711.5714133126395,737.8214276177542,2085.7,711.5714133126395,737.8214276177542,2208.6,711.5714133126395,737.8214276177542,2325.8,711.5714133126395,737.8214276177542,2437.4,711.5714133126395,737.8214276177542,2546.5,711.5714133126395,737.8214276177542,2659.4,711.5714133126395,737.8214276177542,2773.4,711.5714133126395,737.8214276177542,2893.2,711.5714133126395,737.8214276177542,3013.4,711.5714133126395,737.8214276177542,3120,711.5714133126395,737.8214276177542,3233.4,711.5714133126395,737.8214276177542,3346.5,711.5714133126395,737.8214276177542,3462.9,711.5714133126395,737.8214276177542,3578,711.5714133126395,737.8214276177542,3679.7,711.5714133126395,737.8214276177542,3798.6,711.5714133126395,737.8214276177542,3909.2,711.5714133126395,737.8214276177542,4031.4,711.5714133126395,737.8214276177542,4156.8,711.5714133126395,737.8214276177542,4280.1,711.5714133126395,737.8214276177542,4395.7,711.5714133126395,737.8214276177542,4514,711.5714133126395,737.8214276177542,4620.9,711.5714133126395,737.8214276177542,4737.8,711.5714133126395,737.8214276177542,4849.9,711.5714133126395,737.8214276177542,4966.3]","[1489.3,1489.3,1000,0,489.3,""smooth"",""right"",""right"",""good_move"",4534.2,3031.3,2431.3,1502.9,600,""oops"",""right"",""down"",""good_move"",7659.2,3122.9,2575.6,4536.3,547.3,""oops"",""right"",""left"",""bad_move"",10990.4,3329.2,1779.5,7661.2,1549.7,""oops"",""down"",""left"",""bad_move"",14834.4,3839.5,2688.8,10994.9,1150.7,""oops"",""down"",""right"",""good_move"",18144.4,3308.3,2389.1,14836.2,919.1,""smooth"",""down"",""down"",""good_move"",21730.3,3581.8,2823.4,18148.6,758.3,""smooth"",""down"",""down"",""good_move"",25209.4,3477.2,2978.9,21732.2,498.3,""smooth"",""right"",""right"",""good_move"",28431.8,3211.3,2289.7,25220.6,921.5,""smooth"",""right"",""right"",""good_move"",32314.9,3881.2,3349.3,28433.7,531.9,""oops"",""right"",""right"",""good_move""]","",""
"4059","","<div style=""width:500px;"">
  <p>What determined the result of this run?</p>
  </div>","78","html-slider-response","60","1084957","0.0-5.0-1.10","186","1","2025-07-23 07:52:58","1f75c3e559b7213887762d5229550c2b","86.167.102.64","Mozilla/5.0 (Windows NT 10.0; Win64; x64) AppleWebKit/537.36 (KHTML, like Gecko) Chrome/138.0.0.0 Safari/537.36","WebKit","Chrome","138.0.0.0","Windows","10.0","https://app.prolific.com/","en-US,en;q=0.9","59cb95053306be000195be2e","683db9eb0562dbf637994deb","68808e1ccc20849007f21a4a","2","1","59cb95053306be000195be2e","2","1","2025-07-23T08:11:04.443Z","","","","","","","","","","","AttribQ","","50","","","","","","","","","","","","","","","","","","","","","","","","","","","","",""
"4453","","<div style=""width:500px;"">
  <p>How much control did you have over the ball?</p>
  </div>","62","html-slider-response","61","1089412","0.0-5.0-2.10","186","1","2025-07-23 07:52:58","1f75c3e559b7213887762d5229550c2b","86.167.102.64","Mozilla/5.0 (Windows NT 10.0; Win64; x64) AppleWebKit/537.36 (KHTML, like Gecko) Chrome/138.0.0.0 Safari/537.36","WebKit","Chrome","138.0.0.0","Windows","10.0","https://app.prolific.com/","en-US,en;q=0.9","59cb95053306be000195be2e","683db9eb0562dbf637994deb","68808e1ccc20849007f21a4a","2","1","59cb95053306be000195be2e","2","1","2025-07-23T08:11:08.898Z","","","","","","","","","","","ControlQ","","50","","","","","","","","","","","","","","","","","","","","","","","","","","","","",""
"2578","","<div style=""width:500px;"">
  <p>How would you describe your current emotional state?</p>
  </div>","38","html-slider-response","62","1091994","0.0-5.0-3.10","186","1","2025-07-23 07:52:58","1f75c3e559b7213887762d5229550c2b","86.167.102.64","Mozilla/5.0 (Windows NT 10.0; Win64; x64) AppleWebKit/537.36 (KHTML, like Gecko) Chrome/138.0.0.0 Safari/537.36","WebKit","Chrome","138.0.0.0","Windows","10.0","https://app.prolific.com/","en-US,en;q=0.9","59cb95053306be000195be2e","683db9eb0562dbf637994deb","68808e1ccc20849007f21a4a","2","1","59cb95053306be000195be2e","2","1","2025-07-23T08:11:11.479Z","","","","","","","","","","","StressQ","","50","","","","","","","","","","","","","","","","","","","","","","","","","","","","",""
"2250","","<div style=""width:500px;"">
  <p>What best describes how you currently feel?</p>
  </div>","62","html-slider-response","63","1094248","0.0-5.0-4.10","186","1","2025-07-23 07:52:58","1f75c3e559b7213887762d5229550c2b","86.167.102.64","Mozilla/5.0 (Windows NT 10.0; Win64; x64) AppleWebKit/537.36 (KHTML, like Gecko) Chrome/138.0.0.0 Safari/537.36","WebKit","Chrome","138.0.0.0","Windows","10.0","https://app.prolific.com/","en-US,en;q=0.9","59cb95053306be000195be2e","683db9eb0562dbf637994deb","68808e1ccc20849007f21a4a","2","1","59cb95053306be000195be2e","2","1","2025-07-23T08:11:13.733Z","","","","","","","","","","","MotivationQ","","50","","","","","","","","","","","","","","","","","","","","","","","","","","","","",""
"","","","","ctl-task-cpt","64","1136933","0.0-5.0-0.11","186","1","2025-07-23 07:52:58","1f75c3e559b7213887762d5229550c2b","86.167.102.64","Mozilla/5.0 (Windows NT 10.0; Win64; x64) AppleWebKit/537.36 (KHTML, like Gecko) Chrome/138.0.0.0 Safari/537.36","WebKit","Chrome","138.0.0.0","Windows","10.0","https://app.prolific.com/","en-US,en;q=0.9","59cb95053306be000195be2e","683db9eb0562dbf637994deb","68808e1ccc20849007f21a4a","2","1","59cb95053306be000195be2e","2","1","2025-07-23T08:11:56.418Z","","","","","","","","","","","","","","win-only","3","g1:SW,g2:NE","0.6","12","0","1096064.5","2088.8","7112","39652.6","1","4","4","6","1","1","1","27","26","0.20454545454545456","3088.9","3000","1600","[""down"",""left""]","{""num_key_presses"":8,""num_perfect"":5,""num_errors"":0,""num_randdir"":3,""num_randdir_good_moves"":1,""num_whilered"":0,""num_whileblue"":0,""num_blue"":1,""num_good_moves"":6}","[416.5714133126395,421.57142761775424,10.4,416.5714133126395,421.57142761775424,105.6,416.5714133126395,421.57142761775424,224.7,416.5714133126395,421.57142761775424,330.1,416.5714133126395,421.57142761775424,439.9,416.5714133126395,421.57142761775424,543.3,416.5714133126395,421.57142761775424,644.5,416.5714133126395,421.57142761775424,748,809.0714133126395,11.571427617754253,859.9,851.5714133126395,-15.928572382245747,973.4,851.5714133126395,-15.928572382245747,1074.1,851.5714133126395,-15.928572382245747,1183.3,831.5714133126395,1.571427617754253,1284.1,821.5714133126395,6.571427617754253,1392.2,816.5714133126395,11.571427617754253,1504.2,804.0714133126395,21.571427617754253,1604.2,791.5714133126395,31.571427617754253,1705,786.5714133126395,35.32142761775425,1825.8,786.5714133126395,35.32142761775425,1932.3,336.5714133126395,486.57142761775424,2040.4,210.3214133126395,615.3214276177542,2146,210.3214133126395,615.3214276177542,2248.6,194.0714133126395,624.0714276177542,2354.4,-18.428586687360493,806.5714276177542,2459.2,-19.678586687360493,806.5714276177542,2562.2,-19.678586687360493,806.5714276177542,2671.8,19.071413312639507,785.3214276177542,2787.1,30.321413312639507,781.5714276177542,2899.9,31.571413312639507,781.5714276177542,3001.6,31.571413312639507,781.5714276177542,3102.7,31.571413312639507,781.5714276177542,3209.3,31.571413312639507,781.5714276177542,3334.3,31.571413312639507,781.5714276177542,3441.4,31.571413312639507,781.5714276177542,3551.9,31.571413312639507,781.5714276177542,3666.3,31.571413312639507,781.5714276177542,3776.1,31.571413312639507,781.5714276177542,3890.6,31.571413312639507,781.5714276177542,4002.7,31.571413312639507,781.5714276177542,4104,31.571413312639507,781.5714276177542,4214.8,31.571413312639507,781.5714276177542,4342,31.571413312639507,781.5714276177542,4448.8,31.571413312639507,781.5714276177542,4568.5,31.571413312639507,781.5714276177542,4681,31.571413312639507,781.5714276177542,4798.6,31.571413312639507,781.5714276177542,4912.2]","[5041.4,5041.4,2578.7,2007.4,455.3,""smooth"",""down"",""down"",""good_move"",8227.6,3180.1,2199.9,5047.6,980.2,""oops"",""left"",""up"",""bad_move"",11917.8,3688.1,2870.7,8229.8,817.3,""oops"",""down"",""left"",""good_move"",15661.7,3739.2,2543.3,11922.5,1195.9,""smooth"",""down"",""down"",""good_move"",20010.4,4346.1,1973.7,15664.3,2372.4,""smooth"",""down"",""down"",""good_move"",22799.9,2787.6,1771.4,20012.3,1016.2,""oops"",""left"",""right"",""bad_move"",26109.4,3303.7,2845.8,22805.7,457.9,""smooth"",""left"",""left"",""good_move"",31953.7,5842.6,2077.3,26111.1,3765.3,""smooth"",""left"",""left"",""good_move""]","",""
"3262","","<div style=""width:500px;"">
  <p>What determined the result of this run?</p>
  </div>","52","html-slider-response","65","1140198","0.0-5.0-1.11","186","1","2025-07-23 07:52:58","1f75c3e559b7213887762d5229550c2b","86.167.102.64","Mozilla/5.0 (Windows NT 10.0; Win64; x64) AppleWebKit/537.36 (KHTML, like Gecko) Chrome/138.0.0.0 Safari/537.36","WebKit","Chrome","138.0.0.0","Windows","10.0","https://app.prolific.com/","en-US,en;q=0.9","59cb95053306be000195be2e","683db9eb0562dbf637994deb","68808e1ccc20849007f21a4a","2","1","59cb95053306be000195be2e","2","1","2025-07-23T08:11:59.684Z","","","","","","","","","","","AttribQ","","50","","","","","","","","","","","","","","","","","","","","","","","","","","","","",""
"2203","","<div style=""width:500px;"">
  <p>How much control did you have over the ball?</p>
  </div>","37","html-slider-response","66","1142404","0.0-5.0-2.11","186","1","2025-07-23 07:52:58","1f75c3e559b7213887762d5229550c2b","86.167.102.64","Mozilla/5.0 (Windows NT 10.0; Win64; x64) AppleWebKit/537.36 (KHTML, like Gecko) Chrome/138.0.0.0 Safari/537.36","WebKit","Chrome","138.0.0.0","Windows","10.0","https://app.prolific.com/","en-US,en;q=0.9","59cb95053306be000195be2e","683db9eb0562dbf637994deb","68808e1ccc20849007f21a4a","2","1","59cb95053306be000195be2e","2","1","2025-07-23T08:12:01.890Z","","","","","","","","","","","ControlQ","","50","","","","","","","","","","","","","","","","","","","","","","","","","","","","",""
"2273","","<div style=""width:500px;"">
  <p>How would you describe your current emotional state?</p>
  </div>","46","html-slider-response","67","1144681","0.0-5.0-3.11","186","1","2025-07-23 07:52:58","1f75c3e559b7213887762d5229550c2b","86.167.102.64","Mozilla/5.0 (Windows NT 10.0; Win64; x64) AppleWebKit/537.36 (KHTML, like Gecko) Chrome/138.0.0.0 Safari/537.36","WebKit","Chrome","138.0.0.0","Windows","10.0","https://app.prolific.com/","en-US,en;q=0.9","59cb95053306be000195be2e","683db9eb0562dbf637994deb","68808e1ccc20849007f21a4a","2","1","59cb95053306be000195be2e","2","1","2025-07-23T08:12:04.166Z","","","","","","","","","","","StressQ","","50","","","","","","","","","","","","","","","","","","","","","","","","","","","","",""
"3266","","<div style=""width:500px;"">
  <p>What best describes how you currently feel?</p>
  </div>","41","html-slider-response","68","1147951","0.0-5.0-4.11","186","1","2025-07-23 07:52:58","1f75c3e559b7213887762d5229550c2b","86.167.102.64","Mozilla/5.0 (Windows NT 10.0; Win64; x64) AppleWebKit/537.36 (KHTML, like Gecko) Chrome/138.0.0.0 Safari/537.36","WebKit","Chrome","138.0.0.0","Windows","10.0","https://app.prolific.com/","en-US,en;q=0.9","59cb95053306be000195be2e","683db9eb0562dbf637994deb","68808e1ccc20849007f21a4a","2","1","59cb95053306be000195be2e","2","1","2025-07-23T08:12:07.436Z","","","","","","","","","","","MotivationQ","","50","","","","","","","","","","","","","","","","","","","","","","","","","","","","",""
"","","","","ctl-task-cpt","69","1179269","0.0-5.0-0.12","186","1","2025-07-23 07:52:58","1f75c3e559b7213887762d5229550c2b","86.167.102.64","Mozilla/5.0 (Windows NT 10.0; Win64; x64) AppleWebKit/537.36 (KHTML, like Gecko) Chrome/138.0.0.0 Safari/537.36","WebKit","Chrome","138.0.0.0","Windows","10.0","https://app.prolific.com/","en-US,en;q=0.9","59cb95053306be000195be2e","683db9eb0562dbf637994deb","68808e1ccc20849007f21a4a","2","1","59cb95053306be000195be2e","2","1","2025-07-23T08:12:38.754Z","","","","","","","","","","","","","","win-only","1","g1:NE,g2:SW","0.7","13","0","1149771","1982.9","6999.1","28269.6","1","4","8","6","2","8","8","35","27","0.26515151515151514","2283.8","3000","2360","[""down"",""left""]","{""num_key_presses"":6,""num_perfect"":6,""num_errors"":0,""num_randdir"":0,""num_randdir_good_moves"":0,""num_whilered"":0,""num_whileblue"":0,""num_blue"":1,""num_good_moves"":6}","[421.5714133126395,409.07142761775424,7,421.5714133126395,409.07142761775424,105.3,421.5714133126395,409.07142761775424,234.6,421.5714133126395,409.07142761775424,348.5,421.5714133126395,409.07142761775424,449,421.5714133126395,409.07142761775424,565.2,421.5714133126395,409.07142761775424,676.3,421.5714133126395,409.07142761775424,781,421.5714133126395,409.07142761775424,887.9,421.5714133126395,409.07142761775424,1004.8,421.5714133126395,409.07142761775424,1107.8,421.5714133126395,409.07142761775424,1224.3,421.5714133126395,409.07142761775424,1343,421.5714133126395,409.07142761775424,1446.6,165.3214133126395,591.5714276177542,1550.5,115.3214133126395,626.5714276177542,1654.4,97.8214133126395,636.5714276177542,1768.7,87.8214133126395,672.8214276177542,1891.1,82.8214133126395,739.0714276177542,1991.7,81.5714133126395,747.8214276177542,2094.7,81.5714133126395,747.8214276177542,2211.4,81.5714133126395,747.8214276177542,2320.7,81.5714133126395,747.8214276177542,2439.9,81.5714133126395,747.8214276177542,2544.1,81.5714133126395,747.8214276177542,2657.3,81.5714133126395,747.8214276177542,2767.2,81.5714133126395,747.8214276177542,2874.2,81.5714133126395,747.8214276177542,2991,81.5714133126395,747.8214276177542,3094,81.5714133126395,747.8214276177542,3207.7,81.5714133126395,747.8214276177542,3327.8,81.5714133126395,747.8214276177542,3433.2,81.5714133126395,747.8214276177542,3533.9,81.5714133126395,747.8214276177542,3644.1,81.5714133126395,747.8214276177542,3754.2,81.5714133126395,747.8214276177542,3866.6,81.5714133126395,747.8214276177542,3974.4,81.5714133126395,747.8214276177542,4074.9,81.5714133126395,747.8214276177542,4177.8,81.5714133126395,747.8214276177542,4284.7,81.5714133126395,747.8214276177542,4397.8,81.5714133126395,747.8214276177542,4520.7,636.5714133126395,952.8214276177542,4630.9,645.3214133126395,956.5714276177542,4740.7,645.3214133126395,956.5714276177542,4846.1,645.3214133126395,956.5714276177542,4951.4]","[4705.7,4705.7,2156.7,2031.8,517.2,""smooth"",""down"",""down"",""good_move"",7917.8,3210.4,2618.2,4707.4,592.2,""smooth"",""down"",""down"",""good_move"",10774.9,2853.5,2234.2,7921.4,619.3,""smooth"",""down"",""down"",""good_move"",13804.7,3026,2610.6,10778.8,415.3,""smooth"",""left"",""left"",""good_move"",17156.4,3339.3,2809.4,13817.2,529.9,""smooth"",""left"",""left"",""good_move"",20884.4,3720,1887.4,17164.4,1832.6,""smooth"",""left"",""left"",""good_move""]","",""
"2673","","<div style=""width:500px;"">
  <p>What determined the result of this run?</p>
  </div>","100","html-slider-response","70","1181945","0.0-5.0-1.12","186","1","2025-07-23 07:52:58","1f75c3e559b7213887762d5229550c2b","86.167.102.64","Mozilla/5.0 (Windows NT 10.0; Win64; x64) AppleWebKit/537.36 (KHTML, like Gecko) Chrome/138.0.0.0 Safari/537.36","WebKit","Chrome","138.0.0.0","Windows","10.0","https://app.prolific.com/","en-US,en;q=0.9","59cb95053306be000195be2e","683db9eb0562dbf637994deb","68808e1ccc20849007f21a4a","2","1","59cb95053306be000195be2e","2","1","2025-07-23T08:12:41.430Z","","","","","","","","","","","AttribQ","","50","","","","","","","","","","","","","","","","","","","","","","","","","","","","",""
"3387","","<div style=""width:500px;"">
  <p>How much control did you have over the ball?</p>
  </div>","100","html-slider-response","71","1185335","0.0-5.0-2.12","186","1","2025-07-23 07:52:58","1f75c3e559b7213887762d5229550c2b","86.167.102.64","Mozilla/5.0 (Windows NT 10.0; Win64; x64) AppleWebKit/537.36 (KHTML, like Gecko) Chrome/138.0.0.0 Safari/537.36","WebKit","Chrome","138.0.0.0","Windows","10.0","https://app.prolific.com/","en-US,en;q=0.9","59cb95053306be000195be2e","683db9eb0562dbf637994deb","68808e1ccc20849007f21a4a","2","1","59cb95053306be000195be2e","2","1","2025-07-23T08:12:44.821Z","","","","","","","","","","","ControlQ","","50","","","","","","","","","","","","","","","","","","","","","","","","","","","","",""
"3839","","<div style=""width:500px;"">
  <p>How would you describe your current emotional state?</p>
  </div>","3","html-slider-response","72","1189180","0.0-5.0-3.12","186","1","2025-07-23 07:52:58","1f75c3e559b7213887762d5229550c2b","86.167.102.64","Mozilla/5.0 (Windows NT 10.0; Win64; x64) AppleWebKit/537.36 (KHTML, like Gecko) Chrome/138.0.0.0 Safari/537.36","WebKit","Chrome","138.0.0.0","Windows","10.0","https://app.prolific.com/","en-US,en;q=0.9","59cb95053306be000195be2e","683db9eb0562dbf637994deb","68808e1ccc20849007f21a4a","2","1","59cb95053306be000195be2e","2","1","2025-07-23T08:12:48.665Z","","","","","","","","","","","StressQ","","50","","","","","","","","","","","","","","","","","","","","","","","","","","","","",""
"2312","","<div style=""width:500px;"">
  <p>What best describes how you currently feel?</p>
  </div>","56","html-slider-response","73","1191496","0.0-5.0-4.12","186","1","2025-07-23 07:52:58","1f75c3e559b7213887762d5229550c2b","86.167.102.64","Mozilla/5.0 (Windows NT 10.0; Win64; x64) AppleWebKit/537.36 (KHTML, like Gecko) Chrome/138.0.0.0 Safari/537.36","WebKit","Chrome","138.0.0.0","Windows","10.0","https://app.prolific.com/","en-US,en;q=0.9","59cb95053306be000195be2e","683db9eb0562dbf637994deb","68808e1ccc20849007f21a4a","2","1","59cb95053306be000195be2e","2","1","2025-07-23T08:12:50.982Z","","","","","","","","","","","MotivationQ","","50","","","","","","","","","","","","","","","","","","","","","","","","","","","","",""
"","","","","ctl-task-cpt","74","1236415","0.0-5.0-0.13","186","1","2025-07-23 07:52:58","1f75c3e559b7213887762d5229550c2b","86.167.102.64","Mozilla/5.0 (Windows NT 10.0; Win64; x64) AppleWebKit/537.36 (KHTML, like Gecko) Chrome/138.0.0.0 Safari/537.36","WebKit","Chrome","138.0.0.0","Windows","10.0","https://app.prolific.com/","en-US,en;q=0.9","59cb95053306be000195be2e","683db9eb0562dbf637994deb","68808e1ccc20849007f21a4a","2","1","59cb95053306be000195be2e","2","1","2025-07-23T08:13:35.900Z","","","","","","","","","","","","","","win-only","0","g1:NW,g2:SE","0.8","14","0","1193314.7","1592.3","6621.4","41891.5","1","4","4","6","2","4","4","39","35","0.29545454545454547","1347.8","3000","1915","[""down"",""right""]","{""num_key_presses"":8,""num_perfect"":7,""num_errors"":0,""num_randdir"":1,""num_randdir_good_moves"":0,""num_whilered"":0,""num_whileblue"":0,""num_blue"":0,""num_good_moves"":7}","[419.0714133126395,411.57142761775424,0.8,419.0714133126395,411.57142761775424,102.2,419.0714133126395,411.57142761775424,230.2,419.0714133126395,411.57142761775424,348,419.0714133126395,411.57142761775424,467.7,419.0714133126395,411.57142761775424,597,729.0714133126395,705.3214276177542,731.8,741.5714133126395,720.3214276177542,869.6,741.5714133126395,721.5714276177542,996.6,741.5714133126395,732.8214276177542,1134.2,741.5714133126395,732.8214276177542,1248.8,741.5714133126395,732.8214276177542,1392.2,741.5714133126395,732.8214276177542,1509.4,741.5714133126395,732.8214276177542,1642,741.5714133126395,732.8214276177542,1757.3,741.5714133126395,732.8214276177542,1874.2,741.5714133126395,732.8214276177542,1989.9,741.5714133126395,732.8214276177542,2118.6,741.5714133126395,732.8214276177542,2241.7,741.5714133126395,732.8214276177542,2357.2,741.5714133126395,732.8214276177542,2468.7,741.5714133126395,732.8214276177542,2588,741.5714133126395,732.8214276177542,2702.3,741.5714133126395,732.8214276177542,2819.4,741.5714133126395,732.8214276177542,2932.3,741.5714133126395,732.8214276177542,3053.5,741.5714133126395,732.8214276177542,3173,741.5714133126395,732.8214276177542,3291,741.5714133126395,732.8214276177542,3408.3,741.5714133126395,732.8214276177542,3529.9,741.5714133126395,732.8214276177542,3640.6,741.5714133126395,732.8214276177542,3761.4,741.5714133126395,732.8214276177542,3874.8,741.5714133126395,732.8214276177542,3995.7,741.5714133126395,732.8214276177542,4123.7,741.5714133126395,732.8214276177542,4241.9,741.5714133126395,732.8214276177542,4361,741.5714133126395,732.8214276177542,4476.2,741.5714133126395,732.8214276177542,4596.5,741.5714133126395,732.8214276177542,4715.7,741.5714133126395,732.8214276177542,4828.2,741.5714133126395,732.8214276177542,4948.2]","[1603.5,1603.5,1000,0,603.5,""smooth"",""right"",""right"",""good_move"",4970,3363,2503.3,1607,859.7,""smooth"",""right"",""right"",""good_move"",9117.7,4145.5,3147.3,4972.2,998.3,""smooth"",""right"",""right"",""good_move"",12215,3095.5,2293.6,9119.5,801.9,""smooth"",""down"",""down"",""good_move"",17991.9,5774.5,1981.8,12217.4,3792.7,""oops"",""down"",""up"",""bad_move"",28329.5,10336.2,2587.6,17993.3,7748.6,""smooth"",""down"",""down"",""good_move"",32128.1,3793.5,3194.2,28334.8,599.2,""smooth"",""down"",""down"",""good_move"",34912.1,2782.3,2125.2,32129.8,657.1,""smooth"",""down"",""down"",""good_move""]","",""
"4740","","<div style=""width:500px;"">
  <p>What determined the result of this run?</p>
  </div>","68","html-slider-response","75","1241162","0.0-5.0-1.13","186","1","2025-07-23 07:52:58","1f75c3e559b7213887762d5229550c2b","86.167.102.64","Mozilla/5.0 (Windows NT 10.0; Win64; x64) AppleWebKit/537.36 (KHTML, like Gecko) Chrome/138.0.0.0 Safari/537.36","WebKit","Chrome","138.0.0.0","Windows","10.0","https://app.prolific.com/","en-US,en;q=0.9","59cb95053306be000195be2e","683db9eb0562dbf637994deb","68808e1ccc20849007f21a4a","2","1","59cb95053306be000195be2e","2","1","2025-07-23T08:13:40.647Z","","","","","","","","","","","AttribQ","","50","","","","","","","","","","","","","","","","","","","","","","","","","","","","",""
"2647","","<div style=""width:500px;"">
  <p>How much control did you have over the ball?</p>
  </div>","76","html-slider-response","76","1243812","0.0-5.0-2.13","186","1","2025-07-23 07:52:58","1f75c3e559b7213887762d5229550c2b","86.167.102.64","Mozilla/5.0 (Windows NT 10.0; Win64; x64) AppleWebKit/537.36 (KHTML, like Gecko) Chrome/138.0.0.0 Safari/537.36","WebKit","Chrome","138.0.0.0","Windows","10.0","https://app.prolific.com/","en-US,en;q=0.9","59cb95053306be000195be2e","683db9eb0562dbf637994deb","68808e1ccc20849007f21a4a","2","1","59cb95053306be000195be2e","2","1","2025-07-23T08:13:43.297Z","","","","","","","","","","","ControlQ","","50","","","","","","","","","","","","","","","","","","","","","","","","","","","","",""
"2724","","<div style=""width:500px;"">
  <p>How would you describe your current emotional state?</p>
  </div>","28","html-slider-response","77","1246539","0.0-5.0-3.13","186","1","2025-07-23 07:52:58","1f75c3e559b7213887762d5229550c2b","86.167.102.64","Mozilla/5.0 (Windows NT 10.0; Win64; x64) AppleWebKit/537.36 (KHTML, like Gecko) Chrome/138.0.0.0 Safari/537.36","WebKit","Chrome","138.0.0.0","Windows","10.0","https://app.prolific.com/","en-US,en;q=0.9","59cb95053306be000195be2e","683db9eb0562dbf637994deb","68808e1ccc20849007f21a4a","2","1","59cb95053306be000195be2e","2","1","2025-07-23T08:13:46.024Z","","","","","","","","","","","StressQ","","50","","","","","","","","","","","","","","","","","","","","","","","","","","","","",""
"3443","","<div style=""width:500px;"">
  <p>What best describes how you currently feel?</p>
