"rt","response_timestamp","stimulus","response","trial_type","trial_index","time_elapsed","internal_node_id","run_id","condition","recorded_at","source_code_version","ip","user_agent","device","browser","browser_version","platform","platform_version","referer","accept_language","PROLIFIC_PID","STUDY_ID","SESSION_ID","WEEK","BATCH","prolific_id","week","batch","realtime","success","responses","item_order","radio_event_ids","radio_event_times","key_event_times","mouse_event_times","straightlining","zigzagging","honeypot","eventType","view_history","slider_start","which_type","canvas_config","goals_layout","control_level","trial_number","tutorial_trial_number","trial_start_time","phase1_start_time","phase2_start_time","phase3_start_time","goal_1_value","goal_1_distance","goal_2_value","goal_2_distance","goal_selected","outcome","outcome_total","participant_final_score","participant_initial_score","participant_final_score_prop","goal_choice_rt","allocated_time","allocated_time_remaining","goal_direction","counts","mouse_movements","key_presses","question_order","question_id"
"12239","1753252367870","<p style='font-size:40px;line-height:1.25'><strong>Welcome to the experiment!</strong></p><p style='font-size:1.1em;line-height:1.25'>Thank you for participanting in our experiment again! You will be asked to play the Dysfunctional Ball Game again. We will briefly recap the rules before we start.</p><p style='font-size:1.1em;line-height:1.25'>Press <strong>Next</strong> to continue.</p>","0","custom-html-button-response","0","12241","0.0-0.0","149","1","2025-07-23 06:32:33","1f75c3e559b7213887762d5229550c2b","102.182.46.84","Mozilla/5.0 (Macintosh; Intel Mac OS X 10_15_7) AppleWebKit/537.36 (KHTML, like Gecko) Chrome/138.0.0.0 Safari/537.36","Macintosh","Chrome","138.0.0.0","OS X","10_15_7","https://app.prolific.com/","en-GB,en-US;q=0.9,en;q=0.8","61099a311cb3f711346d1b05","683dba2a8a9dda3513610c04","688081fe311b6de77e1a1f81","3","0","61099a311cb3f711346d1b05","3","0","2025-07-23T06:32:47.871Z","","","","","","","","","","","","","","","","","","","","","","","","","","","","","","","","","","","","","","","","","",""
"68633","","","","fullscreen","1","81880","0.0-1.0","149","1","2025-07-23 06:32:33","1f75c3e559b7213887762d5229550c2b","102.182.46.84","Mozilla/5.0 (Macintosh; Intel Mac OS X 10_15_7) AppleWebKit/537.36 (KHTML, like Gecko) Chrome/138.0.0.0 Safari/537.36","Macintosh","Chrome","138.0.0.0","OS X","10_15_7","https://app.prolific.com/","en-GB,en-US;q=0.9,en;q=0.8","61099a311cb3f711346d1b05","683dba2a8a9dda3513610c04","688081fe311b6de77e1a1f81","3","0","61099a311cb3f711346d1b05","3","0","","true","","","","","","","","","","","","","","","","","","","","","","","","","","","","","","","","","","","","","","","","",""
"2715","1753252440225","<p style='font-size:1.1em;line-height:1.25'>In the following, we will ask you a few questions relating to your feelings in the last 24 hours.<br></p><p style='font-size:1.1em;line-height:1.25'>Press the <strong>Next</strong> button to continue.</p>","0","custom-html-button-response","2","84596","0.0-2.0-0.0","149","1","2025-07-23 06:32:33","1f75c3e559b7213887762d5229550c2b","102.182.46.84","Mozilla/5.0 (Macintosh; Intel Mac OS X 10_15_7) AppleWebKit/537.36 (KHTML, like Gecko) Chrome/138.0.0.0 Safari/537.36","Macintosh","Chrome","138.0.0.0","OS X","10_15_7","https://app.prolific.com/","en-GB,en-US;q=0.9,en;q=0.8","61099a311cb3f711346d1b05","683dba2a8a9dda3513610c04","688081fe311b6de77e1a1f81","3","0","61099a311cb3f711346d1b05","3","0","2025-07-23T06:34:00.226Z","","","","","","","","","","","","","","","","","","","","","","","","","","","","","","","","","","","","","","","","","",""
"87834.89999999851","","","","survey-template","3","172437","0.0-2.0-1.0","149","1","2025-07-23 06:32:33","1f75c3e559b7213887762d5229550c2b","102.182.46.84","Mozilla/5.0 (Macintosh; Intel Mac OS X 10_15_7) AppleWebKit/537.36 (KHTML, like Gecko) Chrome/138.0.0.0 Safari/537.36","Macintosh","Chrome","138.0.0.0","OS X","10_15_7","https://app.prolific.com/","en-GB,en-US;q=0.9,en;q=0.8","61099a311cb3f711346d1b05","683dba2a8a9dda3513610c04","688081fe311b6de77e1a1f81","3","0","61099a311cb3f711346d1b05","3","0","2025-07-23T06:35:28.068Z","","{""Q01"":""0"",""Q02"":""0"",""Q03"":""0"",""Q04"":""1"",""Q05"":""0"",""Q06"":""1"",""Q07"":""0"",""Q08"":""1"",""Q09"":""0"",""Q10"":""0"",""Q11"":""2"",""Q12"":""3"",""Q13"":""5"",""Q14"":""1"",""Q15"":""2"",""Q16"":""1"",""Q17"":""0"",""Q18"":""0"",""Q19"":""0"",""Q20"":""2"",""Q21"":""0"",""Q22"":""0""}","[0,1,2,3,4,5,6,7,8,9,10,11,12,13,14,15,16,17,18,19,20,21]","[""Q01"",""Q02"",""Q03"",""Q04"",""Q05"",""Q06"",""Q07"",""Q08"",""Q09"",""Q10"",""Q11"",""Q12"",""Q13"",""Q14"",""Q15"",""Q16"",""Q17"",""Q18"",""Q19"",""Q20"",""Q20"",""Q21"",""Q22""]","[5732.20000000298,8931.60000000149,9596.39999999851,10763.89999999851,13164.10000000149,16663,23899.29999999702,33264.79999999702,36747.10000000149,43197.60000000149,44498.60000000149,47864.10000000149,49930.79999999702,56600.79999999702,58615.20000000298,61097.39999999851,63197.5,64417,66248.39999999851,72798.60000000149,75034.29999999702,78184.79999999702,86934.70000000298]","[]","[0.10000000149011612,5732.20000000298,8180.10000000149,8931.60000000149,9596.39999999851,10763.89999999851,13164.10000000149,16063.10000000149,16663,23380.39999999851,23899.29999999702,30214.10000000149,32714,33264.79999999702,35315.29999999702,36747.10000000149,43197.60000000149,44498.60000000149,47864.10000000149,49930.79999999702,56600.79999999702,58615.20000000298,61097.39999999851,63197.5,64417,66248.39999999851,72798.60000000149,75034.29999999702,78184.79999999702,86934.70000000298,87832.5]","0.5454545454545454","0.47619047619047616","0","drsp","","","","","","","","","","","","","","","","","","","","","","","","","","","","","","",""
"9628.70000000298","","","","survey-template","4","182068","0.0-2.0-2.0","149","1","2025-07-23 06:32:33","1f75c3e559b7213887762d5229550c2b","102.182.46.84","Mozilla/5.0 (Macintosh; Intel Mac OS X 10_15_7) AppleWebKit/537.36 (KHTML, like Gecko) Chrome/138.0.0.0 Safari/537.36","Macintosh","Chrome","138.0.0.0","OS X","10_15_7","https://app.prolific.com/","en-GB,en-US;q=0.9,en;q=0.8","61099a311cb3f711346d1b05","683dba2a8a9dda3513610c04","688081fe311b6de77e1a1f81","3","0","61099a311cb3f711346d1b05","3","0","2025-07-23T06:35:37.698Z","","{""Q01"":""0"",""Q02"":""1"",""Q03"":""1""}","[0,1,2]","[""Q01"",""Q02"",""Q03""]","[2861,5813.9000000059605,8429.10000000149]","[]","[2861,5813.9000000059605,8429.10000000149,9628.10000000149]","0.3333333333333333","0","0","stress","","","","","","","","","","","","","","","","","","","","","","","","","","","","","","",""
"73539","","","","instructions","5","255610","0.0-3.0-0.0","149","1","2025-07-23 06:32:33","1f75c3e559b7213887762d5229550c2b","102.182.46.84","Mozilla/5.0 (Macintosh; Intel Mac OS X 10_15_7) AppleWebKit/537.36 (KHTML, like Gecko) Chrome/138.0.0.0 Safari/537.36","Macintosh","Chrome","138.0.0.0","OS X","10_15_7","https://app.prolific.com/","en-GB,en-US;q=0.9,en;q=0.8","61099a311cb3f711346d1b05","683dba2a8a9dda3513610c04","688081fe311b6de77e1a1f81","3","0","61099a311cb3f711346d1b05","3","0","","","","","","","","","","","","","[{""page_index"":0,""viewing_time"":73538}]","","","","","","","","","","","","","","","","","","","","","","","","","","","","","",""
"581371","","<p>Before you start with this game please answer the following three questions yourself. </p>
  <p>Through this game, we measure several aspects of your cognitive performance, such as reaction times, multi-tasking capabilities </p>
  <p>and the ability to assess the situation you are in.</p>
  <p></p>
  <p><b>How good do you usually are in such tasks?</b></p>","40","html-slider-response","6","837001","0.0-4.0-0.0","149","1","2025-07-23 06:32:33","1f75c3e559b7213887762d5229550c2b","102.182.46.84","Mozilla/5.0 (Macintosh; Intel Mac OS X 10_15_7) AppleWebKit/537.36 (KHTML, like Gecko) Chrome/138.0.0.0 Safari/537.36","Macintosh","Chrome","138.0.0.0","OS X","10_15_7","https://app.prolific.com/","en-GB,en-US;q=0.9,en;q=0.8","61099a311cb3f711346d1b05","683dba2a8a9dda3513610c04","688081fe311b6de77e1a1f81","3","0","61099a311cb3f711346d1b05","3","0","2025-07-23T06:46:32.632Z","","","","","","","","","","","PreSkillQ","","50","","","","","","","","","","","","","","","","","","","","","","","","","","","","",""
"3446","","<div style=""width:500px;"">
  <p>How well do you think you will perform in this task compared to other participants?</p>
  </div>","36","html-slider-response","7","840450","0.0-4.0-1.0","149","1","2025-07-23 06:32:33","1f75c3e559b7213887762d5229550c2b","102.182.46.84","Mozilla/5.0 (Macintosh; Intel Mac OS X 10_15_7) AppleWebKit/537.36 (KHTML, like Gecko) Chrome/138.0.0.0 Safari/537.36","Macintosh","Chrome","138.0.0.0","OS X","10_15_7","https://app.prolific.com/","en-GB,en-US;q=0.9,en;q=0.8","61099a311cb3f711346d1b05","683dba2a8a9dda3513610c04","688081fe311b6de77e1a1f81","3","0","61099a311cb3f711346d1b05","3","0","2025-07-23T06:46:36.080Z","","","","","","","","","","","PrePerfQ","","50","","","","","","","","","","","","","","","","","","","","","","","","","","","","",""
"2449","","<div style=""width:500px;"">
  <p>What best describes how you currently feel?</p>
  </div>","36","html-slider-response","8","842900","0.0-4.0-2.0","149","1","2025-07-23 06:32:33","1f75c3e559b7213887762d5229550c2b","102.182.46.84","Mozilla/5.0 (Macintosh; Intel Mac OS X 10_15_7) AppleWebKit/537.36 (KHTML, like Gecko) Chrome/138.0.0.0 Safari/537.36","Macintosh","Chrome","138.0.0.0","OS X","10_15_7","https://app.prolific.com/","en-GB,en-US;q=0.9,en;q=0.8","61099a311cb3f711346d1b05","683dba2a8a9dda3513610c04","688081fe311b6de77e1a1f81","3","0","61099a311cb3f711346d1b05","3","0","2025-07-23T06:46:38.530Z","","","","","","","","","","","PreMotivationQ","","50","","","","","","","","","","","","","","","","","","","","","","","","","","","","",""
"","","","","ctl-task-cpt","9","870827","0.0-5.0-0.0","149","1","2025-07-23 06:32:33","1f75c3e559b7213887762d5229550c2b","102.182.46.84","Mozilla/5.0 (Macintosh; Intel Mac OS X 10_15_7) AppleWebKit/537.36 (KHTML, like Gecko) Chrome/138.0.0.0 Safari/537.36","Macintosh","Chrome","138.0.0.0","OS X","10_15_7","https://app.prolific.com/","en-GB,en-US;q=0.9,en;q=0.8","61099a311cb3f711346d1b05","683dba2a8a9dda3513610c04","688081fe311b6de77e1a1f81","3","0","61099a311cb3f711346d1b05","3","0","2025-07-23T06:47:06.457Z","","","","","","","","","","","","","","win-only","0","g1:NW,g2:SE","1","1","0","845401.1","1147.8","6151.4","24916","1","4","4","6","2","4","4","4","0","0.030303030303030304","1281.5","3000","375","[""down"",""right""]","{""num_key_presses"":6,""num_perfect"":6,""num_errors"":0,""num_randdir"":0,""num_randdir_good_moves"":0,""num_whilered"":0,""num_whileblue"":0,""num_blue"":1,""num_good_moves"":6}","[670.3174107142858,653.1142857142858,0.1,670.3174107142858,653.1142857142858,103.5,670.3174107142858,653.1142857142858,203.5,670.3174107142858,653.1142857142858,309.1,670.3174107142858,653.1142857142858,413.2,670.3174107142858,653.1142857142858,514,670.3174107142858,653.1142857142858,617.4,670.3174107142858,677.1142857142858,718,722.3174107142858,1007.1142857142858,818.3,722.3174107142858,1007.1142857142858,923.4,850.3174107142858,995.1142857142858,1023.8,1188.3174107142856,1141.1142857142856,1128.3,1210.3174107142856,1169.1142857142856,1233.5,1212.3174107142856,1173.1142857142856,1333.7,1212.3174107142856,1173.1142857142856,1438.1,1212.3174107142856,1173.1142857142856,1538.6,1212.3174107142856,1173.1142857142856,1643.9,1212.3174107142856,1173.1142857142856,1743.9,1212.3174107142856,1173.1142857142856,1843.9,1212.3174107142856,1173.1142857142856,1948.7,1212.3174107142856,1173.1142857142856,2048.7,1212.3174107142856,1173.1142857142856,2153.3,1212.3174107142856,1173.1142857142856,2258.9,1212.3174107142856,1173.1142857142856,2363.3,1212.3174107142856,1173.1142857142856,2467.9,1212.3174107142856,1173.1142857142856,2573.6,1212.3174107142856,1173.1142857142856,2678.1,1212.3174107142856,1173.1142857142856,2778.5,1212.3174107142856,1173.1142857142856,2883.1,1212.3174107142856,1173.1142857142856,2983.7,1212.3174107142856,1173.1142857142856,3088.2,1212.3174107142856,1173.1142857142856,3193.9,1212.3174107142856,1173.1142857142856,3294,1212.3174107142856,1173.1142857142856,3398.4,1212.3174107142856,1173.1142857142856,3502.7,1212.3174107142856,1173.1142857142856,3603,1212.3174107142856,1173.1142857142856,3707.9,1212.3174107142856,1173.1142857142856,3808.4,1212.3174107142856,1173.1142857142856,3912.9,1212.3174107142856,1173.1142857142856,4012.9,1212.3174107142856,1173.1142857142856,4113,1212.3174107142856,1173.1142857142856,4213.6,1212.3174107142856,1173.1142857142856,4313.9,1212.3174107142856,1173.1142857142856,4413.9,1212.3174107142856,1173.1142857142856,4517.5,1212.3174107142856,1173.1142857142856,4617.6,1212.3174107142856,1173.1142857142856,4723.5,1212.3174107142856,1173.1142857142856,4827.8,1212.3174107142856,1173.1142857142856,4928.1]","[4198.8,4198.8,1650.3,2004.7,543.8,""smooth"",""down"",""down"",""good_move"",7000.5,2801.4,2402.8,4199.1,398.6,""smooth"",""down"",""down"",""good_move"",10450.2,3449.5,3007.3,7000.7,442.2,""smooth"",""down"",""down"",""good_move"",13483.7,3033.5,2459.5,10450.4,573.9,""smooth"",""right"",""right"",""good_move"",16345.9,2861.9,2499.7,13484,362.2,""smooth"",""right"",""right"",""good_move"",18677.5,2331.5,1996.2,16346,335.3,""smooth"",""right"",""right"",""good_move""]","",""
"29975","","<div style=""width:500px;"">
  <p>What determined the result of this run?</p>
  </div>","61","html-slider-response","10","900774","0.0-5.0-1.0","149","1","2025-07-23 06:32:33","1f75c3e559b7213887762d5229550c2b","102.182.46.84","Mozilla/5.0 (Macintosh; Intel Mac OS X 10_15_7) AppleWebKit/537.36 (KHTML, like Gecko) Chrome/138.0.0.0 Safari/537.36","Macintosh","Chrome","138.0.0.0","OS X","10_15_7","https://app.prolific.com/","en-GB,en-US;q=0.9,en;q=0.8","61099a311cb3f711346d1b05","683dba2a8a9dda3513610c04","688081fe311b6de77e1a1f81","3","0","61099a311cb3f711346d1b05","3","0","2025-07-23T06:47:36.404Z","","","","","","","","","","","AttribQ","","50","","","","","","","","","","","","","","","","","","","","","","","","","","","","",""
"2350","","<div style=""width:500px;"">
  <p>How much control did you have over the ball?</p>
  </div>","65","html-slider-response","11","903124","0.0-5.0-2.0","149","1","2025-07-23 06:32:33","1f75c3e559b7213887762d5229550c2b","102.182.46.84","Mozilla/5.0 (Macintosh; Intel Mac OS X 10_15_7) AppleWebKit/537.36 (KHTML, like Gecko) Chrome/138.0.0.0 Safari/537.36","Macintosh","Chrome","138.0.0.0","OS X","10_15_7","https://app.prolific.com/","en-GB,en-US;q=0.9,en;q=0.8","61099a311cb3f711346d1b05","683dba2a8a9dda3513610c04","688081fe311b6de77e1a1f81","3","0","61099a311cb3f711346d1b05","3","0","2025-07-23T06:47:38.754Z","","","","","","","","","","","ControlQ","","50","","","","","","","","","","","","","","","","","","","","","","","","","","","","",""
"2565","","<div style=""width:500px;"">
  <p>How would you describe your current emotional state?</p>
  </div>","39","html-slider-response","12","905688","0.0-5.0-3.0","149","1","2025-07-23 06:32:33","1f75c3e559b7213887762d5229550c2b","102.182.46.84","Mozilla/5.0 (Macintosh; Intel Mac OS X 10_15_7) AppleWebKit/537.36 (KHTML, like Gecko) Chrome/138.0.0.0 Safari/537.36","Macintosh","Chrome","138.0.0.0","OS X","10_15_7","https://app.prolific.com/","en-GB,en-US;q=0.9,en;q=0.8","61099a311cb3f711346d1b05","683dba2a8a9dda3513610c04","688081fe311b6de77e1a1f81","3","0","61099a311cb3f711346d1b05","3","0","2025-07-23T06:47:41.318Z","","","","","","","","","","","StressQ","","50","","","","","","","","","","","","","","","","","","","","","","","","","","","","",""
"1851","","<div style=""width:500px;"">
  <p>What best describes how you currently feel?</p>
  </div>","40","html-slider-response","13","907539","0.0-5.0-4.0","149","1","2025-07-23 06:32:33","1f75c3e559b7213887762d5229550c2b","102.182.46.84","Mozilla/5.0 (Macintosh; Intel Mac OS X 10_15_7) AppleWebKit/537.36 (KHTML, like Gecko) Chrome/138.0.0.0 Safari/537.36","Macintosh","Chrome","138.0.0.0","OS X","10_15_7","https://app.prolific.com/","en-GB,en-US;q=0.9,en;q=0.8","61099a311cb3f711346d1b05","683dba2a8a9dda3513610c04","688081fe311b6de77e1a1f81","3","0","61099a311cb3f711346d1b05","3","0","2025-07-23T06:47:43.169Z","","","","","","","","","","","MotivationQ","","50","","","","","","","","","","","","","","","","","","","","","","","","","","","","",""
"","","","","ctl-task-cpt","14","942351","0.0-5.0-0.1","149","1","2025-07-23 06:32:33","1f75c3e559b7213887762d5229550c2b","102.182.46.84","Mozilla/5.0 (Macintosh; Intel Mac OS X 10_15_7) AppleWebKit/537.36 (KHTML, like Gecko) Chrome/138.0.0.0 Safari/537.36","Macintosh","Chrome","138.0.0.0","OS X","10_15_7","https://app.prolific.com/","en-GB,en-US;q=0.9,en;q=0.8","61099a311cb3f711346d1b05","683dba2a8a9dda3513610c04","688081fe311b6de77e1a1f81","3","0","61099a311cb3f711346d1b05","3","0","2025-07-23T06:48:17.981Z","","","","","","","","","","","","","","win-only","3","g1:SW,g2:NE","0.9","2","0","910067.2","999.4","6000.6","31806","1","4","8","6","2","-8","-8","0","4","0","1213.9","3000","-3005","[""up"",""right""]","{""num_key_presses"":5,""num_perfect"":4,""num_errors"":0,""num_randdir"":1,""num_randdir_good_moves"":0,""num_whilered"":0,""num_whileblue"":0,""num_blue"":2,""num_good_moves"":4}","[666.3174107142858,651.1142857142858,0,666.3174107142858,651.1142857142858,100.8,666.3174107142858,651.1142857142858,201.2,666.3174107142858,651.1142857142858,301.2,666.3174107142858,651.1142857142858,406.3,666.3174107142858,651.1142857142858,506.7,888.3174107142858,551.1142857142858,610.7,1052.3174107142856,351.1142857142857,711.2,1080.3174107142856,295.1142857142857,811.8,1106.3174107142856,233.1142857142857,915.7,1124.3174107142856,205.1142857142857,1016.6,1160.3174107142856,157.1142857142857,1121.8,1212.3174107142856,119.11428571428571,1226.3,1212.3174107142856,119.11428571428571,1330.7,1212.3174107142856,119.11428571428571,1430.8,1212.3174107142856,119.11428571428571,1531.3,1212.3174107142856,119.11428571428571,1636.7,1212.3174107142856,119.11428571428571,1741.1,1212.3174107142856,119.11428571428571,1841.7,1212.3174107142856,119.11428571428571,1946.3,1212.3174107142856,119.11428571428571,2046.6,1212.3174107142856,119.11428571428571,2146.7,1212.3174107142856,119.11428571428571,2251.3,1212.3174107142856,119.11428571428571,2352.2,1212.3174107142856,119.11428571428571,2456.6,1212.3174107142856,119.11428571428571,2556.6,1212.3174107142856,119.11428571428571,2656.7,1212.3174107142856,119.11428571428571,2761.8,1212.3174107142856,119.11428571428571,2865.7,1212.3174107142856,119.11428571428571,2966,1212.3174107142856,119.11428571428571,3067.2,1212.3174107142856,119.11428571428571,3168.7,1212.3174107142856,119.11428571428571,3270.8,1212.3174107142856,119.11428571428571,3371.3,1212.3174107142856,119.11428571428571,3475.9,1212.3174107142856,119.11428571428571,3576.2,1212.3174107142856,119.11428571428571,3676.3,1212.3174107142856,119.11428571428571,3776.4,1212.3174107142856,119.11428571428571,3880.9,1212.3174107142856,119.11428571428571,3981,1212.3174107142856,119.11428571428571,4081,1212.3174107142856,119.11428571428571,4181.5,1212.3174107142856,119.11428571428571,4285.7,1212.3174107142856,119.11428571428571,4385.7,1212.3174107142856,119.11428571428571,4486,1212.3174107142856,119.11428571428571,4586.1,1212.3174107142856,119.11428571428571,4691,1212.3174107142856,119.11428571428571,4791.5,1212.3174107142856,119.11428571428571,4896.6]","[9957.2,9957.2,3268,6240.1,449.1,""smooth"",""up"",""up"",""good_move"",12884,2926.5,2483,9957.5,443.5,""smooth"",""up"",""up"",""good_move"",15486.9,2602.8,2140.8,12884.2,462,""smooth"",""up"",""up"",""good_move"",18820.9,3333.8,2875,15487.1,458.8,""smooth"",""right"",""right"",""good_move"",22267.7,3446.5,3023.2,18821.2,423.3,""oops"",""right"",""down"",""bad_move""]","",""
"9965","","<div style=""width:500px;"">
  <p>What determined the result of this run?</p>
  </div>","40","html-slider-response","15","952317","0.0-5.0-1.1","149","1","2025-07-23 06:32:33","1f75c3e559b7213887762d5229550c2b","102.182.46.84","Mozilla/5.0 (Macintosh; Intel Mac OS X 10_15_7) AppleWebKit/537.36 (KHTML, like Gecko) Chrome/138.0.0.0 Safari/537.36","Macintosh","Chrome","138.0.0.0","OS X","10_15_7","https://app.prolific.com/","en-GB,en-US;q=0.9,en;q=0.8","61099a311cb3f711346d1b05","683dba2a8a9dda3513610c04","688081fe311b6de77e1a1f81","3","0","61099a311cb3f711346d1b05","3","0","2025-07-23T06:48:27.947Z","","","","","","","","","","","AttribQ","","50","","","","","","","","","","","","","","","","","","","","","","","","","","","","",""
"2833","","<div style=""width:500px;"">
  <p>How much control did you have over the ball?</p>
  </div>","37","html-slider-response","16","955151","0.0-5.0-2.1","149","1","2025-07-23 06:32:33","1f75c3e559b7213887762d5229550c2b","102.182.46.84","Mozilla/5.0 (Macintosh; Intel Mac OS X 10_15_7) AppleWebKit/537.36 (KHTML, like Gecko) Chrome/138.0.0.0 Safari/537.36","Macintosh","Chrome","138.0.0.0","OS X","10_15_7","https://app.prolific.com/","en-GB,en-US;q=0.9,en;q=0.8","61099a311cb3f711346d1b05","683dba2a8a9dda3513610c04","688081fe311b6de77e1a1f81","3","0","61099a311cb3f711346d1b05","3","0","2025-07-23T06:48:30.781Z","","","","","","","","","","","ControlQ","","50","","","","","","","","","","","","","","","","","","","","","","","","","","","","",""
"3032","","<div style=""width:500px;"">
  <p>How would you describe your current emotional state?</p>
  </div>","38","html-slider-response","17","958183","0.0-5.0-3.1","149","1","2025-07-23 06:32:33","1f75c3e559b7213887762d5229550c2b","102.182.46.84","Mozilla/5.0 (Macintosh; Intel Mac OS X 10_15_7) AppleWebKit/537.36 (KHTML, like Gecko) Chrome/138.0.0.0 Safari/537.36","Macintosh","Chrome","138.0.0.0","OS X","10_15_7","https://app.prolific.com/","en-GB,en-US;q=0.9,en;q=0.8","61099a311cb3f711346d1b05","683dba2a8a9dda3513610c04","688081fe311b6de77e1a1f81","3","0","61099a311cb3f711346d1b05","3","0","2025-07-23T06:48:33.813Z","","","","","","","","","","","StressQ","","50","","","","","","","","","","","","","","","","","","","","","","","","","","","","",""
"1849","","<div style=""width:500px;"">
  <p>What best describes how you currently feel?</p>
  </div>","35","html-slider-response","18","960033","0.0-5.0-4.1","149","1","2025-07-23 06:32:33","1f75c3e559b7213887762d5229550c2b","102.182.46.84","Mozilla/5.0 (Macintosh; Intel Mac OS X 10_15_7) AppleWebKit/537.36 (KHTML, like Gecko) Chrome/138.0.0.0 Safari/537.36","Macintosh","Chrome","138.0.0.0","OS X","10_15_7","https://app.prolific.com/","en-GB,en-US;q=0.9,en;q=0.8","61099a311cb3f711346d1b05","683dba2a8a9dda3513610c04","688081fe311b6de77e1a1f81","3","0","61099a311cb3f711346d1b05","3","0","2025-07-23T06:48:35.663Z","","","","","","","","","","","MotivationQ","","50","","","","","","","","","","","","","","","","","","","","","","","","","","","","",""
"","","","","ctl-task-cpt","19","980247","0.0-5.0-0.2","149","1","2025-07-23 06:32:33","1f75c3e559b7213887762d5229550c2b","102.182.46.84","Mozilla/5.0 (Macintosh; Intel Mac OS X 10_15_7) AppleWebKit/537.36 (KHTML, like Gecko) Chrome/138.0.0.0 Safari/537.36","Macintosh","Chrome","138.0.0.0","OS X","10_15_7","https://app.prolific.com/","en-GB,en-US;q=0.9,en;q=0.8","61099a311cb3f711346d1b05","683dba2a8a9dda3513610c04","688081fe311b6de77e1a1f81","3","0","61099a311cb3f711346d1b05","3","0","2025-07-23T06:48:55.877Z","","","","","","","","","","","","","","win-only","0","g1:NW,g2:SE","0.8","3","0","962566.4","934.6","5935.7","17206.7","1","4","4","6","1","1","1","1","0","0.007575757575757576","1350.2","3000","1455","[""left"",""up""]","{""num_key_presses"":4,""num_perfect"":4,""num_errors"":0,""num_randdir"":0,""num_randdir_good_moves"":0,""num_whilered"":0,""num_whileblue"":0,""num_blue"":0,""num_good_moves"":4}","[646.3174107142858,653.1142857142858,0,646.3174107142858,653.1142857142858,102.2,646.3174107142858,653.1142857142858,207.2,646.3174107142858,653.1142857142858,311,646.3174107142858,653.1142857142858,412,646.3174107142858,711.1142857142858,512,518.3174107142858,651.1142857142858,616.5,230.3174107142857,301.1142857142857,716.8,228.3174107142857,293.1142857142857,821.8,226.3174107142857,293.1142857142857,926.1,24.317410714285714,151.1142857142857,1026.8,6.317410714285714,113.11428571428571,1130.9,28.317410714285714,103.11428571428571,1231.4,70.31741071428571,121.11428571428571,1331.4,70.31741071428571,121.11428571428571,1431.7,70.31741071428571,121.11428571428571,1532,70.31741071428571,121.11428571428571,1636,102.31741071428571,185.1142857142857,1741.5,242.3174107142857,443.1142857142857,1846.3,246.3174107142857,445.1142857142857,1946.7,246.3174107142857,445.1142857142857,2051.2,246.3174107142857,445.1142857142857,2156.1,246.3174107142857,445.1142857142857,2256.6,246.3174107142857,445.1142857142857,2361.6,246.3174107142857,445.1142857142857,2466.3,246.3174107142857,445.1142857142857,2571.9,246.3174107142857,445.1142857142857,2676.6,246.3174107142857,445.1142857142857,2776.7,246.3174107142857,445.1142857142857,2877,246.3174107142857,445.1142857142857,2982.1,246.3174107142857,445.1142857142857,3085.9,246.3174107142857,445.1142857142857,3190.9,246.3174107142857,445.1142857142857,3291.3,246.3174107142857,445.1142857142857,3391.4,246.3174107142857,445.1142857142857,3491.7,246.3174107142857,445.1142857142857,3596.4,246.3174107142857,445.1142857142857,3700.9,246.3174107142857,445.1142857142857,3801.3,246.3174107142857,445.1142857142857,3901.8,246.3174107142857,445.1142857142857,4006.9,246.3174107142857,445.1142857142857,4111.4,246.3174107142857,445.1142857142857,4212.3,246.3174107142857,445.1142857142857,4312.3,246.3174107142857,445.1142857142857,4416.6,246.3174107142857,445.1142857142857,4516.7,246.3174107142857,445.1142857142857,4616.8,246.3174107142857,445.1142857142857,4721.2,246.3174107142857,445.1142857142857,4826,246.3174107142857,445.1142857142857,4927.1]","[1482.9,1482.9,1000,0,482.9,""smooth"",""up"",""up"",""good_move"",5004.7,3521.5,3151.2,1483.2,370.3,""smooth"",""left"",""left"",""good_move"",7973.8,2969,2592.7,5004.8,376.3,""smooth"",""left"",""left"",""good_move"",11173,3199.2,2834.4,7973.8,364.8,""smooth"",""up"",""up"",""good_move""]","",""
"402046","","<div style=""width:500px;"">
  <p>What determined the result of this run?</p>
  </div>","59","html-slider-response","20","1382302","0.0-5.0-1.2","149","1","2025-07-23 06:32:33","1f75c3e559b7213887762d5229550c2b","102.182.46.84","Mozilla/5.0 (Macintosh; Intel Mac OS X 10_15_7) AppleWebKit/537.36 (KHTML, like Gecko) Chrome/138.0.0.0 Safari/537.36","Macintosh","Chrome","138.0.0.0","OS X","10_15_7","https://app.prolific.com/","en-GB,en-US;q=0.9,en;q=0.8","61099a311cb3f711346d1b05","683dba2a8a9dda3513610c04","688081fe311b6de77e1a1f81","3","0","61099a311cb3f711346d1b05","3","0","2025-07-23T06:55:37.933Z","","","","","","","","","","","AttribQ","","50","","","","","","","","","","","","","","","","","","","","","","","","","","","","",""
"1396","","<div style=""width:500px;"">
  <p>How much control did you have over the ball?</p>
  </div>","65","html-slider-response","21","1383701","0.0-5.0-2.2","149","1","2025-07-23 06:32:33","1f75c3e559b7213887762d5229550c2b","102.182.46.84","Mozilla/5.0 (Macintosh; Intel Mac OS X 10_15_7) AppleWebKit/537.36 (KHTML, like Gecko) Chrome/138.0.0.0 Safari/537.36","Macintosh","Chrome","138.0.0.0","OS X","10_15_7","https://app.prolific.com/","en-GB,en-US;q=0.9,en;q=0.8","61099a311cb3f711346d1b05","683dba2a8a9dda3513610c04","688081fe311b6de77e1a1f81","3","0","61099a311cb3f711346d1b05","3","0","2025-07-23T06:55:39.331Z","","","","","","","","","","","ControlQ","","50","","","","","","","","","","","","","","","","","","","","","","","","","","","","",""
"2265","","<div style=""width:500px;"">
  <p>How would you describe your current emotional state?</p>
  </div>","24","html-slider-response","22","1385967","0.0-5.0-3.2","149","1","2025-07-23 06:32:33","1f75c3e559b7213887762d5229550c2b","102.182.46.84","Mozilla/5.0 (Macintosh; Intel Mac OS X 10_15_7) AppleWebKit/537.36 (KHTML, like Gecko) Chrome/138.0.0.0 Safari/537.36","Macintosh","Chrome","138.0.0.0","OS X","10_15_7","https://app.prolific.com/","en-GB,en-US;q=0.9,en;q=0.8","61099a311cb3f711346d1b05","683dba2a8a9dda3513610c04","688081fe311b6de77e1a1f81","3","0","61099a311cb3f711346d1b05","3","0","2025-07-23T06:55:41.597Z","","","","","","","","","","","StressQ","","50","","","","","","","","","","","","","","","","","","","","","","","","","","","","",""
"1716","","<div style=""width:500px;"">
  <p>What best describes how you currently feel?</p>
  </div>","38","html-slider-response","23","1387685","0.0-5.0-4.2","149","1","2025-07-23 06:32:33","1f75c3e559b7213887762d5229550c2b","102.182.46.84","Mozilla/5.0 (Macintosh; Intel Mac OS X 10_15_7) AppleWebKit/537.36 (KHTML, like Gecko) Chrome/138.0.0.0 Safari/537.36","Macintosh","Chrome","138.0.0.0","OS X","10_15_7","https://app.prolific.com/","en-GB,en-US;q=0.9,en;q=0.8","61099a311cb3f711346d1b05","683dba2a8a9dda3513610c04","688081fe311b6de77e1a1f81","3","0","61099a311cb3f711346d1b05","3","0","2025-07-23T06:55:43.315Z","","","","","","","","","","","MotivationQ","","50","","","","","","","","","","","","","","","","","","","","","","","","","","","","",""
"","","","","ctl-task-cpt","24","1422347","0.0-5.0-0.3","149","1","2025-07-23 06:32:33","1f75c3e559b7213887762d5229550c2b","102.182.46.84","Mozilla/5.0 (Macintosh; Intel Mac OS X 10_15_7) AppleWebKit/537.36 (KHTML, like Gecko) Chrome/138.0.0.0 Safari/537.36","Macintosh","Chrome","138.0.0.0","OS X","10_15_7","https://app.prolific.com/","en-GB,en-US;q=0.9,en;q=0.8","61099a311cb3f711346d1b05","683dba2a8a9dda3513610c04","688081fe311b6de77e1a1f81","3","0","61099a311cb3f711346d1b05","3","0","2025-07-23T06:56:17.977Z","","","","","","","","","","","","","","win-only","2","g1:SE,g2:NW","0.7","4","0","1390212.2","845.2","5849.3","31650.7","1","4","8","6","2","8","8","9","1","0.06818181818181818","2133.2","3000","625","[""left"",""up""]","{""num_key_presses"":6,""num_perfect"":6,""num_errors"":0,""num_randdir"":0,""num_randdir_good_moves"":0,""num_whilered"":0,""num_whileblue"":0,""num_blue"":3,""num_good_moves"":6}","[660.3174107142858,655.1142857142858,1,658.3174107142858,655.1142857142858,100.8,658.3174107142858,655.1142857142858,202.6,658.3174107142858,655.1142857142858,302.7,658.3174107142858,655.1142857142858,404.2,714.3174107142858,725.1142857142858,506.1,736.3174107142858,923.1142857142858,606.5,736.3174107142858,923.1142857142858,711.2,552.3174107142858,721.1142857142858,815.7,118.31741071428571,87.11428571428571,916,100.31741071428571,57.114285714285714,1016,102.31741071428571,61.114285714285714,1116.3,208.3174107142857,203.1142857142857,1216.3,932.3174107142858,1231.1142857142856,1321.2,980.3174107142858,1277.1142857142856,1422.2,980.3174107142858,1277.1142857142856,1525.8,548.3174107142858,863.1142857142858,1626.3,284.3174107142857,389.1142857142857,1730.8,284.3174107142857,389.1142857142857,1837.3,150.3174107142857,221.1142857142857,1940,92.31741071428571,105.11428571428571,2040.8,90.31741071428571,103.11428571428571,2140.9,90.31741071428571,103.11428571428571,2246,90.31741071428571,103.11428571428571,2353.8,90.31741071428571,105.11428571428571,2454,204.3174107142857,747.1142857142858,2555.1,228.3174107142857,925.1142857142858,2656.2,228.3174107142857,925.1142857142858,2761,228.3174107142857,925.1142857142858,2861.3,228.3174107142857,925.1142857142858,2966.4,228.3174107142857,925.1142857142858,3071.8,228.3174107142857,925.1142857142858,3171.9,228.3174107142857,925.1142857142858,3272.4,228.3174107142857,925.1142857142858,3375.7,228.3174107142857,925.1142857142858,3476.3,228.3174107142857,925.1142857142858,3581.8,228.3174107142857,925.1142857142858,3688.8,228.3174107142857,925.1142857142858,3789.9,228.3174107142857,925.1142857142858,3890.5,228.3174107142857,925.1142857142858,3990.6,228.3174107142857,925.1142857142858,4091.3,228.3174107142857,925.1142857142858,4195.5,228.3174107142857,925.1142857142858,4296.3,228.3174107142857,925.1142857142858,4402.8,228.3174107142857,925.1142857142858,4505.3,228.3174107142857,925.1142857142858,4606.4,228.3174107142857,925.1142857142858,4711.1,228.3174107142857,925.1142857142858,4815.6,228.3174107142857,925.1142857142858,4916.2]","[3802.7,3802.7,1327.4,2006.8,468.5,""smooth"",""left"",""left"",""good_move"",11042.9,7239.9,3278.7,7391.4,372.8,""smooth"",""left"",""left"",""good_move"",14098.9,3055.9,2601,11043.1,454.9,""smooth"",""left"",""left"",""good_move"",16990.7,2891.6,2543.9,14099.1,347.7,""smooth"",""up"",""up"",""good_move"",22550.6,5559.5,2399.7,19776.4,374.5,""smooth"",""up"",""up"",""good_move"",25707.1,3156.3,2761.9,22550.8,394.4,""smooth"",""up"",""up"",""good_move""]","",""
"4024","","<div style=""width:500px;"">
  <p>What determined the result of this run?</p>
  </div>","79","html-slider-response","25","1426371","0.0-5.0-1.3","149","1","2025-07-23 06:32:33","1f75c3e559b7213887762d5229550c2b","102.182.46.84","Mozilla/5.0 (Macintosh; Intel Mac OS X 10_15_7) AppleWebKit/537.36 (KHTML, like Gecko) Chrome/138.0.0.0 Safari/537.36","Macintosh","Chrome","138.0.0.0","OS X","10_15_7","https://app.prolific.com/","en-GB,en-US;q=0.9,en;q=0.8","61099a311cb3f711346d1b05","683dba2a8a9dda3513610c04","688081fe311b6de77e1a1f81","3","0","61099a311cb3f711346d1b05","3","0","2025-07-23T06:56:22.002Z","","","","","","","","","","","AttribQ","","50","","","","","","","","","","","","","","","","","","","","","","","","","","","","",""
"1747","","<div style=""width:500px;"">
  <p>How much control did you have over the ball?</p>
  </div>","79","html-slider-response","26","1428120","0.0-5.0-2.3","149","1","2025-07-23 06:32:33","1f75c3e559b7213887762d5229550c2b","102.182.46.84","Mozilla/5.0 (Macintosh; Intel Mac OS X 10_15_7) AppleWebKit/537.36 (KHTML, like Gecko) Chrome/138.0.0.0 Safari/537.36","Macintosh","Chrome","138.0.0.0","OS X","10_15_7","https://app.prolific.com/","en-GB,en-US;q=0.9,en;q=0.8","61099a311cb3f711346d1b05","683dba2a8a9dda3513610c04","688081fe311b6de77e1a1f81","3","0","61099a311cb3f711346d1b05","3","0","2025-07-23T06:56:23.750Z","","","","","","","","","","","ControlQ","","50","","","","","","","","","","","","","","","","","","","","","","","","","","","","",""
"1416","","<div style=""width:500px;"">
  <p>How would you describe your current emotional state?</p>
  </div>","24","html-slider-response","27","1429536","0.0-5.0-3.3","149","1","2025-07-23 06:32:33","1f75c3e559b7213887762d5229550c2b","102.182.46.84","Mozilla/5.0 (Macintosh; Intel Mac OS X 10_15_7) AppleWebKit/537.36 (KHTML, like Gecko) Chrome/138.0.0.0 Safari/537.36","Macintosh","Chrome","138.0.0.0","OS X","10_15_7","https://app.prolific.com/","en-GB,en-US;q=0.9,en;q=0.8","61099a311cb3f711346d1b05","683dba2a8a9dda3513610c04","688081fe311b6de77e1a1f81","3","0","61099a311cb3f711346d1b05","3","0","2025-07-23T06:56:25.166Z","","","","","","","","","","","StressQ","","50","","","","","","","","","","","","","","","","","","","","","","","","","","","","",""
"1515","","<div style=""width:500px;"">
  <p>What best describes how you currently feel?</p>
  </div>","29","html-slider-response","28","1431052","0.0-5.0-4.3","149","1","2025-07-23 06:32:33","1f75c3e559b7213887762d5229550c2b","102.182.46.84","Mozilla/5.0 (Macintosh; Intel Mac OS X 10_15_7) AppleWebKit/537.36 (KHTML, like Gecko) Chrome/138.0.0.0 Safari/537.36","Macintosh","Chrome","138.0.0.0","OS X","10_15_7","https://app.prolific.com/","en-GB,en-US;q=0.9,en;q=0.8","61099a311cb3f711346d1b05","683dba2a8a9dda3513610c04","688081fe311b6de77e1a1f81","3","0","61099a311cb3f711346d1b05","3","0","2025-07-23T06:56:26.683Z","","","","","","","","","","","MotivationQ","","50","","","","","","","","","","","","","","","","","","","","","","","","","","","","",""
"","","","","ctl-task-cpt","29","1518833","0.0-5.0-0.4","149","1","2025-07-23 06:32:33","1f75c3e559b7213887762d5229550c2b","102.182.46.84","Mozilla/5.0 (Macintosh; Intel Mac OS X 10_15_7) AppleWebKit/537.36 (KHTML, like Gecko) Chrome/138.0.0.0 Safari/537.36","Macintosh","Chrome","138.0.0.0","OS X","10_15_7","https://app.prolific.com/","en-GB,en-US;q=0.9,en;q=0.8","61099a311cb3f711346d1b05","683dba2a8a9dda3513610c04","688081fe311b6de77e1a1f81","3","0","61099a311cb3f711346d1b05","3","0","2025-07-23T06:57:54.463Z","","","","","","","","","","","","","","win-only","2","g1:SE,g2:NW","0.6","5","0","1433576.3","36284.1","41285.8","84771.3","1","4","8","6","2","-8","-9","0","9","0","1815.5","3000","-2970","[""left"",""up""]","{""num_key_presses"":9,""num_perfect"":5,""num_errors"":1,""num_randdir"":3,""num_randdir_good_moves"":1,""num_whilered"":0,""num_whileblue"":1,""num_blue"":5,""num_good_moves"":7}","[644.3174107142858,655.1142857142858,0.2,644.3174107142858,655.1142857142858,102.6,644.3174107142858,655.1142857142858,206.5,644.3174107142858,655.1142857142858,306.7,644.3174107142858,655.1142857142858,406.8,736.3174107142858,465.1142857142857,512.6,628.3174107142858,309.1142857142857,617.6,578.3174107142858,379.1142857142857,721.5,506.3174107142857,423.1142857142857,822.1,286.3174107142857,347.1142857142857,927.5,286.3174107142857,347.1142857142857,1032.1,286.3174107142857,347.1142857142857,1132.5,192.3174107142857,129.1142857142857,1236.6,148.3174107142857,65.11428571428571,1342.3,170.3174107142857,99.11428571428571,1447.4,176.3174107142857,113.11428571428571,1552,150.3174107142857,117.11428571428571,1656.8,136.3174107142857,103.11428571428571,1762.5,136.3174107142857,103.11428571428571,1862.8,136.3174107142857,103.11428571428571,1966.6,136.3174107142857,103.11428571428571,2068.6,136.3174107142857,103.11428571428571,2171.6,-223.6825892857143,-134.8857142857143,2271.6,-281.6825892857143,-184.8857142857143,2371.8,-281.6825892857143,-184.8857142857143,2477.5,-281.6825892857143,-184.8857142857143,2582.3,-281.6825892857143,-184.8857142857143,2682.6,-281.6825892857143,-184.8857142857143,2786.3,-281.6825892857143,-184.8857142857143,2891.4,-319.6825892857143,167.1142857142857,2991.9,-289.6825892857143,221.1142857142857,3096.8,-289.6825892857143,221.1142857142857,3197,-289.6825892857143,221.1142857142857,3297.7,-289.6825892857143,221.1142857142857,3401.9,-289.6825892857143,221.1142857142857,3502,-289.6825892857143,221.1142857142857,3607.1,-289.6825892857143,221.1142857142857,3708.5,-289.6825892857143,221.1142857142857,3811.9,-289.6825892857143,221.1142857142857,3912.3,-289.6825892857143,221.1142857142857,4017.4,-289.6825892857143,221.1142857142857,4122,-289.6825892857143,221.1142857142857,4226.6,-289.6825892857143,221.1142857142857,4327.2,-289.6825892857143,221.1142857142857,4432.7,-289.6825892857143,221.1142857142857,4536.6,-289.6825892857143,221.1142857142857,4641.5,-289.6825892857143,221.1142857142857,4741.9,-289.6825892857143,221.1142857142857,4842,-289.6825892857143,221.1142857142857,4947.5]","[4470.6,4470.6,2135.7,2000.8,334.1,""smooth"",""up"",""up"",""good_move"",10959.2,6488.1,3127.6,7503.1,328.5,""smooth"",""left"",""left"",""good_move"",20855.8,9896.3,2995.9,17500.9,359,""oops"",""left"",""down"",""bad_move"",24113.9,3257.9,2874.8,20856,383.1,""oops"",""left"",""down"",""bad_move"",27421.7,3307.6,2881.1,24114.1,426.5,""smooth"",""left"",""left"",""good_move"",30571.3,3149.3,2797.5,27422.1,351.8,""smooth"",""left"",""left"",""good_move"",34440.2,3868.6,3558.1,30571.6,310.5,""while_blue"",""up"",""up"",""good_move"",37004.7,2564.1,2165.6,34440.6,398.5,""oops"",""up"",""up"",""good_move"",40436,3431.1,3085.7,37004.9,345.4,""smooth"",""up"",""up"",""good_move""]","",""
"5357","","<div style=""width:500px;"">
  <p>What determined the result of this run?</p>
  </div>","9","html-slider-response","30","1524192","0.0-5.0-1.4","149","1","2025-07-23 06:32:33","1f75c3e559b7213887762d5229550c2b","102.182.46.84","Mozilla/5.0 (Macintosh; Intel Mac OS X 10_15_7) AppleWebKit/537.36 (KHTML, like Gecko) Chrome/138.0.0.0 Safari/537.36","Macintosh","Chrome","138.0.0.0","OS X","10_15_7","https://app.prolific.com/","en-GB,en-US;q=0.9,en;q=0.8","61099a311cb3f711346d1b05","683dba2a8a9dda3513610c04","688081fe311b6de77e1a1f81","3","0","61099a311cb3f711346d1b05","3","0","2025-07-23T06:57:59.822Z","","","","","","","","","","","AttribQ","","50","","","","","","","","","","","","","","","","","","","","","","","","","","","","",""
"2782","","<div style=""width:500px;"">
  <p>How much control did you have over the ball?</p>
  </div>","4","html-slider-response","31","1526974","0.0-5.0-2.4","149","1","2025-07-23 06:32:33","1f75c3e559b7213887762d5229550c2b","102.182.46.84","Mozilla/5.0 (Macintosh; Intel Mac OS X 10_15_7) AppleWebKit/537.36 (KHTML, like Gecko) Chrome/138.0.0.0 Safari/537.36","Macintosh","Chrome","138.0.0.0","OS X","10_15_7","https://app.prolific.com/","en-GB,en-US;q=0.9,en;q=0.8","61099a311cb3f711346d1b05","683dba2a8a9dda3513610c04","688081fe311b6de77e1a1f81","3","0","61099a311cb3f711346d1b05","3","0","2025-07-23T06:58:02.604Z","","","","","","","","","","","ControlQ","","50","","","","","","","","","","","","","","","","","","","","","","","","","","","","",""
"1415","","<div style=""width:500px;"">
  <p>How would you describe your current emotional state?</p>
  </div>","94","html-slider-response","32","1528390","0.0-5.0-3.4","149","1","2025-07-23 06:32:33","1f75c3e559b7213887762d5229550c2b","102.182.46.84","Mozilla/5.0 (Macintosh; Intel Mac OS X 10_15_7) AppleWebKit/537.36 (KHTML, like Gecko) Chrome/138.0.0.0 Safari/537.36","Macintosh","Chrome","138.0.0.0","OS X","10_15_7","https://app.prolific.com/","en-GB,en-US;q=0.9,en;q=0.8","61099a311cb3f711346d1b05","683dba2a8a9dda3513610c04","688081fe311b6de77e1a1f81","3","0","61099a311cb3f711346d1b05","3","0","2025-07-23T06:58:04.020Z","","","","","","","","","","","StressQ","","50","","","","","","","","","","","","","","","","","","","","","","","","","","","","",""
"3950","","<div style=""width:500px;"">
  <p>What best describes how you currently feel?</p>
  </div>","35","html-slider-response","33","1532341","0.0-5.0-4.4","149","1","2025-07-23 06:32:33","1f75c3e559b7213887762d5229550c2b","102.182.46.84","Mozilla/5.0 (Macintosh; Intel Mac OS X 10_15_7) AppleWebKit/537.36 (KHTML, like Gecko) Chrome/138.0.0.0 Safari/537.36","Macintosh","Chrome","138.0.0.0","OS X","10_15_7","https://app.prolific.com/","en-GB,en-US;q=0.9,en;q=0.8","61099a311cb3f711346d1b05","683dba2a8a9dda3513610c04","688081fe311b6de77e1a1f81","3","0","61099a311cb3f711346d1b05","3","0","2025-07-23T06:58:07.971Z","","","","","","","","","","","MotivationQ","","50","","","","","","","","","","","","","","","","","","","","","","","","","","","","",""
"","","","","ctl-task-cpt","34","1564584","0.0-5.0-0.5","149","1","2025-07-23 06:32:33","1f75c3e559b7213887762d5229550c2b","102.182.46.84","Mozilla/5.0 (Macintosh; Intel Mac OS X 10_15_7) AppleWebKit/537.36 (KHTML, like Gecko) Chrome/138.0.0.0 Safari/537.36","Macintosh","Chrome","138.0.0.0","OS X","10_15_7","https://app.prolific.com/","en-GB,en-US;q=0.9,en;q=0.8","61099a311cb3f711346d1b05","683dba2a8a9dda3513610c04","688081fe311b6de77e1a1f81","3","0","61099a311cb3f711346d1b05","3","0","2025-07-23T06:58:40.214Z","","","","","","","","","","","","","","win-only","0","g1:NW,g2:SE","0.5","6","0","1534861.6","1036.8","6038.7","29226.8","1","4","4","6","2","-4","-6","0","0","0","1965.4","3000","-2815","[""down"",""right""]","{""num_key_presses"":8,""num_perfect"":2,""num_errors"":2,""num_randdir"":4,""num_randdir_good_moves"":1,""num_whilered"":0,""num_whileblue"":2,""num_blue"":2,""num_good_moves"":5}","[660.3174107142858,635.1142857142858,0,660.3174107142858,635.1142857142858,101.6,660.3174107142858,635.1142857142858,205.5,660.3174107142858,635.1142857142858,308.9,660.3174107142858,635.1142857142858,409.1,654.3174107142858,605.1142857142858,509.5,352.3174107142857,287.1142857142857,616.9,276.3174107142857,231.1142857142857,718.8,282.3174107142857,233.1142857142857,818.9,280.3174107142857,241.1142857142857,919.1,242.3174107142857,197.1142857142857,1019.4,242.3174107142857,197.1142857142857,1125,224.3174107142857,185.1142857142857,1229.2,156.3174107142857,129.1142857142857,1331.9,408.3174107142857,635.1142857142858,1434.6,1042.3174107142856,1285.1142857142856,1535.1,1042.3174107142856,1285.1142857142856,1640.1,1056.3174107142856,1285.1142857142856,1744.7,1168.3174107142856,1281.1142857142856,1844.7,1196.3174107142856,1263.1142857142856,1950.1,1196.3174107142856,1263.1142857142856,2053.9,1196.3174107142856,1263.1142857142856,2154.6,1196.3174107142856,1263.1142857142856,2254.8,1196.3174107142856,1263.1142857142856,2359,948.3174107142858,1147.1142857142856,2459,788.3174107142858,967.1142857142858,2559.5,760.3174107142858,943.1142857142858,2664.5,518.3174107142858,911.1142857142858,2764.9,402.3174107142857,963.1142857142858,2867.1,402.3174107142857,963.1142857142858,2970.9,402.3174107142857,963.1142857142858,3074.8,402.3174107142857,963.1142857142858,3178.7,402.3174107142857,963.1142857142858,3281.3,248.3174107142857,1081.1142857142856,3386,212.3174107142857,1103.1142857142856,3489.2,212.3174107142857,1103.1142857142856,3589.5,212.3174107142857,1103.1142857142856,3694.6,212.3174107142857,1103.1142857142856,3801.4,212.3174107142857,1103.1142857142856,3901.9,212.3174107142857,1103.1142857142856,4007.8,212.3174107142857,1103.1142857142856,4109.2,212.3174107142857,1103.1142857142856,4210.2,212.3174107142857,1103.1142857142856,4316,212.3174107142857,1103.1142857142856,4419.3,212.3174107142857,1103.1142857142856,4524.8,212.3174107142857,1103.1142857142856,4632.5,212.3174107142857,1103.1142857142856,4733.5,212.3174107142857,1103.1142857142856,4833.9,212.3174107142857,1103.1142857142856,4935]","[1470.8,1470.8,1000,0,470.8,""oops"",""down"",""right"",""good_move"",5270.6,3799.6,3060.7,1471,738.9,""smooth"",""down"",""down"",""good_move"",7699.6,2428.8,1988.5,5270.8,440.3,""smooth"",""right"",""right"",""good_move"",10215,2515.3,2144.7,7699.7,370.6,""oops"",""right"",""up"",""bad_move"",12634.8,2419.4,1985,10215.4,434.4,""oops"",""down"",""left"",""bad_move"",15789.3,3154.2,2778.7,12635.1,375.5,""oops"",""down"",""up"",""bad_move"",18405.4,2615.9,2208.2,15789.5,407.7,""while_blue"",""right"",""down"",""good_move"",20284.1,1878.5,1466,18405.6,412.5,""while_blue"",""right"",""right"",""good_move""]","",""
"1725","","<div style=""width:500px;"">
  <p>What determined the result of this run?</p>
  </div>","1","html-slider-response","35","1566310","0.0-5.0-1.5","149","1","2025-07-23 06:32:33","1f75c3e559b7213887762d5229550c2b","102.182.46.84","Mozilla/5.0 (Macintosh; Intel Mac OS X 10_15_7) AppleWebKit/537.36 (KHTML, like Gecko) Chrome/138.0.0.0 Safari/537.36","Macintosh","Chrome","138.0.0.0","OS X","10_15_7","https://app.prolific.com/","en-GB,en-US;q=0.9,en;q=0.8","61099a311cb3f711346d1b05","683dba2a8a9dda3513610c04","688081fe311b6de77e1a1f81","3","0","61099a311cb3f711346d1b05","3","0","2025-07-23T06:58:41.940Z","","","","","","","","","","","AttribQ","","50","","","","","","","","","","","","","","","","","","","","","","","","","","","","",""
"1997","","<div style=""width:500px;"">
  <p>How much control did you have over the ball?</p>
  </div>","0","html-slider-response","36","1568308","0.0-5.0-2.5","149","1","2025-07-23 06:32:33","1f75c3e559b7213887762d5229550c2b","102.182.46.84","Mozilla/5.0 (Macintosh; Intel Mac OS X 10_15_7) AppleWebKit/537.36 (KHTML, like Gecko) Chrome/138.0.0.0 Safari/537.36","Macintosh","Chrome","138.0.0.0","OS X","10_15_7","https://app.prolific.com/","en-GB,en-US;q=0.9,en;q=0.8","61099a311cb3f711346d1b05","683dba2a8a9dda3513610c04","688081fe311b6de77e1a1f81","3","0","61099a311cb3f711346d1b05","3","0","2025-07-23T06:58:43.938Z","","","","","","","","","","","ControlQ","","50","","","","","","","","","","","","","","","","","","","","","","","","","","","","",""
"1683","","<div style=""width:500px;"">
  <p>How would you describe your current emotional state?</p>
  </div>","90","html-slider-response","37","1569992","0.0-5.0-3.5","149","1","2025-07-23 06:32:33","1f75c3e559b7213887762d5229550c2b","102.182.46.84","Mozilla/5.0 (Macintosh; Intel Mac OS X 10_15_7) AppleWebKit/537.36 (KHTML, like Gecko) Chrome/138.0.0.0 Safari/537.36","Macintosh","Chrome","138.0.0.0","OS X","10_15_7","https://app.prolific.com/","en-GB,en-US;q=0.9,en;q=0.8","61099a311cb3f711346d1b05","683dba2a8a9dda3513610c04","688081fe311b6de77e1a1f81","3","0","61099a311cb3f711346d1b05","3","0","2025-07-23T06:58:45.622Z","","","","","","","","","","","StressQ","","50","","","","","","","","","","","","","","","","","","","","","","","","","","","","",""
"1350","","<div style=""width:500px;"">
  <p>What best describes how you currently feel?</p>
  </div>","15","html-slider-response","38","1571342","0.0-5.0-4.5","149","1","2025-07-23 06:32:33","1f75c3e559b7213887762d5229550c2b","102.182.46.84","Mozilla/5.0 (Macintosh; Intel Mac OS X 10_15_7) AppleWebKit/537.36 (KHTML, like Gecko) Chrome/138.0.0.0 Safari/537.36","Macintosh","Chrome","138.0.0.0","OS X","10_15_7","https://app.prolific.com/","en-GB,en-US;q=0.9,en;q=0.8","61099a311cb3f711346d1b05","683dba2a8a9dda3513610c04","688081fe311b6de77e1a1f81","3","0","61099a311cb3f711346d1b05","3","0","2025-07-23T06:58:46.972Z","","","","","","","","","","","MotivationQ","","50","","","","","","","","","","","","","","","","","","","","","","","","","","","","",""
"","","","","ctl-task-cpt","39","1599116","0.0-5.0-0.6","149","1","2025-07-23 06:32:33","1f75c3e559b7213887762d5229550c2b","102.182.46.84","Mozilla/5.0 (Macintosh; Intel Mac OS X 10_15_7) AppleWebKit/537.36 (KHTML, like Gecko) Chrome/138.0.0.0 Safari/537.36","Macintosh","Chrome","138.0.0.0","OS X","10_15_7","https://app.prolific.com/","en-GB,en-US;q=0.9,en;q=0.8","61099a311cb3f711346d1b05","683dba2a8a9dda3513610c04","688081fe311b6de77e1a1f81","3","0","61099a311cb3f711346d1b05","3","0","2025-07-23T06:59:14.746Z","","","","","","","","","","","","","","win-only","1","g1:NE,g2:SW","0.4","7","0","1573862.1","971.1","5973.1","24765.7","1","4","8","6","2","-8","-8","0","0","0","1077.4","3000","-2755","[""down"",""left""]","{""num_key_presses"":6,""num_perfect"":2,""num_errors"":0,""num_randdir"":4,""num_randdir_good_moves"":3,""num_whilered"":0,""num_whileblue"":0,""num_blue"":0,""num_good_moves"":5}","[660.3174107142858,655.1142857142858,0,660.3174107142858,655.1142857142858,101.4,660.3174107142858,655.1142857142858,203.1,660.3174107142858,655.1142857142858,306.3,660.3174107142858,655.1142857142858,410,938.3174107142858,215.1142857142857,515.2,772.3174107142858,815.1142857142858,617.6,348.3174107142857,1179.1142857142856,719.6,144.3174107142857,1171.1142857142856,824.9,104.31741071428571,1167.1142857142856,925.5,100.31741071428571,1163.1142857142856,1025.5,100.31741071428571,1163.1142857142856,1129.5,100.31741071428571,1163.1142857142856,1235.7,100.31741071428571,1163.1142857142856,1339.4,100.31741071428571,1163.1142857142856,1439.8,304.3174107142857,1077.1142857142856,1545.1,830.3174107142858,985.1142857142858,1650.9,876.3174107142858,989.1142857142858,1754.5,876.3174107142858,989.1142857142858,1855.1,876.3174107142858,989.1142857142858,1960.1,876.3174107142858,989.1142857142858,2060.5,876.3174107142858,989.1142857142858,2167.9,876.3174107142858,989.1142857142858,2269.1,876.3174107142858,989.1142857142858,2369.5,876.3174107142858,989.1142857142858,2474.7,876.3174107142858,989.1142857142858,2579.6,876.3174107142858,989.1142857142858,2679.8,876.3174107142858,989.1142857142858,2787.6,876.3174107142858,989.1142857142858,2889.1,876.3174107142858,989.1142857142858,2990.1,876.3174107142858,989.1142857142858,3094.7,876.3174107142858,989.1142857142858,3196.9,876.3174107142858,989.1142857142858,3301.9,876.3174107142858,989.1142857142858,3404.1,876.3174107142858,989.1142857142858,3504.1,876.3174107142858,989.1142857142858,3605.2,876.3174107142858,989.1142857142858,3709.7,876.3174107142858,989.1142857142858,3809.7,876.3174107142858,989.1142857142858,3909.7,876.3174107142858,989.1142857142858,4010,876.3174107142858,989.1142857142858,4114.9,876.3174107142858,989.1142857142858,4215.2,876.3174107142858,989.1142857142858,4316.9,876.3174107142858,989.1142857142858,4417.7,876.3174107142858,989.1142857142858,4522.1,876.3174107142858,989.1142857142858,4625.1,876.3174107142858,989.1142857142858,4733.9,876.3174107142858,989.1142857142858,4837,876.3174107142858,989.1142857142858,4939.7]","[1430.1,1430.1,1000,0,430.1,""oops"",""down"",""down"",""good_move"",4420.9,2990.4,2631.8,1430.5,358.6,""oops"",""left"",""left"",""good_move"",6768.6,2347.5,1995.1,4421.1,352.4,""oops"",""left"",""right"",""bad_move"",9671.3,2902.6,2533.7,6768.7,368.9,""smooth"",""down"",""down"",""good_move"",12892.3,3220.8,2025.5,9671.5,1195.3,""smooth"",""down"",""down"",""good_move"",15429.8,2537.4,2149.7,12892.4,387.7,""oops"",""down"",""left"",""good_move""]","",""
"5995","","<div style=""width:500px;"">
  <p>What determined the result of this run?</p>
  </div>","5","html-slider-response","40","1605112","0.0-5.0-1.6","149","1","2025-07-23 06:32:33","1f75c3e559b7213887762d5229550c2b","102.182.46.84","Mozilla/5.0 (Macintosh; Intel Mac OS X 10_15_7) AppleWebKit/537.36 (KHTML, like Gecko) Chrome/138.0.0.0 Safari/537.36","Macintosh","Chrome","138.0.0.0","OS X","10_15_7","https://app.prolific.com/","en-GB,en-US;q=0.9,en;q=0.8","61099a311cb3f711346d1b05","683dba2a8a9dda3513610c04","688081fe311b6de77e1a1f81","3","0","61099a311cb3f711346d1b05","3","0","2025-07-23T06:59:20.742Z","","","","","","","","","","","AttribQ","","50","","","","","","","","","","","","","","","","","","","","","","","","","","","","",""
"1898","","<div style=""width:500px;"">
  <p>How much control did you have over the ball?</p>
  </div>","6","html-slider-response","41","1607010","0.0-5.0-2.6","149","1","2025-07-23 06:32:33","1f75c3e559b7213887762d5229550c2b","102.182.46.84","Mozilla/5.0 (Macintosh; Intel Mac OS X 10_15_7) AppleWebKit/537.36 (KHTML, like Gecko) Chrome/138.0.0.0 Safari/537.36","Macintosh","Chrome","138.0.0.0","OS X","10_15_7","https://app.prolific.com/","en-GB,en-US;q=0.9,en;q=0.8","61099a311cb3f711346d1b05","683dba2a8a9dda3513610c04","688081fe311b6de77e1a1f81","3","0","61099a311cb3f711346d1b05","3","0","2025-07-23T06:59:22.640Z","","","","","","","","","","","ControlQ","","50","","","","","","","","","","","","","","","","","","","","","","","","","","","","",""
"1849","","<div style=""width:500px;"">
  <p>How would you describe your current emotional state?</p>
  </div>","62","html-slider-response","42","1608860","0.0-5.0-3.6","149","1","2025-07-23 06:32:33","1f75c3e559b7213887762d5229550c2b","102.182.46.84","Mozilla/5.0 (Macintosh; Intel Mac OS X 10_15_7) AppleWebKit/537.36 (KHTML, like Gecko) Chrome/138.0.0.0 Safari/537.36","Macintosh","Chrome","138.0.0.0","OS X","10_15_7","https://app.prolific.com/","en-GB,en-US;q=0.9,en;q=0.8","61099a311cb3f711346d1b05","683dba2a8a9dda3513610c04","688081fe311b6de77e1a1f81","3","0","61099a311cb3f711346d1b05","3","0","2025-07-23T06:59:24.490Z","","","","","","","","","","","StressQ","","50","","","","","","","","","","","","","","","","","","","","","","","","","","","","",""
"1332","","<div style=""width:500px;"">
  <p>What best describes how you currently feel?</p>
  </div>","22","html-slider-response","43","1610193","0.0-5.0-4.6","149","1","2025-07-23 06:32:33","1f75c3e559b7213887762d5229550c2b","102.182.46.84","Mozilla/5.0 (Macintosh; Intel Mac OS X 10_15_7) AppleWebKit/537.36 (KHTML, like Gecko) Chrome/138.0.0.0 Safari/537.36","Macintosh","Chrome","138.0.0.0","OS X","10_15_7","https://app.prolific.com/","en-GB,en-US;q=0.9,en;q=0.8","61099a311cb3f711346d1b05","683dba2a8a9dda3513610c04","688081fe311b6de77e1a1f81","3","0","61099a311cb3f711346d1b05","3","0","2025-07-23T06:59:25.823Z","","","","","","","","","","","MotivationQ","","50","","","","","","","","","","","","","","","","","","","","","","","","","","","","",""
"","","","","ctl-task-cpt","44","1647547","0.0-5.0-0.7","149","1","2025-07-23 06:32:33","1f75c3e559b7213887762d5229550c2b","102.182.46.84","Mozilla/5.0 (Macintosh; Intel Mac OS X 10_15_7) AppleWebKit/537.36 (KHTML, like Gecko) Chrome/138.0.0.0 Safari/537.36","Macintosh","Chrome","138.0.0.0","OS X","10_15_7","https://app.prolific.com/","en-GB,en-US;q=0.9,en;q=0.8","61099a311cb3f711346d1b05","683dba2a8a9dda3513610c04","688081fe311b6de77e1a1f81","3","0","61099a311cb3f711346d1b05","3","0","2025-07-23T07:00:03.177Z","","","","","","","","","","","","","","win-only","0","g1:NW,g2:SE","0.3","8","0","1612712.4","1088","6090.9","34340.5","1","4","4","6","2","-4","-6","0","0","0","1294.9","3000","-2780","[""down"",""right""]","{""num_key_presses"":10,""num_perfect"":3,""num_errors"":2,""num_randdir"":5,""num_randdir_good_moves"":1,""num_whilered"":0,""num_whileblue"":1,""num_blue"":1,""num_good_moves"":4}","[648.3174107142858,643.1142857142858,0.1,648.3174107142858,645.1142857142858,101.5,648.3174107142858,645.1142857142858,203,648.3174107142858,641.1142857142858,308.8,570.3174107142858,435.1142857142857,412.7,384.3174107142857,381.1142857142857,513.6,298.3174107142857,227.1142857142857,620,296.3174107142857,277.1142857142857,720.4,400.3174107142857,381.1142857142857,823.6,1296.3174107142856,1393.1142857142856,927.9,1354.3174107142856,1457.1142857142856,1030.1,1352.3174107142856,1443.1142857142856,1133.4,1220.3174107142856,1227.1142857142856,1233.9,1212.3174107142856,1215.1142857142856,1338.3,1212.3174107142856,1215.1142857142856,1443.8,1212.3174107142856,1215.1142857142856,1552.4,792.3174107142858,189.1142857142857,1659.1,614.3174107142858,-162.8857142857143,1763.5,614.3174107142858,-162.8857142857143,1867.9,614.3174107142858,-162.8857142857143,1969.7,614.3174107142858,-162.8857142857143,2073.1,614.3174107142858,-162.8857142857143,2173.6,614.3174107142858,-162.8857142857143,2273.6,614.3174107142858,-162.8857142857143,2373.7,614.3174107142858,-162.8857142857143,2478.5,614.3174107142858,-162.8857142857143,2584.9,614.3174107142858,-162.8857142857143,2693.8,614.3174107142858,-162.8857142857143,2798.5,614.3174107142858,-162.8857142857143,2900.6,614.3174107142858,-162.8857142857143,3003.4,614.3174107142858,-162.8857142857143,3105.8,614.3174107142858,-162.8857142857143,3208.2,614.3174107142858,-162.8857142857143,3308.2,614.3174107142858,-162.8857142857143,3415.7,614.3174107142858,-162.8857142857143,3518.2,614.3174107142858,-162.8857142857143,3620.4,614.3174107142858,-162.8857142857143,3720.9,614.3174107142858,-162.8857142857143,3822.1,614.3174107142858,-162.8857142857143,3922.6,1664.3174107142856,275.1142857142857,4023.6,1678.3174107142856,377.1142857142857,4127.4,1678.3174107142856,377.1142857142857,4227.9,1678.3174107142856,377.1142857142857,4336.6,1678.3174107142856,377.1142857142857,4437,1678.3174107142856,377.1142857142857,4538.6,1678.3174107142856,377.1142857142857,4638.7,1678.3174107142856,377.1142857142857,4742.4,1678.3174107142856,377.1142857142857,4843.8,1678.3174107142856,377.1142857142857,4949.3]","[396.5,396.5,1000,0,-603.5,""error"",""-"",""-"",""no_move"",4481.2,4084.5,2728.9,1399.7,352.6,""oops"",""down"",""up"",""bad_move"",6967.1,2485.7,2012.4,4481.4,473.3,""oops"",""down"",""left"",""bad_move"",9464.6,2497.3,2061,6967.3,436.3,""oops"",""down"",""up"",""bad_move"",12646.4,3181.7,2872.5,9464.7,309.2,""smooth"",""right"",""right"",""good_move"",15551.3,2904.7,2329.1,12646.7,575.6,""oops"",""right"",""right"",""good_move"",18444.8,2893.2,2544.1,15551.6,349.1,""smooth"",""right"",""right"",""good_move"",21321.1,2876.1,2549.6,18445,326.5,""smooth"",""right"",""right"",""good_move"",23764.9,2443.7,2129.6,21321.2,314.1,""oops"",""down"",""up"",""bad_move"",26349.8,2584.6,2419.4,23765.2,165.2,""while_blue"",""down"",""left"",""bad_move""]","",""
"5532","","<div style=""width:500px;"">
  <p>What determined the result of this run?</p>
  </div>","2","html-slider-response","45","1653080","0.0-5.0-1.7","149","1","2025-07-23 06:32:33","1f75c3e559b7213887762d5229550c2b","102.182.46.84","Mozilla/5.0 (Macintosh; Intel Mac OS X 10_15_7) AppleWebKit/537.36 (KHTML, like Gecko) Chrome/138.0.0.0 Safari/537.36","Macintosh","Chrome","138.0.0.0","OS X","10_15_7","https://app.prolific.com/","en-GB,en-US;q=0.9,en;q=0.8","61099a311cb3f711346d1b05","683dba2a8a9dda3513610c04","688081fe311b6de77e1a1f81","3","0","61099a311cb3f711346d1b05","3","0","2025-07-23T07:00:08.710Z","","","","","","","","","","","AttribQ","","50","","","","","","","","","","","","","","","","","","","","","","","","","","","","",""
"2014","","<div style=""width:500px;"">
  <p>How much control did you have over the ball?</p>
  </div>","1","html-slider-response","46","1655094","0.0-5.0-2.7","149","1","2025-07-23 06:32:33","1f75c3e559b7213887762d5229550c2b","102.182.46.84","Mozilla/5.0 (Macintosh; Intel Mac OS X 10_15_7) AppleWebKit/537.36 (KHTML, like Gecko) Chrome/138.0.0.0 Safari/537.36","Macintosh","Chrome","138.0.0.0","OS X","10_15_7","https://app.prolific.com/","en-GB,en-US;q=0.9,en;q=0.8","61099a311cb3f711346d1b05","683dba2a8a9dda3513610c04","688081fe311b6de77e1a1f81","3","0","61099a311cb3f711346d1b05","3","0","2025-07-23T07:00:10.724Z","","","","","","","","","","","ControlQ","","50","","","","","","","","","","","","","","","","","","","","","","","","","","","","",""
"2433","","<div style=""width:500px;"">
  <p>How would you describe your current emotional state?</p>
  </div>","82","html-slider-response","47","1657529","0.0-5.0-3.7","149","1","2025-07-23 06:32:33","1f75c3e559b7213887762d5229550c2b","102.182.46.84","Mozilla/5.0 (Macintosh; Intel Mac OS X 10_15_7) AppleWebKit/537.36 (KHTML, like Gecko) Chrome/138.0.0.0 Safari/537.36","Macintosh","Chrome","138.0.0.0","OS X","10_15_7","https://app.prolific.com/","en-GB,en-US;q=0.9,en;q=0.8","61099a311cb3f711346d1b05","683dba2a8a9dda3513610c04","688081fe311b6de77e1a1f81","3","0","61099a311cb3f711346d1b05","3","0","2025-07-23T07:00:13.159Z","","","","","","","","","","","StressQ","","50","","","","","","","","","","","","","","","","","","","","","","","","","","","","",""
"1565","","<div style=""width:500px;"">
  <p>What best describes how you currently feel?</p>
  </div>","25","html-slider-response","48","1659096","0.0-5.0-4.7","149","1","2025-07-23 06:32:33","1f75c3e559b7213887762d5229550c2b","102.182.46.84","Mozilla/5.0 (Macintosh; Intel Mac OS X 10_15_7) AppleWebKit/537.36 (KHTML, like Gecko) Chrome/138.0.0.0 Safari/537.36","Macintosh","Chrome","138.0.0.0","OS X","10_15_7","https://app.prolific.com/","en-GB,en-US;q=0.9,en;q=0.8","61099a311cb3f711346d1b05","683dba2a8a9dda3513610c04","688081fe311b6de77e1a1f81","3","0","61099a311cb3f711346d1b05","3","0","2025-07-23T07:00:14.726Z","","","","","","","","","","","MotivationQ","","50","","","","","","","","","","","","","","","","","","","","","","","","","","","","",""
"","","","","ctl-task-cpt","49","1683681","0.0-5.0-0.8","149","1","2025-07-23 06:32:33","1f75c3e559b7213887762d5229550c2b","102.182.46.84","Mozilla/5.0 (Macintosh; Intel Mac OS X 10_15_7) AppleWebKit/537.36 (KHTML, like Gecko) Chrome/138.0.0.0 Safari/537.36","Macintosh","Chrome","138.0.0.0","OS X","10_15_7","https://app.prolific.com/","en-GB,en-US;q=0.9,en;q=0.8","61099a311cb3f711346d1b05","683dba2a8a9dda3513610c04","688081fe311b6de77e1a1f81","3","0","61099a311cb3f711346d1b05","3","0","2025-07-23T07:00:39.312Z","","","","","","","","","","","","","","win-only","3","g1:SW,g2:NE","0.2","9","0","1661615","3313.4","8315.5","21575.5","1","4","4","6","1","-1","-1","0","0","0","956.7","3000","-2905","[""down"",""left""]","{""num_key_presses"":4,""num_perfect"":2,""num_errors"":0,""num_randdir"":2,""num_randdir_good_moves"":1,""num_whilered"":0,""num_whileblue"":0,""num_blue"":0,""num_good_moves"":3}","[650.3174107142858,647.1142857142858,0.4,652.3174107142858,647.1142857142858,102,652.3174107142858,647.1142857142858,202.2,652.3174107142858,647.1142857142858,302.2,652.3174107142858,647.1142857142858,402.4,632.3174107142858,685.1142857142858,507.7,334.3174107142857,1025.1142857142856,612.4,162.3174107142857,1149.1142857142856,717.2,138.3174107142857,1175.1142857142856,817.6,142.3174107142857,1191.1142857142856,918.2,142.3174107142857,1191.1142857142856,1022.9,142.3174107142857,1191.1142857142856,1123.5,142.3174107142857,1191.1142857142856,1227.1,142.3174107142857,1191.1142857142856,1327.3,136.3174107142857,1157.1142857142856,1432.3,464.3174107142857,-184.8857142857143,1532.8,464.3174107142857,-184.8857142857143,1633,464.3174107142857,-184.8857142857143,1736.9,464.3174107142857,-184.8857142857143,1837,464.3174107142857,-184.8857142857143,1939,464.3174107142857,-184.8857142857143,2041.8,464.3174107142857,-184.8857142857143,2142.5,464.3174107142857,-184.8857142857143,2246.2,464.3174107142857,-184.8857142857143,2346.8,464.3174107142857,-184.8857142857143,2448.3,464.3174107142857,-184.8857142857143,2552.7,464.3174107142857,-184.8857142857143,2657.7,464.3174107142857,-184.8857142857143,2767.2,464.3174107142857,-184.8857142857143,2868.1,464.3174107142857,-184.8857142857143,2968.6,464.3174107142857,-184.8857142857143,3069.8,464.3174107142857,-184.8857142857143,3172.1,464.3174107142857,-184.8857142857143,3273,464.3174107142857,-184.8857142857143,3377.9,464.3174107142857,-184.8857142857143,3482.5,464.3174107142857,-184.8857142857143,3582.9,464.3174107142857,-184.8857142857143,3687.1,464.3174107142857,-184.8857142857143,3787.3,464.3174107142857,-184.8857142857143,3887.5,464.3174107142857,-184.8857142857143,3992.1,464.3174107142857,-184.8857142857143,4093.3,464.3174107142857,-184.8857142857143,4197.9,464.3174107142857,-184.8857142857143,4302,464.3174107142857,-184.8857142857143,4402.3,464.3174107142857,-184.8857142857143,4506.8,464.3174107142857,-184.8857142857143,4607.9,464.3174107142857,-184.8857142857143,4712.6,464.3174107142857,-184.8857142857143,4817.7,464.3174107142857,-184.8857142857143,4917.7]","[1500.3,1500.3,1000,0,500.3,""smooth"",""down"",""down"",""good_move"",3620.5,2119.8,1767.4,1500.7,352.4,""smooth"",""left"",""left"",""good_move"",6283.2,2662.5,2352.6,3620.7,309.9,""oops"",""left"",""up"",""bad_move"",8306.8,2023.1,1593.1,6283.7,430,""oops"",""left"",""left"",""good_move""]","",""
"6032","","<div style=""width:500px;"">
  <p>What determined the result of this run?</p>
  </div>","18","html-slider-response","50","1689715","0.0-5.0-1.8","149","1","2025-07-23 06:32:33","1f75c3e559b7213887762d5229550c2b","102.182.46.84","Mozilla/5.0 (Macintosh; Intel Mac OS X 10_15_7) AppleWebKit/537.36 (KHTML, like Gecko) Chrome/138.0.0.0 Safari/537.36","Macintosh","Chrome","138.0.0.0","OS X","10_15_7","https://app.prolific.com/","en-GB,en-US;q=0.9,en;q=0.8","61099a311cb3f711346d1b05","683dba2a8a9dda3513610c04","688081fe311b6de77e1a1f81","3","0","61099a311cb3f711346d1b05","3","0","2025-07-23T07:00:45.345Z","","","","","","","","","","","AttribQ","","50","","","","","","","","","","","","","","","","","","","","","","","","","","","","",""
"1664","","<div style=""width:500px;"">
  <p>How much control did you have over the ball?</p>
  </div>","23","html-slider-response","51","1691379","0.0-5.0-2.8","149","1","2025-07-23 06:32:33","1f75c3e559b7213887762d5229550c2b","102.182.46.84","Mozilla/5.0 (Macintosh; Intel Mac OS X 10_15_7) AppleWebKit/537.36 (KHTML, like Gecko) Chrome/138.0.0.0 Safari/537.36","Macintosh","Chrome","138.0.0.0","OS X","10_15_7","https://app.prolific.com/","en-GB,en-US;q=0.9,en;q=0.8","61099a311cb3f711346d1b05","683dba2a8a9dda3513610c04","688081fe311b6de77e1a1f81","3","0","61099a311cb3f711346d1b05","3","0","2025-07-23T07:00:47.009Z","","","","","","","","","","","ControlQ","","50","","","","","","","","","","","","","","","","","","","","","","","","","","","","",""
"269539","","<div style=""width:500px;"">
  <p>How would you describe your current emotional state?</p>
  </div>","61","html-slider-response","52","1960582","0.0-5.0-3.8","149","1","2025-07-23 06:32:33","1f75c3e559b7213887762d5229550c2b","102.182.46.84","Mozilla/5.0 (Macintosh; Intel Mac OS X 10_15_7) AppleWebKit/537.36 (KHTML, like Gecko) Chrome/138.0.0.0 Safari/537.36","Macintosh","Chrome","138.0.0.0","OS X","10_15_7","https://app.prolific.com/","en-GB,en-US;q=0.9,en;q=0.8","61099a311cb3f711346d1b05","683dba2a8a9dda3513610c04","688081fe311b6de77e1a1f81","3","0","61099a311cb3f711346d1b05","3","0","2025-07-23T07:05:16.212Z","","","","","","","","","","","StressQ","","50","","","","","","","","","","","","","","","","","","","","","","","","","","","","",""
"3115","","<div style=""width:500px;"">
  <p>What best describes how you currently feel?</p>
  </div>","29","html-slider-response","53","1963698","0.0-5.0-4.8","149","1","2025-07-23 06:32:33","1f75c3e559b7213887762d5229550c2b","102.182.46.84","Mozilla/5.0 (Macintosh; Intel Mac OS X 10_15_7) AppleWebKit/537.36 (KHTML, like Gecko) Chrome/138.0.0.0 Safari/537.36","Macintosh","Chrome","138.0.0.0","OS X","10_15_7","https://app.prolific.com/","en-GB,en-US;q=0.9,en;q=0.8","61099a311cb3f711346d1b05","683dba2a8a9dda3513610c04","688081fe311b6de77e1a1f81","3","0","61099a311cb3f711346d1b05","3","0","2025-07-23T07:05:19.328Z","","","","","","","","","","","MotivationQ","","50","","","","","","","","","","","","","","","","","","","","","","","","","","","","",""
"","","","","ctl-task-cpt","54","1993003","0.0-5.0-0.9","149","1","2025-07-23 06:32:33","1f75c3e559b7213887762d5229550c2b","102.182.46.84","Mozilla/5.0 (Macintosh; Intel Mac OS X 10_15_7) AppleWebKit/537.36 (KHTML, like Gecko) Chrome/138.0.0.0 Safari/537.36","Macintosh","Chrome","138.0.0.0","OS X","10_15_7","https://app.prolific.com/","en-GB,en-US;q=0.9,en;q=0.8","61099a311cb3f711346d1b05","683dba2a8a9dda3513610c04","688081fe311b6de77e1a1f81","3","0","61099a311cb3f711346d1b05","3","0","2025-07-23T07:05:48.633Z","","","","","","","","","","","","","","win-only","2","g1:SE,g2:NW","0.4","10","0","1966553.3","701.2","5705.6","26291.1","1","4","8","6","1","-1","-1","0","0","0","1066.2","3000","-2865","[""down"",""right""]","{""num_key_presses"":5,""num_perfect"":2,""num_errors"":0,""num_randdir"":3,""num_randdir_good_moves"":2,""num_whilered"":0,""num_whileblue"":0,""num_blue"":1,""num_good_moves"":4}","[652.3174107142858,663.1142857142858,0,652.3174107142858,663.1142857142858,104.8,652.3174107142858,663.1142857142858,209.3,652.3174107142858,663.1142857142858,309.9,652.3174107142858,663.1142857142858,421.4,652.3174107142858,663.1142857142858,525.7,682.3174107142858,745.1142857142858,629.4,1032.3174107142856,1267.1142857142856,729.4,1116.3174107142856,1247.1142857142856,834.3,1140.3174107142856,1239.1142857142856,937,1184.3174107142856,1225.1142857142856,1039.5,1186.3174107142856,1225.1142857142856,1140,1186.3174107142856,1225.1142857142856,1247.9,1186.3174107142856,1225.1142857142856,1352,1186.3174107142856,1225.1142857142856,1454,1186.3174107142856,1225.1142857142856,1554,1186.3174107142856,1225.1142857142856,1654.5,1186.3174107142856,1225.1142857142856,1754.8,1186.3174107142856,1225.1142857142856,1859.6,1186.3174107142856,1225.1142857142856,1964.4,1186.3174107142856,1225.1142857142856,2067.7,1186.3174107142856,1225.1142857142856,2169.5,1186.3174107142856,1225.1142857142856,2269.6,1186.3174107142856,1225.1142857142856,2374.3,1186.3174107142856,1225.1142857142856,2474.8,1186.3174107142856,1225.1142857142856,2580.1,1186.3174107142856,1225.1142857142856,2684.2,1186.3174107142856,1225.1142857142856,2789.7,1186.3174107142856,1225.1142857142856,2891.3,1186.3174107142856,1225.1142857142856,2994.4,1186.3174107142856,1225.1142857142856,3094.8,1186.3174107142856,1225.1142857142856,3199.7,1186.3174107142856,1225.1142857142856,3303.9,1186.3174107142856,1225.1142857142856,3404,1186.3174107142856,1225.1142857142856,3504.7,1186.3174107142856,1225.1142857142856,3604.9,1186.3174107142856,1225.1142857142856,3709.1,1186.3174107142856,1225.1142857142856,3809.5,1186.3174107142856,1225.1142857142856,3909.7,1186.3174107142856,1225.1142857142856,4009.8,1186.3174107142856,1225.1142857142856,4109.9,1186.3174107142856,1225.1142857142856,4214.3,1186.3174107142856,1225.1142857142856,4322.3,1186.3174107142856,1225.1142857142856,4424.3,1186.3174107142856,1225.1142857142856,4524.9,1186.3174107142856,1225.1142857142856,4629.3,1186.3174107142856,1225.1142857142856,4729.3,1186.3174107142856,1225.1142857142856,4829.6,1186.3174107142856,1225.1142857142856,4934.1]","[1867.7,1867.7,1000,0,867.7,""smooth"",""down"",""down"",""good_move"",7911.9,6043.9,1819.4,5639.7,452.8,""oops"",""right"",""left"",""bad_move"",10980.3,3068.2,2503.8,7912.1,564.4,""smooth"",""down"",""down"",""good_move"",14680.7,3700.2,3159.1,10980.5,541.1,""oops"",""right"",""right"",""good_move"",17652.3,2971.4,2574.4,14680.9,397,""oops"",""right"",""right"",""good_move""]","",""
"228446","","<div style=""width:500px;"">
  <p>What determined the result of this run?</p>
  </div>","19","html-slider-response","55","2221440","0.0-5.0-1.9","149","1","2025-07-23 06:32:33","1f75c3e559b7213887762d5229550c2b","102.182.46.84","Mozilla/5.0 (Macintosh; Intel Mac OS X 10_15_7) AppleWebKit/537.36 (KHTML, like Gecko) Chrome/138.0.0.0 Safari/537.36","Macintosh","Chrome","138.0.0.0","OS X","10_15_7","https://app.prolific.com/","en-GB,en-US;q=0.9,en;q=0.8","61099a311cb3f711346d1b05","683dba2a8a9dda3513610c04","688081fe311b6de77e1a1f81","3","0","61099a311cb3f711346d1b05","3","0","2025-07-23T07:09:37.071Z","","","","","","","","","","","AttribQ","","50","","","","","","","","","","","","","","","","","","","","","","","","","","","","",""
"1950","","<div style=""width:500px;"">
  <p>How much control did you have over the ball?</p>
  </div>","17","html-slider-response","56","2223392","0.0-5.0-2.9","149","1","2025-07-23 06:32:33","1f75c3e559b7213887762d5229550c2b","102.182.46.84","Mozilla/5.0 (Macintosh; Intel Mac OS X 10_15_7) AppleWebKit/537.36 (KHTML, like Gecko) Chrome/138.0.0.0 Safari/537.36","Macintosh","Chrome","138.0.0.0","OS X","10_15_7","https://app.prolific.com/","en-GB,en-US;q=0.9,en;q=0.8","61099a311cb3f711346d1b05","683dba2a8a9dda3513610c04","688081fe311b6de77e1a1f81","3","0","61099a311cb3f711346d1b05","3","0","2025-07-23T07:09:39.022Z","","","","","","","","","","","ControlQ","","50","","","","","","","","","","","","","","","","","","","","","","","","","","","","",""
"2764","","<div style=""width:500px;"">
  <p>How would you describe your current emotional state?</p>
  </div>","25","html-slider-response","57","2226156","0.0-5.0-3.9","149","1","2025-07-23 06:32:33","1f75c3e559b7213887762d5229550c2b","102.182.46.84","Mozilla/5.0 (Macintosh; Intel Mac OS X 10_15_7) AppleWebKit/537.36 (KHTML, like Gecko) Chrome/138.0.0.0 Safari/537.36","Macintosh","Chrome","138.0.0.0","OS X","10_15_7","https://app.prolific.com/","en-GB,en-US;q=0.9,en;q=0.8","61099a311cb3f711346d1b05","683dba2a8a9dda3513610c04","688081fe311b6de77e1a1f81","3","0","61099a311cb3f711346d1b05","3","0","2025-07-23T07:09:41.786Z","","","","","","","","","","","StressQ","","50","","","","","","","","","","","","","","","","","","","","","","","","","","","","",""
"4731","","<div style=""width:500px;"">
  <p>What best describes how you currently feel?</p>
  </div>","30","html-slider-response","58","2230888","0.0-5.0-4.9","149","1","2025-07-23 06:32:33","1f75c3e559b7213887762d5229550c2b","102.182.46.84","Mozilla/5.0 (Macintosh; Intel Mac OS X 10_15_7) AppleWebKit/537.36 (KHTML, like Gecko) Chrome/138.0.0.0 Safari/537.36","Macintosh","Chrome","138.0.0.0","OS X","10_15_7","https://app.prolific.com/","en-GB,en-US;q=0.9,en;q=0.8","61099a311cb3f711346d1b05","683dba2a8a9dda3513610c04","688081fe311b6de77e1a1f81","3","0","61099a311cb3f711346d1b05","3","0","2025-07-23T07:09:46.518Z","","","","","","","","","","","MotivationQ","","50","","","","","","","","","","","","","","","","","","","","","","","","","","","","",""
"","","","","ctl-task-cpt","59","2318685","0.0-5.0-0.10","149","1","2025-07-23 06:32:33","1f75c3e559b7213887762d5229550c2b","102.182.46.84","Mozilla/5.0 (Macintosh; Intel Mac OS X 10_15_7) AppleWebKit/537.36 (KHTML, like Gecko) Chrome/138.0.0.0 Safari/537.36","Macintosh","Chrome","138.0.0.0","OS X","10_15_7","https://app.prolific.com/","en-GB,en-US;q=0.9,en;q=0.8","61099a311cb3f711346d1b05","683dba2a8a9dda3513610c04","688081fe311b6de77e1a1f81","3","0","61099a311cb3f711346d1b05","3","0","2025-07-23T07:11:14.316Z","","","","","","","","","","","","","","win-only","0","g1:NW,g2:SE","0.5","11","0","2233756.1","65048.1","70050.3","84790.2","1","4","4","6","1","-1","-1","0","0","0","1216.8","3000","-2910","[""left"",""up""]","{""num_key_presses"":4,""num_perfect"":3,""num_errors"":0,""num_randdir"":1,""num_randdir_good_moves"":0,""num_whilered"":0,""num_whileblue"":0,""num_blue"":0,""num_good_moves"":3}","[660.3174107142858,659.1142857142858,1.8,660.3174107142858,659.1142857142858,104.9,660.3174107142858,659.1142857142858,207.5,660.3174107142858,659.1142857142858,312.8,660.3174107142858,659.1142857142858,417.3,660.3174107142858,659.1142857142858,517.5,650.3174107142858,609.1142857142858,622.3,380.3174107142857,489.1142857142857,723,362.3174107142857,483.1142857142857,823.2,360.3174107142857,481.1142857142857,927.3,150.3174107142857,205.1142857142857,1027.8,128.3174107142857,169.1142857142857,1133,128.3174107142857,143.1142857142857,1233.4,128.3174107142857,141.1142857142857,1338,128.3174107142857,141.1142857142857,1442.9,128.3174107142857,141.1142857142857,1548,128.3174107142857,141.1142857142857,1652.5,128.3174107142857,141.1142857142857,1757.8,128.3174107142857,141.1142857142857,1862.5,128.3174107142857,141.1142857142857,1962.6,128.3174107142857,141.1142857142857,2062.7,128.3174107142857,141.1142857142857,2162.7,128.3174107142857,141.1142857142857,2262.7,128.3174107142857,141.1142857142857,2362.8,128.3174107142857,141.1142857142857,2463,128.3174107142857,141.1142857142857,2567.5,128.3174107142857,141.1142857142857,2668,128.3174107142857,141.1142857142857,2772.5,128.3174107142857,141.1142857142857,2872.7,128.3174107142857,141.1142857142857,2977.9,128.3174107142857,141.1142857142857,3082.9,128.3174107142857,141.1142857142857,3187.4,128.3174107142857,141.1142857142857,3292.5,128.3174107142857,141.1142857142857,3397.4,128.3174107142857,141.1142857142857,3502.3,128.3174107142857,141.1142857142857,3602.6,128.3174107142857,141.1142857142857,3702.9,128.3174107142857,141.1142857142857,3807.8,128.3174107142857,141.1142857142857,3912.7,128.3174107142857,141.1142857142857,4017.4,128.3174107142857,141.1142857142857,4117.6,128.3174107142857,141.1142857142857,4217.9,128.3174107142857,141.1142857142857,4317.9,128.3174107142857,141.1142857142857,4423.4,128.3174107142857,141.1142857142857,4528,128.3174107142857,141.1142857142857,4632.9,128.3174107142857,141.1142857142857,4737.6,128.3174107142857,141.1142857142857,4843.1,128.3174107142857,141.1142857142857,4948]","[1647.5,1647.5,1000,0,647.5,""smooth"",""up"",""up"",""good_move"",4798.6,3150.5,2461.3,1648.3,689,""smooth"",""left"",""left"",""good_move"",8837.5,4038.6,3652.3,4799,386.2,""smooth"",""up"",""up"",""good_move"",11326,2488.3,2048.5,8837.7,439.8,""oops"",""left"",""right"",""bad_move""]","",""
"2948","","<div style=""width:500px;"">
  <p>What determined the result of this run?</p>
  </div>","24","html-slider-response","60","2321636","0.0-5.0-1.10","149","1","2025-07-23 06:32:33","1f75c3e559b7213887762d5229550c2b","102.182.46.84","Mozilla/5.0 (Macintosh; Intel Mac OS X 10_15_7) AppleWebKit/537.36 (KHTML, like Gecko) Chrome/138.0.0.0 Safari/537.36","Macintosh","Chrome","138.0.0.0","OS X","10_15_7","https://app.prolific.com/","en-GB,en-US;q=0.9,en;q=0.8","61099a311cb3f711346d1b05","683dba2a8a9dda3513610c04","688081fe311b6de77e1a1f81","3","0","61099a311cb3f711346d1b05","3","0","2025-07-23T07:11:17.266Z","","","","","","","","","","","AttribQ","","50","","","","","","","","","","","","","","","","","","","","","","","","","","","","",""
"1800","","<div style=""width:500px;"">
  <p>How much control did you have over the ball?</p>
  </div>","28","html-slider-response","61","2323437","0.0-5.0-2.10","149","1","2025-07-23 06:32:33","1f75c3e559b7213887762d5229550c2b","102.182.46.84","Mozilla/5.0 (Macintosh; Intel Mac OS X 10_15_7) AppleWebKit/537.36 (KHTML, like Gecko) Chrome/138.0.0.0 Safari/537.36","Macintosh","Chrome","138.0.0.0","OS X","10_15_7","https://app.prolific.com/","en-GB,en-US;q=0.9,en;q=0.8","61099a311cb3f711346d1b05","683dba2a8a9dda3513610c04","688081fe311b6de77e1a1f81","3","0","61099a311cb3f711346d1b05","3","0","2025-07-23T07:11:19.067Z","","","","","","","","","","","ControlQ","","50","","","","","","","","","","","","","","","","","","","","","","","","","","","","",""
"1682","","<div style=""width:500px;"">
  <p>How would you describe your current emotional state?</p>
  </div>","38","html-slider-response","62","2325119","0.0-5.0-3.10","149","1","2025-07-23 06:32:33","1f75c3e559b7213887762d5229550c2b","102.182.46.84","Mozilla/5.0 (Macintosh; Intel Mac OS X 10_15_7) AppleWebKit/537.36 (KHTML, like Gecko) Chrome/138.0.0.0 Safari/537.36","Macintosh","Chrome","138.0.0.0","OS X","10_15_7","https://app.prolific.com/","en-GB,en-US;q=0.9,en;q=0.8","61099a311cb3f711346d1b05","683dba2a8a9dda3513610c04","688081fe311b6de77e1a1f81","3","0","61099a311cb3f711346d1b05","3","0","2025-07-23T07:11:20.749Z","","","","","","","","","","","StressQ","","50","","","","","","","","","","","","","","","","","","","","","","","","","","","","",""
"4615","","<div style=""width:500px;"">
  <p>What best describes how you currently feel?</p>
  </div>","42","html-slider-response","63","2329735","0.0-5.0-4.10","149","1","2025-07-23 06:32:33","1f75c3e559b7213887762d5229550c2b","102.182.46.84","Mozilla/5.0 (Macintosh; Intel Mac OS X 10_15_7) AppleWebKit/537.36 (KHTML, like Gecko) Chrome/138.0.0.0 Safari/537.36","Macintosh","Chrome","138.0.0.0","OS X","10_15_7","https://app.prolific.com/","en-GB,en-US;q=0.9,en;q=0.8","61099a311cb3f711346d1b05","683dba2a8a9dda3513610c04","688081fe311b6de77e1a1f81","3","0","61099a311cb3f711346d1b05","3","0","2025-07-23T07:11:25.365Z","","","","","","","","","","","MotivationQ","","50","","","","","","","","","","","","","","","","","","","","","","","","","","","","",""
"","","","","ctl-task-cpt","64","2405907","0.0-5.0-0.11","149","1","2025-07-23 06:32:33","1f75c3e559b7213887762d5229550c2b","102.182.46.84","Mozilla/5.0 (Macintosh; Intel Mac OS X 10_15_7) AppleWebKit/537.36 (KHTML, like Gecko) Chrome/138.0.0.0 Safari/537.36","Macintosh","Chrome","138.0.0.0","OS X","10_15_7","https://app.prolific.com/","en-GB,en-US;q=0.9,en;q=0.8","61099a311cb3f711346d1b05","683dba2a8a9dda3513610c04","688081fe311b6de77e1a1f81","3","0","61099a311cb3f711346d1b05","3","0","2025-07-23T07:12:41.537Z","","","","","","","","","","","","","","win-only","0","g1:NW,g2:SE","0.6","12","0","2332606.3","51866.3","56867.1","73161","1","4","8","6","2","-8","-8","0","0","0","1317","3000","-2915","[""down"",""right""]","{""num_key_presses"":5,""num_perfect"":2,""num_errors"":0,""num_randdir"":3,""num_randdir_good_moves"":1,""num_whilered"":0,""num_whileblue"":0,""num_blue"":0,""num_good_moves"":3}","[654.3174107142858,651.1142857142858,0.3,654.3174107142858,651.1142857142858,100.1,654.3174107142858,651.1142857142858,200.1,654.3174107142858,651.1142857142858,305.6,654.3174107142858,651.1142857142858,405.7,654.3174107142858,651.1142857142858,510,510.3174107142857,725.1142857142858,614.6,600.3174107142858,993.1142857142858,714.8,620.3174107142858,1053.1142857142856,819.5,620.3174107142858,1053.1142857142856,919.9,774.3174107142858,975.1142857142858,1025.2,1212.3174107142856,1195.1142857142856,1130.9,1214.3174107142856,1215.1142857142856,1235.9,1214.3174107142856,1239.1142857142856,1336.4,1214.3174107142856,1239.1142857142856,1439.6,1214.3174107142856,1239.1142857142856,1540,1214.3174107142856,1239.1142857142856,1644.7,1066.3174107142856,1023.1142857142858,1744.9,696.3174107142858,-144.8857142857143,1849.3,696.3174107142858,-144.8857142857143,1950.3,696.3174107142858,-144.8857142857143,2055.5,696.3174107142858,-144.8857142857143,2160.3,696.3174107142858,-144.8857142857143,2264.6,696.3174107142858,-144.8857142857143,2365.1,696.3174107142858,-144.8857142857143,2469.3,696.3174107142858,-144.8857142857143,2569.8,696.3174107142858,-144.8857142857143,2669.8,696.3174107142858,-144.8857142857143,2774.2,696.3174107142858,-144.8857142857143,2874.4,696.3174107142858,-144.8857142857143,2975.5,696.3174107142858,-144.8857142857143,3080,696.3174107142858,-144.8857142857143,3180,696.3174107142858,-144.8857142857143,3286.4,696.3174107142858,-144.8857142857143,3389.6,696.3174107142858,-144.8857142857143,3489.9,696.3174107142858,-144.8857142857143,3589.9,696.3174107142858,-144.8857142857143,3690,696.3174107142858,-144.8857142857143,3795,696.3174107142858,-144.8857142857143,3900.7,696.3174107142858,-144.8857142857143,4004.7,696.3174107142858,-144.8857142857143,4104.9,696.3174107142858,-144.8857142857143,4205.2,696.3174107142858,-144.8857142857143,4305.4,696.3174107142858,-144.8857142857143,4409,696.3174107142858,-144.8857142857143,4510,696.3174107142858,-144.8857142857143,4612.2,696.3174107142858,-144.8857142857143,4714.3,696.3174107142858,-144.8857142857143,4815.1,696.3174107142858,-144.8857142857143,4915.1]","[1682.7,1682.7,1000,0,682.7,""oops"",""down"",""left"",""bad_move"",4133.5,2450.5,2005.1,1683,445.4,""oops"",""down"",""left"",""bad_move"",7442.7,3309,2728.4,4133.7,580.6,""oops"",""down"",""right"",""good_move"",10335.2,2892.3,2406.7,7442.9,485.6,""smooth"",""down"",""down"",""good_move"",13021.6,2686,2078,10335.6,608,""smooth"",""down"",""down"",""good_move""]","",""
"5093","","<div style=""width:500px;"">
  <p>What determined the result of this run?</p>
  </div>","3","html-slider-response","65","2411000","0.0-5.0-1.11","149","1","2025-07-23 06:32:33","1f75c3e559b7213887762d5229550c2b","102.182.46.84","Mozilla/5.0 (Macintosh; Intel Mac OS X 10_15_7) AppleWebKit/537.36 (KHTML, like Gecko) Chrome/138.0.0.0 Safari/537.36","Macintosh","Chrome","138.0.0.0","OS X","10_15_7","https://app.prolific.com/","en-GB,en-US;q=0.9,en;q=0.8","61099a311cb3f711346d1b05","683dba2a8a9dda3513610c04","688081fe311b6de77e1a1f81","3","0","61099a311cb3f711346d1b05","3","0","2025-07-23T07:12:46.631Z","","","","","","","","","","","AttribQ","","50","","","","","","","","","","","","","","","","","","","","","","","","","","","","",""
"1949","","<div style=""width:500px;"">
  <p>How much control did you have over the ball?</p>
  </div>","2","html-slider-response","66","2412950","0.0-5.0-2.11","149","1","2025-07-23 06:32:33","1f75c3e559b7213887762d5229550c2b","102.182.46.84","Mozilla/5.0 (Macintosh; Intel Mac OS X 10_15_7) AppleWebKit/537.36 (KHTML, like Gecko) Chrome/138.0.0.0 Safari/537.36","Macintosh","Chrome","138.0.0.0","OS X","10_15_7","https://app.prolific.com/","en-GB,en-US;q=0.9,en;q=0.8","61099a311cb3f711346d1b05","683dba2a8a9dda3513610c04","688081fe311b6de77e1a1f81","3","0","61099a311cb3f711346d1b05","3","0","2025-07-23T07:12:48.580Z","","","","","","","","","","","ControlQ","","50","","","","","","","","","","","","","","","","","","","","","","","","","","","","",""
"2917","","<div style=""width:500px;"">
  <p>How would you describe your current emotional state?</p>
  </div>","66","html-slider-response","67","2415867","0.0-5.0-3.11","149","1","2025-07-23 06:32:33","1f75c3e559b7213887762d5229550c2b","102.182.46.84","Mozilla/5.0 (Macintosh; Intel Mac OS X 10_15_7) AppleWebKit/537.36 (KHTML, like Gecko) Chrome/138.0.0.0 Safari/537.36","Macintosh","Chrome","138.0.0.0","OS X","10_15_7","https://app.prolific.com/","en-GB,en-US;q=0.9,en;q=0.8","61099a311cb3f711346d1b05","683dba2a8a9dda3513610c04","688081fe311b6de77e1a1f81","3","0","61099a311cb3f711346d1b05","3","0","2025-07-23T07:12:51.497Z","","","","","","","","","","","StressQ","","50","","","","","","","","","","","","","","","","","","","","","","","","","","","","",""
"26115","","<div style=""width:500px;"">
  <p>What best describes how you currently feel?</p>
  </div>","27","html-slider-response","68","2441982","0.0-5.0-4.11","149","1","2025-07-23 06:32:33","1f75c3e559b7213887762d5229550c2b","102.182.46.84","Mozilla/5.0 (Macintosh; Intel Mac OS X 10_15_7) AppleWebKit/537.36 (KHTML, like Gecko) Chrome/138.0.0.0 Safari/537.36","Macintosh","Chrome","138.0.0.0","OS X","10_15_7","https://app.prolific.com/","en-GB,en-US;q=0.9,en;q=0.8","61099a311cb3f711346d1b05","683dba2a8a9dda3513610c04","688081fe311b6de77e1a1f81","3","0","61099a311cb3f711346d1b05","3","0","2025-07-23T07:13:17.613Z","","","","","","","","","","","MotivationQ","","50","","","","","","","","","","","","","","","","","","","","","","","","","","","","",""
"","","","","ctl-task-cpt","69","2524807","0.0-5.0-0.12","149","1","2025-07-23 06:32:33","1f75c3e559b7213887762d5229550c2b","102.182.46.84","Mozilla/5.0 (Macintosh; Intel Mac OS X 10_15_7) AppleWebKit/537.36 (KHTML, like Gecko) Chrome/138.0.0.0 Safari/537.36","Macintosh","Chrome","138.0.0.0","OS X","10_15_7","https://app.prolific.com/","en-GB,en-US;q=0.9,en;q=0.8","61099a311cb3f711346d1b05","683dba2a8a9dda3513610c04","688081fe311b6de77e1a1f81","3","0","61099a311cb3f711346d1b05","3","0","2025-07-23T07:14:40.437Z","","","","","","","","","","","","","","win-only","1","g1:NE,g2:SW","0.7","13","0","2444858.3","54732.5","59740.1","79821.4","1","4","8","6","1","-1","-1","0","0","0","884","3000","-2800","[""up"",""right""]","{""num_key_presses"":4,""num_perfect"":2,""num_errors"":0,""num_randdir"":2,""num_randdir_good_moves"":1,""num_whilered"":0,""num_whileblue"":0,""num_blue"":2,""num_good_moves"":3}","[648.3174107142858,665.1142857142858,0.2,648.3174107142858,665.1142857142858,104,648.3174107142858,665.1142857142858,207.8,648.3174107142858,665.1142857142858,308.8,660.3174107142858,623.1142857142858,412.8,1334.3174107142856,115.11428571428571,513,1352.3174107142856,107.11428571428571,613.4,1360.3174107142856,91.11428571428571,713.6,1176.3174107142856,143.1142857142857,817.7,1168.3174107142856,145.1142857142857,918.5,1168.3174107142856,145.1142857142857,1023.1,1168.3174107142856,145.1142857142857,1123.9,1168.3174107142856,145.1142857142857,1227.9,1168.3174107142856,145.1142857142857,1327.9,1168.3174107142856,145.1142857142857,1428.6,1168.3174107142856,145.1142857142857,1533.9,1070.3174107142856,123.11428571428571,1636.2,608.3174107142858,-132.8857142857143,1740.7,608.3174107142858,-132.8857142857143,1843,608.3174107142858,-132.8857142857143,1948.7,608.3174107142858,-132.8857142857143,2053.6,608.3174107142858,-132.8857142857143,2154.2,608.3174107142858,-132.8857142857143,2258.8,608.3174107142858,-132.8857142857143,2358.8,608.3174107142858,-132.8857142857143,2458.8,608.3174107142858,-132.8857142857143,2563.5,608.3174107142858,-132.8857142857143,2668.8,608.3174107142858,-132.8857142857143,2773.2,608.3174107142858,-132.8857142857143,2875.6,608.3174107142858,-132.8857142857143,2977.8,608.3174107142858,-132.8857142857143,3078.4,608.3174107142858,-132.8857142857143,3178.5,608.3174107142858,-132.8857142857143,3283.2,608.3174107142858,-132.8857142857143,3389,608.3174107142858,-132.8857142857143,3493.5,608.3174107142858,-132.8857142857143,3594.2,608.3174107142858,-132.8857142857143,3698.7,608.3174107142858,-132.8857142857143,3803.8,608.3174107142858,-132.8857142857143,3904.4,608.3174107142858,-132.8857142857143,4008,608.3174107142858,-132.8857142857143,4109.6,608.3174107142858,-132.8857142857143,4212.8,608.3174107142858,-132.8857142857143,4313.9,608.3174107142858,-132.8857142857143,4418.7,608.3174107142858,-132.8857142857143,4523.3,608.3174107142858,-132.8857142857143,4628,608.3174107142858,-132.8857142857143,4728.7,608.3174107142858,-132.8857142857143,4834,608.3174107142858,-132.8857142857143,4938.6]","[1547.8,1547.8,1000,0,547.8,""oops"",""up"",""left"",""bad_move"",8417.1,6869,2530.5,4972,914.6,""smooth"",""up"",""up"",""good_move"",14928,6510.6,1955.6,11956.3,1016.1,""smooth"",""up"",""up"",""good_move"",17667.7,2739.6,2385.3,14928.1,354.3,""oops"",""right"",""right"",""good_move""]","",""
"1905","","<div style=""width:500px;"">
  <p>What determined the result of this run?</p>
  </div>","13","html-slider-response","70","2526712","0.0-5.0-1.12","149","1","2025-07-23 06:32:33","1f75c3e559b7213887762d5229550c2b","102.182.46.84","Mozilla/5.0 (Macintosh; Intel Mac OS X 10_15_7) AppleWebKit/537.36 (KHTML, like Gecko) Chrome/138.0.0.0 Safari/537.36","Macintosh","Chrome","138.0.0.0","OS X","10_15_7","https://app.prolific.com/","en-GB,en-US;q=0.9,en;q=0.8","61099a311cb3f711346d1b05","683dba2a8a9dda3513610c04","688081fe311b6de77e1a1f81","3","0","61099a311cb3f711346d1b05","3","0","2025-07-23T07:14:42.343Z","","","","","","","","","","","AttribQ","","50","","","","","","","","","","","","","","","","","","","","","","","","","","","","",""
"1615","","<div style=""width:500px;"">
  <p>How much control did you have over the ball?</p>
  </div>","12","html-slider-response","71","2528328","0.0-5.0-2.12","149","1","2025-07-23 06:32:33","1f75c3e559b7213887762d5229550c2b","102.182.46.84","Mozilla/5.0 (Macintosh; Intel Mac OS X 10_15_7) AppleWebKit/537.36 (KHTML, like Gecko) Chrome/138.0.0.0 Safari/537.36","Macintosh","Chrome","138.0.0.0","OS X","10_15_7","https://app.prolific.com/","en-GB,en-US;q=0.9,en;q=0.8","61099a311cb3f711346d1b05","683dba2a8a9dda3513610c04","688081fe311b6de77e1a1f81","3","0","61099a311cb3f711346d1b05","3","0","2025-07-23T07:14:43.958Z","","","","","","","","","","","ControlQ","","50","","","","","","","","","","","","","","","","","","","","","","","","","","","","",""
"2432","","<div style=""width:500px;"">
  <p>How would you describe your current emotional state?</p>
  </div>","65","html-slider-response","72","2530760","0.0-5.0-3.12","149","1","2025-07-23 06:32:33","1f75c3e559b7213887762d5229550c2b","102.182.46.84","Mozilla/5.0 (Macintosh; Intel Mac OS X 10_15_7) AppleWebKit/537.36 (KHTML, like Gecko) Chrome/138.0.0.0 Safari/537.36","Macintosh","Chrome","138.0.0.0","OS X","10_15_7","https://app.prolific.com/","en-GB,en-US;q=0.9,en;q=0.8","61099a311cb3f711346d1b05","683dba2a8a9dda3513610c04","688081fe311b6de77e1a1f81","3","0","61099a311cb3f711346d1b05","3","0","2025-07-23T07:14:46.390Z","","","","","","","","","","","StressQ","","50","","","","","","","","","","","","","","","","","","","","","","","","","","","","",""
"3018","","<div style=""width:500px;"">
  <p>What best describes how you currently feel?</p>
  </div>","15","html-slider-response","73","2533779","0.0-5.0-4.12","149","1","2025-07-23 06:32:33","1f75c3e559b7213887762d5229550c2b","102.182.46.84","Mozilla/5.0 (Macintosh; Intel Mac OS X 10_15_7) AppleWebKit/537.36 (KHTML, like Gecko) Chrome/138.0.0.0 Safari/537.36","Macintosh","Chrome","138.0.0.0","OS X","10_15_7","https://app.prolific.com/","en-GB,en-US;q=0.9,en;q=0.8","61099a311cb3f711346d1b05","683dba2a8a9dda3513610c04","688081fe311b6de77e1a1f81","3","0","61099a311cb3f711346d1b05","3","0","2025-07-23T07:14:49.409Z","","","","","","","","","","","MotivationQ","","50","","","","","","","","","","","","","","","","","","","","","","","","","","","","",""
"","","","","ctl-task-cpt","74","2651159","0.0-5.0-0.13","149","1","2025-07-23 06:32:33","1f75c3e559b7213887762d5229550c2b","102.182.46.84","Mozilla/5.0 (Macintosh; Intel Mac OS X 10_15_7) AppleWebKit/537.36 (KHTML, like Gecko) Chrome/138.0.0.0 Safari/537.36","Macintosh","Chrome","138.0.0.0","OS X","10_15_7","https://app.prolific.com/","en-GB,en-US;q=0.9,en;q=0.8","61099a311cb3f711346d1b05","683dba2a8a9dda3513610c04","688081fe311b6de77e1a1f81","3","0","61099a311cb3f711346d1b05","3","0","2025-07-23T07:16:46.790Z","","","","","","","","","","","","","","win-only","2","g1:SE,g2:NW","0.8","14","0","2536658.9","91235.9","96241.2","114376.5","1","4","4","6","1","1","1","1","0","0.007575757575757576","1462.6","3000","1455","[""down"",""right""]","{""num_key_presses"":4,""num_perfect"":4,""num_errors"":0,""num_randdir"":0,""num_randdir_good_moves"":0,""num_whilered"":0,""num_whileblue"":0,""num_blue"":2,""num_good_moves"":4}","[646.3174107142858,645.1142857142858,0.1,646.3174107142858,645.1142857142858,100.3,646.3174107142858,645.1142857142858,200.4,646.3174107142858,645.1142857142858,301.6,646.3174107142858,645.1142857142858,404.2,646.3174107142858,645.1142857142858,505.4,506.3174107142857,513.1142857142858,610.1,340.3174107142857,267.1142857142857,714.8,1358.3174107142856,1359.1142857142856,815.3,1466.3174107142856,1491.1142857142856,916.7,1466.3174107142856,1491.1142857142856,1019.5,1352.3174107142856,1327.1142857142856,1119.8,1302.3174107142856,1193.1142857142856,1219.8,1270.3174107142856,1165.1142857142856,1319.9,1230.3174107142856,1165.1142857142856,1425.5,1212.3174107142856,1165.1142857142856,1529.8,1212.3174107142856,1165.1142857142856,1634.6,1212.3174107142856,1165.1142857142856,1740.4,1212.3174107142856,1165.1142857142856,1847.9,1212.3174107142856,1165.1142857142856,1949.5,1212.3174107142856,1165.1142857142856,2049.9,1212.3174107142856,1165.1142857142856,2154.6,1212.3174107142856,1165.1142857142856,2260,1212.3174107142856,1165.1142857142856,2360.4,1212.3174107142856,1165.1142857142856,2464.3,1212.3174107142856,1165.1142857142856,2564.4,1212.3174107142856,1165.1142857142856,2667.5,1212.3174107142856,1165.1142857142856,2770,1212.3174107142856,1165.1142857142856,2875,1212.3174107142856,1165.1142857142856,2975.2,1212.3174107142856,1165.1142857142856,3079.6,1212.3174107142856,1165.1142857142856,3180.3,1212.3174107142856,1165.1142857142856,3288.6,1212.3174107142856,1165.1142857142856,3389.5,1212.3174107142856,1165.1142857142856,3490.2,1212.3174107142856,1165.1142857142856,3590.4,1212.3174107142856,1165.1142857142856,3694.7,1212.3174107142856,1165.1142857142856,3795.2,1212.3174107142856,1165.1142857142856,3900.4,1212.3174107142856,1165.1142857142856,4004.4,1212.3174107142856,1165.1142857142856,4106.2,1212.3174107142856,1165.1142857142856,4210,1212.3174107142856,1165.1142857142856,4315.4,1212.3174107142856,1165.1142857142856,4419.3,1212.3174107142856,1165.1142857142856,4519.5,1212.3174107142856,1165.1142857142856,4619.7,1212.3174107142856,1165.1142857142856,4720.1,1212.3174107142856,1165.1142857142856,4825.2,1212.3174107142856,1165.1142857142856,4929.7]","[1477.2,1477.2,1000,0,477.2,""smooth"",""down"",""down"",""good_move"",4716.7,3237.9,2887.6,1478.8,350.3,""smooth"",""right"",""right"",""good_move"",15045,10328.1,2419.8,12239.1,386.1,""smooth"",""down"",""down"",""good_move"",18040.5,2995.2,2625.3,15045.3,369.9,""smooth"",""right"",""right"",""good_move""]","",""
"5579","","<div style=""width:500px;"">
  <p>What determined the result of this run?</p>
  </div>","87","html-slider-response","75","2656740","0.0-5.0-1.13","149","1","2025-07-23 06:32:33","1f75c3e559b7213887762d5229550c2b","102.182.46.84","Mozilla/5.0 (Macintosh; Intel Mac OS X 10_15_7) AppleWebKit/537.36 (KHTML, like Gecko) Chrome/138.0.0.0 Safari/537.36","Macintosh","Chrome","138.0.0.0","OS X","10_15_7","https://app.prolific.com/","en-GB,en-US;q=0.9,en;q=0.8","61099a311cb3f711346d1b05","683dba2a8a9dda3513610c04","688081fe311b6de77e1a1f81","3","0","61099a311cb3f711346d1b05","3","0","2025-07-23T07:16:52.371Z","","","","","","","","","","","AttribQ","","50","","","","","","","","","","","","","","","","","","","","","","","","","","","","",""
"2416","","<div style=""width:500px;"">
  <p>How much control did you have over the ball?</p>
  </div>","90","html-slider-response","76","2659157","0.0-5.0-2.13","149","1","2025-07-23 06:32:33","1f75c3e559b7213887762d5229550c2b","102.182.46.84","Mozilla/5.0 (Macintosh; Intel Mac OS X 10_15_7) AppleWebKit/537.36 (KHTML, like Gecko) Chrome/138.0.0.0 Safari/537.36","Macintosh","Chrome","138.0.0.0","OS X","10_15_7","https://app.prolific.com/","en-GB,en-US;q=0.9,en;q=0.8","61099a311cb3f711346d1b05","683dba2a8a9dda3513610c04","688081fe311b6de77e1a1f81","3","0","61099a311cb3f711346d1b05","3","0","2025-07-23T07:16:54.787Z","","","","","","","","","","","ControlQ","","50","","","","","","","","","","","","","","","","","","","","","","","","","","","","",""
"2733","","<div style=""width:500px;"">
  <p>How would you describe your current emotional state?</p>
