"rt","response_timestamp","stimulus","response","trial_type","trial_index","time_elapsed","internal_node_id","run_id","condition","recorded_at","source_code_version","ip","user_agent","device","browser","browser_version","platform","platform_version","referer","accept_language","PROLIFIC_PID","STUDY_ID","SESSION_ID","WEEK","BATCH","prolific_id","week","batch","realtime","success","responses","item_order","radio_event_ids","radio_event_times","key_event_times","mouse_event_times","straightlining","zigzagging","honeypot","eventType","view_history","slider_start","which_type","canvas_config","goals_layout","control_level","trial_number","tutorial_trial_number","trial_start_time","phase1_start_time","phase2_start_time","phase3_start_time","goal_1_value","goal_1_distance","goal_2_value","goal_2_distance","goal_selected","outcome","outcome_total","participant_final_score","participant_initial_score","participant_final_score_prop","goal_choice_rt","allocated_time","allocated_time_remaining","goal_direction","counts","mouse_movements","key_presses","question_order","question_id"
"3007","1753297953163","<p style='font-size:40px;line-height:1.25'><strong>Welcome to the experiment!</strong></p><p style='font-size:1.1em;line-height:1.25'>Thank you for participanting in our experiment again! You will be asked to play the Dysfunctional Ball Game again. We will briefly recap the rules before we start.</p><p style='font-size:1.1em;line-height:1.25'>Press <strong>Next</strong> to continue.</p>","0","custom-html-button-response","0","3015","0.0-0.0","232","1","2025-07-23 19:11:47","1f75c3e559b7213887762d5229550c2b","37.47.116.83","Mozilla/5.0 (Windows NT 10.0; Win64; x64) AppleWebKit/537.36 (KHTML, like Gecko) Chrome/138.0.0.0 Safari/537.36","WebKit","Chrome","138.0.0.0","Windows","10.0","https://app.prolific.com/","pl-PL,pl;q=0.9","5c39ed7a688b59000102a145","683db9eb0562dbf637994deb","688133e54837bdd10b73910b","2","1","5c39ed7a688b59000102a145","2","1","2025-07-23T19:12:33.165Z","","","","","","","","","","","","","","","","","","","","","","","","","","","","","","","","","","","","","","","","","",""
"1581","","","","fullscreen","1","5614","0.0-1.0","232","1","2025-07-23 19:11:47","1f75c3e559b7213887762d5229550c2b","37.47.116.83","Mozilla/5.0 (Windows NT 10.0; Win64; x64) AppleWebKit/537.36 (KHTML, like Gecko) Chrome/138.0.0.0 Safari/537.36","WebKit","Chrome","138.0.0.0","Windows","10.0","https://app.prolific.com/","pl-PL,pl;q=0.9","5c39ed7a688b59000102a145","683db9eb0562dbf637994deb","688133e54837bdd10b73910b","2","1","5c39ed7a688b59000102a145","2","1","","true","","","","","","","","","","","","","","","","","","","","","","","","","","","","","","","","","","","","","","","","",""
"1400","1753297957165","<p style='font-size:1.1em;line-height:1.25'>In the following, we will ask you a few questions relating to your feelings in the last 24 hours.<br></p><p style='font-size:1.1em;line-height:1.25'>Press the <strong>Next</strong> button to continue.</p>","0","custom-html-button-response","2","7016","0.0-2.0-0.0","232","1","2025-07-23 19:11:47","1f75c3e559b7213887762d5229550c2b","37.47.116.83","Mozilla/5.0 (Windows NT 10.0; Win64; x64) AppleWebKit/537.36 (KHTML, like Gecko) Chrome/138.0.0.0 Safari/537.36","WebKit","Chrome","138.0.0.0","Windows","10.0","https://app.prolific.com/","pl-PL,pl;q=0.9","5c39ed7a688b59000102a145","683db9eb0562dbf637994deb","688133e54837bdd10b73910b","2","1","5c39ed7a688b59000102a145","2","1","2025-07-23T19:12:37.166Z","","","","","","","","","","","","","","","","","","","","","","","","","","","","","","","","","","","","","","","","","",""
"102284.5","","","","survey-template","3","109313","0.0-2.0-1.0","232","1","2025-07-23 19:11:47","1f75c3e559b7213887762d5229550c2b","37.47.116.83","Mozilla/5.0 (Windows NT 10.0; Win64; x64) AppleWebKit/537.36 (KHTML, like Gecko) Chrome/138.0.0.0 Safari/537.36","WebKit","Chrome","138.0.0.0","Windows","10.0","https://app.prolific.com/","pl-PL,pl;q=0.9","5c39ed7a688b59000102a145","683db9eb0562dbf637994deb","688133e54837bdd10b73910b","2","1","5c39ed7a688b59000102a145","2","1","2025-07-23T19:14:19.463Z","","{""Q01"":""2"",""Q02"":""2"",""Q03"":""0"",""Q04"":""2"",""Q05"":""1"",""Q06"":""1"",""Q07"":""1"",""Q08"":""0"",""Q09"":""0"",""Q10"":""0"",""Q11"":""1"",""Q12"":""2"",""Q13"":""5"",""Q14"":""3"",""Q15"":""1"",""Q16"":""2"",""Q17"":""1"",""Q18"":""0"",""Q19"":""0"",""Q20"":""1"",""Q21"":""0"",""Q22"":""1""}","[0,1,2,3,4,5,6,7,8,9,10,11,12,13,14,15,16,17,18,19,20,21]","[""Q01"",""Q02"",""Q03"",""Q04"",""Q05"",""Q06"",""Q06"",""Q07"",""Q08"",""Q09"",""Q10"",""Q11"",""Q12"",""Q13"",""Q14"",""Q15"",""Q16"",""Q17"",""Q18"",""Q19"",""Q20"",""Q21"",""Q22""]","[5937,10063.900000095367,13388.099999904633,17107.900000095367,20339.700000047684,24579.400000095367,26979.599999904633,28847.799999952316,30956.700000047684,34623.799999952316,36702.40000009537,40167.200000047684,42321.200000047684,62305.200000047684,76449.09999990463,79961.59999990463,83605.20000004768,85811.29999995232,88309.20000004768,92087.40000009537,94143.09999990463,97149.20000004768,100256.90000009537]","[]","[0.5,1969.2999999523163,5937,8918.099999904633,10063.900000095367,13388.099999904633,16506.299999952316,17107.900000095367,19657.099999904633,20339.700000047684,24579.400000095367,26979.599999904633,28847.799999952316,30271.099999904633,30956.700000047684,34623.799999952316,36702.40000009537,39513.200000047684,40167.200000047684,42321.200000047684,62305.200000047684,76449.09999990463,79261.09999990463,79961.59999990463,82631.70000004768,83605.20000004768,85811.29999995232,88309.20000004768,92087.40000009537,93609.70000004768,94143.09999990463,97149.20000004768,100256.90000009537,102273.5]","0.36363636363636365","0.47619047619047616","0","drsp","","","","","","","","","","","","","","","","","","","","","","","","","","","","","","",""
"10327","","","","survey-template","4","119644","0.0-2.0-2.0","232","1","2025-07-23 19:11:47","1f75c3e559b7213887762d5229550c2b","37.47.116.83","Mozilla/5.0 (Windows NT 10.0; Win64; x64) AppleWebKit/537.36 (KHTML, like Gecko) Chrome/138.0.0.0 Safari/537.36","WebKit","Chrome","138.0.0.0","Windows","10.0","https://app.prolific.com/","pl-PL,pl;q=0.9","5c39ed7a688b59000102a145","683db9eb0562dbf637994deb","688133e54837bdd10b73910b","2","1","5c39ed7a688b59000102a145","2","1","2025-07-23T19:14:29.794Z","","{""Q01"":""1"",""Q02"":""4"",""Q03"":""1""}","[0,1,2]","[""Q01"",""Q02"",""Q03""]","[3400.5,4627.800000190735,9087.300000190735]","[]","[3400.5,4627.800000190735,9087.300000190735,10325.200000047684]","1","0","0","stress","","","","","","","","","","","","","","","","","","","","","","","","","","","","","","",""
"55346","","","","instructions","5","174992","0.0-3.0-0.0","232","1","2025-07-23 19:11:47","1f75c3e559b7213887762d5229550c2b","37.47.116.83","Mozilla/5.0 (Windows NT 10.0; Win64; x64) AppleWebKit/537.36 (KHTML, like Gecko) Chrome/138.0.0.0 Safari/537.36","WebKit","Chrome","138.0.0.0","Windows","10.0","https://app.prolific.com/","pl-PL,pl;q=0.9","5c39ed7a688b59000102a145","683db9eb0562dbf637994deb","688133e54837bdd10b73910b","2","1","5c39ed7a688b59000102a145","2","1","","","","","","","","","","","","","[{""page_index"":0,""viewing_time"":55346}]","","","","","","","","","","","","","","","","","","","","","","","","","","","","","",""
"5224","","<p>Before you start with this game please answer the following three questions yourself. </p>
  <p>Through this game, we measure several aspects of your cognitive performance, such as reaction times, multi-tasking capabilities </p>
  <p>and the ability to assess the situation you are in.</p>
  <p></p>
  <p><b>How good do you usually are in such tasks?</b></p>","71","html-slider-response","6","180291","0.0-4.0-0.0","232","1","2025-07-23 19:11:47","1f75c3e559b7213887762d5229550c2b","37.47.116.83","Mozilla/5.0 (Windows NT 10.0; Win64; x64) AppleWebKit/537.36 (KHTML, like Gecko) Chrome/138.0.0.0 Safari/537.36","WebKit","Chrome","138.0.0.0","Windows","10.0","https://app.prolific.com/","pl-PL,pl;q=0.9","5c39ed7a688b59000102a145","683db9eb0562dbf637994deb","688133e54837bdd10b73910b","2","1","5c39ed7a688b59000102a145","2","1","2025-07-23T19:15:30.441Z","","","","","","","","","","","PreSkillQ","","50","","","","","","","","","","","","","","","","","","","","","","","","","","","","",""
"3740","","<div style=""width:500px;"">
  <p>How well do you think you will perform in this task compared to other participants?</p>
  </div>","82","html-slider-response","7","184033","0.0-4.0-1.0","232","1","2025-07-23 19:11:47","1f75c3e559b7213887762d5229550c2b","37.47.116.83","Mozilla/5.0 (Windows NT 10.0; Win64; x64) AppleWebKit/537.36 (KHTML, like Gecko) Chrome/138.0.0.0 Safari/537.36","WebKit","Chrome","138.0.0.0","Windows","10.0","https://app.prolific.com/","pl-PL,pl;q=0.9","5c39ed7a688b59000102a145","683db9eb0562dbf637994deb","688133e54837bdd10b73910b","2","1","5c39ed7a688b59000102a145","2","1","2025-07-23T19:15:34.183Z","","","","","","","","","","","PrePerfQ","","50","","","","","","","","","","","","","","","","","","","","","","","","","","","","",""
"5278","","<div style=""width:500px;"">
  <p>What best describes how you currently feel?</p>
  </div>","100","html-slider-response","8","189313","0.0-4.0-2.0","232","1","2025-07-23 19:11:47","1f75c3e559b7213887762d5229550c2b","37.47.116.83","Mozilla/5.0 (Windows NT 10.0; Win64; x64) AppleWebKit/537.36 (KHTML, like Gecko) Chrome/138.0.0.0 Safari/537.36","WebKit","Chrome","138.0.0.0","Windows","10.0","https://app.prolific.com/","pl-PL,pl;q=0.9","5c39ed7a688b59000102a145","683db9eb0562dbf637994deb","688133e54837bdd10b73910b","2","1","5c39ed7a688b59000102a145","2","1","2025-07-23T19:15:39.463Z","","","","","","","","","","","PreMotivationQ","","50","","","","","","","","","","","","","","","","","","","","","","","","","","","","",""
"","","","","ctl-task-cpt","9","226012","0.0-5.0-0.0","232","1","2025-07-23 19:11:47","1f75c3e559b7213887762d5229550c2b","37.47.116.83","Mozilla/5.0 (Windows NT 10.0; Win64; x64) AppleWebKit/537.36 (KHTML, like Gecko) Chrome/138.0.0.0 Safari/537.36","WebKit","Chrome","138.0.0.0","Windows","10.0","https://app.prolific.com/","pl-PL,pl;q=0.9","5c39ed7a688b59000102a145","683db9eb0562dbf637994deb","688133e54837bdd10b73910b","2","1","5c39ed7a688b59000102a145","2","1","2025-07-23T19:16:16.162Z","","","","","","","","","","","","","","win-only","3","g1:SW,g2:NE","1","1","0","192507.6","8003.5","13008.2","33685.3","1","4","8","6","2","8","6","6","0","0.045454545454545456","1179.4","3000","495","[""up"",""right""]","{""num_key_presses"":7,""num_perfect"":5,""num_errors"":2,""num_randdir"":0,""num_randdir_good_moves"":0,""num_whilered"":0,""num_whileblue"":1,""num_blue"":1,""num_good_moves"":6}","[289.22232142857143,297.12857142857143,0.7,289.22232142857143,297.12857142857143,104,289.22232142857143,297.12857142857143,207.8,289.22232142857143,297.12857142857143,313.6,289.22232142857143,297.12857142857143,418.8,358.22232142857143,203.12857142857143,524.6,426.22232142857143,104.12857142857143,627.2,449.22232142857143,73.12857142857143,727.5,468.22232142857143,58.128571428571426,832.2,493.22232142857143,55.128571428571426,932.9,499.22232142857143,56.128571428571426,1034.7,506.22232142857143,55.128571428571426,1140.1,506.22232142857143,55.128571428571426,1242.9,506.22232142857143,55.128571428571426,1343.6,505.22232142857143,56.128571428571426,1445.2,505.22232142857143,56.128571428571426,1549.1,505.22232142857143,56.128571428571426,1649.1,505.22232142857143,56.128571428571426,1749.2,505.22232142857143,56.128571428571426,1853.6,505.22232142857143,56.128571428571426,1957.9,505.22232142857143,56.128571428571426,2060.6,505.22232142857143,56.128571428571426,2164.4,505.22232142857143,56.128571428571426,2268.2,505.22232142857143,56.128571428571426,2368.3,505.22232142857143,56.128571428571426,2469,505.22232142857143,56.128571428571426,2569.2,505.22232142857143,56.128571428571426,2669.3,505.22232142857143,56.128571428571426,2772.6,505.22232142857143,56.128571428571426,2874.7,505.22232142857143,56.128571428571426,2974.8,505.22232142857143,56.128571428571426,3077.8,505.22232142857143,56.128571428571426,3177.9,505.22232142857143,56.128571428571426,3277.9,505.22232142857143,56.128571428571426,3378.2,505.22232142857143,56.128571428571426,3484.2,505.22232142857143,56.128571428571426,3589.5,505.22232142857143,56.128571428571426,3693.5,505.22232142857143,56.128571428571426,3799.1,505.22232142857143,56.128571428571426,3903.6,505.22232142857143,56.128571428571426,4005.8,505.22232142857143,56.128571428571426,4111.1,505.22232142857143,56.128571428571426,4213.3,505.22232142857143,56.128571428571426,4314.1,505.22232142857143,56.128571428571426,4414.2,505.22232142857143,56.128571428571426,4518.7,505.22232142857143,56.128571428571426,4618.7,505.22232142857143,56.128571428571426,4719,505.22232142857143,56.128571428571426,4819.1,505.22232142857143,56.128571428571426,4924.8]","[725.7,725.7,1000,0,-274.3,""error"",""-"",""-"",""no_move"",4966,4239.8,2616.8,1728,621.2,""smooth"",""up"",""up"",""good_move"",8558.3,3590.9,3245.9,4967.4,345,""while_blue"",""right"",""right"",""good_move"",11780.4,3221.3,2700.9,8559.2,520.4,""smooth"",""up"",""up"",""good_move"",14790.1,3009.3,2500.7,11780.8,508.6,""smooth"",""right"",""right"",""good_move"",17833.8,3042.3,2592.8,14791.5,449.5,""smooth"",""up"",""up"",""good_move"",20576.3,2742.1,2277.5,17834.3,464.6,""smooth"",""right"",""right"",""good_move""]","",""
"3607","","<div style=""width:500px;"">
  <p>What determined the result of this run?</p>
  </div>","82","html-slider-response","10","229621","0.0-5.0-1.0","232","1","2025-07-23 19:11:47","1f75c3e559b7213887762d5229550c2b","37.47.116.83","Mozilla/5.0 (Windows NT 10.0; Win64; x64) AppleWebKit/537.36 (KHTML, like Gecko) Chrome/138.0.0.0 Safari/537.36","WebKit","Chrome","138.0.0.0","Windows","10.0","https://app.prolific.com/","pl-PL,pl;q=0.9","5c39ed7a688b59000102a145","683db9eb0562dbf637994deb","688133e54837bdd10b73910b","2","1","5c39ed7a688b59000102a145","2","1","2025-07-23T19:16:19.771Z","","","","","","","","","","","AttribQ","","50","","","","","","","","","","","","","","","","","","","","","","","","","","","","",""
"4643","","<div style=""width:500px;"">
  <p>How much control did you have over the ball?</p>
  </div>","90","html-slider-response","11","234268","0.0-5.0-2.0","232","1","2025-07-23 19:11:47","1f75c3e559b7213887762d5229550c2b","37.47.116.83","Mozilla/5.0 (Windows NT 10.0; Win64; x64) AppleWebKit/537.36 (KHTML, like Gecko) Chrome/138.0.0.0 Safari/537.36","WebKit","Chrome","138.0.0.0","Windows","10.0","https://app.prolific.com/","pl-PL,pl;q=0.9","5c39ed7a688b59000102a145","683db9eb0562dbf637994deb","688133e54837bdd10b73910b","2","1","5c39ed7a688b59000102a145","2","1","2025-07-23T19:16:24.418Z","","","","","","","","","","","ControlQ","","50","","","","","","","","","","","","","","","","","","","","","","","","","","","","",""
"4502","","<div style=""width:500px;"">
  <p>How would you describe your current emotional state?</p>
  </div>","92","html-slider-response","12","238773","0.0-5.0-3.0","232","1","2025-07-23 19:11:47","1f75c3e559b7213887762d5229550c2b","37.47.116.83","Mozilla/5.0 (Windows NT 10.0; Win64; x64) AppleWebKit/537.36 (KHTML, like Gecko) Chrome/138.0.0.0 Safari/537.36","WebKit","Chrome","138.0.0.0","Windows","10.0","https://app.prolific.com/","pl-PL,pl;q=0.9","5c39ed7a688b59000102a145","683db9eb0562dbf637994deb","688133e54837bdd10b73910b","2","1","5c39ed7a688b59000102a145","2","1","2025-07-23T19:16:28.923Z","","","","","","","","","","","StressQ","","50","","","","","","","","","","","","","","","","","","","","","","","","","","","","",""
"3030","","<div style=""width:500px;"">
  <p>What best describes how you currently feel?</p>
  </div>","92","html-slider-response","13","241805","0.0-5.0-4.0","232","1","2025-07-23 19:11:47","1f75c3e559b7213887762d5229550c2b","37.47.116.83","Mozilla/5.0 (Windows NT 10.0; Win64; x64) AppleWebKit/537.36 (KHTML, like Gecko) Chrome/138.0.0.0 Safari/537.36","WebKit","Chrome","138.0.0.0","Windows","10.0","https://app.prolific.com/","pl-PL,pl;q=0.9","5c39ed7a688b59000102a145","683db9eb0562dbf637994deb","688133e54837bdd10b73910b","2","1","5c39ed7a688b59000102a145","2","1","2025-07-23T19:16:31.956Z","","","","","","","","","","","MotivationQ","","50","","","","","","","","","","","","","","","","","","","","","","","","","","","","",""
"","","","","ctl-task-cpt","14","266796","0.0-5.0-0.1","232","1","2025-07-23 19:11:47","1f75c3e559b7213887762d5229550c2b","37.47.116.83","Mozilla/5.0 (Windows NT 10.0; Win64; x64) AppleWebKit/537.36 (KHTML, like Gecko) Chrome/138.0.0.0 Safari/537.36","WebKit","Chrome","138.0.0.0","Windows","10.0","https://app.prolific.com/","pl-PL,pl;q=0.9","5c39ed7a688b59000102a145","683db9eb0562dbf637994deb","688133e54837bdd10b73910b","2","1","5c39ed7a688b59000102a145","2","1","2025-07-23T19:16:56.947Z","","","","","","","","","","","","","","win-only","1","g1:NE,g2:SW","0.9","2","0","244993.6","1939","6941.7","21986.4","1","4","4","6","1","1","1","7","6","0.05303030303030303","2745.2","3000","395","[""up"",""right""]","{""num_key_presses"":6,""num_perfect"":5,""num_errors"":0,""num_randdir"":1,""num_randdir_good_moves"":0,""num_whilered"":0,""num_whileblue"":0,""num_blue"":0,""num_good_moves"":5}","[297.22232142857143,297.12857142857143,0.8,297.22232142857143,296.12857142857143,110.2,297.22232142857143,296.12857142857143,214.4,292.22232142857143,296.12857142857143,318.5,320.22232142857143,253.12857142857143,426.1,314.22232142857143,251.12857142857143,527.9,206.22232142857143,336.12857142857143,636.2,137.22232142857143,422.12857142857143,737.7,46.222321428571426,525.1285714285714,841.8,15.222321428571426,551.1285714285714,942.5,2.2223214285714263,518.1285714285714,1044.4,-1.7776785714285737,488.12857142857143,1148,10.222321428571426,486.12857142857143,1248,58.222321428571426,473.12857142857143,1348,79.22232142857143,461.12857142857143,1454.7,59.222321428571426,475.12857142857143,1557.9,177.22232142857143,416.12857142857143,1661.8,367.22232142857143,179.12857142857143,1762.6,508.22232142857143,64.12857142857143,1863.4,574.2223214285714,9.128571428571426,1971.8,622.2223214285714,-27.871428571428574,2072.5,623.2223214285714,-37.871428571428574,2172.8,589.2223214285714,-7.871428571428574,2273.2,582.2223214285714,4.128571428571426,2373.7,579.2223214285714,11.128571428571426,2478.7,571.2223214285714,27.128571428571426,2583.8,565.2223214285714,36.128571428571426,2687.4,565.2223214285714,36.128571428571426,2790.5,565.2223214285714,36.128571428571426,2892.6,565.2223214285714,36.128571428571426,2997.8,565.2223214285714,36.128571428571426,3102,565.2223214285714,36.128571428571426,3203.8,565.2223214285714,36.128571428571426,3307.9,565.2223214285714,36.128571428571426,3414.4,565.2223214285714,36.128571428571426,3515.5,565.2223214285714,36.128571428571426,3617.1,565.2223214285714,36.128571428571426,3717.1,565.2223214285714,36.128571428571426,3822,565.2223214285714,36.128571428571426,3922.2,565.2223214285714,36.128571428571426,4023.4,565.2223214285714,36.128571428571426,4123.5,565.2223214285714,36.128571428571426,4227,565.2223214285714,36.128571428571426,4328.6,565.2223214285714,36.128571428571426,4429.3,565.2223214285714,36.128571428571426,4531.9,565.2223214285714,36.128571428571426,4631.9,565.2223214285714,36.128571428571426,4733.3,565.2223214285714,36.128571428571426,4836.5,565.2223214285714,36.128571428571426,4936.5]","[1478.8,1478.7,1000,0.1,478.7,""smooth"",""up"",""up"",""good_move"",3663.2,2183.3,1606.1,1479.9,577.2,""smooth"",""up"",""up"",""good_move"",6549.1,2885.4,2450.2,3663.7,435.2,""oops"",""right"",""left"",""bad_move"",8962.7,2412.9,1994.5,6549.8,418.4,""smooth"",""right"",""right"",""good_move"",12043.9,3080.8,2694.2,8963.1,386.7,""smooth"",""right"",""right"",""good_move"",14944,2899.2,2471,12044.8,428.2,""smooth"",""right"",""right"",""good_move""]","",""
"2234","","<div style=""width:500px;"">
  <p>What determined the result of this run?</p>
  </div>","92","html-slider-response","15","269033","0.0-5.0-1.1","232","1","2025-07-23 19:11:47","1f75c3e559b7213887762d5229550c2b","37.47.116.83","Mozilla/5.0 (Windows NT 10.0; Win64; x64) AppleWebKit/537.36 (KHTML, like Gecko) Chrome/138.0.0.0 Safari/537.36","WebKit","Chrome","138.0.0.0","Windows","10.0","https://app.prolific.com/","pl-PL,pl;q=0.9","5c39ed7a688b59000102a145","683db9eb0562dbf637994deb","688133e54837bdd10b73910b","2","1","5c39ed7a688b59000102a145","2","1","2025-07-23T19:16:59.183Z","","","","","","","","","","","AttribQ","","50","","","","","","","","","","","","","","","","","","","","","","","","","","","","",""
"2151","","<div style=""width:500px;"">
  <p>How much control did you have over the ball?</p>
  </div>","90","html-slider-response","16","271187","0.0-5.0-2.1","232","1","2025-07-23 19:11:47","1f75c3e559b7213887762d5229550c2b","37.47.116.83","Mozilla/5.0 (Windows NT 10.0; Win64; x64) AppleWebKit/537.36 (KHTML, like Gecko) Chrome/138.0.0.0 Safari/537.36","WebKit","Chrome","138.0.0.0","Windows","10.0","https://app.prolific.com/","pl-PL,pl;q=0.9","5c39ed7a688b59000102a145","683db9eb0562dbf637994deb","688133e54837bdd10b73910b","2","1","5c39ed7a688b59000102a145","2","1","2025-07-23T19:17:01.337Z","","","","","","","","","","","ControlQ","","50","","","","","","","","","","","","","","","","","","","","","","","","","","","","",""
"2527","","<div style=""width:500px;"">
  <p>How would you describe your current emotional state?</p>
  </div>","87","html-slider-response","17","273717","0.0-5.0-3.1","232","1","2025-07-23 19:11:47","1f75c3e559b7213887762d5229550c2b","37.47.116.83","Mozilla/5.0 (Windows NT 10.0; Win64; x64) AppleWebKit/537.36 (KHTML, like Gecko) Chrome/138.0.0.0 Safari/537.36","WebKit","Chrome","138.0.0.0","Windows","10.0","https://app.prolific.com/","pl-PL,pl;q=0.9","5c39ed7a688b59000102a145","683db9eb0562dbf637994deb","688133e54837bdd10b73910b","2","1","5c39ed7a688b59000102a145","2","1","2025-07-23T19:17:03.867Z","","","","","","","","","","","StressQ","","50","","","","","","","","","","","","","","","","","","","","","","","","","","","","",""
"2955","","<div style=""width:500px;"">
  <p>What best describes how you currently feel?</p>
  </div>","100","html-slider-response","18","276675","0.0-5.0-4.1","232","1","2025-07-23 19:11:47","1f75c3e559b7213887762d5229550c2b","37.47.116.83","Mozilla/5.0 (Windows NT 10.0; Win64; x64) AppleWebKit/537.36 (KHTML, like Gecko) Chrome/138.0.0.0 Safari/537.36","WebKit","Chrome","138.0.0.0","Windows","10.0","https://app.prolific.com/","pl-PL,pl;q=0.9","5c39ed7a688b59000102a145","683db9eb0562dbf637994deb","688133e54837bdd10b73910b","2","1","5c39ed7a688b59000102a145","2","1","2025-07-23T19:17:06.826Z","","","","","","","","","","","MotivationQ","","50","","","","","","","","","","","","","","","","","","","","","","","","","","","","",""
"","","","","ctl-task-cpt","19","309964","0.0-5.0-0.2","232","1","2025-07-23 19:11:47","1f75c3e559b7213887762d5229550c2b","37.47.116.83","Mozilla/5.0 (Windows NT 10.0; Win64; x64) AppleWebKit/537.36 (KHTML, like Gecko) Chrome/138.0.0.0 Safari/537.36","WebKit","Chrome","138.0.0.0","Windows","10.0","https://app.prolific.com/","pl-PL,pl;q=0.9","5c39ed7a688b59000102a145","683db9eb0562dbf637994deb","688133e54837bdd10b73910b","2","1","5c39ed7a688b59000102a145","2","1","2025-07-23T19:17:40.114Z","","","","","","","","","","","","","","win-only","3","g1:SW,g2:NE","0.8","3","0","279863.6","1266","6275.4","30276.8","1","4","8","6","2","8","8","15","7","0.11363636363636363","1116.5","3000","690","[""up"",""right""]","{""num_key_presses"":6,""num_perfect"":5,""num_errors"":0,""num_randdir"":1,""num_randdir_good_moves"":1,""num_whilered"":0,""num_whileblue"":0,""num_blue"":2,""num_good_moves"":6}","[290.22232142857143,301.12857142857143,0.2,290.22232142857143,301.12857142857143,101.2,290.22232142857143,301.12857142857143,206.1,290.22232142857143,305.12857142857143,315.2,320.22232142857143,296.12857142857143,420.9,381.22232142857143,164.12857142857143,521.1,423.22232142857143,96.12857142857143,624.6,446.22232142857143,82.12857142857143,729.5,462.22232142857143,74.12857142857143,829.6,526.2223214285714,68.12857142857143,930.5,543.2223214285714,63.128571428571426,1035.6,546.2223214285714,63.128571428571426,1136.3,546.2223214285714,63.128571428571426,1236.7,547.2223214285714,63.128571428571426,1340.7,549.2223214285714,66.12857142857143,1450.4,549.2223214285714,67.12857142857143,1555.2,549.2223214285714,67.12857142857143,1656.2,549.2223214285714,67.12857142857143,1763.9,549.2223214285714,67.12857142857143,1865.9,549.2223214285714,67.12857142857143,1971,549.2223214285714,67.12857142857143,2076.4,549.2223214285714,67.12857142857143,2180.4,549.2223214285714,67.12857142857143,2281,549.2223214285714,67.12857142857143,2386.2,549.2223214285714,67.12857142857143,2495.4,549.2223214285714,67.12857142857143,2595.5,549.2223214285714,67.12857142857143,2700.4,549.2223214285714,67.12857142857143,2800.8,549.2223214285714,67.12857142857143,2906.2,549.2223214285714,67.12857142857143,3014.3,549.2223214285714,67.12857142857143,3115.9,549.2223214285714,67.12857142857143,3219.5,549.2223214285714,67.12857142857143,3321.4,549.2223214285714,67.12857142857143,3429.6,549.2223214285714,67.12857142857143,3529.8,549.2223214285714,67.12857142857143,3631.6,549.2223214285714,67.12857142857143,3735.9,549.2223214285714,67.12857142857143,3843.7,549.2223214285714,67.12857142857143,3945.4,549.2223214285714,67.12857142857143,4050.5,549.2223214285714,67.12857142857143,4150.6,549.2223214285714,67.12857142857143,4250.7,549.2223214285714,67.12857142857143,4354.3,549.2223214285714,67.12857142857143,4456.4,549.2223214285714,67.12857142857143,4559.1,549.2223214285714,67.12857142857143,4660.4,549.2223214285714,67.12857142857143,4760.6,549.2223214285714,67.12857142857143,4864.2,549.2223214285714,67.12857142857143,4965.6]","[1688.9,1688.9,1000,0,688.9,""smooth"",""up"",""up"",""good_move"",8800,7110.5,3326.1,5136.4,337.5,""smooth"",""right"",""right"",""good_move"",11843,3041.2,2538.5,8801.8,502.7,""smooth"",""up"",""up"",""good_move"",13893.1,2049.6,1648.7,11843.5,400.9,""smooth"",""right"",""right"",""good_move"",16871.1,2977.6,2596.2,13893.5,381.4,""smooth"",""up"",""up"",""good_move"",23897.2,7024.1,2715.6,20810.4,371.2,""oops"",""right"",""right"",""good_move""]","",""
"3019","","<div style=""width:500px;"">
  <p>What determined the result of this run?</p>
  </div>","96","html-slider-response","20","312985","0.0-5.0-1.2","232","1","2025-07-23 19:11:47","1f75c3e559b7213887762d5229550c2b","37.47.116.83","Mozilla/5.0 (Windows NT 10.0; Win64; x64) AppleWebKit/537.36 (KHTML, like Gecko) Chrome/138.0.0.0 Safari/537.36","WebKit","Chrome","138.0.0.0","Windows","10.0","https://app.prolific.com/","pl-PL,pl;q=0.9","5c39ed7a688b59000102a145","683db9eb0562dbf637994deb","688133e54837bdd10b73910b","2","1","5c39ed7a688b59000102a145","2","1","2025-07-23T19:17:43.136Z","","","","","","","","","","","AttribQ","","50","","","","","","","","","","","","","","","","","","","","","","","","","","","","",""
"4016","","<div style=""width:500px;"">
  <p>How much control did you have over the ball?</p>
  </div>","99","html-slider-response","21","317004","0.0-5.0-2.2","232","1","2025-07-23 19:11:47","1f75c3e559b7213887762d5229550c2b","37.47.116.83","Mozilla/5.0 (Windows NT 10.0; Win64; x64) AppleWebKit/537.36 (KHTML, like Gecko) Chrome/138.0.0.0 Safari/537.36","WebKit","Chrome","138.0.0.0","Windows","10.0","https://app.prolific.com/","pl-PL,pl;q=0.9","5c39ed7a688b59000102a145","683db9eb0562dbf637994deb","688133e54837bdd10b73910b","2","1","5c39ed7a688b59000102a145","2","1","2025-07-23T19:17:47.154Z","","","","","","","","","","","ControlQ","","50","","","","","","","","","","","","","","","","","","","","","","","","","","","","",""
"2355","","<div style=""width:500px;"">
  <p>How would you describe your current emotional state?</p>
  </div>","91","html-slider-response","22","319361","0.0-5.0-3.2","232","1","2025-07-23 19:11:47","1f75c3e559b7213887762d5229550c2b","37.47.116.83","Mozilla/5.0 (Windows NT 10.0; Win64; x64) AppleWebKit/537.36 (KHTML, like Gecko) Chrome/138.0.0.0 Safari/537.36","WebKit","Chrome","138.0.0.0","Windows","10.0","https://app.prolific.com/","pl-PL,pl;q=0.9","5c39ed7a688b59000102a145","683db9eb0562dbf637994deb","688133e54837bdd10b73910b","2","1","5c39ed7a688b59000102a145","2","1","2025-07-23T19:17:49.511Z","","","","","","","","","","","StressQ","","50","","","","","","","","","","","","","","","","","","","","","","","","","","","","",""
"2085","","<div style=""width:500px;"">
  <p>What best describes how you currently feel?</p>
  </div>","99","html-slider-response","23","321449","0.0-5.0-4.2","232","1","2025-07-23 19:11:47","1f75c3e559b7213887762d5229550c2b","37.47.116.83","Mozilla/5.0 (Windows NT 10.0; Win64; x64) AppleWebKit/537.36 (KHTML, like Gecko) Chrome/138.0.0.0 Safari/537.36","WebKit","Chrome","138.0.0.0","Windows","10.0","https://app.prolific.com/","pl-PL,pl;q=0.9","5c39ed7a688b59000102a145","683db9eb0562dbf637994deb","688133e54837bdd10b73910b","2","1","5c39ed7a688b59000102a145","2","1","2025-07-23T19:17:51.599Z","","","","","","","","","","","MotivationQ","","50","","","","","","","","","","","","","","","","","","","","","","","","","","","","",""
"","","","","ctl-task-cpt","24","348920","0.0-5.0-0.3","232","1","2025-07-23 19:11:47","1f75c3e559b7213887762d5229550c2b","37.47.116.83","Mozilla/5.0 (Windows NT 10.0; Win64; x64) AppleWebKit/537.36 (KHTML, like Gecko) Chrome/138.0.0.0 Safari/537.36","WebKit","Chrome","138.0.0.0","Windows","10.0","https://app.prolific.com/","pl-PL,pl;q=0.9","5c39ed7a688b59000102a145","683db9eb0562dbf637994deb","688133e54837bdd10b73910b","2","1","5c39ed7a688b59000102a145","2","1","2025-07-23T19:18:19.070Z","","","","","","","","","","","","","","win-only","2","g1:SE,g2:NW","0.7","4","0","324639.5","1960.7","6965.9","24448.8","1","4","4","6","1","1","0","15","15","0.11363636363636363","2864.2","3000","1250","[""down"",""right""]","{""num_key_presses"":6,""num_perfect"":3,""num_errors"":1,""num_randdir"":2,""num_randdir_good_moves"":2,""num_whilered"":0,""num_whileblue"":1,""num_blue"":1,""num_good_moves"":5}","[293.22232142857143,295.12857142857143,0.5,293.22232142857143,295.12857142857143,101,293.22232142857143,295.12857142857143,201.3,293.22232142857143,295.12857142857143,301.4,294.22232142857143,295.12857142857143,401.6,311.22232142857143,308.12857142857143,506.9,312.22232142857143,311.12857142857143,608,268.22232142857143,290.12857142857143,710.1,191.22232142857143,237.12857142857143,811.5,152.22232142857143,213.12857142857143,911.5,116.22232142857143,174.12857142857143,1012.2,68.22232142857143,135.12857142857143,1114.7,60.222321428571426,109.12857142857143,1216,56.222321428571426,81.12857142857143,1322.5,47.222321428571426,62.128571428571426,1425.6,46.222321428571426,54.128571428571426,1529,46.222321428571426,54.128571428571426,1632.9,46.222321428571426,54.128571428571426,1740.3,46.222321428571426,54.128571428571426,1841.3,46.222321428571426,54.128571428571426,1944.7,46.222321428571426,54.128571428571426,2048,46.222321428571426,54.128571428571426,2150.2,230.22232142857143,246.12857142857143,2250.8,395.22232142857143,443.12857142857143,2361.3,444.22232142857143,473.12857142857143,2462,454.22232142857143,480.12857142857143,2565.5,499.22232142857143,506.12857142857143,2675.6,501.22232142857143,504.12857142857143,2780.3,501.22232142857143,504.12857142857143,2880.9,501.22232142857143,504.12857142857143,2981.6,498.22232142857143,506.12857142857143,3094.7,492.22232142857143,513.1285714285714,3196.9,458.22232142857143,539.1285714285714,3300.9,440.22232142857143,548.1285714285714,3401.3,369.22232142857143,506.12857142857143,3513,355.22232142857143,483.12857142857143,3616.1,354.22232142857143,476.12857142857143,3721.7,354.22232142857143,476.12857142857143,3825.9,354.22232142857143,476.12857142857143,3930.6,354.22232142857143,476.12857142857143,4038.6,354.22232142857143,476.12857142857143,4143.8,354.22232142857143,476.12857142857143,4245.6,354.22232142857143,476.12857142857143,4351,404.22232142857143,502.12857142857143,4453.6,500.22232142857143,529.1285714285714,4562.1,500.22232142857143,529.1285714285714,4667.1,500.22232142857143,528.1285714285714,4776.2,500.22232142857143,528.1285714285714,4881.4,500.22232142857143,528.1285714285714,4987.8]","[1395,1395,1000,0,395,""oops"",""down"",""right"",""good_move"",3727.1,2330.8,1916.4,1396.3,414.4,""smooth"",""down"",""down"",""good_move"",6795,3066.6,2655,3728.5,411.6,""smooth"",""right"",""right"",""good_move"",10449.7,3653.1,3304.9,6796.6,348.2,""while_blue"",""down"",""left"",""bad_move"",14175.9,3725.5,3271.1,10450.4,454.4,""oops"",""down"",""right"",""good_move"",17360.1,3183.5,2701.8,14176.6,481.7,""smooth"",""down"",""down"",""good_move""]","",""
"3169","","<div style=""width:500px;"">
  <p>What determined the result of this run?</p>
  </div>","84","html-slider-response","25","352091","0.0-5.0-1.3","232","1","2025-07-23 19:11:47","1f75c3e559b7213887762d5229550c2b","37.47.116.83","Mozilla/5.0 (Windows NT 10.0; Win64; x64) AppleWebKit/537.36 (KHTML, like Gecko) Chrome/138.0.0.0 Safari/537.36","WebKit","Chrome","138.0.0.0","Windows","10.0","https://app.prolific.com/","pl-PL,pl;q=0.9","5c39ed7a688b59000102a145","683db9eb0562dbf637994deb","688133e54837bdd10b73910b","2","1","5c39ed7a688b59000102a145","2","1","2025-07-23T19:18:22.241Z","","","","","","","","","","","AttribQ","","50","","","","","","","","","","","","","","","","","","","","","","","","","","","","",""
"2685","","<div style=""width:500px;"">
  <p>How much control did you have over the ball?</p>
  </div>","85","html-slider-response","26","354778","0.0-5.0-2.3","232","1","2025-07-23 19:11:47","1f75c3e559b7213887762d5229550c2b","37.47.116.83","Mozilla/5.0 (Windows NT 10.0; Win64; x64) AppleWebKit/537.36 (KHTML, like Gecko) Chrome/138.0.0.0 Safari/537.36","WebKit","Chrome","138.0.0.0","Windows","10.0","https://app.prolific.com/","pl-PL,pl;q=0.9","5c39ed7a688b59000102a145","683db9eb0562dbf637994deb","688133e54837bdd10b73910b","2","1","5c39ed7a688b59000102a145","2","1","2025-07-23T19:18:24.928Z","","","","","","","","","","","ControlQ","","50","","","","","","","","","","","","","","","","","","","","","","","","","","","","",""
"2310","","<div style=""width:500px;"">
  <p>How would you describe your current emotional state?</p>
  </div>","99","html-slider-response","27","357091","0.0-5.0-3.3","232","1","2025-07-23 19:11:47","1f75c3e559b7213887762d5229550c2b","37.47.116.83","Mozilla/5.0 (Windows NT 10.0; Win64; x64) AppleWebKit/537.36 (KHTML, like Gecko) Chrome/138.0.0.0 Safari/537.36","WebKit","Chrome","138.0.0.0","Windows","10.0","https://app.prolific.com/","pl-PL,pl;q=0.9","5c39ed7a688b59000102a145","683db9eb0562dbf637994deb","688133e54837bdd10b73910b","2","1","5c39ed7a688b59000102a145","2","1","2025-07-23T19:18:27.242Z","","","","","","","","","","","StressQ","","50","","","","","","","","","","","","","","","","","","","","","","","","","","","","",""
"2387","","<div style=""width:500px;"">
  <p>What best describes how you currently feel?</p>
  </div>","100","html-slider-response","28","359481","0.0-5.0-4.3","232","1","2025-07-23 19:11:47","1f75c3e559b7213887762d5229550c2b","37.47.116.83","Mozilla/5.0 (Windows NT 10.0; Win64; x64) AppleWebKit/537.36 (KHTML, like Gecko) Chrome/138.0.0.0 Safari/537.36","WebKit","Chrome","138.0.0.0","Windows","10.0","https://app.prolific.com/","pl-PL,pl;q=0.9","5c39ed7a688b59000102a145","683db9eb0562dbf637994deb","688133e54837bdd10b73910b","2","1","5c39ed7a688b59000102a145","2","1","2025-07-23T19:18:29.631Z","","","","","","","","","","","MotivationQ","","50","","","","","","","","","","","","","","","","","","","","","","","","","","","","",""
"","","","","ctl-task-cpt","29","386493","0.0-5.0-0.4","232","1","2025-07-23 19:11:47","1f75c3e559b7213887762d5229550c2b","37.47.116.83","Mozilla/5.0 (Windows NT 10.0; Win64; x64) AppleWebKit/537.36 (KHTML, like Gecko) Chrome/138.0.0.0 Safari/537.36","WebKit","Chrome","138.0.0.0","Windows","10.0","https://app.prolific.com/","pl-PL,pl;q=0.9","5c39ed7a688b59000102a145","683db9eb0562dbf637994deb","688133e54837bdd10b73910b","2","1","5c39ed7a688b59000102a145","2","1","2025-07-23T19:18:56.643Z","","","","","","","","","","","","","","win-only","3","g1:SW,g2:NE","0.6","5","0","362671.6","1630","6630.9","23986.1","1","4","4","6","1","1","1","16","15","0.12121212121212122","1630.8","3000","595","[""down"",""left""]","{""num_key_presses"":6,""num_perfect"":5,""num_errors"":0,""num_randdir"":1,""num_randdir_good_moves"":0,""num_whilered"":0,""num_whileblue"":0,""num_blue"":0,""num_good_moves"":5}","[299.22232142857143,299.12857142857143,0.6,299.22232142857143,299.12857142857143,105.2,298.22232142857143,299.12857142857143,206.5,298.22232142857143,301.12857142857143,315.6,297.22232142857143,305.12857142857143,420.3,273.22232142857143,313.12857142857143,521.5,263.22232142857143,337.12857142857143,621.8,287.22232142857143,314.12857142857143,726.3,266.22232142857143,320.12857142857143,837.5,244.22232142857143,364.12857142857143,941.4,188.22232142857143,409.12857142857143,1042,94.22232142857143,493.12857142857143,1143.6,76.22232142857143,521.1285714285714,1249.1,75.22232142857143,522.1285714285714,1350.4,59.222321428571426,530.1285714285714,1452.1,57.222321428571426,529.1285714285714,1559.6,57.222321428571426,529.1285714285714,1671.8,57.222321428571426,529.1285714285714,1780.4,57.222321428571426,529.1285714285714,1882.2,57.222321428571426,529.1285714285714,1983.9,57.222321428571426,529.1285714285714,2083.9,57.222321428571426,529.1285714285714,2187.2,57.222321428571426,529.1285714285714,2287.2,57.222321428571426,529.1285714285714,2388.9,57.222321428571426,529.1285714285714,2498.9,57.222321428571426,529.1285714285714,2602.9,57.222321428571426,529.1285714285714,2722.5,57.222321428571426,529.1285714285714,2830.1,57.222321428571426,529.1285714285714,2935.9,57.222321428571426,529.1285714285714,3043.5,57.222321428571426,529.1285714285714,3155.2,57.222321428571426,529.1285714285714,3259.8,57.222321428571426,529.1285714285714,3361.1,57.222321428571426,529.1285714285714,3463.9,57.222321428571426,529.1285714285714,3568.5,57.222321428571426,529.1285714285714,3680.6,57.222321428571426,529.1285714285714,3785.5,57.222321428571426,529.1285714285714,3894.2,57.222321428571426,529.1285714285714,3999.7,57.222321428571426,529.1285714285714,4101.3,57.222321428571426,529.1285714285714,4210.4,57.222321428571426,529.1285714285714,4315.2,57.222321428571426,529.1285714285714,4415.7,57.222321428571426,529.1285714285714,4524.1,57.222321428571426,529.1285714285714,4631,57.222321428571426,529.1285714285714,4735.5,57.222321428571426,529.1285714285714,4846.9,57.222321428571426,529.1285714285714,4949.9]","[1493.2,1493.3,1000,0,493.3,""smooth"",""down"",""down"",""good_move"",5269,3773.9,3091.7,1495.2,682.1,""smooth"",""left"",""left"",""good_move"",7728.5,2457.7,1948.2,5270.8,509.5,""oops"",""down"",""up"",""bad_move"",11289.5,3558.7,3154.8,7730.8,403.9,""smooth"",""down"",""down"",""good_move"",14181.2,2891.4,2435.2,11289.8,456.2,""smooth"",""down"",""down"",""good_move"",17214.4,3031.5,2631.8,14182.9,399.7,""smooth"",""left"",""left"",""good_move""]","",""
"3372","","<div style=""width:500px;"">
  <p>What determined the result of this run?</p>
  </div>","89","html-slider-response","30","389868","0.0-5.0-1.4","232","1","2025-07-23 19:11:47","1f75c3e559b7213887762d5229550c2b","37.47.116.83","Mozilla/5.0 (Windows NT 10.0; Win64; x64) AppleWebKit/537.36 (KHTML, like Gecko) Chrome/138.0.0.0 Safari/537.36","WebKit","Chrome","138.0.0.0","Windows","10.0","https://app.prolific.com/","pl-PL,pl;q=0.9","5c39ed7a688b59000102a145","683db9eb0562dbf637994deb","688133e54837bdd10b73910b","2","1","5c39ed7a688b59000102a145","2","1","2025-07-23T19:19:00.018Z","","","","","","","","","","","AttribQ","","50","","","","","","","","","","","","","","","","","","","","","","","","","","","","",""
"8640","","<div style=""width:500px;"">
  <p>How much control did you have over the ball?</p>
  </div>","89","html-slider-response","31","398511","0.0-5.0-2.4","232","1","2025-07-23 19:11:47","1f75c3e559b7213887762d5229550c2b","37.47.116.83","Mozilla/5.0 (Windows NT 10.0; Win64; x64) AppleWebKit/537.36 (KHTML, like Gecko) Chrome/138.0.0.0 Safari/537.36","WebKit","Chrome","138.0.0.0","Windows","10.0","https://app.prolific.com/","pl-PL,pl;q=0.9","5c39ed7a688b59000102a145","683db9eb0562dbf637994deb","688133e54837bdd10b73910b","2","1","5c39ed7a688b59000102a145","2","1","2025-07-23T19:19:08.662Z","","","","","","","","","","","ControlQ","","50","","","","","","","","","","","","","","","","","","","","","","","","","","","","",""
"2417","","<div style=""width:500px;"">
  <p>How would you describe your current emotional state?</p>
  </div>","94","html-slider-response","32","400931","0.0-5.0-3.4","232","1","2025-07-23 19:11:47","1f75c3e559b7213887762d5229550c2b","37.47.116.83","Mozilla/5.0 (Windows NT 10.0; Win64; x64) AppleWebKit/537.36 (KHTML, like Gecko) Chrome/138.0.0.0 Safari/537.36","WebKit","Chrome","138.0.0.0","Windows","10.0","https://app.prolific.com/","pl-PL,pl;q=0.9","5c39ed7a688b59000102a145","683db9eb0562dbf637994deb","688133e54837bdd10b73910b","2","1","5c39ed7a688b59000102a145","2","1","2025-07-23T19:19:11.081Z","","","","","","","","","","","StressQ","","50","","","","","","","","","","","","","","","","","","","","","","","","","","","","",""
"2354","","<div style=""width:500px;"">
  <p>What best describes how you currently feel?</p>
  </div>","97","html-slider-response","33","403287","0.0-5.0-4.4","232","1","2025-07-23 19:11:47","1f75c3e559b7213887762d5229550c2b","37.47.116.83","Mozilla/5.0 (Windows NT 10.0; Win64; x64) AppleWebKit/537.36 (KHTML, like Gecko) Chrome/138.0.0.0 Safari/537.36","WebKit","Chrome","138.0.0.0","Windows","10.0","https://app.prolific.com/","pl-PL,pl;q=0.9","5c39ed7a688b59000102a145","683db9eb0562dbf637994deb","688133e54837bdd10b73910b","2","1","5c39ed7a688b59000102a145","2","1","2025-07-23T19:19:13.437Z","","","","","","","","","","","MotivationQ","","50","","","","","","","","","","","","","","","","","","","","","","","","","","","","",""
"","","","","ctl-task-cpt","34","438487","0.0-5.0-0.5","232","1","2025-07-23 19:11:47","1f75c3e559b7213887762d5229550c2b","37.47.116.83","Mozilla/5.0 (Windows NT 10.0; Win64; x64) AppleWebKit/537.36 (KHTML, like Gecko) Chrome/138.0.0.0 Safari/537.36","WebKit","Chrome","138.0.0.0","Windows","10.0","https://app.prolific.com/","pl-PL,pl;q=0.9","5c39ed7a688b59000102a145","683db9eb0562dbf637994deb","688133e54837bdd10b73910b","2","1","5c39ed7a688b59000102a145","2","1","2025-07-23T19:19:48.637Z","","","","","","","","","","","","","","win-only","0","g1:NW,g2:SE","0.5","6","0","406478.2","4938.4","9942.5","32176.1","1","4","8","6","2","-8","-8","8","16","0.06060606060606061","2770.4","3000","-2730","[""down"",""right""]","{""num_key_presses"":7,""num_perfect"":3,""num_errors"":0,""num_randdir"":4,""num_randdir_good_moves"":2,""num_whilered"":0,""num_whileblue"":0,""num_blue"":0,""num_good_moves"":5}","[299.22232142857143,292.12857142857143,0.2,299.22232142857143,292.12857142857143,104.2,299.22232142857143,292.12857142857143,209.5,299.22232142857143,292.12857142857143,317.3,299.22232142857143,292.12857142857143,417.3,299.22232142857143,292.12857142857143,519.4,298.22232142857143,293.12857142857143,625.2,409.22232142857143,374.12857142857143,732.5,431.22232142857143,392.12857142857143,844.5,476.22232142857143,446.12857142857143,947.3,467.22232142857143,467.12857142857143,1048.8,410.22232142857143,457.12857142857143,1153.5,308.22232142857143,387.12857142857143,1253.8,249.22232142857143,323.12857142857143,1367.5,244.22232142857143,291.12857142857143,1474.3,235.22232142857143,206.12857142857143,1582.2,195.22232142857143,152.12857142857143,1688.2,400.22232142857143,447.12857142857143,1790.1,613.2223214285714,618.1285714285714,1895.9,610.2223214285714,624.1285714285714,1999.8,611.2223214285714,631.1285714285714,2101.9,614.2223214285714,604.1285714285714,2204.9,594.2223214285714,577.1285714285714,2305.9,594.2223214285714,577.1285714285714,2407.1,582.2223214285714,559.1285714285714,2508.5,565.2223214285714,546.1285714285714,2609.8,563.2223214285714,546.1285714285714,2710.8,562.2223214285714,546.1285714285714,2810.9,562.2223214285714,546.1285714285714,2915.5,562.2223214285714,546.1285714285714,3016.7,562.2223214285714,546.1285714285714,3117.2,562.2223214285714,546.1285714285714,3219.7,562.2223214285714,546.1285714285714,3322.1,562.2223214285714,546.1285714285714,3431,562.2223214285714,546.1285714285714,3531.3,562.2223214285714,546.1285714285714,3639.2,562.2223214285714,546.1285714285714,3742.6,562.2223214285714,546.1285714285714,3846.1,562.2223214285714,546.1285714285714,3949.6,562.2223214285714,546.1285714285714,4050,562.2223214285714,546.1285714285714,4157.4,562.2223214285714,546.1285714285714,4258,562.2223214285714,546.1285714285714,4362.7,562.2223214285714,546.1285714285714,4463.9,562.2223214285714,546.1285714285714,4563.9,562.2223214285714,546.1285714285714,4667.5,562.2223214285714,546.1285714285714,4776.5,562.2223214285714,546.1285714285714,4877.9,562.2223214285714,546.1285714285714,4982.5]","[1418.7,1418.7,1000,0,418.7,""oops"",""down"",""up"",""bad_move"",3839.2,2419.1,1808.6,1420.1,610.5,""oops"",""down"",""right"",""good_move"",6870,3029.8,2602.5,3840.2,427.3,""smooth"",""down"",""down"",""good_move"",10984,4113.4,3720.8,6870.6,392.7,""smooth"",""down"",""down"",""good_move"",13757.4,2772.9,2313.1,10984.5,459.8,""smooth"",""down"",""down"",""good_move"",16746.7,2988.9,2605.9,13757.8,383,""oops"",""down"",""right"",""good_move"",19913.6,3166.5,2811.8,16747.1,354.7,""oops"",""down"",""left"",""bad_move""]","",""
"2592","","<div style=""width:500px;"">
  <p>What determined the result of this run?</p>
  </div>","84","html-slider-response","35","441080","0.0-5.0-1.5","232","1","2025-07-23 19:11:47","1f75c3e559b7213887762d5229550c2b","37.47.116.83","Mozilla/5.0 (Windows NT 10.0; Win64; x64) AppleWebKit/537.36 (KHTML, like Gecko) Chrome/138.0.0.0 Safari/537.36","WebKit","Chrome","138.0.0.0","Windows","10.0","https://app.prolific.com/","pl-PL,pl;q=0.9","5c39ed7a688b59000102a145","683db9eb0562dbf637994deb","688133e54837bdd10b73910b","2","1","5c39ed7a688b59000102a145","2","1","2025-07-23T19:19:51.231Z","","","","","","","","","","","AttribQ","","50","","","","","","","","","","","","","","","","","","","","","","","","","","","","",""
"1904","","<div style=""width:500px;"">
  <p>How much control did you have over the ball?</p>
  </div>","88","html-slider-response","36","442988","0.0-5.0-2.5","232","1","2025-07-23 19:11:47","1f75c3e559b7213887762d5229550c2b","37.47.116.83","Mozilla/5.0 (Windows NT 10.0; Win64; x64) AppleWebKit/537.36 (KHTML, like Gecko) Chrome/138.0.0.0 Safari/537.36","WebKit","Chrome","138.0.0.0","Windows","10.0","https://app.prolific.com/","pl-PL,pl;q=0.9","5c39ed7a688b59000102a145","683db9eb0562dbf637994deb","688133e54837bdd10b73910b","2","1","5c39ed7a688b59000102a145","2","1","2025-07-23T19:19:53.138Z","","","","","","","","","","","ControlQ","","50","","","","","","","","","","","","","","","","","","","","","","","","","","","","",""
"2095","","<div style=""width:500px;"">
  <p>How would you describe your current emotional state?</p>
  </div>","97","html-slider-response","37","445086","0.0-5.0-3.5","232","1","2025-07-23 19:11:47","1f75c3e559b7213887762d5229550c2b","37.47.116.83","Mozilla/5.0 (Windows NT 10.0; Win64; x64) AppleWebKit/537.36 (KHTML, like Gecko) Chrome/138.0.0.0 Safari/537.36","WebKit","Chrome","138.0.0.0","Windows","10.0","https://app.prolific.com/","pl-PL,pl;q=0.9","5c39ed7a688b59000102a145","683db9eb0562dbf637994deb","688133e54837bdd10b73910b","2","1","5c39ed7a688b59000102a145","2","1","2025-07-23T19:19:55.237Z","","","","","","","","","","","StressQ","","50","","","","","","","","","","","","","","","","","","","","","","","","","","","","",""
"2552","","<div style=""width:500px;"">
  <p>What best describes how you currently feel?</p>
  </div>","88","html-slider-response","38","447640","0.0-5.0-4.5","232","1","2025-07-23 19:11:47","1f75c3e559b7213887762d5229550c2b","37.47.116.83","Mozilla/5.0 (Windows NT 10.0; Win64; x64) AppleWebKit/537.36 (KHTML, like Gecko) Chrome/138.0.0.0 Safari/537.36","WebKit","Chrome","138.0.0.0","Windows","10.0","https://app.prolific.com/","pl-PL,pl;q=0.9","5c39ed7a688b59000102a145","683db9eb0562dbf637994deb","688133e54837bdd10b73910b","2","1","5c39ed7a688b59000102a145","2","1","2025-07-23T19:19:57.791Z","","","","","","","","","","","MotivationQ","","50","","","","","","","","","","","","","","","","","","","","","","","","","","","","",""
"","","","","ctl-task-cpt","39","468312","0.0-5.0-0.6","232","1","2025-07-23 19:11:47","1f75c3e559b7213887762d5229550c2b","37.47.116.83","Mozilla/5.0 (Windows NT 10.0; Win64; x64) AppleWebKit/537.36 (KHTML, like Gecko) Chrome/138.0.0.0 Safari/537.36","WebKit","Chrome","138.0.0.0","Windows","10.0","https://app.prolific.com/","pl-PL,pl;q=0.9","5c39ed7a688b59000102a145","683db9eb0562dbf637994deb","688133e54837bdd10b73910b","2","1","5c39ed7a688b59000102a145","2","1","2025-07-23T19:20:18.462Z","","","","","","","","","","","","","","win-only","1","g1:NE,g2:SW","0.4","7","0","450830.3","2401.5","7411.9","17645.5","1","4","8","6","1","1","1","9","8","0.06818181818181818","1564.7","3000","1860","[""up"",""right""]","{""num_key_presses"":4,""num_perfect"":1,""num_errors"":0,""num_randdir"":3,""num_randdir_good_moves"":3,""num_whilered"":0,""num_whileblue"":0,""num_blue"":0,""num_good_moves"":4}","[290.22232142857143,297.12857142857143,0.6,290.22232142857143,297.12857142857143,104.8,291.22232142857143,298.12857142857143,209.4,299.22232142857143,311.12857142857143,316.6,311.22232142857143,324.12857142857143,419.1,311.22232142857143,324.12857142857143,520.3,301.22232142857143,349.12857142857143,626.5,207.22232142857143,458.12857142857143,732,249.22232142857143,430.12857142857143,833.8,327.22232142857143,284.12857142857143,937.5,408.22232142857143,148.12857142857143,1047.2,447.22232142857143,89.12857142857143,1151.1,459.22232142857143,68.12857142857143,1254.1,531.2223214285714,61.128571428571426,1354.4,558.2223214285714,59.128571428571426,1454.5,565.2223214285714,56.128571428571426,1575.7,565.2223214285714,56.128571428571426,1683.1,565.2223214285714,56.128571428571426,1784.7,565.2223214285714,59.128571428571426,1885.7,565.2223214285714,60.128571428571426,1993.7,565.2223214285714,60.128571428571426,2099,565.2223214285714,60.128571428571426,2200.6,565.2223214285714,60.128571428571426,2302.6,565.2223214285714,60.128571428571426,2402.7,565.2223214285714,60.128571428571426,2515.6,562.2223214285714,61.128571428571426,2618.9,561.2223214285714,61.128571428571426,2720.1,561.2223214285714,61.128571428571426,2834.8,561.2223214285714,61.128571428571426,2936.8,561.2223214285714,61.128571428571426,3052,561.2223214285714,61.128571428571426,3162.7,561.2223214285714,61.128571428571426,3264.4,561.2223214285714,61.128571428571426,3369.3,561.2223214285714,61.128571428571426,3469.9,561.2223214285714,61.128571428571426,3581.8,561.2223214285714,61.128571428571426,3684.6,561.2223214285714,61.128571428571426,3784.9,561.2223214285714,61.128571428571426,3885.8,561.2223214285714,61.128571428571426,3990.3,561.2223214285714,61.128571428571426,4103.7,561.2223214285714,61.128571428571426,4209.8,561.2223214285714,61.128571428571426,4314.7,561.2223214285714,61.128571428571426,4414.9,561.2223214285714,61.128571428571426,4524.7,561.2223214285714,61.128571428571426,4630.7,561.2223214285714,61.128571428571426,4733.1,561.2223214285714,61.128571428571426,4834.6,561.2223214285714,61.128571428571426,4941.2]","[1428.9,1428.9,1000,0,428.9,""oops"",""up"",""right"",""good_move"",5155.3,3726,3345.4,1429.5,380.5,""oops"",""up"",""up"",""good_move"",7936.2,2778.7,2384.1,5157.5,394.6,""smooth"",""up"",""up"",""good_move"",10087.3,2150.7,1741,7936.6,409.7,""oops"",""right"",""right"",""good_move""]","",""
"2838","","<div style=""width:500px;"">
  <p>What determined the result of this run?</p>
  </div>","87","html-slider-response","40","471151","0.0-5.0-1.6","232","1","2025-07-23 19:11:47","1f75c3e559b7213887762d5229550c2b","37.47.116.83","Mozilla/5.0 (Windows NT 10.0; Win64; x64) AppleWebKit/537.36 (KHTML, like Gecko) Chrome/138.0.0.0 Safari/537.36","WebKit","Chrome","138.0.0.0","Windows","10.0","https://app.prolific.com/","pl-PL,pl;q=0.9","5c39ed7a688b59000102a145","683db9eb0562dbf637994deb","688133e54837bdd10b73910b","2","1","5c39ed7a688b59000102a145","2","1","2025-07-23T19:20:21.302Z","","","","","","","","","","","AttribQ","","50","","","","","","","","","","","","","","","","","","","","","","","","","","","","",""
"3719","","<div style=""width:500px;"">
  <p>How much control did you have over the ball?</p>
  </div>","89","html-slider-response","41","474873","0.0-5.0-2.6","232","1","2025-07-23 19:11:47","1f75c3e559b7213887762d5229550c2b","37.47.116.83","Mozilla/5.0 (Windows NT 10.0; Win64; x64) AppleWebKit/537.36 (KHTML, like Gecko) Chrome/138.0.0.0 Safari/537.36","WebKit","Chrome","138.0.0.0","Windows","10.0","https://app.prolific.com/","pl-PL,pl;q=0.9","5c39ed7a688b59000102a145","683db9eb0562dbf637994deb","688133e54837bdd10b73910b","2","1","5c39ed7a688b59000102a145","2","1","2025-07-23T19:20:25.024Z","","","","","","","","","","","ControlQ","","50","","","","","","","","","","","","","","","","","","","","","","","","","","","","",""
"2865","","<div style=""width:500px;"">
  <p>How would you describe your current emotional state?</p>
  </div>","99","html-slider-response","42","477741","0.0-5.0-3.6","232","1","2025-07-23 19:11:47","1f75c3e559b7213887762d5229550c2b","37.47.116.83","Mozilla/5.0 (Windows NT 10.0; Win64; x64) AppleWebKit/537.36 (KHTML, like Gecko) Chrome/138.0.0.0 Safari/537.36","WebKit","Chrome","138.0.0.0","Windows","10.0","https://app.prolific.com/","pl-PL,pl;q=0.9","5c39ed7a688b59000102a145","683db9eb0562dbf637994deb","688133e54837bdd10b73910b","2","1","5c39ed7a688b59000102a145","2","1","2025-07-23T19:20:27.891Z","","","","","","","","","","","StressQ","","50","","","","","","","","","","","","","","","","","","","","","","","","","","","","",""
"1904","","<div style=""width:500px;"">
  <p>What best describes how you currently feel?</p>
  </div>","97","html-slider-response","43","479649","0.0-5.0-4.6","232","1","2025-07-23 19:11:47","1f75c3e559b7213887762d5229550c2b","37.47.116.83","Mozilla/5.0 (Windows NT 10.0; Win64; x64) AppleWebKit/537.36 (KHTML, like Gecko) Chrome/138.0.0.0 Safari/537.36","WebKit","Chrome","138.0.0.0","Windows","10.0","https://app.prolific.com/","pl-PL,pl;q=0.9","5c39ed7a688b59000102a145","683db9eb0562dbf637994deb","688133e54837bdd10b73910b","2","1","5c39ed7a688b59000102a145","2","1","2025-07-23T19:20:29.799Z","","","","","","","","","","","MotivationQ","","50","","","","","","","","","","","","","","","","","","","","","","","","","","","","",""
"","","","","ctl-task-cpt","44","524520","0.0-5.0-0.7","232","1","2025-07-23 19:11:47","1f75c3e559b7213887762d5229550c2b","37.47.116.83","Mozilla/5.0 (Windows NT 10.0; Win64; x64) AppleWebKit/537.36 (KHTML, like Gecko) Chrome/138.0.0.0 Safari/537.36","WebKit","Chrome","138.0.0.0","Windows","10.0","https://app.prolific.com/","pl-PL,pl;q=0.9","5c39ed7a688b59000102a145","683db9eb0562dbf637994deb","688133e54837bdd10b73910b","2","1","5c39ed7a688b59000102a145","2","1","2025-07-23T19:21:14.670Z","","","","","","","","","","","","","","win-only","1","g1:NE,g2:SW","0.3","8","0","482839.8","1631.4","6632.8","41854.4","1","4","4","6","1","-1","-2","7","9","0.05303030303030303","1679.7","3000","-2230","[""up"",""right""]","{""num_key_presses"":10,""num_perfect"":3,""num_errors"":1,""num_randdir"":6,""num_randdir_good_moves"":2,""num_whilered"":0,""num_whileblue"":1,""num_blue"":2,""num_good_moves"":5}","[296.22232142857143,295.12857142857143,0.6,296.22232142857143,295.12857142857143,102,296.22232142857143,295.12857142857143,206,296.22232142857143,295.12857142857143,309.9,295.22232142857143,297.12857142857143,414.1,295.22232142857143,298.12857142857143,515.3,296.22232142857143,299.12857142857143,621,326.22232142857143,285.12857142857143,729.1,392.22232142857143,181.12857142857143,832.8,423.22232142857143,135.12857142857143,936.9,423.22232142857143,135.12857142857143,1038.4,423.22232142857143,135.12857142857143,1140.3,430.22232142857143,119.12857142857143,1241,489.22232142857143,93.12857142857143,1349.3,526.2223214285714,75.12857142857143,1454,539.2223214285714,60.128571428571426,1555.1,541.2223214285714,56.128571428571426,1657.8,541.2223214285714,56.128571428571426,1763.2,541.2223214285714,56.128571428571426,1863.5,541.2223214285714,56.128571428571426,1966.8,541.2223214285714,56.128571428571426,2067.9,541.2223214285714,56.128571428571426,2170.1,541.2223214285714,56.128571428571426,2270.1,541.2223214285714,56.128571428571426,2371.5,541.2223214285714,56.128571428571426,2472.1,541.2223214285714,56.128571428571426,2573.6,541.2223214285714,56.128571428571426,2687.4,541.2223214285714,56.128571428571426,2791.3,541.2223214285714,56.128571428571426,2904.8,541.2223214285714,56.128571428571426,3013.5,541.2223214285714,56.128571428571426,3117.1,541.2223214285714,56.128571428571426,3219.7,541.2223214285714,56.128571428571426,3322,541.2223214285714,56.128571428571426,3425.1,541.2223214285714,56.128571428571426,3528,541.2223214285714,56.128571428571426,3628.8,541.2223214285714,56.128571428571426,3730.4,541.2223214285714,56.128571428571426,3834.8,541.2223214285714,56.128571428571426,3936.9,541.2223214285714,56.128571428571426,4038.5,541.2223214285714,56.128571428571426,4147.9,541.2223214285714,56.128571428571426,4249.9,541.2223214285714,56.128571428571426,4350.3,541.2223214285714,56.128571428571426,4451.3,541.2223214285714,56.128571428571426,4556.1,541.2223214285714,56.128571428571426,4666,541.2223214285714,56.128571428571426,4767.3,541.2223214285714,56.128571428571426,4868.2,541.2223214285714,56.128571428571426,4970]","[1449.9,1449.9,1000,0,449.9,""smooth"",""up"",""up"",""good_move"",4813.6,3362.6,2980,1451,382.6,""oops"",""up"",""down"",""bad_move"",7414.1,2599.9,2186.9,4814.3,413,""smooth"",""up"",""up"",""good_move"",10621.5,3205.9,2890.1,7415.8,315.7,""while_blue"",""up"",""left"",""bad_move"",16978.8,6356.5,2764.9,13727.5,486.4,""oops"",""up"",""right"",""good_move"",20131.9,3151.6,2571.5,16980.3,580.1,""oops"",""up"",""down"",""bad_move"",23726.4,3592.8,3170.3,20133.6,422.5,""oops"",""up"",""right"",""good_move"",26658.4,2930.6,2539,23727.8,391.6,""smooth"",""up"",""up"",""good_move"",29063.2,2403.6,2022.6,26659.6,381,""oops"",""up"",""left"",""bad_move"",32545.9,3482.1,3063.2,29063.8,418.9,""oops"",""up"",""left"",""bad_move""]","",""
"3598","","<div style=""width:500px;"">
  <p>What determined the result of this run?</p>
  </div>","81","html-slider-response","45","528120","0.0-5.0-1.7","232","1","2025-07-23 19:11:47","1f75c3e559b7213887762d5229550c2b","37.47.116.83","Mozilla/5.0 (Windows NT 10.0; Win64; x64) AppleWebKit/537.36 (KHTML, like Gecko) Chrome/138.0.0.0 Safari/537.36","WebKit","Chrome","138.0.0.0","Windows","10.0","https://app.prolific.com/","pl-PL,pl;q=0.9","5c39ed7a688b59000102a145","683db9eb0562dbf637994deb","688133e54837bdd10b73910b","2","1","5c39ed7a688b59000102a145","2","1","2025-07-23T19:21:18.270Z","","","","","","","","","","","AttribQ","","50","","","","","","","","","","","","","","","","","","","","","","","","","","","","",""
"2627","","<div style=""width:500px;"">
  <p>How much control did you have over the ball?</p>
  </div>","40","html-slider-response","46","530751","0.0-5.0-2.7","232","1","2025-07-23 19:11:47","1f75c3e559b7213887762d5229550c2b","37.47.116.83","Mozilla/5.0 (Windows NT 10.0; Win64; x64) AppleWebKit/537.36 (KHTML, like Gecko) Chrome/138.0.0.0 Safari/537.36","WebKit","Chrome","138.0.0.0","Windows","10.0","https://app.prolific.com/","pl-PL,pl;q=0.9","5c39ed7a688b59000102a145","683db9eb0562dbf637994deb","688133e54837bdd10b73910b","2","1","5c39ed7a688b59000102a145","2","1","2025-07-23T19:21:20.901Z","","","","","","","","","","","ControlQ","","50","","","","","","","","","","","","","","","","","","","","","","","","","","","","",""
"3246","","<div style=""width:500px;"">
  <p>How would you describe your current emotional state?</p>
  </div>","80","html-slider-response","47","533999","0.0-5.0-3.7","232","1","2025-07-23 19:11:47","1f75c3e559b7213887762d5229550c2b","37.47.116.83","Mozilla/5.0 (Windows NT 10.0; Win64; x64) AppleWebKit/537.36 (KHTML, like Gecko) Chrome/138.0.0.0 Safari/537.36","WebKit","Chrome","138.0.0.0","Windows","10.0","https://app.prolific.com/","pl-PL,pl;q=0.9","5c39ed7a688b59000102a145","683db9eb0562dbf637994deb","688133e54837bdd10b73910b","2","1","5c39ed7a688b59000102a145","2","1","2025-07-23T19:21:24.149Z","","","","","","","","","","","StressQ","","50","","","","","","","","","","","","","","","","","","","","","","","","","","","","",""
"1564","","<div style=""width:500px;"">
  <p>What best describes how you currently feel?</p>
  </div>","82","html-slider-response","48","535566","0.0-5.0-4.7","232","1","2025-07-23 19:11:47","1f75c3e559b7213887762d5229550c2b","37.47.116.83","Mozilla/5.0 (Windows NT 10.0; Win64; x64) AppleWebKit/537.36 (KHTML, like Gecko) Chrome/138.0.0.0 Safari/537.36","WebKit","Chrome","138.0.0.0","Windows","10.0","https://app.prolific.com/","pl-PL,pl;q=0.9","5c39ed7a688b59000102a145","683db9eb0562dbf637994deb","688133e54837bdd10b73910b","2","1","5c39ed7a688b59000102a145","2","1","2025-07-23T19:21:25.717Z","","","","","","","","","","","MotivationQ","","50","","","","","","","","","","","","","","","","","","","","","","","","","","","","",""
"","","","","ctl-task-cpt","49","596169","0.0-5.0-0.8","232","1","2025-07-23 19:11:47","1f75c3e559b7213887762d5229550c2b","37.47.116.83","Mozilla/5.0 (Windows NT 10.0; Win64; x64) AppleWebKit/537.36 (KHTML, like Gecko) Chrome/138.0.0.0 Safari/537.36","WebKit","Chrome","138.0.0.0","Windows","10.0","https://app.prolific.com/","pl-PL,pl;q=0.9","5c39ed7a688b59000102a145","683db9eb0562dbf637994deb","688133e54837bdd10b73910b","2","1","5c39ed7a688b59000102a145","2","1","2025-07-23T19:22:26.319Z","","","","","","","","","","","","","","win-only","3","g1:SW,g2:NE","0.2","9","0","538756.3","1496.1","6501","57571","1","4","8","6","2","-8","-10","0","7","0","1603.4","3000","-2310","[""up"",""right""]","{""num_key_presses"":13,""num_perfect"":2,""num_errors"":2,""num_randdir"":9,""num_randdir_good_moves"":1,""num_whilered"":0,""num_whileblue"":2,""num_blue"":5,""num_good_moves"":5}","[296.22232142857143,297.12857142857143,0.3,296.22232142857143,297.12857142857143,109.6,296.22232142857143,297.12857142857143,214.1,296.22232142857143,297.12857142857143,316.3,295.22232142857143,298.12857142857143,429.8,295.22232142857143,299.12857142857143,531,302.22232142857143,295.12857142857143,634.6,396.22232142857143,165.12857142857143,735.9,446.22232142857143,106.12857142857143,843.7,469.22232142857143,72.12857142857143,945.8,469.22232142857143,72.12857142857143,1046.3,470.22232142857143,71.12857142857143,1146.5,490.22232142857143,58.128571428571426,1252.3,510.22232142857143,49.128571428571426,1370.5,516.2223214285714,50.128571428571426,1474.3,527.2223214285714,53.128571428571426,1577.7,527.2223214285714,53.128571428571426,1682.9,527.2223214285714,53.128571428571426,1786.5,527.2223214285714,53.128571428571426,1889.9,527.2223214285714,53.128571428571426,1992.7,527.2223214285714,53.128571428571426,2096.8,527.2223214285714,53.128571428571426,2200.4,527.2223214285714,53.128571428571426,2305.3,527.2223214285714,53.128571428571426,2410.2,527.2223214285714,53.128571428571426,2524.8,527.2223214285714,53.128571428571426,2624.8,527.2223214285714,53.128571428571426,2726,527.2223214285714,53.128571428571426,2829.3,527.2223214285714,53.128571428571426,2931.3,527.2223214285714,53.128571428571426,3034.4,527.2223214285714,53.128571428571426,3137.4,527.2223214285714,53.128571428571426,3240.2,527.2223214285714,53.128571428571426,3344.9,527.2223214285714,53.128571428571426,3446.7,527.2223214285714,53.128571428571426,3557.4,527.2223214285714,53.128571428571426,3663.4,527.2223214285714,53.128571428571426,3765.7,527.2223214285714,53.128571428571426,3874.6,527.2223214285714,53.128571428571426,3978.8,527.2223214285714,53.128571428571426,4080,527.2223214285714,53.128571428571426,4192.1,527.2223214285714,53.128571428571426,4295.4,527.2223214285714,53.128571428571426,4410.1,527.2223214285714,53.128571428571426,4521.3,527.2223214285714,53.128571428571426,4624.7,527.2223214285714,53.128571428571426,4726.4,527.2223214285714,53.128571428571426,4829.8,527.2223214285714,53.128571428571426,4930.1]","[1395.9,1395.9,1000,0,395.9,""oops"",""up"",""left"",""bad_move"",7500.4,6103.9,2727.2,4471.5,301.7,""oops"",""up"",""left"",""bad_move"",10530.1,3029,2566.8,7501.2,462.2,""oops"",""up"",""down"",""bad_move"",13165.5,2634.8,2228,10530.8,406.7,""smooth"",""up"",""up"",""good_move"",15521.5,2353.7,2009,13167.8,344.7,""smooth"",""up"",""up"",""good_move"",18494.4,2972.5,2611.7,15521.9,360.8,""oops"",""up"",""right"",""good_move"",21191.1,2695.4,2325.8,18495.7,369.6,""while_blue"",""up"",""right"",""good_move"",28406.6,7215.1,3084.3,25018.9,303.4,""oops"",""up"",""left"",""bad_move"",31735.1,3327.7,3029.3,28407.4,298.4,""while_blue"",""up"",""up"",""good_move"",38936.9,7201.3,2881.2,35697.2,358.5,""oops"",""right"",""left"",""bad_move"",41510.7,2573.2,2106.9,38937.6,466.2,""oops"",""right"",""down"",""bad_move"",45207.4,3696,3351.1,41511.4,344.9,""oops"",""right"",""down"",""bad_move"",48633.8,3425.1,3023.5,45209.5,400.8,""oops"",""right"",""down"",""bad_move""]","",""
"4828","","<div style=""width:500px;"">
  <p>What determined the result of this run?</p>
  </div>","37","html-slider-response","50","600999","0.0-5.0-1.8","232","1","2025-07-23 19:11:47","1f75c3e559b7213887762d5229550c2b","37.47.116.83","Mozilla/5.0 (Windows NT 10.0; Win64; x64) AppleWebKit/537.36 (KHTML, like Gecko) Chrome/138.0.0.0 Safari/537.36","WebKit","Chrome","138.0.0.0","Windows","10.0","https://app.prolific.com/","pl-PL,pl;q=0.9","5c39ed7a688b59000102a145","683db9eb0562dbf637994deb","688133e54837bdd10b73910b","2","1","5c39ed7a688b59000102a145","2","1","2025-07-23T19:22:31.149Z","","","","","","","","","","","AttribQ","","50","","","","","","","","","","","","","","","","","","","","","","","","","","","","",""
"3064","","<div style=""width:500px;"">
  <p>How much control did you have over the ball?</p>
  </div>","34","html-slider-response","51","604066","0.0-5.0-2.8","232","1","2025-07-23 19:11:47","1f75c3e559b7213887762d5229550c2b","37.47.116.83","Mozilla/5.0 (Windows NT 10.0; Win64; x64) AppleWebKit/537.36 (KHTML, like Gecko) Chrome/138.0.0.0 Safari/537.36","WebKit","Chrome","138.0.0.0","Windows","10.0","https://app.prolific.com/","pl-PL,pl;q=0.9","5c39ed7a688b59000102a145","683db9eb0562dbf637994deb","688133e54837bdd10b73910b","2","1","5c39ed7a688b59000102a145","2","1","2025-07-23T19:22:34.217Z","","","","","","","","","","","ControlQ","","50","","","","","","","","","","","","","","","","","","","","","","","","","","","","",""
"3257","","<div style=""width:500px;"">
  <p>How would you describe your current emotional state?</p>
  </div>","100","html-slider-response","52","607327","0.0-5.0-3.8","232","1","2025-07-23 19:11:47","1f75c3e559b7213887762d5229550c2b","37.47.116.83","Mozilla/5.0 (Windows NT 10.0; Win64; x64) AppleWebKit/537.36 (KHTML, like Gecko) Chrome/138.0.0.0 Safari/537.36","WebKit","Chrome","138.0.0.0","Windows","10.0","https://app.prolific.com/","pl-PL,pl;q=0.9","5c39ed7a688b59000102a145","683db9eb0562dbf637994deb","688133e54837bdd10b73910b","2","1","5c39ed7a688b59000102a145","2","1","2025-07-23T19:22:37.478Z","","","","","","","","","","","StressQ","","50","","","","","","","","","","","","","","","","","","","","","","","","","","","","",""
"3768","","<div style=""width:500px;"">
  <p>What best describes how you currently feel?</p>
  </div>","100","html-slider-response","53","611098","0.0-5.0-4.8","232","1","2025-07-23 19:11:47","1f75c3e559b7213887762d5229550c2b","37.47.116.83","Mozilla/5.0 (Windows NT 10.0; Win64; x64) AppleWebKit/537.36 (KHTML, like Gecko) Chrome/138.0.0.0 Safari/537.36","WebKit","Chrome","138.0.0.0","Windows","10.0","https://app.prolific.com/","pl-PL,pl;q=0.9","5c39ed7a688b59000102a145","683db9eb0562dbf637994deb","688133e54837bdd10b73910b","2","1","5c39ed7a688b59000102a145","2","1","2025-07-23T19:22:41.249Z","","","","","","","","","","","MotivationQ","","50","","","","","","","","","","","","","","","","","","","","","","","","","","","","",""
"","","","","ctl-task-cpt","54","643760","0.0-5.0-0.9","232","1","2025-07-23 19:11:47","1f75c3e559b7213887762d5229550c2b","37.47.116.83","Mozilla/5.0 (Windows NT 10.0; Win64; x64) AppleWebKit/537.36 (KHTML, like Gecko) Chrome/138.0.0.0 Safari/537.36","WebKit","Chrome","138.0.0.0","Windows","10.0","https://app.prolific.com/","pl-PL,pl;q=0.9","5c39ed7a688b59000102a145","683db9eb0562dbf637994deb","688133e54837bdd10b73910b","2","1","5c39ed7a688b59000102a145","2","1","2025-07-23T19:23:13.910Z","","","","","","","","","","","","","","win-only","3","g1:SW,g2:NE","0.4","10","0","614289.8","1429.8","6433.3","29629.3","1","4","4","6","2","4","3","3","0","0.022727272727272728","3274.2","3000","1075","[""up"",""right""]","{""num_key_presses"":8,""num_perfect"":2,""num_errors"":1,""num_randdir"":5,""num_randdir_good_moves"":4,""num_whilered"":0,""num_whileblue"":1,""num_blue"":1,""num_good_moves"":7}","[295.22232142857143,297.12857142857143,0.4,295.22232142857143,297.12857142857143,104.7,295.22232142857143,297.12857142857143,209.8,295.22232142857143,297.12857142857143,323,295.22232142857143,297.12857142857143,428,363.22232142857143,259.12857142857143,531.5,375.22232142857143,212.12857142857143,636.3,375.22232142857143,211.12857142857143,738.9,375.22232142857143,211.12857142857143,840.6,375.22232142857143,211.12857142857143,943.7,307.22232142857143,255.12857142857143,1050.2,255.22232142857143,321.12857142857143,1153.9,185.22232142857143,456.12857142857143,1258.4,146.22232142857143,502.12857142857143,1366.3,184.22232142857143,440.12857142857143,1468.3,153.22232142857143,435.12857142857143,1569.5,114.22232142857143,487.12857142857143,1671.3,107.22232142857143,503.12857142857143,1771.5,86.22232142857143,520.1285714285714,1873,59.222321428571426,519.1285714285714,1979.6,56.222321428571426,523.1285714285714,2080.5,56.222321428571426,523.1285714285714,2184.6,97.22232142857143,519.1285714285714,2289.3,568.2223214285714,182.12857142857143,2394.2,760.2223214285714,-76.87142857142857,2497.5,772.2223214285714,-73.87142857142857,2600.1,746.2223214285714,-48.871428571428574,2702.5,683.2223214285714,-9.871428571428574,2803.1,624.2223214285714,33.128571428571426,2903.2,558.2223214285714,44.128571428571426,3006.1,557.2223214285714,45.128571428571426,3106.8,557.2223214285714,45.128571428571426,3208,557.2223214285714,45.128571428571426,3311.7,557.2223214285714,45.128571428571426,3412.9,557.2223214285714,45.128571428571426,3514.7,557.2223214285714,45.128571428571426,3619.9,557.2223214285714,45.128571428571426,3720.1,557.2223214285714,45.128571428571426,3822.4,557.2223214285714,45.128571428571426,3936.5,557.2223214285714,45.128571428571426,4037,557.2223214285714,45.128571428571426,4137.9,557.2223214285714,45.128571428571426,4243.7,557.2223214285714,45.128571428571426,4350.6,557.2223214285714,45.128571428571426,4453.7,557.2223214285714,45.128571428571426,4558.7,557.2223214285714,45.128571428571426,4665.6,557.2223214285714,45.128571428571426,4766.4,557.2223214285714,45.128571428571426,4866.6,557.2223214285714,45.128571428571426,4968.9]","[1408.1,1408.1,1000,0,408.1,""oops"",""up"",""up"",""good_move"",5005.9,3596.5,3233.5,1409.4,363,""smooth"",""up"",""up"",""good_move"",7313.6,2306.3,1894.5,5007.3,411.8,""oops"",""right"",""down"",""bad_move"",10666.1,3349.9,3032.3,7316.2,317.6,""smooth"",""up"",""up"",""good_move"",13621.1,2953.7,2556.8,10667.5,396.9,""oops"",""up"",""up"",""good_move"",17141.4,3519.7,3098.1,13621.7,421.6,""oops"",""right"",""right"",""good_move"",19705.8,2562.2,2204.6,17143.7,357.5,""oops"",""right"",""right"",""good_move"",23048,3341.1,2996.1,19706.9,345,""while_blue"",""right"",""right"",""good_move""]","",""
"2445","","<div style=""width:500px;"">
  <p>What determined the result of this run?</p>
  </div>","72","html-slider-response","55","646206","0.0-5.0-1.9","232","1","2025-07-23 19:11:47","1f75c3e559b7213887762d5229550c2b","37.47.116.83","Mozilla/5.0 (Windows NT 10.0; Win64; x64) AppleWebKit/537.36 (KHTML, like Gecko) Chrome/138.0.0.0 Safari/537.36","WebKit","Chrome","138.0.0.0","Windows","10.0","https://app.prolific.com/","pl-PL,pl;q=0.9","5c39ed7a688b59000102a145","683db9eb0562dbf637994deb","688133e54837bdd10b73910b","2","1","5c39ed7a688b59000102a145","2","1","2025-07-23T19:23:16.356Z","","","","","","","","","","","AttribQ","","50","","","","","","","","","","","","","","","","","","","","","","","","","","","","",""
"2044","","<div style=""width:500px;"">
  <p>How much control did you have over the ball?</p>
  </div>","62","html-slider-response","56","648253","0.0-5.0-2.9","232","1","2025-07-23 19:11:47","1f75c3e559b7213887762d5229550c2b","37.47.116.83","Mozilla/5.0 (Windows NT 10.0; Win64; x64) AppleWebKit/537.36 (KHTML, like Gecko) Chrome/138.0.0.0 Safari/537.36","WebKit","Chrome","138.0.0.0","Windows","10.0","https://app.prolific.com/","pl-PL,pl;q=0.9","5c39ed7a688b59000102a145","683db9eb0562dbf637994deb","688133e54837bdd10b73910b","2","1","5c39ed7a688b59000102a145","2","1","2025-07-23T19:23:18.404Z","","","","","","","","","","","ControlQ","","50","","","","","","","","","","","","","","","","","","","","","","","","","","","","",""
"2836","","<div style=""width:500px;"">
  <p>How would you describe your current emotional state?</p>
  </div>","100","html-slider-response","57","651093","0.0-5.0-3.9","232","1","2025-07-23 19:11:47","1f75c3e559b7213887762d5229550c2b","37.47.116.83","Mozilla/5.0 (Windows NT 10.0; Win64; x64) AppleWebKit/537.36 (KHTML, like Gecko) Chrome/138.0.0.0 Safari/537.36","WebKit","Chrome","138.0.0.0","Windows","10.0","https://app.prolific.com/","pl-PL,pl;q=0.9","5c39ed7a688b59000102a145","683db9eb0562dbf637994deb","688133e54837bdd10b73910b","2","1","5c39ed7a688b59000102a145","2","1","2025-07-23T19:23:21.243Z","","","","","","","","","","","StressQ","","50","","","","","","","","","","","","","","","","","","","","","","","","","","","","",""
"1839","","<div style=""width:500px;"">
  <p>What best describes how you currently feel?</p>
  </div>","97","html-slider-response","58","652936","0.0-5.0-4.9","232","1","2025-07-23 19:11:47","1f75c3e559b7213887762d5229550c2b","37.47.116.83","Mozilla/5.0 (Windows NT 10.0; Win64; x64) AppleWebKit/537.36 (KHTML, like Gecko) Chrome/138.0.0.0 Safari/537.36","WebKit","Chrome","138.0.0.0","Windows","10.0","https://app.prolific.com/","pl-PL,pl;q=0.9","5c39ed7a688b59000102a145","683db9eb0562dbf637994deb","688133e54837bdd10b73910b","2","1","5c39ed7a688b59000102a145","2","1","2025-07-23T19:23:23.086Z","","","","","","","","","","","MotivationQ","","50","","","","","","","","","","","","","","","","","","","","","","","","","","","","",""
"","","","","ctl-task-cpt","59","695011","0.0-5.0-0.10","232","1","2025-07-23 19:11:47","1f75c3e559b7213887762d5229550c2b","37.47.116.83","Mozilla/5.0 (Windows NT 10.0; Win64; x64) AppleWebKit/537.36 (KHTML, like Gecko) Chrome/138.0.0.0 Safari/537.36","WebKit","Chrome","138.0.0.0","Windows","10.0","https://app.prolific.com/","pl-PL,pl;q=0.9","5c39ed7a688b59000102a145","683db9eb0562dbf637994deb","688133e54837bdd10b73910b","2","1","5c39ed7a688b59000102a145","2","1","2025-07-23T19:24:05.162Z","","","","","","","","","","","","","","win-only","0","g1:NW,g2:SE","0.5","11","0","656126.3","1947.2","6949.4","39052.8","1","4","8","6","2","-8","-8","0","3","0","1750.5","3000","-2235","[""down"",""right""]","{""num_key_presses"":11,""num_perfect"":5,""num_errors"":0,""num_randdir"":6,""num_randdir_good_moves"":1,""num_whilered"":0,""num_whileblue"":0,""num_blue"":0,""num_good_moves"":6}","[300.22232142857143,296.12857142857143,0.5,300.22232142857143,296.12857142857143,100.2,300.22232142857143,296.12857142857143,209.2,300.22232142857143,297.12857142857143,315.7,300.22232142857143,299.12857142857143,416.7,294.22232142857143,299.12857142857143,522.5,286.22232142857143,322.12857142857143,622.9,373.22232142857143,409.12857142857143,725.7,427.22232142857143,435.12857142857143,831.7,442.22232142857143,445.12857142857143,934.1,450.22232142857143,453.12857142857143,1036.5,447.22232142857143,457.12857142857143,1136.6,465.22232142857143,482.12857142857143,1236.6,491.22232142857143,499.12857142857143,1341.3,518.2223214285714,512.1285714285714,1451.7,524.2223214285714,516.1285714285714,1555.1,523.2223214285714,510.12857142857143,1655.8,523.2223214285714,510.12857142857143,1756,523.2223214285714,510.12857142857143,1863.2,523.2223214285714,510.12857142857143,1974.6,523.2223214285714,510.12857142857143,2075.7,523.2223214285714,510.12857142857143,2176.4,523.2223214285714,510.12857142857143,2280.7,523.2223214285714,510.12857142857143,2380.7,523.2223214285714,510.12857142857143,2481.7,523.2223214285714,510.12857142857143,2584.5,523.2223214285714,510.12857142857143,2687.1,523.2223214285714,510.12857142857143,2792.7,523.2223214285714,510.12857142857143,2897,523.2223214285714,510.12857142857143,2999.9,523.2223214285714,510.12857142857143,3099.9,523.2223214285714,510.12857142857143,3203.8,523.2223214285714,510.12857142857143,3313.9,523.2223214285714,510.12857142857143,3414.1,523.2223214285714,510.12857142857143,3519.7,523.2223214285714,510.12857142857143,3619.7,523.2223214285714,510.12857142857143,3726.9,523.2223214285714,510.12857142857143,3827.3,523.2223214285714,510.12857142857143,3932,523.2223214285714,510.12857142857143,4036.6,523.2223214285714,510.12857142857143,4141.4,523.2223214285714,510.12857142857143,4243.4,523.2223214285714,510.12857142857143,4345.4,523.2223214285714,510.12857142857143,4449.7,523.2223214285714,510.12857142857143,4568.5,523.2223214285714,510.12857142857143,4669,523.2223214285714,510.12857142857143,4775.8,523.2223214285714,510.12857142857143,4883.2,523.2223214285714,510.12857142857143,4985.8]","[1454.3,1454.3,1000,0,454.3,""oops"",""down"",""left"",""bad_move"",4621.9,3167.1,2739,1454.9,428.1,""smooth"",""down"",""down"",""good_move"",7020.4,2397.9,2023.2,4622.6,374.6,""smooth"",""down"",""down"",""good_move"",9933.8,2913.1,2552.1,7020.7,361,""smooth"",""down"",""down"",""good_move"",12585.2,2649.8,2219.9,9935.4,429.9,""smooth"",""right"",""right"",""good_move"",15069.6,2482.8,2092,12586.8,390.8,""oops"",""right"",""up"",""bad_move"",17891.9,2819,2489.2,15072.9,329.9,""oops"",""right"",""left"",""bad_move"",20186.1,2292.5,1920.8,17893.6,371.7,""smooth"",""down"",""down"",""good_move"",23587.4,3399.2,3059.7,20188.2,339.5,""oops"",""right"",""up"",""bad_move"",26977.7,3390,3060.5,23587.7,329.5,""oops"",""right"",""right"",""good_move"",29924.7,2946.3,2638.9,26978.5,307.3,""oops"",""right"",""up"",""bad_move""]","",""
"2096","","<div style=""width:500px;"">
  <p>What determined the result of this run?</p>
  </div>","81","html-slider-response","60","697109","0.0-5.0-1.10","232","1","2025-07-23 19:11:47","1f75c3e559b7213887762d5229550c2b","37.47.116.83","Mozilla/5.0 (Windows NT 10.0; Win64; x64) AppleWebKit/537.36 (KHTML, like Gecko) Chrome/138.0.0.0 Safari/537.36","WebKit","Chrome","138.0.0.0","Windows","10.0","https://app.prolific.com/","pl-PL,pl;q=0.9","5c39ed7a688b59000102a145","683db9eb0562dbf637994deb","688133e54837bdd10b73910b","2","1","5c39ed7a688b59000102a145","2","1","2025-07-23T19:24:07.260Z","","","","","","","","","","","AttribQ","","50","","","","","","","","","","","","","","","","","","","","","","","","","","","","",""
"3121","","<div style=""width:500px;"">
  <p>How much control did you have over the ball?</p>
  </div>","57","html-slider-response","61","700233","0.0-5.0-2.10","232","1","2025-07-23 19:11:47","1f75c3e559b7213887762d5229550c2b","37.47.116.83","Mozilla/5.0 (Windows NT 10.0; Win64; x64) AppleWebKit/537.36 (KHTML, like Gecko) Chrome/138.0.0.0 Safari/537.36","WebKit","Chrome","138.0.0.0","Windows","10.0","https://app.prolific.com/","pl-PL,pl;q=0.9","5c39ed7a688b59000102a145","683db9eb0562dbf637994deb","688133e54837bdd10b73910b","2","1","5c39ed7a688b59000102a145","2","1","2025-07-23T19:24:10.383Z","","","","","","","","","","","ControlQ","","50","","","","","","","","","","","","","","","","","","","","","","","","","","","","",""
"3101","","<div style=""width:500px;"">
  <p>How would you describe your current emotional state?</p>
  </div>","100","html-slider-response","62","703337","0.0-5.0-3.10","232","1","2025-07-23 19:11:47","1f75c3e559b7213887762d5229550c2b","37.47.116.83","Mozilla/5.0 (Windows NT 10.0; Win64; x64) AppleWebKit/537.36 (KHTML, like Gecko) Chrome/138.0.0.0 Safari/537.36","WebKit","Chrome","138.0.0.0","Windows","10.0","https://app.prolific.com/","pl-PL,pl;q=0.9","5c39ed7a688b59000102a145","683db9eb0562dbf637994deb","688133e54837bdd10b73910b","2","1","5c39ed7a688b59000102a145","2","1","2025-07-23T19:24:13.488Z","","","","","","","","","","","StressQ","","50","","","","","","","","","","","","","","","","","","","","","","","","","","","","",""
"2434","","<div style=""width:500px;"">
  <p>What best describes how you currently feel?</p>
  </div>","100","html-slider-response","63","705774","0.0-5.0-4.10","232","1","2025-07-23 19:11:47","1f75c3e559b7213887762d5229550c2b","37.47.116.83","Mozilla/5.0 (Windows NT 10.0; Win64; x64) AppleWebKit/537.36 (KHTML, like Gecko) Chrome/138.0.0.0 Safari/537.36","WebKit","Chrome","138.0.0.0","Windows","10.0","https://app.prolific.com/","pl-PL,pl;q=0.9","5c39ed7a688b59000102a145","683db9eb0562dbf637994deb","688133e54837bdd10b73910b","2","1","5c39ed7a688b59000102a145","2","1","2025-07-23T19:24:15.924Z","","","","","","","","","","","MotivationQ","","50","","","","","","","","","","","","","","","","","","","","","","","","","","","","",""
"","","","","ctl-task-cpt","64","765002","0.0-5.0-0.11","232","1","2025-07-23 19:11:47","1f75c3e559b7213887762d5229550c2b","37.47.116.83","Mozilla/5.0 (Windows NT 10.0; Win64; x64) AppleWebKit/537.36 (KHTML, like Gecko) Chrome/138.0.0.0 Safari/537.36","WebKit","Chrome","138.0.0.0","Windows","10.0","https://app.prolific.com/","pl-PL,pl;q=0.9","5c39ed7a688b59000102a145","683db9eb0562dbf637994deb","688133e54837bdd10b73910b","2","1","5c39ed7a688b59000102a145","2","1","2025-07-23T19:25:15.152Z","","","","","","","","","","","","","","win-only","3","g1:SW,g2:NE","0.6","12","0","708964.3","1208.5","6212.8","56207.3","1","4","4","6","1","-1","-6","0","0","0","2485.6","3000","-1955","[""down"",""left""]","{""num_key_presses"":14,""num_perfect"":5,""num_errors"":5,""num_randdir"":4,""num_randdir_good_moves"":1,""num_whilered"":0,""num_whileblue"":5,""num_blue"":7,""num_good_moves"":8}","[293.22232142857143,293.12857142857143,1.7,293.22232142857143,293.12857142857143,106.2,293.22232142857143,293.12857142857143,209.5,289.22232142857143,290.12857142857143,314.5,289.22232142857143,259.12857142857143,415.2,416.22232142857143,144.12857142857143,521.4,429.22232142857143,115.12857142857143,622.1,429.22232142857143,115.12857142857143,727.8,429.22232142857143,115.12857142857143,829.9,207.22232142857143,437.12857142857143,938.6,145.22232142857143,565.1285714285714,1044.3,125.22232142857143,583.1285714285714,1148,101.22232142857143,585.1285714285714,1248.7,202.22232142857143,494.12857142857143,1353.7,261.22232142857143,341.12857142857143,1461.2,232.22232142857143,356.12857142857143,1565.8,179.22232142857143,354.12857142857143,1667.7,120.22232142857143,436.12857142857143,1769.3,94.22232142857143,452.12857142857143,1877,87.22232142857143,452.12857142857143,1978.7,86.22232142857143,455.12857142857143,2084.1,95.22232142857143,486.12857142857143,2187.7,80.22232142857143,520.1285714285714,2292.7,73.22232142857143,524.1285714285714,2397.5,71.22232142857143,527.1285714285714,2508.2,71.22232142857143,528.1285714285714,2613.9,71.22232142857143,528.1285714285714,2713.9,71.22232142857143,528.1285714285714,2816.7,71.22232142857143,528.1285714285714,2925.8,71.22232142857143,528.1285714285714,3033.6,71.22232142857143,528.1285714285714,3134.9,71.22232142857143,528.1285714285714,3249.8,71.22232142857143,528.1285714285714,3351.3,71.22232142857143,528.1285714285714,3455.3,71.22232142857143,528.1285714285714,3559,71.22232142857143,528.1285714285714,3662.8,71.22232142857143,528.1285714285714,3764.9,71.22232142857143,528.1285714285714,3866.2,71.22232142857143,528.1285714285714,3969.9,71.22232142857143,528.1285714285714,4082.2,71.22232142857143,528.1285714285714,4184.5,71.22232142857143,528.1285714285714,4285,71.22232142857143,528.1285714285714,4387.5,71.22232142857143,528.1285714285714,4488.5,71.22232142857143,528.1285714285714,4591.9,71.22232142857143,528.1285714285714,4697.4,71.22232142857143,528.1285714285714,4802.2,71.22232142857143,528.1285714285714,4903.3]","[1422.3,1422.3,1000,0,422.3,""smooth"",""down"",""down"",""good_move"",3902.4,2479.7,2062.6,1422.8,417,""smooth"",""left"",""left"",""good_move"",6578.6,2674.3,2303.6,3904.3,370.7,""while_blue"",""down"",""down"",""good_move"",9540.8,2960.9,2553,6579.9,407.9,""oops"",""left"",""right"",""bad_move"",12708.7,3166.5,2734.7,9542.2,431.8,""while_blue"",""left"",""right"",""bad_move"",15494.6,2784.7,2192.5,12709.9,592.2,""oops"",""left"",""right"",""bad_move"",18827.4,3332.3,2942.4,15495.1,389.9,""while_blue"",""left"",""left"",""good_move"",21954.4,3123.9,2642.1,18830.5,481.8,""while_blue"",""left"",""right"",""bad_move"",24745.8,2790.9,1962.5,21954.9,828.4,""oops"",""left"",""left"",""good_move"",27707.4,2960.3,2345.5,24747.1,614.8,""oops"",""left"",""right"",""bad_move"",30769.6,3059.8,2580.6,27709.8,479.2,""smooth"",""left"",""left"",""good_move"",34462.9,3692.3,3219.8,30770.7,472.5,""smooth"",""left"",""left"",""good_move"",37716.2,3252.2,2835.8,34464,416.5,""while_blue"",""left"",""right"",""bad_move"",40371.2,2654.5,2165,37716.7,489.5,""smooth"",""left"",""left"",""good_move""]","",""
"6642","","<div style=""width:500px;"">
  <p>What determined the result of this run?</p>
  </div>","64","html-slider-response","65","771647","0.0-5.0-1.11","232","1","2025-07-23 19:11:47","1f75c3e559b7213887762d5229550c2b","37.47.116.83","Mozilla/5.0 (Windows NT 10.0; Win64; x64) AppleWebKit/537.36 (KHTML, like Gecko) Chrome/138.0.0.0 Safari/537.36","WebKit","Chrome","138.0.0.0","Windows","10.0","https://app.prolific.com/","pl-PL,pl;q=0.9","5c39ed7a688b59000102a145","683db9eb0562dbf637994deb","688133e54837bdd10b73910b","2","1","5c39ed7a688b59000102a145","2","1","2025-07-23T19:25:21.797Z","","","","","","","","","","","AttribQ","","50","","","","","","","","","","","","","","","","","","","","","","","","","","","","",""
"2853","","<div style=""width:500px;"">
  <p>How much control did you have over the ball?</p>
  </div>","17","html-slider-response","66","774503","0.0-5.0-2.11","232","1","2025-07-23 19:11:47","1f75c3e559b7213887762d5229550c2b","37.47.116.83","Mozilla/5.0 (Windows NT 10.0; Win64; x64) AppleWebKit/537.36 (KHTML, like Gecko) Chrome/138.0.0.0 Safari/537.36","WebKit","Chrome","138.0.0.0","Windows","10.0","https://app.prolific.com/","pl-PL,pl;q=0.9","5c39ed7a688b59000102a145","683db9eb0562dbf637994deb","688133e54837bdd10b73910b","2","1","5c39ed7a688b59000102a145","2","1","2025-07-23T19:25:24.653Z","","","","","","","","","","","ControlQ","","50","","","","","","","","","","","","","","","","","","","","","","","","","","","","",""
"3413","","<div style=""width:500px;"">
  <p>How would you describe your current emotional state?</p>
  </div>","100","html-slider-response","67","777920","0.0-5.0-3.11","232","1","2025-07-23 19:11:47","1f75c3e559b7213887762d5229550c2b","37.47.116.83","Mozilla/5.0 (Windows NT 10.0; Win64; x64) AppleWebKit/537.36 (KHTML, like Gecko) Chrome/138.0.0.0 Safari/537.36","WebKit","Chrome","138.0.0.0","Windows","10.0","https://app.prolific.com/","pl-PL,pl;q=0.9","5c39ed7a688b59000102a145","683db9eb0562dbf637994deb","688133e54837bdd10b73910b","2","1","5c39ed7a688b59000102a145","2","1","2025-07-23T19:25:28.070Z","","","","","","","","","","","StressQ","","50","","","","","","","","","","","","","","","","","","","","","","","","","","","","",""
"2277","","<div style=""width:500px;"">
  <p>What best describes how you currently feel?</p>
  </div>","100","html-slider-response","68","780200","0.0-5.0-4.11","232","1","2025-07-23 19:11:47","1f75c3e559b7213887762d5229550c2b","37.47.116.83","Mozilla/5.0 (Windows NT 10.0; Win64; x64) AppleWebKit/537.36 (KHTML, like Gecko) Chrome/138.0.0.0 Safari/537.36","WebKit","Chrome","138.0.0.0","Windows","10.0","https://app.prolific.com/","pl-PL,pl;q=0.9","5c39ed7a688b59000102a145","683db9eb0562dbf637994deb","688133e54837bdd10b73910b","2","1","5c39ed7a688b59000102a145","2","1","2025-07-23T19:25:30.351Z","","","","","","","","","","","MotivationQ","","50","","","","","","","","","","","","","","","","","","","","","","","","","","","","",""
"","","","","ctl-task-cpt","69","809814","0.0-5.0-0.12","232","1","2025-07-23 19:11:47","1f75c3e559b7213887762d5229550c2b","37.47.116.83","Mozilla/5.0 (Windows NT 10.0; Win64; x64) AppleWebKit/537.36 (KHTML, like Gecko) Chrome/138.0.0.0 Safari/537.36","WebKit","Chrome","138.0.0.0","Windows","10.0","https://app.prolific.com/","pl-PL,pl;q=0.9","5c39ed7a688b59000102a145","683db9eb0562dbf637994deb","688133e54837bdd10b73910b","2","1","5c39ed7a688b59000102a145","2","1","2025-07-23T19:25:59.965Z","","","","","","","","","","","","","","win-only","0","g1:NW,g2:SE","0.7","13","0","783391.8","1497.6","6508.3","26585","1","4","4","6","2","4","3","3","0","0.022727272727272728","1791.7","3000","1565","[""down"",""right""]","{""num_key_presses"":6,""num_perfect"":4,""num_errors"":1,""num_randdir"":1,""num_randdir_good_moves"":1,""num_whilered"":0,""num_whileblue"":1,""num_blue"":2,""num_good_moves"":6}","[302.22232142857143,301.12857142857143,0.9,302.22232142857143,301.12857142857143,108.4,302.22232142857143,301.12857142857143,215.1,302.22232142857143,301.12857142857143,315.8,302.22232142857143,301.12857142857143,421.2,287.22232142857143,300.12857142857143,523.7,303.22232142857143,328.12857142857143,627.9,468.22232142857143,444.12857142857143,727.9,480.22232142857143,456.12857142857143,846.1,506.22232142857143,478.12857142857143,952.9,505.22232142857143,477.12857142857143,1057.9,488.22232142857143,474.12857142857143,1182.2,475.22232142857143,475.12857142857143,1284.7,479.22232142857143,486.12857142857143,1387.8,529.2223214285714,515.1285714285714,1488.1,529.2223214285714,510.12857142857143,1593.5,526.2223214285714,506.12857142857143,1697.7,526.2223214285714,506.12857142857143,1798,526.2223214285714,506.12857142857143,1900.9,526.2223214285714,506.12857142857143,2004.7,526.2223214285714,506.12857142857143,2107.3,526.2223214285714,506.12857142857143,2214.6,526.2223214285714,506.12857142857143,2320.7,526.2223214285714,506.12857142857143,2422,530.2223214285714,507.12857142857143,2529,532.2223214285714,508.12857142857143,2636.5,532.2223214285714,508.12857142857143,2736.6,532.2223214285714,508.12857142857143,2837.7,532.2223214285714,508.12857142857143,2938.7,532.2223214285714,508.12857142857143,3039.9,532.2223214285714,508.12857142857143,3141.3,532.2223214285714,508.12857142857143,3248.4,532.2223214285714,508.12857142857143,3350.1,532.2223214285714,508.12857142857143,3455.6,532.2223214285714,508.12857142857143,3567.4,532.2223214285714,508.12857142857143,3670.1,532.2223214285714,508.12857142857143,3771.5,532.2223214285714,508.12857142857143,3881.6,532.2223214285714,508.12857142857143,3986.7,532.2223214285714,508.12857142857143,4086.9,532.2223214285714,508.12857142857143,4195.2,532.2223214285714,508.12857142857143,4295.9,532.2223214285714,508.12857142857143,4401.5,532.2223214285714,508.12857142857143,4505.4,532.2223214285714,508.12857142857143,4608,532.2223214285714,508.12857142857143,4712.6,532.2223214285714,508.12857142857143,4820.4,532.2223214285714,508.12857142857143,4927]","[1484.4,1484.4,1000,0,484.4,""smooth"",""down"",""down"",""good_move"",8193.8,6708.3,2137.9,5636.5,419.5,""smooth"",""down"",""down"",""good_move"",11412.5,3217.6,2752.1,8195,465.4,""smooth"",""right"",""right"",""good_move"",14616.5,3202.2,2728.8,11414.3,473.4,""smooth"",""right"",""right"",""good_move"",17222.9,2604.9,2123.9,14618,481,""oops"",""down"",""right"",""good_move"",19884.3,2660.4,2307.4,17223.9,353,""while_blue"",""down"",""down"",""good_move""]","",""
"3594","","<div style=""width:500px;"">
  <p>What determined the result of this run?</p>
  </div>","59","html-slider-response","70","813411","0.0-5.0-1.12","232","1","2025-07-23 19:11:47","1f75c3e559b7213887762d5229550c2b","37.47.116.83","Mozilla/5.0 (Windows NT 10.0; Win64; x64) AppleWebKit/537.36 (KHTML, like Gecko) Chrome/138.0.0.0 Safari/537.36","WebKit","Chrome","138.0.0.0","Windows","10.0","https://app.prolific.com/","pl-PL,pl;q=0.9","5c39ed7a688b59000102a145","683db9eb0562dbf637994deb","688133e54837bdd10b73910b","2","1","5c39ed7a688b59000102a145","2","1","2025-07-23T19:26:03.561Z","","","","","","","","","","","AttribQ","","50","","","","","","","","","","","","","","","","","","","","","","","","","","","","",""
"4656","","<div style=""width:500px;"">
  <p>How much control did you have over the ball?</p>
  </div>","73","html-slider-response","71","818070","0.0-5.0-2.12","232","1","2025-07-23 19:11:47","1f75c3e559b7213887762d5229550c2b","37.47.116.83","Mozilla/5.0 (Windows NT 10.0; Win64; x64) AppleWebKit/537.36 (KHTML, like Gecko) Chrome/138.0.0.0 Safari/537.36","WebKit","Chrome","138.0.0.0","Windows","10.0","https://app.prolific.com/","pl-PL,pl;q=0.9","5c39ed7a688b59000102a145","683db9eb0562dbf637994deb","688133e54837bdd10b73910b","2","1","5c39ed7a688b59000102a145","2","1","2025-07-23T19:26:08.220Z","","","","","","","","","","","ControlQ","","50","","","","","","","","","","","","","","","","","","","","","","","","","","","","",""
"3259","","<div style=""width:500px;"">
  <p>How would you describe your current emotional state?</p>
  </div>","100","html-slider-response","72","821332","0.0-5.0-3.12","232","1","2025-07-23 19:11:47","1f75c3e559b7213887762d5229550c2b","37.47.116.83","Mozilla/5.0 (Windows NT 10.0; Win64; x64) AppleWebKit/537.36 (KHTML, like Gecko) Chrome/138.0.0.0 Safari/537.36","WebKit","Chrome","138.0.0.0","Windows","10.0","https://app.prolific.com/","pl-PL,pl;q=0.9","5c39ed7a688b59000102a145","683db9eb0562dbf637994deb","688133e54837bdd10b73910b","2","1","5c39ed7a688b59000102a145","2","1","2025-07-23T19:26:11.484Z","","","","","","","","","","","StressQ","","50","","","","","","","","","","","","","","","","","","","","","","","","","","","","",""
"2200","","<div style=""width:500px;"">
  <p>What best describes how you currently feel?</p>
  </div>","100","html-slider-response","73","823536","0.0-5.0-4.12","232","1","2025-07-23 19:11:47","1f75c3e559b7213887762d5229550c2b","37.47.116.83","Mozilla/5.0 (Windows NT 10.0; Win64; x64) AppleWebKit/537.36 (KHTML, like Gecko) Chrome/138.0.0.0 Safari/537.36","WebKit","Chrome","138.0.0.0","Windows","10.0","https://app.prolific.com/","pl-PL,pl;q=0.9","5c39ed7a688b59000102a145","683db9eb0562dbf637994deb","688133e54837bdd10b73910b","2","1","5c39ed7a688b59000102a145","2","1","2025-07-23T19:26:13.686Z","","","","","","","","","","","MotivationQ","","50","","","","","","","","","","","","","","","","","","","","","","","","","","","","",""
"","","","","ctl-task-cpt","74","867807","0.0-5.0-0.13","232","1","2025-07-23 19:11:47","1f75c3e559b7213887762d5229550c2b","37.47.116.83","Mozilla/5.0 (Windows NT 10.0; Win64; x64) AppleWebKit/537.36 (KHTML, like Gecko) Chrome/138.0.0.0 Safari/537.36","WebKit","Chrome","138.0.0.0","Windows","10.0","https://app.prolific.com/","pl-PL,pl;q=0.9","5c39ed7a688b59000102a145","683db9eb0562dbf637994deb","688133e54837bdd10b73910b","2","1","5c39ed7a688b59000102a145","2","1","2025-07-23T19:26:57.958Z","","","","","","","","","","","","","","win-only","2","g1:SE,g2:NW","0.8","14","0","826725.7","1624.9","6633.1","41012","1","4","8","6","2","8","7","10","3","0.07575757575757576","1892.6","3000","1615","[""left"",""up""]","{""num_key_presses"":6,""num_perfect"":3,""num_errors"":1,""num_randdir"":2,""num_randdir_good_moves"":2,""num_whilered"":0,""num_whileblue"":1,""num_blue"":6,""num_good_moves"":6}","[300.22232142857143,292.12857142857143,0.3,301.22232142857143,292.12857142857143,119.6,302.22232142857143,294.12857142857143,229.8,302.22232142857143,294.12857142857143,339.3,302.22232142857143,294.12857142857143,442.4,301.22232142857143,299.12857142857143,544.1,305.22232142857143,301.12857142857143,644.1,296.22232142857143,305.12857142857143,744.6,179.22232142857143,236.12857142857143,852.9,78.22232142857143,86.12857142857143,956.3,54.222321428571426,63.128571428571426,1061,53.222321428571426,62.128571428571426,1169.8,60.222321428571426,71.12857142857143,1275.9,75.22232142857143,87.12857142857143,1383.3,65.22232142857143,78.12857142857143,1486.7,58.222321428571426,66.12857142857143,1913.6,63.222321428571426,66.12857142857143,2028,63.222321428571426,66.12857142857143,2137.6,63.222321428571426,66.12857142857143,2241.1,63.222321428571426,66.12857142857143,2341.9,63.222321428571426,66.12857142857143,2443.1,63.222321428571426,66.12857142857143,2548.3,63.222321428571426,66.12857142857143,2652.1,63.222321428571426,66.12857142857143,2753.2,63.222321428571426,66.12857142857143,2855.5,63.222321428571426,66.12857142857143,2958.4,63.222321428571426,66.12857142857143,3066.9,63.222321428571426,66.12857142857143,3318.7,63.222321428571426,66.12857142857143,3419.2,63.222321428571426,66.12857142857143,3525.9,63.222321428571426,66.12857142857143,3631.4,63.222321428571426,66.12857142857143,3736.5,63.222321428571426,66.12857142857143,3838.2,63.222321428571426,66.12857142857143,3959.3,63.222321428571426,66.12857142857143,4062.4,63.222321428571426,66.12857142857143,4171.9,63.222321428571426,66.12857142857143,4277.6,63.222321428571426,66.12857142857143,4382.5,63.222321428571426,66.12857142857143,4483.1,63.222321428571426,66.12857142857143,4590.7,63.222321428571426,66.12857142857143,4692.5,63.222321428571426,66.12857142857143,4795.3,63.222321428571426,66.12857142857143,4897.9,63.222321428571426,66.12857142857143,4998.8]","[16625.8,16625.8,2589.2,13451.8,584.8,""smooth"",""up"",""up"",""good_move"",19960.3,3334,2957,16626.3,377,""while_blue"",""up"",""left"",""good_move"",22762,2800.4,2251.4,19961.7,548.9,""oops"",""up"",""left"",""good_move"",28653.3,5891,2187.1,26054.5,411.7,""smooth"",""up"",""up"",""good_move"",31782,3126.4,2752.8,28655.6,373.6,""oops"",""up"",""left"",""good_move"",34132.6,2349.2,1900.6,31783.4,448.6,""smooth"",""up"",""up"",""good_move""]","",""
"3210","","<div style=""width:500px;"">
  <p>What determined the result of this run?</p>
  </div>","75","html-slider-response","75","871019","0.0-5.0-1.13","232","1","2025-07-23 19:11:47","1f75c3e559b7213887762d5229550c2b","37.47.116.83","Mozilla/5.0 (Windows NT 10.0; Win64; x64) AppleWebKit/537.36 (KHTML, like Gecko) Chrome/138.0.0.0 Safari/537.36","WebKit","Chrome","138.0.0.0","Windows","10.0","https://app.prolific.com/","pl-PL,pl;q=0.9","5c39ed7a688b59000102a145","683db9eb0562dbf637994deb","688133e54837bdd10b73910b","2","1","5c39ed7a688b59000102a145","2","1","2025-07-23T19:27:01.169Z","","","","","","","","","","","AttribQ","","50","","","","","","","","","","","","","","","","","","","","","","","","","","","","",""
"1769","","<div style=""width:500px;"">
  <p>How much control did you have over the ball?</p>
