"rt","response_timestamp","stimulus","response","trial_type","trial_index","time_elapsed","internal_node_id","run_id","condition","recorded_at","source_code_version","ip","user_agent","device","browser","browser_version","platform","platform_version","referer","accept_language","PROLIFIC_PID","STUDY_ID","SESSION_ID","WEEK","BATCH","prolific_id","week","batch","realtime","success","responses","item_order","radio_event_ids","radio_event_times","key_event_times","mouse_event_times","straightlining","zigzagging","honeypot","eventType","view_history","slider_start","which_type","canvas_config","goals_layout","control_level","trial_number","tutorial_trial_number","trial_start_time","phase1_start_time","phase2_start_time","phase3_start_time","goal_1_value","goal_1_distance","goal_2_value","goal_2_distance","goal_selected","outcome","outcome_total","participant_final_score","participant_initial_score","participant_final_score_prop","goal_choice_rt","allocated_time","allocated_time_remaining","goal_direction","counts","mouse_movements","key_presses","question_order","question_id"
"2823","1753252198781","<p style='font-size:40px;line-height:1.25'><strong>Welcome to the experiment!</strong></p><p style='font-size:1.1em;line-height:1.25'>Thank you for participanting in our experiment again! You will be asked to play the Dysfunctional Ball Game again. We will briefly recap the rules before we start.</p><p style='font-size:1.1em;line-height:1.25'>Press <strong>Next</strong> to continue.</p>","0","custom-html-button-response","0","2826","0.0-0.0","140","1","2025-07-23 06:29:54","1f75c3e559b7213887762d5229550c2b","122.133.157.125","Mozilla/5.0 (Macintosh; Intel Mac OS X 10_15_7) AppleWebKit/537.36 (KHTML, like Gecko) Chrome/138.0.0.0 Safari/537.36","Macintosh","Chrome","138.0.0.0","OS X","10_15_7","https://app.prolific.com/","en-US,en;q=0.9","65cb0f21257c8a98f470bb5d","683db9eb0562dbf637994deb","6880815cf78fb7ae9698c820","2","1","65cb0f21257c8a98f470bb5d","2","1","2025-07-23T06:29:58.782Z","","","","","","","","","","","","","","","","","","","","","","","","","","","","","","","","","","","","","","","","","",""
"5257","","","","fullscreen","1","9086","0.0-1.0","140","1","2025-07-23 06:29:54","1f75c3e559b7213887762d5229550c2b","122.133.157.125","Mozilla/5.0 (Macintosh; Intel Mac OS X 10_15_7) AppleWebKit/537.36 (KHTML, like Gecko) Chrome/138.0.0.0 Safari/537.36","Macintosh","Chrome","138.0.0.0","OS X","10_15_7","https://app.prolific.com/","en-US,en;q=0.9","65cb0f21257c8a98f470bb5d","683db9eb0562dbf637994deb","6880815cf78fb7ae9698c820","2","1","65cb0f21257c8a98f470bb5d","2","1","","true","","","","","","","","","","","","","","","","","","","","","","","","","","","","","","","","","","","","","","","","",""
"4096","1753252209140","<p style='font-size:1.1em;line-height:1.25'>In the following, we will ask you a few questions relating to your feelings in the last 24 hours.<br></p><p style='font-size:1.1em;line-height:1.25'>Press the <strong>Next</strong> button to continue.</p>","0","custom-html-button-response","2","13184","0.0-2.0-0.0","140","1","2025-07-23 06:29:54","1f75c3e559b7213887762d5229550c2b","122.133.157.125","Mozilla/5.0 (Macintosh; Intel Mac OS X 10_15_7) AppleWebKit/537.36 (KHTML, like Gecko) Chrome/138.0.0.0 Safari/537.36","Macintosh","Chrome","138.0.0.0","OS X","10_15_7","https://app.prolific.com/","en-US,en;q=0.9","65cb0f21257c8a98f470bb5d","683db9eb0562dbf637994deb","6880815cf78fb7ae9698c820","2","1","65cb0f21257c8a98f470bb5d","2","1","2025-07-23T06:30:09.140Z","","","","","","","","","","","","","","","","","","","","","","","","","","","","","","","","","","","","","","","","","",""
"101534.90000009537","","","","survey-template","3","114722","0.0-2.0-1.0","140","1","2025-07-23 06:29:54","1f75c3e559b7213887762d5229550c2b","122.133.157.125","Mozilla/5.0 (Macintosh; Intel Mac OS X 10_15_7) AppleWebKit/537.36 (KHTML, like Gecko) Chrome/138.0.0.0 Safari/537.36","Macintosh","Chrome","138.0.0.0","OS X","10_15_7","https://app.prolific.com/","en-US,en;q=0.9","65cb0f21257c8a98f470bb5d","683db9eb0562dbf637994deb","6880815cf78fb7ae9698c820","2","1","65cb0f21257c8a98f470bb5d","2","1","2025-07-23T06:31:50.678Z","","{""Q01"":""1"",""Q02"":""0"",""Q03"":""1"",""Q04"":""2"",""Q05"":""1"",""Q06"":""1"",""Q07"":""2"",""Q08"":""1"",""Q09"":""0"",""Q10"":""1"",""Q11"":""2"",""Q12"":""1"",""Q13"":""5"",""Q14"":""2"",""Q15"":""1"",""Q16"":""3"",""Q17"":""2"",""Q18"":""2"",""Q19"":""0"",""Q20"":""0"",""Q21"":""1"",""Q22"":""0""}","[0,1,2,3,4,5,6,7,8,9,10,11,12,13,14,15,16,17,18,19,20,21]","[""Q01"",""Q02"",""Q03"",""Q04"",""Q05"",""Q06"",""Q07"",""Q08"",""Q09"",""Q10"",""Q10"",""Q11"",""Q12"",""Q13"",""Q14"",""Q15"",""Q16"",""Q17"",""Q19"",""Q20"",""Q21"",""Q21"",""Q22"",""Q18""]","[3815.2999999523163,9274.299999952316,17323,18115.5,19723.799999952316,23469.799999952316,26898.700000047684,30166.599999904633,32631,36362.200000047684,40083.200000047684,45598.700000047684,50695,52206.59999990463,57702.59999990463,64571.200000047684,68380.59999990463,71625,78351.40000009537,83930.5,87804.59999990463,89923.40000009537,93522.59999990463,99056.20000004768]","[]","[0.09999990463256836,3815.2999999523163,9274.299999952316,17323,18115.5,19723.799999952316,23469.799999952316,25168.299999952316,26898.700000047684,28119.599999904633,30166.599999904633,32631,36362.200000047684,40083.200000047684,45598.700000047684,50695,52206.59999990463,57702.59999990463,61635.5,64571.200000047684,68380.59999990463,71625,74024.59999990463,78351.40000009537,83930.5,86923,87804.59999990463,89923.40000009537,92520.09999990463,93522.59999990463,94563.79999995232,99056.20000004768,101529.40000009537]","0.4090909090909091","0.6666666666666666","0","drsp","","","","","","","","","","","","","","","","","","","","","","","","","","","","","","",""
"14403.5","","","","survey-template","4","129127","0.0-2.0-2.0","140","1","2025-07-23 06:29:54","1f75c3e559b7213887762d5229550c2b","122.133.157.125","Mozilla/5.0 (Macintosh; Intel Mac OS X 10_15_7) AppleWebKit/537.36 (KHTML, like Gecko) Chrome/138.0.0.0 Safari/537.36","Macintosh","Chrome","138.0.0.0","OS X","10_15_7","https://app.prolific.com/","en-US,en;q=0.9","65cb0f21257c8a98f470bb5d","683db9eb0562dbf637994deb","6880815cf78fb7ae9698c820","2","1","65cb0f21257c8a98f470bb5d","2","1","2025-07-23T06:32:05.083Z","","{""Q01"":""3"",""Q02"":""3"",""Q03"":""2""}","[0,1,2]","[""Q01"",""Q02"",""Q03""]","[4455.300000190735,12597.200000047684,13407.700000047684]","[]","[4455.300000190735,9210.800000190735,12597.200000047684,13407.700000047684,14402.400000095367]","0.6666666666666666","0.5","0","stress","","","","","","","","","","","","","","","","","","","","","","","","","","","","","","",""
"20654","","","","instructions","5","149782","0.0-3.0-0.0","140","1","2025-07-23 06:29:54","1f75c3e559b7213887762d5229550c2b","122.133.157.125","Mozilla/5.0 (Macintosh; Intel Mac OS X 10_15_7) AppleWebKit/537.36 (KHTML, like Gecko) Chrome/138.0.0.0 Safari/537.36","Macintosh","Chrome","138.0.0.0","OS X","10_15_7","https://app.prolific.com/","en-US,en;q=0.9","65cb0f21257c8a98f470bb5d","683db9eb0562dbf637994deb","6880815cf78fb7ae9698c820","2","1","65cb0f21257c8a98f470bb5d","2","1","","","","","","","","","","","","","[{""page_index"":0,""viewing_time"":20654}]","","","","","","","","","","","","","","","","","","","","","","","","","","","","","",""
"4406","","<p>Before you start with this game please answer the following three questions yourself. </p>
  <p>Through this game, we measure several aspects of your cognitive performance, such as reaction times, multi-tasking capabilities </p>
  <p>and the ability to assess the situation you are in.</p>
  <p></p>
  <p><b>How good do you usually are in such tasks?</b></p>","66","html-slider-response","6","154189","0.0-4.0-0.0","140","1","2025-07-23 06:29:54","1f75c3e559b7213887762d5229550c2b","122.133.157.125","Mozilla/5.0 (Macintosh; Intel Mac OS X 10_15_7) AppleWebKit/537.36 (KHTML, like Gecko) Chrome/138.0.0.0 Safari/537.36","Macintosh","Chrome","138.0.0.0","OS X","10_15_7","https://app.prolific.com/","en-US,en;q=0.9","65cb0f21257c8a98f470bb5d","683db9eb0562dbf637994deb","6880815cf78fb7ae9698c820","2","1","65cb0f21257c8a98f470bb5d","2","1","2025-07-23T06:32:30.145Z","","","","","","","","","","","PreSkillQ","","50","","","","","","","","","","","","","","","","","","","","","","","","","","","","",""
"5015","","<div style=""width:500px;"">
  <p>How well do you think you will perform in this task compared to other participants?</p>
  </div>","55","html-slider-response","7","159205","0.0-4.0-1.0","140","1","2025-07-23 06:29:54","1f75c3e559b7213887762d5229550c2b","122.133.157.125","Mozilla/5.0 (Macintosh; Intel Mac OS X 10_15_7) AppleWebKit/537.36 (KHTML, like Gecko) Chrome/138.0.0.0 Safari/537.36","Macintosh","Chrome","138.0.0.0","OS X","10_15_7","https://app.prolific.com/","en-US,en;q=0.9","65cb0f21257c8a98f470bb5d","683db9eb0562dbf637994deb","6880815cf78fb7ae9698c820","2","1","65cb0f21257c8a98f470bb5d","2","1","2025-07-23T06:32:35.161Z","","","","","","","","","","","PrePerfQ","","50","","","","","","","","","","","","","","","","","","","","","","","","","","","","",""
"4270","","<div style=""width:500px;"">
  <p>What best describes how you currently feel?</p>
  </div>","70","html-slider-response","8","163476","0.0-4.0-2.0","140","1","2025-07-23 06:29:54","1f75c3e559b7213887762d5229550c2b","122.133.157.125","Mozilla/5.0 (Macintosh; Intel Mac OS X 10_15_7) AppleWebKit/537.36 (KHTML, like Gecko) Chrome/138.0.0.0 Safari/537.36","Macintosh","Chrome","138.0.0.0","OS X","10_15_7","https://app.prolific.com/","en-US,en;q=0.9","65cb0f21257c8a98f470bb5d","683db9eb0562dbf637994deb","6880815cf78fb7ae9698c820","2","1","65cb0f21257c8a98f470bb5d","2","1","2025-07-23T06:32:39.432Z","","","","","","","","","","","PreMotivationQ","","50","","","","","","","","","","","","","","","","","","","","","","","","","","","","",""
"","","","","ctl-task-cpt","9","195942","0.0-5.0-0.0","140","1","2025-07-23 06:29:54","1f75c3e559b7213887762d5229550c2b","122.133.157.125","Mozilla/5.0 (Macintosh; Intel Mac OS X 10_15_7) AppleWebKit/537.36 (KHTML, like Gecko) Chrome/138.0.0.0 Safari/537.36","Macintosh","Chrome","138.0.0.0","OS X","10_15_7","https://app.prolific.com/","en-US,en;q=0.9","65cb0f21257c8a98f470bb5d","683db9eb0562dbf637994deb","6880815cf78fb7ae9698c820","2","1","65cb0f21257c8a98f470bb5d","2","1","2025-07-23T06:33:11.898Z","","","","","","","","","","","","","","win-only","0","g1:NW,g2:SE","1","1","0","166168.9","1155.5","6156.4","29461.4","1","4","4","6","2","4","3","3","0","0.022727272727272728","1322.2","3000","745","[""down"",""right""]","{""num_key_presses"":8,""num_perfect"":7,""num_errors"":1,""num_randdir"":0,""num_randdir_good_moves"":0,""num_whilered"":0,""num_whileblue"":1,""num_blue"":2,""num_good_moves"":7}","[826.6508928571428,825.4477678571428,0.3,826.6508928571428,825.4477678571428,100.3,826.6508928571428,825.4477678571428,201.3,826.6508928571428,825.4477678571428,304.7,826.6508928571428,825.4477678571428,404.7,826.6508928571428,825.4477678571428,505.7,912.6508928571428,927.4477678571428,610,1406.650892857143,1325.447767857143,715.8,1406.650892857143,1325.447767857143,816.6,1406.650892857143,1325.447767857143,920.1,1406.650892857143,1325.447767857143,1020.1,1430.650892857143,1419.447767857143,1126.6,1448.650892857143,1437.447767857143,1230.8,1448.650892857143,1437.447767857143,1336,1448.650892857143,1437.447767857143,1440.5,1448.650892857143,1437.447767857143,1540.9,1448.650892857143,1437.447767857143,1640.9,1500.650892857143,1429.447767857143,1746.3,1616.650892857143,1447.447767857143,1846.3,1642.650892857143,1453.447767857143,1950.7,1724.650892857143,1435.447767857143,2051.1,1750.650892857143,1427.447767857143,2155.5,1750.650892857143,1427.447767857143,2260.8,1750.650892857143,1427.447767857143,2361.4,1750.650892857143,1427.447767857143,2466.4,1750.650892857143,1427.447767857143,2566.8,1750.650892857143,1427.447767857143,2670.2,1750.650892857143,1427.447767857143,2775.3,1750.650892857143,1427.447767857143,2876,1750.650892857143,1427.447767857143,2981.2,1750.650892857143,1427.447767857143,3085.5,1750.650892857143,1427.447767857143,3191.1,1750.650892857143,1427.447767857143,3295.5,1750.650892857143,1427.447767857143,3396.2,1750.650892857143,1427.447767857143,3500.4,1750.650892857143,1427.447767857143,3601.3,1750.650892857143,1427.447767857143,3705.2,1750.650892857143,1427.447767857143,3805.8,1750.650892857143,1427.447767857143,3910.4,1750.650892857143,1427.447767857143,4016.2,1750.650892857143,1427.447767857143,4116.4,1750.650892857143,1427.447767857143,4219.9,1750.650892857143,1427.447767857143,4320.3,1750.650892857143,1427.447767857143,4425.5,1750.650892857143,1427.447767857143,4525.5,1750.650892857143,1427.447767857143,4631.3,1750.650892857143,1427.447767857143,4735,1750.650892857143,1427.447767857143,4836,1750.650892857143,1427.447767857143,4940.8]","[5042.2,5042.3,2574.1,2010.4,457.8,""smooth"",""right"",""right"",""good_move"",7407,2364.3,2017.3,5042.7,347,""smooth"",""down"",""down"",""good_move"",9174.3,1766.8,1475.5,7407.5,291.3,""smooth"",""right"",""right"",""good_move"",11703.4,2528.8,2255.2,9174.6,273.6,""while_blue"",""down"",""left"",""bad_move"",14754,3050.1,2773.7,11703.9,276.4,""smooth"",""right"",""right"",""good_move"",17739.2,2984.8,2639.6,14754.5,345.2,""smooth"",""down"",""down"",""good_move"",20193.7,2454.2,2151.6,17739.5,302.6,""smooth"",""right"",""right"",""good_move"",23218.2,3024.1,2762.5,20194.1,261.6,""smooth"",""down"",""down"",""good_move""]","",""
"3332","","<div style=""width:500px;"">
  <p>What determined the result of this run?</p>
  </div>","100","html-slider-response","10","199274","0.0-5.0-1.0","140","1","2025-07-23 06:29:54","1f75c3e559b7213887762d5229550c2b","122.133.157.125","Mozilla/5.0 (Macintosh; Intel Mac OS X 10_15_7) AppleWebKit/537.36 (KHTML, like Gecko) Chrome/138.0.0.0 Safari/537.36","Macintosh","Chrome","138.0.0.0","OS X","10_15_7","https://app.prolific.com/","en-US,en;q=0.9","65cb0f21257c8a98f470bb5d","683db9eb0562dbf637994deb","6880815cf78fb7ae9698c820","2","1","65cb0f21257c8a98f470bb5d","2","1","2025-07-23T06:33:15.230Z","","","","","","","","","","","AttribQ","","50","","","","","","","","","","","","","","","","","","","","","","","","","","","","",""
"3480","","<div style=""width:500px;"">
  <p>How much control did you have over the ball?</p>
  </div>","100","html-slider-response","11","202755","0.0-5.0-2.0","140","1","2025-07-23 06:29:54","1f75c3e559b7213887762d5229550c2b","122.133.157.125","Mozilla/5.0 (Macintosh; Intel Mac OS X 10_15_7) AppleWebKit/537.36 (KHTML, like Gecko) Chrome/138.0.0.0 Safari/537.36","Macintosh","Chrome","138.0.0.0","OS X","10_15_7","https://app.prolific.com/","en-US,en;q=0.9","65cb0f21257c8a98f470bb5d","683db9eb0562dbf637994deb","6880815cf78fb7ae9698c820","2","1","65cb0f21257c8a98f470bb5d","2","1","2025-07-23T06:33:18.711Z","","","","","","","","","","","ControlQ","","50","","","","","","","","","","","","","","","","","","","","","","","","","","","","",""
"6696","","<div style=""width:500px;"">
  <p>How would you describe your current emotional state?</p>
  </div>","40","html-slider-response","12","209452","0.0-5.0-3.0","140","1","2025-07-23 06:29:54","1f75c3e559b7213887762d5229550c2b","122.133.157.125","Mozilla/5.0 (Macintosh; Intel Mac OS X 10_15_7) AppleWebKit/537.36 (KHTML, like Gecko) Chrome/138.0.0.0 Safari/537.36","Macintosh","Chrome","138.0.0.0","OS X","10_15_7","https://app.prolific.com/","en-US,en;q=0.9","65cb0f21257c8a98f470bb5d","683db9eb0562dbf637994deb","6880815cf78fb7ae9698c820","2","1","65cb0f21257c8a98f470bb5d","2","1","2025-07-23T06:33:25.408Z","","","","","","","","","","","StressQ","","50","","","","","","","","","","","","","","","","","","","","","","","","","","","","",""
"3283","","<div style=""width:500px;"">
  <p>What best describes how you currently feel?</p>
  </div>","69","html-slider-response","13","212736","0.0-5.0-4.0","140","1","2025-07-23 06:29:54","1f75c3e559b7213887762d5229550c2b","122.133.157.125","Mozilla/5.0 (Macintosh; Intel Mac OS X 10_15_7) AppleWebKit/537.36 (KHTML, like Gecko) Chrome/138.0.0.0 Safari/537.36","Macintosh","Chrome","138.0.0.0","OS X","10_15_7","https://app.prolific.com/","en-US,en;q=0.9","65cb0f21257c8a98f470bb5d","683db9eb0562dbf637994deb","6880815cf78fb7ae9698c820","2","1","65cb0f21257c8a98f470bb5d","2","1","2025-07-23T06:33:28.692Z","","","","","","","","","","","MotivationQ","","50","","","","","","","","","","","","","","","","","","","","","","","","","","","","",""
"","","","","ctl-task-cpt","14","243359","0.0-5.0-0.1","140","1","2025-07-23 06:29:54","1f75c3e559b7213887762d5229550c2b","122.133.157.125","Mozilla/5.0 (Macintosh; Intel Mac OS X 10_15_7) AppleWebKit/537.36 (KHTML, like Gecko) Chrome/138.0.0.0 Safari/537.36","Macintosh","Chrome","138.0.0.0","OS X","10_15_7","https://app.prolific.com/","en-US,en;q=0.9","65cb0f21257c8a98f470bb5d","683db9eb0562dbf637994deb","6880815cf78fb7ae9698c820","2","1","65cb0f21257c8a98f470bb5d","2","1","2025-07-23T06:33:59.315Z","","","","","","","","","","","","","","win-only","0","g1:NW,g2:SE","0.9","2","0","215429.2","1104.1","6107","27617.7","1","4","8","6","2","8","7","10","3","0.07575757575757576","1163.9","3000","1005","[""down"",""right""]","{""num_key_presses"":8,""num_perfect"":6,""num_errors"":1,""num_randdir"":1,""num_randdir_good_moves"":0,""num_whilered"":0,""num_whileblue"":1,""num_blue"":1,""num_good_moves"":7}","[832.6508928571428,821.4477678571428,0.2,832.6508928571428,821.4477678571428,103.5,832.6508928571428,821.4477678571428,208.4,832.6508928571428,821.4477678571428,308.6,832.6508928571428,821.4477678571428,412.2,832.6508928571428,821.4477678571428,518.1,832.6508928571428,821.4477678571428,623.3,1424.650892857143,1195.447767857143,728.1,1592.650892857143,1379.447767857143,828.1,1586.650892857143,1421.447767857143,933.3,1574.650892857143,1483.447767857143,1037.5,1574.650892857143,1483.447767857143,1141.7,1574.650892857143,1483.447767857143,1244.3,1574.650892857143,1483.447767857143,1349,1806.650892857143,1383.447767857143,1453.1,1904.650892857143,1351.447767857143,1553.2,1904.650892857143,1351.447767857143,1653.4,1904.650892857143,1351.447767857143,1757.6,1904.650892857143,1351.447767857143,1861.6,1904.650892857143,1351.447767857143,1962.6,1904.650892857143,1351.447767857143,2062.8,1904.650892857143,1351.447767857143,2167.4,1904.650892857143,1351.447767857143,2272.7,1904.650892857143,1351.447767857143,2376.6,1904.650892857143,1351.447767857143,2476.7,1904.650892857143,1351.447767857143,2577.7,1904.650892857143,1351.447767857143,2682.9,1904.650892857143,1351.447767857143,2783.2,1904.650892857143,1351.447767857143,2883.9,1904.650892857143,1351.447767857143,2988.5,1904.650892857143,1351.447767857143,3088.5,1904.650892857143,1351.447767857143,3188.8,1904.650892857143,1351.447767857143,3293.6,1904.650892857143,1351.447767857143,3397.8,1904.650892857143,1351.447767857143,3498.1,1904.650892857143,1351.447767857143,3601.5,1904.650892857143,1351.447767857143,3703,1904.650892857143,1351.447767857143,3804.5,1904.650892857143,1351.447767857143,3908.2,1904.650892857143,1351.447767857143,4011.7,1904.650892857143,1351.447767857143,4111.7,1904.650892857143,1351.447767857143,4212,1904.650892857143,1351.447767857143,4312,1904.650892857143,1351.447767857143,4412.5,1904.650892857143,1351.447767857143,4516.7,1904.650892857143,1351.447767857143,4618.2,1904.650892857143,1351.447767857143,4718.2,1904.650892857143,1351.447767857143,4822,1904.650892857143,1351.447767857143,4922.2]","[1310.7,1310.7,1000,0,310.7,""smooth"",""right"",""right"",""good_move"",4759.6,3448.7,3156.7,1310.9,292,""smooth"",""down"",""down"",""good_move"",7095.3,2335.6,1990.4,4759.7,345.2,""oops"",""right"",""left"",""bad_move"",10026.6,2930.9,2665,7095.7,265.9,""smooth"",""down"",""down"",""good_move"",12507.1,2480.3,2193.7,10026.8,286.6,""smooth"",""right"",""right"",""good_move"",15688.9,3181.5,2911.8,12507.4,269.8,""smooth"",""down"",""down"",""good_move"",18380.8,2691.6,2428.1,15689.3,263.4,""smooth"",""right"",""right"",""good_move"",21412.3,3031.3,2759.7,18381,271.6,""while_blue"",""right"",""right"",""good_move""]","",""
"4074","","<div style=""width:500px;"">
  <p>What determined the result of this run?</p>
  </div>","72","html-slider-response","15","247435","0.0-5.0-1.1","140","1","2025-07-23 06:29:54","1f75c3e559b7213887762d5229550c2b","122.133.157.125","Mozilla/5.0 (Macintosh; Intel Mac OS X 10_15_7) AppleWebKit/537.36 (KHTML, like Gecko) Chrome/138.0.0.0 Safari/537.36","Macintosh","Chrome","138.0.0.0","OS X","10_15_7","https://app.prolific.com/","en-US,en;q=0.9","65cb0f21257c8a98f470bb5d","683db9eb0562dbf637994deb","6880815cf78fb7ae9698c820","2","1","65cb0f21257c8a98f470bb5d","2","1","2025-07-23T06:34:03.391Z","","","","","","","","","","","AttribQ","","50","","","","","","","","","","","","","","","","","","","","","","","","","","","","",""
"4326","","<div style=""width:500px;"">
  <p>How much control did you have over the ball?</p>
  </div>","69","html-slider-response","16","251761","0.0-5.0-2.1","140","1","2025-07-23 06:29:54","1f75c3e559b7213887762d5229550c2b","122.133.157.125","Mozilla/5.0 (Macintosh; Intel Mac OS X 10_15_7) AppleWebKit/537.36 (KHTML, like Gecko) Chrome/138.0.0.0 Safari/537.36","Macintosh","Chrome","138.0.0.0","OS X","10_15_7","https://app.prolific.com/","en-US,en;q=0.9","65cb0f21257c8a98f470bb5d","683db9eb0562dbf637994deb","6880815cf78fb7ae9698c820","2","1","65cb0f21257c8a98f470bb5d","2","1","2025-07-23T06:34:07.717Z","","","","","","","","","","","ControlQ","","50","","","","","","","","","","","","","","","","","","","","","","","","","","","","",""
"3332","","<div style=""width:500px;"">
  <p>How would you describe your current emotional state?</p>
  </div>","36","html-slider-response","17","255094","0.0-5.0-3.1","140","1","2025-07-23 06:29:54","1f75c3e559b7213887762d5229550c2b","122.133.157.125","Mozilla/5.0 (Macintosh; Intel Mac OS X 10_15_7) AppleWebKit/537.36 (KHTML, like Gecko) Chrome/138.0.0.0 Safari/537.36","Macintosh","Chrome","138.0.0.0","OS X","10_15_7","https://app.prolific.com/","en-US,en;q=0.9","65cb0f21257c8a98f470bb5d","683db9eb0562dbf637994deb","6880815cf78fb7ae9698c820","2","1","65cb0f21257c8a98f470bb5d","2","1","2025-07-23T06:34:11.050Z","","","","","","","","","","","StressQ","","50","","","","","","","","","","","","","","","","","","","","","","","","","","","","",""
"1908","","<div style=""width:500px;"">
  <p>What best describes how you currently feel?</p>
  </div>","70","html-slider-response","18","257002","0.0-5.0-4.1","140","1","2025-07-23 06:29:54","1f75c3e559b7213887762d5229550c2b","122.133.157.125","Mozilla/5.0 (Macintosh; Intel Mac OS X 10_15_7) AppleWebKit/537.36 (KHTML, like Gecko) Chrome/138.0.0.0 Safari/537.36","Macintosh","Chrome","138.0.0.0","OS X","10_15_7","https://app.prolific.com/","en-US,en;q=0.9","65cb0f21257c8a98f470bb5d","683db9eb0562dbf637994deb","6880815cf78fb7ae9698c820","2","1","65cb0f21257c8a98f470bb5d","2","1","2025-07-23T06:34:12.959Z","","","","","","","","","","","MotivationQ","","50","","","","","","","","","","","","","","","","","","","","","","","","","","","","",""
"","","","","ctl-task-cpt","19","280619","0.0-5.0-0.2","140","1","2025-07-23 06:29:54","1f75c3e559b7213887762d5229550c2b","122.133.157.125","Mozilla/5.0 (Macintosh; Intel Mac OS X 10_15_7) AppleWebKit/537.36 (KHTML, like Gecko) Chrome/138.0.0.0 Safari/537.36","Macintosh","Chrome","138.0.0.0","OS X","10_15_7","https://app.prolific.com/","en-US,en;q=0.9","65cb0f21257c8a98f470bb5d","683db9eb0562dbf637994deb","6880815cf78fb7ae9698c820","2","1","65cb0f21257c8a98f470bb5d","2","1","2025-07-23T06:34:36.575Z","","","","","","","","","","","","","","win-only","0","g1:NW,g2:SE","0.8","3","0","259696.4","872.2","5876.4","20606","1","4","8","6","2","8","8","18","10","0.13636363636363635","880.7","3000","1290","[""down"",""right""]","{""num_key_presses"":6,""num_perfect"":6,""num_errors"":0,""num_randdir"":0,""num_randdir_good_moves"":0,""num_whilered"":0,""num_whileblue"":0,""num_blue"":0,""num_good_moves"":6}","[844.6508928571428,813.4477678571428,0.1,844.6508928571428,813.4477678571428,103.2,844.6508928571428,813.4477678571428,203.2,844.6508928571428,813.4477678571428,303.3,846.6508928571428,815.4477678571428,407.9,1322.650892857143,1347.447767857143,507.9,1464.650892857143,1555.447767857143,610,1466.650892857143,1557.447767857143,710.5,1462.650892857143,1553.447767857143,813,1462.650892857143,1553.447767857143,913.3,1462.650892857143,1553.447767857143,1013.9,1478.650892857143,1527.447767857143,1118.3,1900.650892857143,1139.447767857143,1218.3,1960.650892857143,1127.447767857143,1319.7,1960.650892857143,1127.447767857143,1425.1,1960.650892857143,1127.447767857143,1525.1,1960.650892857143,1127.447767857143,1628.5,1960.650892857143,1127.447767857143,1733.5,1960.650892857143,1127.447767857143,1839,1960.650892857143,1127.447767857143,1941.7,1960.650892857143,1127.447767857143,2043,1960.650892857143,1127.447767857143,2145.2,1960.650892857143,1127.447767857143,2248.7,1960.650892857143,1127.447767857143,2348.9,1960.650892857143,1127.447767857143,2454,1960.650892857143,1127.447767857143,2561.9,1960.650892857143,1127.447767857143,2663.3,1960.650892857143,1127.447767857143,2763.9,1960.650892857143,1127.447767857143,2864.2,1960.650892857143,1127.447767857143,2968.8,1960.650892857143,1127.447767857143,3068.8,1960.650892857143,1127.447767857143,3170.2,1960.650892857143,1127.447767857143,3275.1,1960.650892857143,1127.447767857143,3378,1960.650892857143,1127.447767857143,3478.9,1960.650892857143,1127.447767857143,3583.5,1960.650892857143,1127.447767857143,3683.9,1960.650892857143,1127.447767857143,3786.7,1960.650892857143,1127.447767857143,3888.7,1960.650892857143,1127.447767857143,3990.9,1960.650892857143,1127.447767857143,4094,1960.650892857143,1127.447767857143,4194,1960.650892857143,1127.447767857143,4298.9,1960.650892857143,1127.447767857143,4403.8,1960.650892857143,1127.447767857143,4509,1960.650892857143,1127.447767857143,4609.9,1960.650892857143,1127.447767857143,4710,1960.650892857143,1127.447767857143,4813.1,1960.650892857143,1127.447767857143,4913.9]","[1341.5,1341.5,1000,0,341.5,""smooth"",""right"",""right"",""good_move"",3844.4,2502.5,2225.9,1341.9,276.6,""smooth"",""down"",""down"",""good_move"",6261.4,2416.6,2125.1,3844.8,291.5,""smooth"",""right"",""right"",""good_move"",9301.2,3039.7,2782.2,6261.5,257.5,""smooth"",""down"",""down"",""good_move"",12049.7,2748.2,2432.3,9301.5,315.9,""smooth"",""right"",""right"",""good_move"",14638,2588.2,2325,12049.8,263.2,""smooth"",""down"",""down"",""good_move""]","",""
"2209","","<div style=""width:500px;"">
  <p>What determined the result of this run?</p>
  </div>","100","html-slider-response","20","282829","0.0-5.0-1.2","140","1","2025-07-23 06:29:54","1f75c3e559b7213887762d5229550c2b","122.133.157.125","Mozilla/5.0 (Macintosh; Intel Mac OS X 10_15_7) AppleWebKit/537.36 (KHTML, like Gecko) Chrome/138.0.0.0 Safari/537.36","Macintosh","Chrome","138.0.0.0","OS X","10_15_7","https://app.prolific.com/","en-US,en;q=0.9","65cb0f21257c8a98f470bb5d","683db9eb0562dbf637994deb","6880815cf78fb7ae9698c820","2","1","65cb0f21257c8a98f470bb5d","2","1","2025-07-23T06:34:38.785Z","","","","","","","","","","","AttribQ","","50","","","","","","","","","","","","","","","","","","","","","","","","","","","","",""
"2120","","<div style=""width:500px;"">
  <p>How much control did you have over the ball?</p>
  </div>","100","html-slider-response","21","284949","0.0-5.0-2.2","140","1","2025-07-23 06:29:54","1f75c3e559b7213887762d5229550c2b","122.133.157.125","Mozilla/5.0 (Macintosh; Intel Mac OS X 10_15_7) AppleWebKit/537.36 (KHTML, like Gecko) Chrome/138.0.0.0 Safari/537.36","Macintosh","Chrome","138.0.0.0","OS X","10_15_7","https://app.prolific.com/","en-US,en;q=0.9","65cb0f21257c8a98f470bb5d","683db9eb0562dbf637994deb","6880815cf78fb7ae9698c820","2","1","65cb0f21257c8a98f470bb5d","2","1","2025-07-23T06:34:40.906Z","","","","","","","","","","","ControlQ","","50","","","","","","","","","","","","","","","","","","","","","","","","","","","","",""
"2393","","<div style=""width:500px;"">
  <p>How would you describe your current emotional state?</p>
  </div>","32","html-slider-response","22","287343","0.0-5.0-3.2","140","1","2025-07-23 06:29:54","1f75c3e559b7213887762d5229550c2b","122.133.157.125","Mozilla/5.0 (Macintosh; Intel Mac OS X 10_15_7) AppleWebKit/537.36 (KHTML, like Gecko) Chrome/138.0.0.0 Safari/537.36","Macintosh","Chrome","138.0.0.0","OS X","10_15_7","https://app.prolific.com/","en-US,en;q=0.9","65cb0f21257c8a98f470bb5d","683db9eb0562dbf637994deb","6880815cf78fb7ae9698c820","2","1","65cb0f21257c8a98f470bb5d","2","1","2025-07-23T06:34:43.299Z","","","","","","","","","","","StressQ","","50","","","","","","","","","","","","","","","","","","","","","","","","","","","","",""
"1641","","<div style=""width:500px;"">
  <p>What best describes how you currently feel?</p>
  </div>","75","html-slider-response","23","288985","0.0-5.0-4.2","140","1","2025-07-23 06:29:54","1f75c3e559b7213887762d5229550c2b","122.133.157.125","Mozilla/5.0 (Macintosh; Intel Mac OS X 10_15_7) AppleWebKit/537.36 (KHTML, like Gecko) Chrome/138.0.0.0 Safari/537.36","Macintosh","Chrome","138.0.0.0","OS X","10_15_7","https://app.prolific.com/","en-US,en;q=0.9","65cb0f21257c8a98f470bb5d","683db9eb0562dbf637994deb","6880815cf78fb7ae9698c820","2","1","65cb0f21257c8a98f470bb5d","2","1","2025-07-23T06:34:44.941Z","","","","","","","","","","","MotivationQ","","50","","","","","","","","","","","","","","","","","","","","","","","","","","","","",""
"","","","","ctl-task-cpt","24","336509","0.0-5.0-0.3","140","1","2025-07-23 06:29:54","1f75c3e559b7213887762d5229550c2b","122.133.157.125","Mozilla/5.0 (Macintosh; Intel Mac OS X 10_15_7) AppleWebKit/537.36 (KHTML, like Gecko) Chrome/138.0.0.0 Safari/537.36","Macintosh","Chrome","138.0.0.0","OS X","10_15_7","https://app.prolific.com/","en-US,en;q=0.9","65cb0f21257c8a98f470bb5d","683db9eb0562dbf637994deb","6880815cf78fb7ae9698c820","2","1","65cb0f21257c8a98f470bb5d","2","1","2025-07-23T06:35:32.465Z","","","","","","","","","","","","","","win-only","1","g1:NE,g2:SW","0.7","4","0","291678.9","897.2","5900.5","44515.2","1","4","4","6","2","-4","-7","11","18","0.08333333333333333","999","3000","-2945","[""down"",""left""]","{""num_key_presses"":14,""num_perfect"":8,""num_errors"":3,""num_randdir"":3,""num_randdir_good_moves"":0,""num_whilered"":0,""num_whileblue"":1,""num_blue"":1,""num_good_moves"":8}","[826.6508928571428,801.4477678571428,0.2,826.6508928571428,801.4477678571428,101.8,826.6508928571428,801.4477678571428,206.4,826.6508928571428,801.4477678571428,309,826.6508928571428,801.4477678571428,413.5,826.6508928571428,801.4477678571428,514,370.6508928571428,1259.447767857143,618.1,156.65089285714285,1435.447767857143,718.5,154.65089285714285,1443.447767857143,821.5,154.65089285714285,1447.447767857143,923.6,154.65089285714285,1447.447767857143,1023.7,154.65089285714285,1447.447767857143,1129.2,154.65089285714285,1447.447767857143,1229.3,154.65089285714285,1447.447767857143,1333.4,154.65089285714285,1447.447767857143,1435.8,154.65089285714285,1447.447767857143,1538.6,78.65089285714285,1463.447767857143,1638.8,22.65089285714285,1427.447767857143,1743.2,22.65089285714285,1427.447767857143,1843.5,78.65089285714285,1405.447767857143,1944,1780.650892857143,889.4477678571428,2044,2044.650892857143,937.4477678571428,2151.7,2052.650892857143,943.4477678571428,2255.7,1934.650892857143,1047.447767857143,2358.6,1878.650892857143,1089.447767857143,2463.6,1878.650892857143,1089.447767857143,2565.9,1878.650892857143,1089.447767857143,2670.8,1878.650892857143,1089.447767857143,2773,1878.650892857143,1089.447767857143,2873.7,1878.650892857143,1089.447767857143,2978.5,1878.650892857143,1089.447767857143,3078.9,1878.650892857143,1089.447767857143,3178.9,1878.650892857143,1089.447767857143,3285.3,1878.650892857143,1089.447767857143,3388,1878.650892857143,1089.447767857143,3488.6,1878.650892857143,1089.447767857143,3588.8,1878.650892857143,1089.447767857143,3688.9,1878.650892857143,1089.447767857143,3793.6,1878.650892857143,1089.447767857143,3893.6,1878.650892857143,1089.447767857143,3993.6,1878.650892857143,1089.447767857143,4098.7,1878.650892857143,1089.447767857143,4199.1,1878.650892857143,1089.447767857143,4303.4,1878.650892857143,1089.447767857143,4408.9,1878.650892857143,1089.447767857143,4513.1,1878.650892857143,1089.447767857143,4613.3,1878.650892857143,1089.447767857143,4713.7,1878.650892857143,1089.447767857143,4813.8,1878.650892857143,1089.447767857143,4918.5]","[1294.5,1294.6,1000,0,294.6,""smooth"",""left"",""left"",""good_move"",3880,2584.9,2324.7,1295.1,260.2,""smooth"",""down"",""down"",""good_move"",5928.5,2048.3,1758.2,3880.2,290.1,""smooth"",""left"",""left"",""good_move"",8844,2915.4,2675.4,5928.6,240,""smooth"",""down"",""down"",""good_move"",11363.3,2519.3,2260.4,8844,258.9,""oops"",""left"",""right"",""bad_move"",14012.9,2649.3,2349.4,11363.6,299.9,""smooth"",""down"",""down"",""good_move"",16678.4,2665.4,2412.8,14013,252.6,""smooth"",""left"",""left"",""good_move"",19336.7,2658.2,2379.5,16678.5,278.7,""oops"",""left"",""up"",""bad_move"",22193.2,2856.3,2575.9,19336.9,280.4,""smooth"",""left"",""left"",""good_move"",25349.8,3156.4,2915.4,22193.4,241,""oops"",""down"",""up"",""bad_move"",28684.2,3334.2,3094.7,25350,239.5,""smooth"",""down"",""down"",""good_move"",31186.7,2502.4,2835.4,28684.4,-333.1,""error"",""-"",""-"",""no_move"",32520.2,1333.3,2574.7,32190.5,-2245,""error"",""-"",""-"",""no_move"",35831,3310.7,2065.3,33525.4,240.3,""while_blue"",""down"",""right"",""bad_move""]","",""
"4967","","<div style=""width:500px;"">
  <p>What determined the result of this run?</p>
  </div>","60","html-slider-response","25","341477","0.0-5.0-1.3","140","1","2025-07-23 06:29:54","1f75c3e559b7213887762d5229550c2b","122.133.157.125","Mozilla/5.0 (Macintosh; Intel Mac OS X 10_15_7) AppleWebKit/537.36 (KHTML, like Gecko) Chrome/138.0.0.0 Safari/537.36","Macintosh","Chrome","138.0.0.0","OS X","10_15_7","https://app.prolific.com/","en-US,en;q=0.9","65cb0f21257c8a98f470bb5d","683db9eb0562dbf637994deb","6880815cf78fb7ae9698c820","2","1","65cb0f21257c8a98f470bb5d","2","1","2025-07-23T06:35:37.433Z","","","","","","","","","","","AttribQ","","50","","","","","","","","","","","","","","","","","","","","","","","","","","","","",""
"2774","","<div style=""width:500px;"">
  <p>How much control did you have over the ball?</p>
  </div>","43","html-slider-response","26","344251","0.0-5.0-2.3","140","1","2025-07-23 06:29:54","1f75c3e559b7213887762d5229550c2b","122.133.157.125","Mozilla/5.0 (Macintosh; Intel Mac OS X 10_15_7) AppleWebKit/537.36 (KHTML, like Gecko) Chrome/138.0.0.0 Safari/537.36","Macintosh","Chrome","138.0.0.0","OS X","10_15_7","https://app.prolific.com/","en-US,en;q=0.9","65cb0f21257c8a98f470bb5d","683db9eb0562dbf637994deb","6880815cf78fb7ae9698c820","2","1","65cb0f21257c8a98f470bb5d","2","1","2025-07-23T06:35:40.207Z","","","","","","","","","","","ControlQ","","50","","","","","","","","","","","","","","","","","","","","","","","","","","","","",""
"4197","","<div style=""width:500px;"">
  <p>How would you describe your current emotional state?</p>
  </div>","42","html-slider-response","27","348448","0.0-5.0-3.3","140","1","2025-07-23 06:29:54","1f75c3e559b7213887762d5229550c2b","122.133.157.125","Mozilla/5.0 (Macintosh; Intel Mac OS X 10_15_7) AppleWebKit/537.36 (KHTML, like Gecko) Chrome/138.0.0.0 Safari/537.36","Macintosh","Chrome","138.0.0.0","OS X","10_15_7","https://app.prolific.com/","en-US,en;q=0.9","65cb0f21257c8a98f470bb5d","683db9eb0562dbf637994deb","6880815cf78fb7ae9698c820","2","1","65cb0f21257c8a98f470bb5d","2","1","2025-07-23T06:35:44.404Z","","","","","","","","","","","StressQ","","50","","","","","","","","","","","","","","","","","","","","","","","","","","","","",""
"2297","","<div style=""width:500px;"">
  <p>What best describes how you currently feel?</p>
  </div>","72","html-slider-response","28","350746","0.0-5.0-4.3","140","1","2025-07-23 06:29:54","1f75c3e559b7213887762d5229550c2b","122.133.157.125","Mozilla/5.0 (Macintosh; Intel Mac OS X 10_15_7) AppleWebKit/537.36 (KHTML, like Gecko) Chrome/138.0.0.0 Safari/537.36","Macintosh","Chrome","138.0.0.0","OS X","10_15_7","https://app.prolific.com/","en-US,en;q=0.9","65cb0f21257c8a98f470bb5d","683db9eb0562dbf637994deb","6880815cf78fb7ae9698c820","2","1","65cb0f21257c8a98f470bb5d","2","1","2025-07-23T06:35:46.702Z","","","","","","","","","","","MotivationQ","","50","","","","","","","","","","","","","","","","","","","","","","","","","","","","",""
"","","","","ctl-task-cpt","29","397975","0.0-5.0-0.4","140","1","2025-07-23 06:29:54","1f75c3e559b7213887762d5229550c2b","122.133.157.125","Mozilla/5.0 (Macintosh; Intel Mac OS X 10_15_7) AppleWebKit/537.36 (KHTML, like Gecko) Chrome/138.0.0.0 Safari/537.36","Macintosh","Chrome","138.0.0.0","OS X","10_15_7","https://app.prolific.com/","en-US,en;q=0.9","65cb0f21257c8a98f470bb5d","683db9eb0562dbf637994deb","6880815cf78fb7ae9698c820","2","1","65cb0f21257c8a98f470bb5d","2","1","2025-07-23T06:36:33.931Z","","","","","","","","","","","","","","win-only","1","g1:NE,g2:SW","0.6","5","0","353441.6","855","5856.4","44220.9","1","4","8","6","2","8","8","19","11","0.14393939393939395","981.1","3000","220","[""down"",""left""]","{""num_key_presses"":10,""num_perfect"":6,""num_errors"":0,""num_randdir"":4,""num_randdir_good_moves"":2,""num_whilered"":0,""num_whileblue"":0,""num_blue"":3,""num_good_moves"":8}","[826.6508928571428,837.4477678571428,0.1,826.6508928571428,837.4477678571428,104.4,826.6508928571428,837.4477678571428,206.3,826.6508928571428,837.4477678571428,311.2,826.6508928571428,837.4477678571428,415.7,808.6508928571428,871.4477678571428,516.3,342.6508928571428,1425.447767857143,616.8,202.65089285714285,1531.447767857143,718.4,168.65089285714285,1537.447767857143,820.8,168.65089285714285,1537.447767857143,926,168.65089285714285,1537.447767857143,1026.3,168.65089285714285,1537.447767857143,1132.3,348.6508928571428,1473.447767857143,1236.6,1834.650892857143,1231.447767857143,1341.7,1944.650892857143,1229.447767857143,1441.9,1894.650892857143,1227.447767857143,1545.6,1880.650892857143,1219.447767857143,1646.3,1880.650892857143,1219.447767857143,1753.6,1880.650892857143,1219.447767857143,1856.7,1880.650892857143,1219.447767857143,1960.5,1880.650892857143,1219.447767857143,2060.7,1880.650892857143,1219.447767857143,2166,1880.650892857143,1219.447767857143,2270.4,1880.650892857143,1219.447767857143,2370.9,1880.650892857143,1219.447767857143,2472.5,1880.650892857143,1219.447767857143,2576.4,1880.650892857143,1219.447767857143,2676.4,1880.650892857143,1219.447767857143,2781,1880.650892857143,1219.447767857143,2886.1,1880.650892857143,1219.447767857143,2986.1,1880.650892857143,1219.447767857143,3086.1,1880.650892857143,1219.447767857143,3186.2,1880.650892857143,1219.447767857143,3286.5,1880.650892857143,1219.447767857143,3391.4,1880.650892857143,1219.447767857143,3497.6,1880.650892857143,1219.447767857143,3600.4,1880.650892857143,1219.447767857143,3704,1880.650892857143,1219.447767857143,3806,1880.650892857143,1219.447767857143,3906.6,1880.650892857143,1219.447767857143,4010.9,1880.650892857143,1219.447767857143,4110.9,1880.650892857143,1219.447767857143,4211.1,1880.650892857143,1219.447767857143,4311.3,1880.650892857143,1219.447767857143,4411.5,1880.650892857143,1219.447767857143,4511.9,1880.650892857143,1219.447767857143,4618.6,1880.650892857143,1219.447767857143,4720.4,1880.650892857143,1219.447767857143,4821,1880.650892857143,1219.447767857143,4921]","[1310.2,1310.2,1000,0,310.2,""oops"",""left"",""up"",""bad_move"",15945.3,14634.9,3112.6,12502.2,330.5,""smooth"",""left"",""left"",""good_move"",19135.4,3190,2842.6,15945.4,347.4,""smooth"",""down"",""down"",""good_move"",21477.2,2341.6,1992.3,19135.6,349.3,""oops"",""left"",""down"",""good_move"",24416,2938.6,2683.7,21477.4,254.9,""smooth"",""left"",""left"",""good_move"",27350.2,2934,2654.1,24416.2,279.9,""smooth"",""down"",""down"",""good_move"",29547,2196.7,1917.4,27350.3,279.3,""oops"",""left"",""up"",""bad_move"",32357.4,2810.2,2544.9,29547.2,265.3,""smooth"",""down"",""down"",""good_move"",35652.1,3294.5,3033.3,32357.6,261.2,""oops"",""left"",""left"",""good_move"",38262,2609.7,2362.3,35652.3,247.4,""smooth"",""down"",""down"",""good_move""]","",""
"5769","","<div style=""width:500px;"">
  <p>What determined the result of this run?</p>
  </div>","51","html-slider-response","30","403745","0.0-5.0-1.4","140","1","2025-07-23 06:29:54","1f75c3e559b7213887762d5229550c2b","122.133.157.125","Mozilla/5.0 (Macintosh; Intel Mac OS X 10_15_7) AppleWebKit/537.36 (KHTML, like Gecko) Chrome/138.0.0.0 Safari/537.36","Macintosh","Chrome","138.0.0.0","OS X","10_15_7","https://app.prolific.com/","en-US,en;q=0.9","65cb0f21257c8a98f470bb5d","683db9eb0562dbf637994deb","6880815cf78fb7ae9698c820","2","1","65cb0f21257c8a98f470bb5d","2","1","2025-07-23T06:36:39.701Z","","","","","","","","","","","AttribQ","","50","","","","","","","","","","","","","","","","","","","","","","","","","","","","",""
"4642","","<div style=""width:500px;"">
  <p>How much control did you have over the ball?</p>
  </div>","50","html-slider-response","31","408387","0.0-5.0-2.4","140","1","2025-07-23 06:29:54","1f75c3e559b7213887762d5229550c2b","122.133.157.125","Mozilla/5.0 (Macintosh; Intel Mac OS X 10_15_7) AppleWebKit/537.36 (KHTML, like Gecko) Chrome/138.0.0.0 Safari/537.36","Macintosh","Chrome","138.0.0.0","OS X","10_15_7","https://app.prolific.com/","en-US,en;q=0.9","65cb0f21257c8a98f470bb5d","683db9eb0562dbf637994deb","6880815cf78fb7ae9698c820","2","1","65cb0f21257c8a98f470bb5d","2","1","2025-07-23T06:36:44.343Z","","","","","","","","","","","ControlQ","","50","","","","","","","","","","","","","","","","","","","","","","","","","","","","",""
"3567","","<div style=""width:500px;"">
  <p>How would you describe your current emotional state?</p>
  </div>","40","html-slider-response","32","411955","0.0-5.0-3.4","140","1","2025-07-23 06:29:54","1f75c3e559b7213887762d5229550c2b","122.133.157.125","Mozilla/5.0 (Macintosh; Intel Mac OS X 10_15_7) AppleWebKit/537.36 (KHTML, like Gecko) Chrome/138.0.0.0 Safari/537.36","Macintosh","Chrome","138.0.0.0","OS X","10_15_7","https://app.prolific.com/","en-US,en;q=0.9","65cb0f21257c8a98f470bb5d","683db9eb0562dbf637994deb","6880815cf78fb7ae9698c820","2","1","65cb0f21257c8a98f470bb5d","2","1","2025-07-23T06:36:47.911Z","","","","","","","","","","","StressQ","","50","","","","","","","","","","","","","","","","","","","","","","","","","","","","",""
"2677","","<div style=""width:500px;"">
  <p>What best describes how you currently feel?</p>
  </div>","73","html-slider-response","33","414632","0.0-5.0-4.4","140","1","2025-07-23 06:29:54","1f75c3e559b7213887762d5229550c2b","122.133.157.125","Mozilla/5.0 (Macintosh; Intel Mac OS X 10_15_7) AppleWebKit/537.36 (KHTML, like Gecko) Chrome/138.0.0.0 Safari/537.36","Macintosh","Chrome","138.0.0.0","OS X","10_15_7","https://app.prolific.com/","en-US,en;q=0.9","65cb0f21257c8a98f470bb5d","683db9eb0562dbf637994deb","6880815cf78fb7ae9698c820","2","1","65cb0f21257c8a98f470bb5d","2","1","2025-07-23T06:36:50.588Z","","","","","","","","","","","MotivationQ","","50","","","","","","","","","","","","","","","","","","","","","","","","","","","","",""
"","","","","ctl-task-cpt","34","462645","0.0-5.0-0.5","140","1","2025-07-23 06:29:54","1f75c3e559b7213887762d5229550c2b","122.133.157.125","Mozilla/5.0 (Macintosh; Intel Mac OS X 10_15_7) AppleWebKit/537.36 (KHTML, like Gecko) Chrome/138.0.0.0 Safari/537.36","Macintosh","Chrome","138.0.0.0","OS X","10_15_7","https://app.prolific.com/","en-US,en;q=0.9","65cb0f21257c8a98f470bb5d","683db9eb0562dbf637994deb","6880815cf78fb7ae9698c820","2","1","65cb0f21257c8a98f470bb5d","2","1","2025-07-23T06:37:38.601Z","","","","","","","","","","","","","","win-only","1","g1:NE,g2:SW","0.5","6","0","417329.5","848.1","5848.6","45001.4","1","4","4","6","2","-4","-4","15","19","0.11363636363636363","1094.7","3000","-2660","[""down"",""left""]","{""num_key_presses"":13,""num_perfect"":7,""num_errors"":0,""num_randdir"":6,""num_randdir_good_moves"":0,""num_whilered"":0,""num_whileblue"":0,""num_blue"":0,""num_good_moves"":7}","[838.6508928571428,833.4477678571428,0.1,838.6508928571428,833.4477678571428,101.3,838.6508928571428,833.4477678571428,204.1,838.6508928571428,833.4477678571428,308.4,838.6508928571428,833.4477678571428,409.2,838.6508928571428,833.4477678571428,515.7,664.6508928571428,995.4477678571428,620.3,262.6508928571428,1455.447767857143,722.1,200.65089285714285,1525.447767857143,824.7,162.65089285714285,1541.447767857143,928.8,162.65089285714285,1541.447767857143,1028.8,162.65089285714285,1541.447767857143,1130.8,162.65089285714285,1541.447767857143,1233,190.65089285714285,1521.447767857143,1337.2,1710.650892857143,1115.447767857143,1438.9,1812.650892857143,1119.447767857143,1544.3,1882.650892857143,1093.447767857143,1644.3,1920.650892857143,1083.447767857143,1750.5,1920.650892857143,1083.447767857143,1852.6,1920.650892857143,1083.447767857143,1954.2,1920.650892857143,1083.447767857143,2060.1,1920.650892857143,1083.447767857143,2164.5,1920.650892857143,1083.447767857143,2273.3,1920.650892857143,1083.447767857143,2377.6,1920.650892857143,1083.447767857143,2483.4,1920.650892857143,1083.447767857143,2587.3,1920.650892857143,1083.447767857143,2689.7,1920.650892857143,1083.447767857143,2793.5,1920.650892857143,1083.447767857143,2894.5,1920.650892857143,1083.447767857143,3000.5,1920.650892857143,1083.447767857143,3102.8,1920.650892857143,1083.447767857143,3204.4,1920.650892857143,1083.447767857143,3304.8,1920.650892857143,1083.447767857143,3408.9,1920.650892857143,1083.447767857143,3509.1,1920.650892857143,1083.447767857143,3612.5,1920.650892857143,1083.447767857143,3712.8,1920.650892857143,1083.447767857143,3813.1,1920.650892857143,1083.447767857143,3916.3,1920.650892857143,1083.447767857143,4019.5,1920.650892857143,1083.447767857143,4124.1,1920.650892857143,1083.447767857143,4224.3,1920.650892857143,1083.447767857143,4327.5,1920.650892857143,1083.447767857143,4434,1920.650892857143,1083.447767857143,4541.1,1920.650892857143,1083.447767857143,4644.2,1920.650892857143,1083.447767857143,4744.2,1920.650892857143,1083.447767857143,4848.9,1920.650892857143,1083.447767857143,4952.9]","[1354.9,1354.9,1000,0,354.9,""oops"",""left"",""up"",""bad_move"",4677.2,3322,3043.6,1355.2,278.4,""smooth"",""left"",""left"",""good_move"",7399.2,2721.7,2477.6,4677.5,244.2,""smooth"",""down"",""down"",""good_move"",10168.1,2768.6,2460.7,7399.5,307.9,""smooth"",""left"",""left"",""good_move"",13116.5,2948.2,2699.5,10168.4,248.6,""smooth"",""down"",""down"",""good_move"",15943.8,2827.1,2564.1,13116.7,263,""smooth"",""left"",""left"",""good_move"",19188.1,3244.2,3001,15943.9,243.2,""oops"",""down"",""up"",""bad_move"",22481.5,3293.3,3043.7,19188.2,249.6,""oops"",""down"",""up"",""bad_move"",25517.3,3035.7,2738.2,22481.7,297.5,""oops"",""down"",""right"",""bad_move"",28005.5,2487.9,2182.3,25517.6,305.6,""oops"",""down"",""up"",""bad_move"",31134.1,3128.6,2895.2,28005.5,233.4,""smooth"",""down"",""down"",""good_move"",34338,3203.7,2954.1,31134.3,249.6,""oops"",""down"",""right"",""bad_move"",36983,2645,2359.1,34338,285.9,""smooth"",""down"",""down"",""good_move""]","",""
"3342","","<div style=""width:500px;"">
  <p>What determined the result of this run?</p>
  </div>","9","html-slider-response","35","465987","0.0-5.0-1.5","140","1","2025-07-23 06:29:54","1f75c3e559b7213887762d5229550c2b","122.133.157.125","Mozilla/5.0 (Macintosh; Intel Mac OS X 10_15_7) AppleWebKit/537.36 (KHTML, like Gecko) Chrome/138.0.0.0 Safari/537.36","Macintosh","Chrome","138.0.0.0","OS X","10_15_7","https://app.prolific.com/","en-US,en;q=0.9","65cb0f21257c8a98f470bb5d","683db9eb0562dbf637994deb","6880815cf78fb7ae9698c820","2","1","65cb0f21257c8a98f470bb5d","2","1","2025-07-23T06:37:41.944Z","","","","","","","","","","","AttribQ","","50","","","","","","","","","","","","","","","","","","","","","","","","","","","","",""
"2151","","<div style=""width:500px;"">
  <p>How much control did you have over the ball?</p>
  </div>","12","html-slider-response","36","468138","0.0-5.0-2.5","140","1","2025-07-23 06:29:54","1f75c3e559b7213887762d5229550c2b","122.133.157.125","Mozilla/5.0 (Macintosh; Intel Mac OS X 10_15_7) AppleWebKit/537.36 (KHTML, like Gecko) Chrome/138.0.0.0 Safari/537.36","Macintosh","Chrome","138.0.0.0","OS X","10_15_7","https://app.prolific.com/","en-US,en;q=0.9","65cb0f21257c8a98f470bb5d","683db9eb0562dbf637994deb","6880815cf78fb7ae9698c820","2","1","65cb0f21257c8a98f470bb5d","2","1","2025-07-23T06:37:44.094Z","","","","","","","","","","","ControlQ","","50","","","","","","","","","","","","","","","","","","","","","","","","","","","","",""
"3479","","<div style=""width:500px;"">
  <p>How would you describe your current emotional state?</p>
  </div>","32","html-slider-response","37","471617","0.0-5.0-3.5","140","1","2025-07-23 06:29:54","1f75c3e559b7213887762d5229550c2b","122.133.157.125","Mozilla/5.0 (Macintosh; Intel Mac OS X 10_15_7) AppleWebKit/537.36 (KHTML, like Gecko) Chrome/138.0.0.0 Safari/537.36","Macintosh","Chrome","138.0.0.0","OS X","10_15_7","https://app.prolific.com/","en-US,en;q=0.9","65cb0f21257c8a98f470bb5d","683db9eb0562dbf637994deb","6880815cf78fb7ae9698c820","2","1","65cb0f21257c8a98f470bb5d","2","1","2025-07-23T06:37:47.573Z","","","","","","","","","","","StressQ","","50","","","","","","","","","","","","","","","","","","","","","","","","","","","","",""
"1835","","<div style=""width:500px;"">
  <p>What best describes how you currently feel?</p>
  </div>","66","html-slider-response","38","473453","0.0-5.0-4.5","140","1","2025-07-23 06:29:54","1f75c3e559b7213887762d5229550c2b","122.133.157.125","Mozilla/5.0 (Macintosh; Intel Mac OS X 10_15_7) AppleWebKit/537.36 (KHTML, like Gecko) Chrome/138.0.0.0 Safari/537.36","Macintosh","Chrome","138.0.0.0","OS X","10_15_7","https://app.prolific.com/","en-US,en;q=0.9","65cb0f21257c8a98f470bb5d","683db9eb0562dbf637994deb","6880815cf78fb7ae9698c820","2","1","65cb0f21257c8a98f470bb5d","2","1","2025-07-23T06:37:49.409Z","","","","","","","","","","","MotivationQ","","50","","","","","","","","","","","","","","","","","","","","","","","","","","","","",""
"","","","","ctl-task-cpt","39","529751","0.0-5.0-0.6","140","1","2025-07-23 06:29:54","1f75c3e559b7213887762d5229550c2b","122.133.157.125","Mozilla/5.0 (Macintosh; Intel Mac OS X 10_15_7) AppleWebKit/537.36 (KHTML, like Gecko) Chrome/138.0.0.0 Safari/537.36","Macintosh","Chrome","138.0.0.0","OS X","10_15_7","https://app.prolific.com/","en-US,en;q=0.9","65cb0f21257c8a98f470bb5d","683db9eb0562dbf637994deb","6880815cf78fb7ae9698c820","2","1","65cb0f21257c8a98f470bb5d","2","1","2025-07-23T06:38:45.707Z","","","","","","","","","","","","","","win-only","3","g1:SW,g2:NE","0.4","7","0","476151.5","2781.2","7787.5","53290.3","1","4","4","6","2","4","3","18","15","0.13636363636363635","1076.1","3000","110","[""up"",""right""]","{""num_key_presses"":12,""num_perfect"":5,""num_errors"":1,""num_randdir"":6,""num_randdir_good_moves"":4,""num_whilered"":0,""num_whileblue"":1,""num_blue"":5,""num_good_moves"":9}","[820.6508928571428,821.4477678571428,0.1,820.6508928571428,821.4477678571428,104.7,820.6508928571428,821.4477678571428,206.8,820.6508928571428,821.4477678571428,308.6,820.6508928571428,821.4477678571428,411.3,820.6508928571428,821.4477678571428,515.6,1206.650892857143,421.4477678571428,620.3,1402.650892857143,179.44776785714285,728.5,1416.650892857143,185.44776785714285,828.5,1450.650892857143,179.44776785714285,933,1450.650892857143,179.44776785714285,1037.6,1450.650892857143,179.44776785714285,1141.3,1450.650892857143,179.44776785714285,1242.3,1450.650892857143,179.44776785714285,1345.8,1450.650892857143,179.44776785714285,1449.4,1450.650892857143,179.44776785714285,1549.5,1450.650892857143,179.44776785714285,1650.9,1772.650892857143,329.4477678571428,1755.4,1904.650892857143,455.4477678571428,1855.5,1904.650892857143,455.4477678571428,1963.2,1904.650892857143,455.4477678571428,2066.5,1904.650892857143,455.4477678571428,2170,1904.650892857143,455.4477678571428,2270.5,1904.650892857143,455.4477678571428,2375,1904.650892857143,455.4477678571428,2476.8,1904.650892857143,455.4477678571428,2579.2,1904.650892857143,455.4477678571428,2680,1904.650892857143,455.4477678571428,2784.5,1904.650892857143,455.4477678571428,2886.8,1904.650892857143,455.4477678571428,2990.1,1904.650892857143,455.4477678571428,3095.5,1904.650892857143,455.4477678571428,3199.4,1904.650892857143,455.4477678571428,3299.8,1904.650892857143,455.4477678571428,3404.5,1904.650892857143,455.4477678571428,3507.5,1904.650892857143,455.4477678571428,3610.8,1904.650892857143,455.4477678571428,3721.3,1904.650892857143,455.4477678571428,3827.6,1904.650892857143,455.4477678571428,3929.6,1904.650892857143,455.4477678571428,4029.9,1904.650892857143,455.4477678571428,4133.9,1904.650892857143,455.4477678571428,4235.8,1904.650892857143,455.4477678571428,4336.5,1904.650892857143,455.4477678571428,4439.4,1904.650892857143,455.4477678571428,4539.5,1904.650892857143,455.4477678571428,4643,1904.650892857143,455.4477678571428,4746.7,1904.650892857143,455.4477678571428,4852.6,1904.650892857143,455.4477678571428,4955.9]","[1321.5,1321.6,1000,0,321.6,""oops"",""right"",""up"",""good_move"",8295,6973.3,2873,5136.7,285.3,""while_blue"",""right"",""left"",""bad_move"",14620.4,6325.2,2039.3,12278.3,302.8,""oops"",""right"",""right"",""good_move"",17370.3,2749.7,2447.9,14620.6,301.8,""smooth"",""up"",""up"",""good_move"",19725.2,2354.8,2061.3,17370.4,293.5,""oops"",""right"",""right"",""good_move"",21673.6,1948.3,1606.7,19725.3,341.6,""oops"",""up"",""down"",""bad_move"",25132.4,3458.5,3125.8,21673.9,332.7,""smooth"",""right"",""right"",""good_move"",35250,10117.5,2733,32140.4,376.6,""smooth"",""up"",""up"",""good_move"",38190.8,2940.6,2687.3,35250.2,253.3,""oops"",""right"",""right"",""good_move"",40833.1,2642.2,2365.4,38190.9,276.8,""oops"",""up"",""left"",""bad_move"",43121.1,2287.8,1987.4,40833.3,300.4,""smooth"",""right"",""right"",""good_move"",45406.6,2285.3,2022.5,43121.3,262.8,""smooth"",""up"",""up"",""good_move""]","",""
"4809","","<div style=""width:500px;"">
  <p>What determined the result of this run?</p>
  </div>","51","html-slider-response","40","534561","0.0-5.0-1.6","140","1","2025-07-23 06:29:54","1f75c3e559b7213887762d5229550c2b","122.133.157.125","Mozilla/5.0 (Macintosh; Intel Mac OS X 10_15_7) AppleWebKit/537.36 (KHTML, like Gecko) Chrome/138.0.0.0 Safari/537.36","Macintosh","Chrome","138.0.0.0","OS X","10_15_7","https://app.prolific.com/","en-US,en;q=0.9","65cb0f21257c8a98f470bb5d","683db9eb0562dbf637994deb","6880815cf78fb7ae9698c820","2","1","65cb0f21257c8a98f470bb5d","2","1","2025-07-23T06:38:50.517Z","","","","","","","","","","","AttribQ","","50","","","","","","","","","","","","","","","","","","","","","","","","","","","","",""
"2435","","<div style=""width:500px;"">
  <p>How much control did you have over the ball?</p>
  </div>","51","html-slider-response","41","536996","0.0-5.0-2.6","140","1","2025-07-23 06:29:54","1f75c3e559b7213887762d5229550c2b","122.133.157.125","Mozilla/5.0 (Macintosh; Intel Mac OS X 10_15_7) AppleWebKit/537.36 (KHTML, like Gecko) Chrome/138.0.0.0 Safari/537.36","Macintosh","Chrome","138.0.0.0","OS X","10_15_7","https://app.prolific.com/","en-US,en;q=0.9","65cb0f21257c8a98f470bb5d","683db9eb0562dbf637994deb","6880815cf78fb7ae9698c820","2","1","65cb0f21257c8a98f470bb5d","2","1","2025-07-23T06:38:52.952Z","","","","","","","","","","","ControlQ","","50","","","","","","","","","","","","","","","","","","","","","","","","","","","","",""
"1989","","<div style=""width:500px;"">
  <p>How would you describe your current emotional state?</p>
  </div>","42","html-slider-response","42","538986","0.0-5.0-3.6","140","1","2025-07-23 06:29:54","1f75c3e559b7213887762d5229550c2b","122.133.157.125","Mozilla/5.0 (Macintosh; Intel Mac OS X 10_15_7) AppleWebKit/537.36 (KHTML, like Gecko) Chrome/138.0.0.0 Safari/537.36","Macintosh","Chrome","138.0.0.0","OS X","10_15_7","https://app.prolific.com/","en-US,en;q=0.9","65cb0f21257c8a98f470bb5d","683db9eb0562dbf637994deb","6880815cf78fb7ae9698c820","2","1","65cb0f21257c8a98f470bb5d","2","1","2025-07-23T06:38:54.942Z","","","","","","","","","","","StressQ","","50","","","","","","","","","","","","","","","","","","","","","","","","","","","","",""
"3259","","<div style=""width:500px;"">
  <p>What best describes how you currently feel?</p>
  </div>","73","html-slider-response","43","542245","0.0-5.0-4.6","140","1","2025-07-23 06:29:54","1f75c3e559b7213887762d5229550c2b","122.133.157.125","Mozilla/5.0 (Macintosh; Intel Mac OS X 10_15_7) AppleWebKit/537.36 (KHTML, like Gecko) Chrome/138.0.0.0 Safari/537.36","Macintosh","Chrome","138.0.0.0","OS X","10_15_7","https://app.prolific.com/","en-US,en;q=0.9","65cb0f21257c8a98f470bb5d","683db9eb0562dbf637994deb","6880815cf78fb7ae9698c820","2","1","65cb0f21257c8a98f470bb5d","2","1","2025-07-23T06:38:58.201Z","","","","","","","","","","","MotivationQ","","50","","","","","","","","","","","","","","","","","","","","","","","","","","","","",""
"","","","","ctl-task-cpt","44","596412","0.0-5.0-0.7","140","1","2025-07-23 06:29:54","1f75c3e559b7213887762d5229550c2b","122.133.157.125","Mozilla/5.0 (Macintosh; Intel Mac OS X 10_15_7) AppleWebKit/537.36 (KHTML, like Gecko) Chrome/138.0.0.0 Safari/537.36","Macintosh","Chrome","138.0.0.0","OS X","10_15_7","https://app.prolific.com/","en-US,en;q=0.9","65cb0f21257c8a98f470bb5d","683db9eb0562dbf637994deb","6880815cf78fb7ae9698c820","2","1","65cb0f21257c8a98f470bb5d","2","1","2025-07-23T06:39:52.368Z","","","","","","","","","","","","","","win-only","0","g1:NW,g2:SE","0.3","8","0","544945.6","2426.2","7428.5","51159.4","1","4","8","6","2","-8","-9","9","18","0.06818181818181818","1076","3000","-2510","[""down"",""right""]","{""num_key_presses"":11,""num_perfect"":3,""num_errors"":1,""num_randdir"":7,""num_randdir_good_moves"":4,""num_whilered"":0,""num_whileblue"":1,""num_blue"":3,""num_good_moves"":7}","[832.6508928571428,839.4477678571428,0.1,832.6508928571428,839.4477678571428,104.3,832.6508928571428,839.4477678571428,208.2,832.6508928571428,839.4477678571428,312.4,832.6508928571428,839.4477678571428,417.5,1350.650892857143,1327.447767857143,521.1,1856.650892857143,1899.447767857143,623.3,1760.650892857143,1817.447767857143,727.2,1616.650892857143,1649.447767857143,829.2,1612.650892857143,1611.447767857143,930,1612.650892857143,1611.447767857143,1031.4,1612.650892857143,1611.447767857143,1135.8,1612.650892857143,1611.447767857143,1242.1,1612.650892857143,1611.447767857143,1342.9,1612.650892857143,1611.447767857143,1444.6,1612.650892857143,1611.447767857143,1549.3,1612.650892857143,1611.447767857143,1652.9,1612.650892857143,1611.447767857143,1756.3,1612.650892857143,1611.447767857143,1857.2,1612.650892857143,1611.447767857143,1959.5,1612.650892857143,1611.447767857143,2059.8,1612.650892857143,1611.447767857143,2164.8,1612.650892857143,1611.447767857143,2269.4,1612.650892857143,1611.447767857143,2371.4,1612.650892857143,1611.447767857143,2472.6,1612.650892857143,1611.447767857143,2579.1,1612.650892857143,1611.447767857143,2680.1,1612.650892857143,1611.447767857143,2784.9,1612.650892857143,1611.447767857143,2887.3,1612.650892857143,1611.447767857143,2992.3,1612.650892857143,1611.447767857143,3093.3,1612.650892857143,1611.447767857143,3201.5,1612.650892857143,1611.447767857143,3304,1612.650892857143,1611.447767857143,3404.7,1612.650892857143,1611.447767857143,3508.9,1612.650892857143,1611.447767857143,3612.4,1612.650892857143,1611.447767857143,3712.5,1612.650892857143,1611.447767857143,3816.7,1612.650892857143,1611.447767857143,3919.9,1772.650892857143,1517.447767857143,4024.3,1888.650892857143,1457.447767857143,4129.5,1896.650892857143,1453.447767857143,4234.8,1896.650892857143,1453.447767857143,4337.4,1896.650892857143,1453.447767857143,4437.7,1896.650892857143,1453.447767857143,4541.1,1896.650892857143,1453.447767857143,4641.8,1896.650892857143,1453.447767857143,4744.5,1896.650892857143,1453.447767857143,4848,1896.650892857143,1453.447767857143,4952.5]","[5522,5522,3211.2,2012.4,298.4,""oops"",""right"",""left"",""bad_move"",12157.2,6635,2842.4,8954.7,360.1,""oops"",""down"",""down"",""good_move"",15478.3,3320.9,2987.2,12157.4,333.7,""oops"",""right"",""up"",""bad_move"",17931.4,2453,2082.3,15478.4,370.7,""oops"",""down"",""down"",""good_move"",22353.8,4422.3,4173.6,17931.5,248.7,""while_blue"",""right"",""left"",""bad_move"",25091.4,2737.5,2413.3,22353.9,324.2,""oops"",""right"",""down"",""good_move"",27732.8,2641.2,2295.5,25091.6,345.7,""smooth"",""right"",""right"",""good_move"",31619.6,3886.7,3557.5,27732.9,329.2,""smooth"",""right"",""right"",""good_move"",35137,3517.2,3228.1,31619.8,289.1,""smooth"",""right"",""right"",""good_move"",38117.4,2980.3,2679.3,35137.1,301.1,""oops"",""right"",""right"",""good_move"",41084.1,2966.6,2711,38117.5,255.6,""oops"",""right"",""up"",""bad_move""]","",""
"2785","","<div style=""width:500px;"">
  <p>What determined the result of this run?</p>
  </div>","29","html-slider-response","45","599197","0.0-5.0-1.7","140","1","2025-07-23 06:29:54","1f75c3e559b7213887762d5229550c2b","122.133.157.125","Mozilla/5.0 (Macintosh; Intel Mac OS X 10_15_7) AppleWebKit/537.36 (KHTML, like Gecko) Chrome/138.0.0.0 Safari/537.36","Macintosh","Chrome","138.0.0.0","OS X","10_15_7","https://app.prolific.com/","en-US,en;q=0.9","65cb0f21257c8a98f470bb5d","683db9eb0562dbf637994deb","6880815cf78fb7ae9698c820","2","1","65cb0f21257c8a98f470bb5d","2","1","2025-07-23T06:39:55.153Z","","","","","","","","","","","AttribQ","","50","","","","","","","","","","","","","","","","","","","","","","","","","","","","",""
"7360","","<div style=""width:500px;"">
  <p>How much control did you have over the ball?</p>
  </div>","40","html-slider-response","46","606557","0.0-5.0-2.7","140","1","2025-07-23 06:29:54","1f75c3e559b7213887762d5229550c2b","122.133.157.125","Mozilla/5.0 (Macintosh; Intel Mac OS X 10_15_7) AppleWebKit/537.36 (KHTML, like Gecko) Chrome/138.0.0.0 Safari/537.36","Macintosh","Chrome","138.0.0.0","OS X","10_15_7","https://app.prolific.com/","en-US,en;q=0.9","65cb0f21257c8a98f470bb5d","683db9eb0562dbf637994deb","6880815cf78fb7ae9698c820","2","1","65cb0f21257c8a98f470bb5d","2","1","2025-07-23T06:40:02.513Z","","","","","","","","","","","ControlQ","","50","","","","","","","","","","","","","","","","","","","","","","","","","","","","",""
"3340","","<div style=""width:500px;"">
  <p>How would you describe your current emotional state?</p>
  </div>","41","html-slider-response","47","609897","0.0-5.0-3.7","140","1","2025-07-23 06:29:54","1f75c3e559b7213887762d5229550c2b","122.133.157.125","Mozilla/5.0 (Macintosh; Intel Mac OS X 10_15_7) AppleWebKit/537.36 (KHTML, like Gecko) Chrome/138.0.0.0 Safari/537.36","Macintosh","Chrome","138.0.0.0","OS X","10_15_7","https://app.prolific.com/","en-US,en;q=0.9","65cb0f21257c8a98f470bb5d","683db9eb0562dbf637994deb","6880815cf78fb7ae9698c820","2","1","65cb0f21257c8a98f470bb5d","2","1","2025-07-23T06:40:05.853Z","","","","","","","","","","","StressQ","","50","","","","","","","","","","","","","","","","","","","","","","","","","","","","",""
"2532","","<div style=""width:500px;"">
  <p>What best describes how you currently feel?</p>
  </div>","73","html-slider-response","48","612430","0.0-5.0-4.7","140","1","2025-07-23 06:29:54","1f75c3e559b7213887762d5229550c2b","122.133.157.125","Mozilla/5.0 (Macintosh; Intel Mac OS X 10_15_7) AppleWebKit/537.36 (KHTML, like Gecko) Chrome/138.0.0.0 Safari/537.36","Macintosh","Chrome","138.0.0.0","OS X","10_15_7","https://app.prolific.com/","en-US,en;q=0.9","65cb0f21257c8a98f470bb5d","683db9eb0562dbf637994deb","6880815cf78fb7ae9698c820","2","1","65cb0f21257c8a98f470bb5d","2","1","2025-07-23T06:40:08.386Z","","","","","","","","","","","MotivationQ","","50","","","","","","","","","","","","","","","","","","","","","","","","","","","","",""
"","","","","ctl-task-cpt","49","660921","0.0-5.0-0.8","140","1","2025-07-23 06:29:54","1f75c3e559b7213887762d5229550c2b","122.133.157.125","Mozilla/5.0 (Macintosh; Intel Mac OS X 10_15_7) AppleWebKit/537.36 (KHTML, like Gecko) Chrome/138.0.0.0 Safari/537.36","Macintosh","Chrome","138.0.0.0","OS X","10_15_7","https://app.prolific.com/","en-US,en;q=0.9","65cb0f21257c8a98f470bb5d","683db9eb0562dbf637994deb","6880815cf78fb7ae9698c820","2","1","65cb0f21257c8a98f470bb5d","2","1","2025-07-23T06:40:56.877Z","","","","","","","","","","","","","","win-only","0","g1:NW,g2:SE","0.2","9","0","615132.3","982.4","5985.5","45480.5","1","4","8","6","2","8","7","16","9","0.12121212121212122","1013","3000","785","[""down"",""right""]","{""num_key_presses"":10,""num_perfect"":2,""num_errors"":1,""num_randdir"":7,""num_randdir_good_moves"":5,""num_whilered"":0,""num_whileblue"":1,""num_blue"":4,""num_good_moves"":8}","[826.6508928571428,813.4477678571428,0.1,826.6508928571428,813.4477678571428,106.5,826.6508928571428,813.4477678571428,208.2,826.6508928571428,813.4477678571428,312.8,826.6508928571428,813.4477678571428,417.6,830.6508928571428,815.4477678571428,517.8,1428.650892857143,1385.447767857143,618.1,1494.650892857143,1489.447767857143,718.7,1504.650892857143,1501.447767857143,818.7,1510.650892857143,1507.447767857143,920.9,1510.650892857143,1507.447767857143,1026.8,1510.650892857143,1507.447767857143,1128.3,1510.650892857143,1507.447767857143,1231.2,1972.650892857143,1149.447767857143,1331.6,2032.650892857143,1137.447767857143,1437.3,2032.650892857143,1137.447767857143,1543.1,2032.650892857143,1137.447767857143,1643.5,2032.650892857143,1137.447767857143,1746.7,2032.650892857143,1137.447767857143,1850.6,2032.650892857143,1137.447767857143,1953.8,2032.650892857143,1137.447767857143,2057.5,2032.650892857143,1137.447767857143,2159.2,2032.650892857143,1137.447767857143,2261.6,2032.650892857143,1137.447767857143,2363,2032.650892857143,1137.447767857143,2463.5,2032.650892857143,1137.447767857143,2568.1,2032.650892857143,1137.447767857143,2673.6,2032.650892857143,1137.447767857143,2780.3,2032.650892857143,1137.447767857143,2880.9,2032.650892857143,1137.447767857143,2981.3,2032.650892857143,1137.447767857143,3085.1,2032.650892857143,1137.447767857143,3188.7,2032.650892857143,1137.447767857143,3293.6,2032.650892857143,1137.447767857143,3402.9,2032.650892857143,1137.447767857143,3503.8,2032.650892857143,1137.447767857143,3608.7,2032.650892857143,1137.447767857143,3708.7,2032.650892857143,1137.447767857143,3813.9,2032.650892857143,1137.447767857143,3921.8,2032.650892857143,1137.447767857143,4027,2032.650892857143,1137.447767857143,4130.5,2032.650892857143,1137.447767857143,4231.6,2032.650892857143,1137.447767857143,4332.7,2032.650892857143,1137.447767857143,4433.3,2032.650892857143,1137.447767857143,4537.6,2032.650892857143,1137.447767857143,4640.1,2032.650892857143,1137.447767857143,4742.2,2032.650892857143,1137.447767857143,4843.5,2032.650892857143,1137.447767857143,4943.5]","[4893.4,4893.4,2552.1,2011.3,330,""oops"",""right"",""right"",""good_move"",11064.8,6171.2,2802.5,7957.7,304.6,""while_blue"",""down"",""down"",""good_move"",14296.4,3231.4,2891.4,11065,340,""oops"",""right"",""down"",""good_move"",17104.2,2807.8,2497.5,14296.4,310.3,""oops"",""right"",""right"",""good_move"",23762.1,6657.7,2964.9,20493.2,304,""smooth"",""down"",""down"",""good_move"",26619.9,2857.6,2549,23762.3,308.6,""oops"",""right"",""left"",""bad_move"",30004.8,3384.8,3044.4,26620,340.4,""smooth"",""right"",""right"",""good_move"",32956.4,2951.3,2654.8,30005.1,296.5,""oops"",""right"",""left"",""bad_move"",35976.6,3020,2681.8,32956.6,338.2,""oops"",""right"",""right"",""good_move"",39391.2,3414.4,3122.7,35976.8,291.7,""oops"",""right"",""right"",""good_move""]","",""
"4572","","<div style=""width:500px;"">
  <p>What determined the result of this run?</p>
  </div>","49","html-slider-response","50","665493","0.0-5.0-1.8","140","1","2025-07-23 06:29:54","1f75c3e559b7213887762d5229550c2b","122.133.157.125","Mozilla/5.0 (Macintosh; Intel Mac OS X 10_15_7) AppleWebKit/537.36 (KHTML, like Gecko) Chrome/138.0.0.0 Safari/537.36","Macintosh","Chrome","138.0.0.0","OS X","10_15_7","https://app.prolific.com/","en-US,en;q=0.9","65cb0f21257c8a98f470bb5d","683db9eb0562dbf637994deb","6880815cf78fb7ae9698c820","2","1","65cb0f21257c8a98f470bb5d","2","1","2025-07-23T06:41:01.449Z","","","","","","","","","","","AttribQ","","50","","","","","","","","","","","","","","","","","","","","","","","","","","","","",""
"3566","","<div style=""width:500px;"">
  <p>How much control did you have over the ball?</p>
  </div>","50","html-slider-response","51","669059","0.0-5.0-2.8","140","1","2025-07-23 06:29:54","1f75c3e559b7213887762d5229550c2b","122.133.157.125","Mozilla/5.0 (Macintosh; Intel Mac OS X 10_15_7) AppleWebKit/537.36 (KHTML, like Gecko) Chrome/138.0.0.0 Safari/537.36","Macintosh","Chrome","138.0.0.0","OS X","10_15_7","https://app.prolific.com/","en-US,en;q=0.9","65cb0f21257c8a98f470bb5d","683db9eb0562dbf637994deb","6880815cf78fb7ae9698c820","2","1","65cb0f21257c8a98f470bb5d","2","1","2025-07-23T06:41:05.015Z","","","","","","","","","","","ControlQ","","50","","","","","","","","","","","","","","","","","","","","","","","","","","","","",""
"2224","","<div style=""width:500px;"">
  <p>How would you describe your current emotional state?</p>
  </div>","42","html-slider-response","52","671284","0.0-5.0-3.8","140","1","2025-07-23 06:29:54","1f75c3e559b7213887762d5229550c2b","122.133.157.125","Mozilla/5.0 (Macintosh; Intel Mac OS X 10_15_7) AppleWebKit/537.36 (KHTML, like Gecko) Chrome/138.0.0.0 Safari/537.36","Macintosh","Chrome","138.0.0.0","OS X","10_15_7","https://app.prolific.com/","en-US,en;q=0.9","65cb0f21257c8a98f470bb5d","683db9eb0562dbf637994deb","6880815cf78fb7ae9698c820","2","1","65cb0f21257c8a98f470bb5d","2","1","2025-07-23T06:41:07.240Z","","","","","","","","","","","StressQ","","50","","","","","","","","","","","","","","","","","","","","","","","","","","","","",""
"2328","","<div style=""width:500px;"">
  <p>What best describes how you currently feel?</p>
  </div>","70","html-slider-response","53","673612","0.0-5.0-4.8","140","1","2025-07-23 06:29:54","1f75c3e559b7213887762d5229550c2b","122.133.157.125","Mozilla/5.0 (Macintosh; Intel Mac OS X 10_15_7) AppleWebKit/537.36 (KHTML, like Gecko) Chrome/138.0.0.0 Safari/537.36","Macintosh","Chrome","138.0.0.0","OS X","10_15_7","https://app.prolific.com/","en-US,en;q=0.9","65cb0f21257c8a98f470bb5d","683db9eb0562dbf637994deb","6880815cf78fb7ae9698c820","2","1","65cb0f21257c8a98f470bb5d","2","1","2025-07-23T06:41:09.568Z","","","","","","","","","","","MotivationQ","","50","","","","","","","","","","","","","","","","","","","","","","","","","","","","",""
"","","","","ctl-task-cpt","54","722589","0.0-5.0-0.9","140","1","2025-07-23 06:29:54","1f75c3e559b7213887762d5229550c2b","122.133.157.125","Mozilla/5.0 (Macintosh; Intel Mac OS X 10_15_7) AppleWebKit/537.36 (KHTML, like Gecko) Chrome/138.0.0.0 Safari/537.36","Macintosh","Chrome","138.0.0.0","OS X","10_15_7","https://app.prolific.com/","en-US,en;q=0.9","65cb0f21257c8a98f470bb5d","683db9eb0562dbf637994deb","6880815cf78fb7ae9698c820","2","1","65cb0f21257c8a98f470bb5d","2","1","2025-07-23T06:41:58.545Z","","","","","","","","","","","","","","win-only","3","g1:SW,g2:NE","0.4","10","0","676315.6","922.4","5926.1","45945.5","1","4","4","6","2","-4","-7","9","16","0.06818181818181818","1842.8","3000","-2395","[""up"",""right""]","{""num_key_presses"":14,""num_perfect"":5,""num_errors"":3,""num_randdir"":6,""num_randdir_good_moves"":3,""num_whilered"":0,""num_whileblue"":3,""num_blue"":3,""num_good_moves"":9}","[824.6508928571428,817.4477678571428,0,824.6508928571428,817.4477678571428,106.9,824.6508928571428,817.4477678571428,208.3,824.6508928571428,817.4477678571428,313.8,824.6508928571428,817.4477678571428,414.2,824.6508928571428,817.4477678571428,518.7,824.6508928571428,817.4477678571428,621.6,824.6508928571428,817.4477678571428,727.8,1168.650892857143,269.4477678571428,829.1,1504.650892857143,-56.55223214285715,933.9,1586.650892857143,-86.55223214285715,1038.1,1600.650892857143,29.44776785714285,1139.4,1556.650892857143,157.44776785714285,1251.9,1540.650892857143,161.44776785714285,1354.4,1540.650892857143,161.44776785714285,1460.5,1540.650892857143,161.44776785714285,1563.9,1540.650892857143,161.44776785714285,1668.6,1540.650892857143,161.44776785714285,1773.4,1540.650892857143,161.44776785714285,1879,1540.650892857143,161.44776785714285,1979.1,1540.650892857143,161.44776785714285,2082.5,1784.650892857143,357.4477678571428,2183.5,1860.650892857143,463.4477678571428,2283.8,1860.650892857143,463.4477678571428,2389.3,1860.650892857143,463.4477678571428,2493.8,1860.650892857143,463.4477678571428,2601,1860.650892857143,463.4477678571428,2705.7,1860.650892857143,463.4477678571428,2808.1,1860.650892857143,463.4477678571428,2908.2,1860.650892857143,463.4477678571428,3012.2,1860.650892857143,463.4477678571428,3116.5,1860.650892857143,463.4477678571428,3216.7,1860.650892857143,463.4477678571428,3320.8,1860.650892857143,463.4477678571428,3426.4,1860.650892857143,463.4477678571428,3528.2,1860.650892857143,463.4477678571428,3628.7,1860.650892857143,463.4477678571428,3734.9,1860.650892857143,463.4477678571428,3836.1,1860.650892857143,463.4477678571428,3941.3,1860.650892857143,463.4477678571428,4043.4,1860.650892857143,463.4477678571428,4148.5,1860.650892857143,463.4477678571428,4253.7,1860.650892857143,463.4477678571428,4355.5,1860.650892857143,463.4477678571428,4457.7,1860.650892857143,463.4477678571428,4558,1860.650892857143,463.4477678571428,4662.9,1860.650892857143,463.4477678571428,4763.8,1860.650892857143,463.4477678571428,4868.5,1860.650892857143,463.4477678571428,4974.7]","[1372.2,1372.2,1000,0,372.2,""oops"",""right"",""left"",""bad_move"",4150.2,2777.6,2423.1,1372.6,354.5,""smooth"",""up"",""up"",""good_move"",7114,2963.5,2723.2,4150.5,240.3,""while_blue"",""right"",""up"",""good_move"",9784.7,2670.6,2373.9,7114.2,296.6,""while_blue"",""right"",""down"",""bad_move"",11439.7,1654.9,1247.8,9784.8,407.1,""oops"",""right"",""up"",""good_move"",14555.9,3116,2812.2,11439.9,303.8,""oops"",""right"",""left"",""bad_move"",17254.2,2698.1,2431.2,14556.1,266.9,""oops"",""right"",""right"",""good_move"",20300.1,3045.7,2761.2,17254.4,284.5,""oops"",""right"",""up"",""good_move"",22737.5,2437.2,2141.4,20300.3,295.8,""smooth"",""right"",""right"",""good_move"",25488.6,2751,2506.3,22737.6,244.7,""while_blue"",""right"",""down"",""bad_move"",28150.5,2661.7,2344.4,25488.8,317.3,""smooth"",""right"",""right"",""good_move"",31916.9,3766.4,3471.5,28150.6,294.9,""oops"",""right"",""down"",""bad_move"",34687.3,2769.9,2471.5,31917.4,298.4,""smooth"",""right"",""right"",""good_move"",37085.6,2398.1,2065.5,34687.5,332.6,""smooth"",""up"",""up"",""good_move""]","",""
"2462","","<div style=""width:500px;"">
  <p>What determined the result of this run?</p>
  </div>","67","html-slider-response","55","725055","0.0-5.0-1.9","140","1","2025-07-23 06:29:54","1f75c3e559b7213887762d5229550c2b","122.133.157.125","Mozilla/5.0 (Macintosh; Intel Mac OS X 10_15_7) AppleWebKit/537.36 (KHTML, like Gecko) Chrome/138.0.0.0 Safari/537.36","Macintosh","Chrome","138.0.0.0","OS X","10_15_7","https://app.prolific.com/","en-US,en;q=0.9","65cb0f21257c8a98f470bb5d","683db9eb0562dbf637994deb","6880815cf78fb7ae9698c820","2","1","65cb0f21257c8a98f470bb5d","2","1","2025-07-23T06:42:01.011Z","","","","","","","","","","","AttribQ","","50","","","","","","","","","","","","","","","","","","","","","","","","","","","","",""
"1698","","<div style=""width:500px;"">
  <p>How much control did you have over the ball?</p>
  </div>","33","html-slider-response","56","726755","0.0-5.0-2.9","140","1","2025-07-23 06:29:54","1f75c3e559b7213887762d5229550c2b","122.133.157.125","Mozilla/5.0 (Macintosh; Intel Mac OS X 10_15_7) AppleWebKit/537.36 (KHTML, like Gecko) Chrome/138.0.0.0 Safari/537.36","Macintosh","Chrome","138.0.0.0","OS X","10_15_7","https://app.prolific.com/","en-US,en;q=0.9","65cb0f21257c8a98f470bb5d","683db9eb0562dbf637994deb","6880815cf78fb7ae9698c820","2","1","65cb0f21257c8a98f470bb5d","2","1","2025-07-23T06:42:02.711Z","","","","","","","","","","","ControlQ","","50","","","","","","","","","","","","","","","","","","","","","","","","","","","","",""
"2951","","<div style=""width:500px;"">
  <p>How would you describe your current emotional state?</p>
  </div>","47","html-slider-response","57","729710","0.0-5.0-3.9","140","1","2025-07-23 06:29:54","1f75c3e559b7213887762d5229550c2b","122.133.157.125","Mozilla/5.0 (Macintosh; Intel Mac OS X 10_15_7) AppleWebKit/537.36 (KHTML, like Gecko) Chrome/138.0.0.0 Safari/537.36","Macintosh","Chrome","138.0.0.0","OS X","10_15_7","https://app.prolific.com/","en-US,en;q=0.9","65cb0f21257c8a98f470bb5d","683db9eb0562dbf637994deb","6880815cf78fb7ae9698c820","2","1","65cb0f21257c8a98f470bb5d","2","1","2025-07-23T06:42:05.666Z","","","","","","","","","","","StressQ","","50","","","","","","","","","","","","","","","","","","","","","","","","","","","","",""
"2984","","<div style=""width:500px;"">
  <p>What best describes how you currently feel?</p>
  </div>","69","html-slider-response","58","732697","0.0-5.0-4.9","140","1","2025-07-23 06:29:54","1f75c3e559b7213887762d5229550c2b","122.133.157.125","Mozilla/5.0 (Macintosh; Intel Mac OS X 10_15_7) AppleWebKit/537.36 (KHTML, like Gecko) Chrome/138.0.0.0 Safari/537.36","Macintosh","Chrome","138.0.0.0","OS X","10_15_7","https://app.prolific.com/","en-US,en;q=0.9","65cb0f21257c8a98f470bb5d","683db9eb0562dbf637994deb","6880815cf78fb7ae9698c820","2","1","65cb0f21257c8a98f470bb5d","2","1","2025-07-23T06:42:08.653Z","","","","","","","","","","","MotivationQ","","50","","","","","","","","","","","","","","","","","","","","","","","","","","","","",""
"","","","","ctl-task-cpt","59","776746","0.0-5.0-0.10","140","1","2025-07-23 06:29:54","1f75c3e559b7213887762d5229550c2b","122.133.157.125","Mozilla/5.0 (Macintosh; Intel Mac OS X 10_15_7) AppleWebKit/537.36 (KHTML, like Gecko) Chrome/138.0.0.0 Safari/537.36","Macintosh","Chrome","138.0.0.0","OS X","10_15_7","https://app.prolific.com/","en-US,en;q=0.9","65cb0f21257c8a98f470bb5d","683db9eb0562dbf637994deb","6880815cf78fb7ae9698c820","2","1","65cb0f21257c8a98f470bb5d","2","1","2025-07-23T06:42:52.702Z","","","","","","","","","","","","","","win-only","0","g1:NW,g2:SE","0.5","11","0","735368.6","1074.8","6081.7","41030.7","1","4","4","6","2","4","4","13","9","0.09848484848484848","1344.7","3000","45","[""down"",""right""]","{""num_key_presses"":12,""num_perfect"":6,""num_errors"":0,""num_randdir"":6,""num_randdir_good_moves"":3,""num_whilered"":0,""num_whileblue"":0,""num_blue"":1,""num_good_moves"":9}","[824.6508928571428,829.4477678571428,0.1,824.6508928571428,829.4477678571428,100.8,824.6508928571428,829.4477678571428,206.1,824.6508928571428,829.4477678571428,311,824.6508928571428,829.4477678571428,419.5,854.6508928571428,851.4477678571428,521.9,1246.650892857143,1293.447767857143,627.1,1324.650892857143,1443.447767857143,731.3,1368.650892857143,1505.447767857143,831.4,1368.650892857143,1505.447767857143,937.7,1368.650892857143,1505.447767857143,1044.4,1468.650892857143,1515.447767857143,1149.5,1532.650892857143,1535.447767857143,1252.8,1532.650892857143,1535.447767857143,1356.2,1532.650892857143,1535.447767857143,1461.1,1532.650892857143,1535.447767857143,1561.1,1610.650892857143,1467.447767857143,1666.2,1968.650892857143,1247.447767857143,1768.3,1968.650892857143,1247.447767857143,1872.3,1968.650892857143,1247.447767857143,1974.9,1968.650892857143,1247.447767857143,2076,1968.650892857143,1247.447767857143,2176.4,1968.650892857143,1247.447767857143,2280.8,1968.650892857143,1247.447767857143,2386.5,1968.650892857143,1247.447767857143,2493.4,1968.650892857143,1247.447767857143,2599.6,1968.650892857143,1247.447767857143,2701.1,1968.650892857143,1247.447767857143,2806.5,1968.650892857143,1247.447767857143,2910.9,1968.650892857143,1247.447767857143,3014.1,1968.650892857143,1247.447767857143,3117.9,1968.650892857143,1247.447767857143,3224.9,1968.650892857143,1247.447767857143,3325.9,1968.650892857143,1247.447767857143,3426,1968.650892857143,1247.447767857143,3531.4,1968.650892857143,1247.447767857143,3638.5,1968.650892857143,1247.447767857143,3743.2,1968.650892857143,1247.447767857143,3848.1,1968.650892857143,1247.447767857143,3948.6,1968.650892857143,1247.447767857143,4051,1968.650892857143,1247.447767857143,4151.8,1968.650892857143,1247.447767857143,4254.1,1968.650892857143,1247.447767857143,4359.6,1968.650892857143,1247.447767857143,4459.6,1968.650892857143,1247.447767857143,4561.3,1968.650892857143,1247.447767857143,4665.9,1968.650892857143,1247.447767857143,4770.8,1968.650892857143,1247.447767857143,4876.8,1968.650892857143,1247.447767857143,4990.4]","[4779.2,4779.2,2382.2,2009.4,387.6,""smooth"",""right"",""right"",""good_move"",7761.5,2982,2667.1,4779.5,314.9,""smooth"",""down"",""down"",""good_move"",10398.3,2636.5,2324.2,7761.8,312.3,""smooth"",""right"",""right"",""good_move"",13788,3389.6,3071.9,10398.4,317.7,""smooth"",""down"",""down"",""good_move"",16808,3019.9,2587.1,13788.2,432.8,""oops"",""right"",""up"",""bad_move"",19409.9,2601.6,2318.2,16808.3,283.4,""smooth"",""down"",""down"",""good_move"",22557.1,3147,2879.8,19410.1,267.2,""oops"",""right"",""down"",""good_move"",24765.2,2208,1924.1,22557.2,283.9,""oops"",""right"",""left"",""bad_move"",27654.6,2889.2,2626.1,24765.4,263.1,""oops"",""right"",""left"",""bad_move"",29754.8,2100.1,1773.6,27654.7,326.5,""oops"",""right"",""right"",""good_move"",32574.5,2819.5,2575.2,29755,244.3,""oops"",""right"",""right"",""good_move"",34850.9,2276.3,1999.5,32574.7,276.8,""smooth"",""right"",""right"",""good_move""]","",""
"2559","","<div style=""width:500px;"">
  <p>What determined the result of this run?</p>
  </div>","38","html-slider-response","60","779306","0.0-5.0-1.10","140","1","2025-07-23 06:29:54","1f75c3e559b7213887762d5229550c2b","122.133.157.125","Mozilla/5.0 (Macintosh; Intel Mac OS X 10_15_7) AppleWebKit/537.36 (KHTML, like Gecko) Chrome/138.0.0.0 Safari/537.36","Macintosh","Chrome","138.0.0.0","OS X","10_15_7","https://app.prolific.com/","en-US,en;q=0.9","65cb0f21257c8a98f470bb5d","683db9eb0562dbf637994deb","6880815cf78fb7ae9698c820","2","1","65cb0f21257c8a98f470bb5d","2","1","2025-07-23T06:42:55.262Z","","","","","","","","","","","AttribQ","","50","","","","","","","","","","","","","","","","","","","","","","","","","","","","",""
"2304","","<div style=""width:500px;"">
  <p>How much control did you have over the ball?</p>
  </div>","36","html-slider-response","61","781611","0.0-5.0-2.10","140","1","2025-07-23 06:29:54","1f75c3e559b7213887762d5229550c2b","122.133.157.125","Mozilla/5.0 (Macintosh; Intel Mac OS X 10_15_7) AppleWebKit/537.36 (KHTML, like Gecko) Chrome/138.0.0.0 Safari/537.36","Macintosh","Chrome","138.0.0.0","OS X","10_15_7","https://app.prolific.com/","en-US,en;q=0.9","65cb0f21257c8a98f470bb5d","683db9eb0562dbf637994deb","6880815cf78fb7ae9698c820","2","1","65cb0f21257c8a98f470bb5d","2","1","2025-07-23T06:42:57.567Z","","","","","","","","","","","ControlQ","","50","","","","","","","","","","","","","","","","","","","","","","","","","","","","",""
"4173","","<div style=""width:500px;"">
  <p>How would you describe your current emotional state?</p>
  </div>","52","html-slider-response","62","785784","0.0-5.0-3.10","140","1","2025-07-23 06:29:54","1f75c3e559b7213887762d5229550c2b","122.133.157.125","Mozilla/5.0 (Macintosh; Intel Mac OS X 10_15_7) AppleWebKit/537.36 (KHTML, like Gecko) Chrome/138.0.0.0 Safari/537.36","Macintosh","Chrome","138.0.0.0","OS X","10_15_7","https://app.prolific.com/","en-US,en;q=0.9","65cb0f21257c8a98f470bb5d","683db9eb0562dbf637994deb","6880815cf78fb7ae9698c820","2","1","65cb0f21257c8a98f470bb5d","2","1","2025-07-23T06:43:01.740Z","","","","","","","","","","","StressQ","","50","","","","","","","","","","","","","","","","","","","","","","","","","","","","",""
"2038","","<div style=""width:500px;"">
  <p>What best describes how you currently feel?</p>
  </div>","69","html-slider-response","63","787823","0.0-5.0-4.10","140","1","2025-07-23 06:29:54","1f75c3e559b7213887762d5229550c2b","122.133.157.125","Mozilla/5.0 (Macintosh; Intel Mac OS X 10_15_7) AppleWebKit/537.36 (KHTML, like Gecko) Chrome/138.0.0.0 Safari/537.36","Macintosh","Chrome","138.0.0.0","OS X","10_15_7","https://app.prolific.com/","en-US,en;q=0.9","65cb0f21257c8a98f470bb5d","683db9eb0562dbf637994deb","6880815cf78fb7ae9698c820","2","1","65cb0f21257c8a98f470bb5d","2","1","2025-07-23T06:43:03.779Z","","","","","","","","","","","MotivationQ","","50","","","","","","","","","","","","","","","","","","","","","","","","","","","","",""
"","","","","ctl-task-cpt","64","824926","0.0-5.0-0.11","140","1","2025-07-23 06:29:54","1f75c3e559b7213887762d5229550c2b","122.133.157.125","Mozilla/5.0 (Macintosh; Intel Mac OS X 10_15_7) AppleWebKit/537.36 (KHTML, like Gecko) Chrome/138.0.0.0 Safari/537.36","Macintosh","Chrome","138.0.0.0","OS X","10_15_7","https://app.prolific.com/","en-US,en;q=0.9","65cb0f21257c8a98f470bb5d","683db9eb0562dbf637994deb","6880815cf78fb7ae9698c820","2","1","65cb0f21257c8a98f470bb5d","2","1","2025-07-23T06:43:40.882Z","","","","","","","","","","","","","","win-only","3","g1:SW,g2:NE","0.6","12","0","790484.6","792.4","5795.4","34085.4","1","4","8","6","2","8","6","19","13","0.14393939393939395","938.1","3000","1190","[""up"",""right""]","{""num_key_presses"":10,""num_perfect"":5,""num_errors"":2,""num_randdir"":3,""num_randdir_good_moves"":1,""num_whilered"":0,""num_whileblue"":2,""num_blue"":2,""num_good_moves"":8}","[820.6508928571428,831.4477678571428,0.1,820.6508928571428,831.4477678571428,103.8,820.6508928571428,831.4477678571428,208.7,820.6508928571428,831.4477678571428,308.8,820.6508928571428,831.4477678571428,415.7,1244.650892857143,167.44776785714285,524.1,1464.650892857143,41.44776785714285,627.8,1544.650892857143,91.44776785714285,728.1,1578.650892857143,139.44776785714285,828.5,1578.650892857143,139.44776785714285,934.9,1578.650892857143,139.44776785714285,1040.4,1578.650892857143,139.44776785714285,1144.5,1814.650892857143,279.4477678571428,1248.1,1990.650892857143,527.4477678571428,1348.3,1990.650892857143,527.4477678571428,1453,1990.650892857143,527.4477678571428,1561.2,1990.650892857143,527.4477678571428,1664.2,1990.650892857143,527.4477678571428,1770.4,1990.650892857143,527.4477678571428,1871.7,1990.650892857143,527.4477678571428,1973.5,1990.650892857143,527.4477678571428,2073.7,1990.650892857143,527.4477678571428,2179.9,1990.650892857143,527.4477678571428,2289.3,1990.650892857143,527.4477678571428,2395.1,1990.650892857143,527.4477678571428,2498.6,1990.650892857143,527.4477678571428,2603.2,1990.650892857143,527.4477678571428,2703.5,1990.650892857143,527.4477678571428,2803.6,1990.650892857143,527.4477678571428,2912.1,1990.650892857143,527.4477678571428,3015.8,1990.650892857143,527.4477678571428,3118.3,1990.650892857143,527.4477678571428,3219.1,1990.650892857143,527.4477678571428,3323.7,1990.650892857143,527.4477678571428,3428.4,1990.650892857143,527.4477678571428,3537.8,1990.650892857143,527.4477678571428,3642.4,1990.650892857143,527.4477678571428,3743.5,1990.650892857143,527.4477678571428,3848.3,1990.650892857143,527.4477678571428,3949.8,1990.650892857143,527.4477678571428,4056.3,1990.650892857143,527.4477678571428,4165,1990.650892857143,527.4477678571428,4270,1990.650892857143,527.4477678571428,4370,1990.650892857143,527.4477678571428,4473.6,1990.650892857143,527.4477678571428,4578.8,1990.650892857143,527.4477678571428,4687.7,1990.650892857143,527.4477678571428,4790.8,1990.650892857143,527.4477678571428,4892.8,1990.650892857143,527.4477678571428,4993]","[1314.4,1314.4,1000,0,314.4,""oops"",""right"",""left"",""bad_move"",4568.1,3253.6,2957.5,1314.5,296.1,""smooth"",""up"",""up"",""good_move"",7946.1,3377.7,3119.3,4568.4,258.4,""oops"",""right"",""right"",""good_move"",10862.2,2916,2561.4,7946.2,354.6,""smooth"",""up"",""up"",""good_move"",13716.1,2853.8,2583.8,10862.3,270,""smooth"",""right"",""right"",""good_move"",16569,2852.6,2536.5,13716.4,316.1,""oops"",""up"",""down"",""bad_move"",18913.1,2343.8,2064.6,16569.3,279.2,""smooth"",""right"",""right"",""good_move"",21716.5,2803.2,2537.2,18913.3,266,""while_blue"",""up"",""up"",""good_move"",25337.4,3620.6,3353.4,21716.8,267.2,""while_blue"",""right"",""right"",""good_move"",28146.6,2809.1,2409.9,25337.5,399.2,""smooth"",""up"",""up"",""good_move""]","",""
"3630","","<div style=""width:500px;"">
  <p>What determined the result of this run?</p>
  </div>","52","html-slider-response","65","828556","0.0-5.0-1.11","140","1","2025-07-23 06:29:54","1f75c3e559b7213887762d5229550c2b","122.133.157.125","Mozilla/5.0 (Macintosh; Intel Mac OS X 10_15_7) AppleWebKit/537.36 (KHTML, like Gecko) Chrome/138.0.0.0 Safari/537.36","Macintosh","Chrome","138.0.0.0","OS X","10_15_7","https://app.prolific.com/","en-US,en;q=0.9","65cb0f21257c8a98f470bb5d","683db9eb0562dbf637994deb","6880815cf78fb7ae9698c820","2","1","65cb0f21257c8a98f470bb5d","2","1","2025-07-23T06:43:44.512Z","","","","","","","","","","","AttribQ","","50","","","","","","","","","","","","","","","","","","","","","","","","","","","","",""
"5353","","<div style=""width:500px;"">
  <p>How much control did you have over the ball?</p>
  </div>","55","html-slider-response","66","833910","0.0-5.0-2.11","140","1","2025-07-23 06:29:54","1f75c3e559b7213887762d5229550c2b","122.133.157.125","Mozilla/5.0 (Macintosh; Intel Mac OS X 10_15_7) AppleWebKit/537.36 (KHTML, like Gecko) Chrome/138.0.0.0 Safari/537.36","Macintosh","Chrome","138.0.0.0","OS X","10_15_7","https://app.prolific.com/","en-US,en;q=0.9","65cb0f21257c8a98f470bb5d","683db9eb0562dbf637994deb","6880815cf78fb7ae9698c820","2","1","65cb0f21257c8a98f470bb5d","2","1","2025-07-23T06:43:49.866Z","","","","","","","","","","","ControlQ","","50","","","","","","","","","","","","","","","","","","","","","","","","","","","","",""
"4635","","<div style=""width:500px;"">
  <p>How would you describe your current emotional state?</p>
  </div>","45","html-slider-response","67","838545","0.0-5.0-3.11","140","1","2025-07-23 06:29:54","1f75c3e559b7213887762d5229550c2b","122.133.157.125","Mozilla/5.0 (Macintosh; Intel Mac OS X 10_15_7) AppleWebKit/537.36 (KHTML, like Gecko) Chrome/138.0.0.0 Safari/537.36","Macintosh","Chrome","138.0.0.0","OS X","10_15_7","https://app.prolific.com/","en-US,en;q=0.9","65cb0f21257c8a98f470bb5d","683db9eb0562dbf637994deb","6880815cf78fb7ae9698c820","2","1","65cb0f21257c8a98f470bb5d","2","1","2025-07-23T06:43:54.501Z","","","","","","","","","","","StressQ","","50","","","","","","","","","","","","","","","","","","","","","","","","","","","","",""
"2741","","<div style=""width:500px;"">
  <p>What best describes how you currently feel?</p>
  </div>","65","html-slider-response","68","841287","0.0-5.0-4.11","140","1","2025-07-23 06:29:54","1f75c3e559b7213887762d5229550c2b","122.133.157.125","Mozilla/5.0 (Macintosh; Intel Mac OS X 10_15_7) AppleWebKit/537.36 (KHTML, like Gecko) Chrome/138.0.0.0 Safari/537.36","Macintosh","Chrome","138.0.0.0","OS X","10_15_7","https://app.prolific.com/","en-US,en;q=0.9","65cb0f21257c8a98f470bb5d","683db9eb0562dbf637994deb","6880815cf78fb7ae9698c820","2","1","65cb0f21257c8a98f470bb5d","2","1","2025-07-23T06:43:57.243Z","","","","","","","","","","","MotivationQ","","50","","","","","","","","","","","","","","","","","","","","","","","","","","","","",""
"","","","","ctl-task-cpt","69","881966","0.0-5.0-0.12","140","1","2025-07-23 06:29:54","1f75c3e559b7213887762d5229550c2b","122.133.157.125","Mozilla/5.0 (Macintosh; Intel Mac OS X 10_15_7) AppleWebKit/537.36 (KHTML, like Gecko) Chrome/138.0.0.0 Safari/537.36","Macintosh","Chrome","138.0.0.0","OS X","10_15_7","https://app.prolific.com/","en-US,en;q=0.9","65cb0f21257c8a98f470bb5d","683db9eb0562dbf637994deb","6880815cf78fb7ae9698c820","2","1","65cb0f21257c8a98f470bb5d","2","1","2025-07-23T06:44:37.922Z","","","","","","","","","","","","","","win-only","0","g1:NW,g2:SE","0.7","13","0","843948.9","1317","6320.7","37661.8","1","4","4","6","2","4","3","22","19","0.16666666666666666","1042.7","3000","1110","[""down"",""right""]","{""num_key_presses"":8,""num_perfect"":6,""num_errors"":1,""num_randdir"":1,""num_randdir_good_moves"":0,""num_whilered"":0,""num_whileblue"":1,""num_blue"":4,""num_good_moves"":7}","[836.6508928571428,829.4477678571428,0.2,836.6508928571428,829.4477678571428,103.6,836.6508928571428,829.4477678571428,208.4,836.6508928571428,829.4477678571428,312.2,836.6508928571428,829.4477678571428,419.3,836.6508928571428,829.4477678571428,526,1030.650892857143,965.4477678571428,629.2,1560.650892857143,1471.447767857143,733.6,1586.650892857143,1499.447767857143,834.1,1586.650892857143,1499.447767857143,934.7,1586.650892857143,1499.447767857143,1036.8,1586.650892857143,1499.447767857143,1143.7,1586.650892857143,1499.447767857143,1244.2,1688.650892857143,1373.447767857143,1349.1,1834.650892857143,1247.447767857143,1454.5,1844.650892857143,1243.447767857143,1557.3,1844.650892857143,1243.447767857143,1666,1844.650892857143,1243.447767857143,1768.7,1844.650892857143,1243.447767857143,1874.1,1844.650892857143,1243.447767857143,1979.3,1844.650892857143,1243.447767857143,2079.4,1844.650892857143,1243.447767857143,2179.7,1844.650892857143,1243.447767857143,2287.7,1844.650892857143,1243.447767857143,2393.2,1844.650892857143,1243.447767857143,2497.8,1844.650892857143,1243.447767857143,2598.4,1844.650892857143,1243.447767857143,2699.2,1844.650892857143,1243.447767857143,2799.8,1844.650892857143,1243.447767857143,2907.7,1844.650892857143,1243.447767857143,3013.9,1844.650892857143,1243.447767857143,3119.5,1844.650892857143,1243.447767857143,3223.7,1844.650892857143,1243.447767857143,3324.1,1844.650892857143,1243.447767857143,3433.3,1844.650892857143,1243.447767857143,3540.8,1844.650892857143,1243.447767857143,3648.3,1844.650892857143,1243.447767857143,3749.1,1844.650892857143,1243.447767857143,3853.8,1844.650892857143,1243.447767857143,3954.5,1844.650892857143,1243.447767857143,4064.2,1844.650892857143,1243.447767857143,4171.2,1844.650892857143,1243.447767857143,4277.7,1844.650892857143,1243.447767857143,4383.5,1844.650892857143,1243.447767857143,4484,1844.650892857143,1243.447767857143,4588.8,1844.650892857143,1243.447767857143,4690.1,1844.650892857143,1243.447767857143,4799,1844.650892857143,1243.447767857143,4908.3]","[1419.2,1419.2,1000,0,419.2,""smooth"",""right"",""right"",""good_move"",3272,1852.6,1431.3,1419.4,421.3,""oops"",""down"",""left"",""bad_move"",9262,5989.8,2106.4,6794.4,361.2,""smooth"",""right"",""right"",""good_move"",15230.4,5968.2,2421.3,12366.7,442.4,""smooth"",""down"",""down"",""good_move"",17807,2576.5,2240.8,15230.5,335.7,""smooth"",""right"",""right"",""good_move"",21574.2,3766.9,3474.5,17807.4,292.3,""while_blue"",""down"",""down"",""good_move"",28445.3,6870.8,2961.9,25147.1,336.3,""smooth"",""right"",""right"",""good_move"",31172.5,2727.1,2390.7,28445.4,336.4,""smooth"",""down"",""down"",""good_move""]","",""
"2284","","<div style=""width:500px;"">
  <p>What determined the result of this run?</p>
  </div>","74","html-slider-response","70","884251","0.0-5.0-1.12","140","1","2025-07-23 06:29:54","1f75c3e559b7213887762d5229550c2b","122.133.157.125","Mozilla/5.0 (Macintosh; Intel Mac OS X 10_15_7) AppleWebKit/537.36 (KHTML, like Gecko) Chrome/138.0.0.0 Safari/537.36","Macintosh","Chrome","138.0.0.0","OS X","10_15_7","https://app.prolific.com/","en-US,en;q=0.9","65cb0f21257c8a98f470bb5d","683db9eb0562dbf637994deb","6880815cf78fb7ae9698c820","2","1","65cb0f21257c8a98f470bb5d","2","1","2025-07-23T06:44:40.207Z","","","","","","","","","","","AttribQ","","50","","","","","","","","","","","","","","","","","","","","","","","","","","","","",""
"1884","","<div style=""width:500px;"">
  <p>How much control did you have over the ball?</p>
  </div>","76","html-slider-response","71","886135","0.0-5.0-2.12","140","1","2025-07-23 06:29:54","1f75c3e559b7213887762d5229550c2b","122.133.157.125","Mozilla/5.0 (Macintosh; Intel Mac OS X 10_15_7) AppleWebKit/537.36 (KHTML, like Gecko) Chrome/138.0.0.0 Safari/537.36","Macintosh","Chrome","138.0.0.0","OS X","10_15_7","https://app.prolific.com/","en-US,en;q=0.9","65cb0f21257c8a98f470bb5d","683db9eb0562dbf637994deb","6880815cf78fb7ae9698c820","2","1","65cb0f21257c8a98f470bb5d","2","1","2025-07-23T06:44:42.091Z","","","","","","","","","","","ControlQ","","50","","","","","","","","","","","","","","","","","","","","","","","","","","","","",""
"3056","","<div style=""width:500px;"">
  <p>How would you describe your current emotional state?</p>
  </div>","44","html-slider-response","72","889192","0.0-5.0-3.12","140","1","2025-07-23 06:29:54","1f75c3e559b7213887762d5229550c2b","122.133.157.125","Mozilla/5.0 (Macintosh; Intel Mac OS X 10_15_7) AppleWebKit/537.36 (KHTML, like Gecko) Chrome/138.0.0.0 Safari/537.36","Macintosh","Chrome","138.0.0.0","OS X","10_15_7","https://app.prolific.com/","en-US,en;q=0.9","65cb0f21257c8a98f470bb5d","683db9eb0562dbf637994deb","6880815cf78fb7ae9698c820","2","1","65cb0f21257c8a98f470bb5d","2","1","2025-07-23T06:44:45.148Z","","","","","","","","","","","StressQ","","50","","","","","","","","","","","","","","","","","","","","","","","","","","","","",""
"2741","","<div style=""width:500px;"">
  <p>What best describes how you currently feel?</p>
  </div>","70","html-slider-response","73","891933","0.0-5.0-4.12","140","1","2025-07-23 06:29:54","1f75c3e559b7213887762d5229550c2b","122.133.157.125","Mozilla/5.0 (Macintosh; Intel Mac OS X 10_15_7) AppleWebKit/537.36 (KHTML, like Gecko) Chrome/138.0.0.0 Safari/537.36","Macintosh","Chrome","138.0.0.0","OS X","10_15_7","https://app.prolific.com/","en-US,en;q=0.9","65cb0f21257c8a98f470bb5d","683db9eb0562dbf637994deb","6880815cf78fb7ae9698c820","2","1","65cb0f21257c8a98f470bb5d","2","1","2025-07-23T06:44:47.889Z","","","","","","","","","","","MotivationQ","","50","","","","","","","","","","","","","","","","","","","","","","","","","","","","",""
