"rt","response_timestamp","stimulus","response","trial_type","trial_index","time_elapsed","internal_node_id","run_id","condition","recorded_at","source_code_version","ip","user_agent","device","browser","browser_version","platform","platform_version","referer","accept_language","PROLIFIC_PID","STUDY_ID","SESSION_ID","WEEK","prolific_id","week","realtime","success","responses","item_order","radio_event_ids","radio_event_times","key_event_times","mouse_event_times","straightlining","zigzagging","honeypot","eventType","view_history","slider_start","which_type","canvas_config","goals_layout","control_level","trial_number","tutorial_trial_number","trial_start_time","phase1_start_time","phase2_start_time","phase3_start_time","goal_1_value","goal_1_distance","goal_2_value","goal_2_distance","goal_selected","outcome","outcome_total","participant_final_score","participant_initial_score","participant_final_score_prop","goal_choice_rt","allocated_time","allocated_time_remaining","goal_direction","counts","mouse_movements","key_presses","question_order","question_id"
"8233","1752050354691","<p style='font-size:40px;line-height:1.25'><strong>Welcome to the experiment!</strong></p><p style='font-size:1.1em;line-height:1.25'>Thank you for participanting in our experiment again! You will be asked to play the Dysfunctional Ball Game again. We will briefly recap the rules before we start.</p><p style='font-size:1.1em;line-height:1.25'>Press <strong>Next</strong> to continue.</p>","0","custom-html-button-response","0","8238","0.0-0.0","7","1","2025-07-09 08:39:00","01610cd0009c79a99da7d0a3353eb402","41.13.191.151","Mozilla/5.0 (Windows NT 10.0; Win64; x64) AppleWebKit/537.36 (KHTML, like Gecko) Chrome/138.0.0.0 Safari/537.36","WebKit","Chrome","138.0.0.0","Windows","10.0","https://app.prolific.com/","en-US,en;q=0.9,xh;q=0.8","665f239f78bd39782ef04172","683db7602f5db6a34d12d064","686e2a76ca1cc66db849fefd","1","665f239f78bd39782ef04172","1","2025-07-09T08:39:14.693Z","","","","","","","","","","","","","","","","","","","","","","","","","","","","","","","","","","","","","","","","","",""
"6613","","","","fullscreen","1","15866","0.0-1.0","7","1","2025-07-09 08:39:00","01610cd0009c79a99da7d0a3353eb402","41.13.191.151","Mozilla/5.0 (Windows NT 10.0; Win64; x64) AppleWebKit/537.36 (KHTML, like Gecko) Chrome/138.0.0.0 Safari/537.36","WebKit","Chrome","138.0.0.0","Windows","10.0","https://app.prolific.com/","en-US,en;q=0.9,xh;q=0.8","665f239f78bd39782ef04172","683db7602f5db6a34d12d064","686e2a76ca1cc66db849fefd","1","665f239f78bd39782ef04172","1","","true","","","","","","","","","","","","","","","","","","","","","","","","","","","","","","","","","","","","","","","","",""
"46037","1752050408361","<p style='font-size:1.1em;line-height:1.25'>In the following, we will ask you a few questions relating to your feelings in the last 24 hours.<br></p><p style='font-size:1.1em;line-height:1.25'>Press the <strong>Next</strong> button to continue.</p>","0","custom-html-button-response","2","61907","0.0-2.0-0.0","7","1","2025-07-09 08:39:00","01610cd0009c79a99da7d0a3353eb402","41.13.191.151","Mozilla/5.0 (Windows NT 10.0; Win64; x64) AppleWebKit/537.36 (KHTML, like Gecko) Chrome/138.0.0.0 Safari/537.36","WebKit","Chrome","138.0.0.0","Windows","10.0","https://app.prolific.com/","en-US,en;q=0.9,xh;q=0.8","665f239f78bd39782ef04172","683db7602f5db6a34d12d064","686e2a76ca1cc66db849fefd","1","665f239f78bd39782ef04172","1","2025-07-09T08:40:08.362Z","","","","","","","","","","","","","","","","","","","","","","","","","","","","","","","","","","","","","","","","","",""
"131905.09999999404","","","","survey-template","3","193829","0.0-2.0-1.0","7","1","2025-07-09 08:39:00","01610cd0009c79a99da7d0a3353eb402","41.13.191.151","Mozilla/5.0 (Windows NT 10.0; Win64; x64) AppleWebKit/537.36 (KHTML, like Gecko) Chrome/138.0.0.0 Safari/537.36","WebKit","Chrome","138.0.0.0","Windows","10.0","https://app.prolific.com/","en-US,en;q=0.9,xh;q=0.8","665f239f78bd39782ef04172","683db7602f5db6a34d12d064","686e2a76ca1cc66db849fefd","1","665f239f78bd39782ef04172","1","2025-07-09T08:42:20.284Z","","{""Q01"":""2"",""Q02"":""1"",""Q03"":""0"",""Q04"":""2"",""Q05"":""3"",""Q06"":""3"",""Q07"":""3"",""Q08"":""0"",""Q09"":""1"",""Q10"":""1"",""Q11"":""3"",""Q12"":""3"",""Q13"":""5"",""Q14"":""4"",""Q15"":""2"",""Q16"":""2"",""Q17"":""1"",""Q18"":""1"",""Q19"":""2"",""Q20"":""2"",""Q21"":""2"",""Q22"":""1""}","[0,1,2,3,4,5,6,7,8,9,10,11,12,13,14,15,16,17,18,19,20,21]","[""Q01"",""Q02"",""Q03"",""Q04"",""Q05"",""Q06"",""Q07"",""Q08"",""Q09"",""Q10"",""Q10"",""Q11"",""Q12"",""Q13"",""Q14"",""Q15"",""Q16"",""Q17"",""Q18"",""Q19"",""Q20"",""Q21"",""Q22""]","[9363,14088.19999999553,19639,24379.29999999702,28051,34572.09999999404,42342.59999999404,47616.89999999851,51357.89999999851,54474.39999999851,56569.89999999851,60488.79999999702,65929.19999999553,74630.89999999851,78847.5,87422,94350.09999999404,101196.79999999702,103006,110552.19999999553,116960.39999999851,125983.5,130312.39999999851]","[]","[0.3999999985098839,9363,14088.19999999553,19639,24379.29999999702,28051,34572.09999999404,40711.5,42342.59999999404,47616.89999999851,51357.89999999851,54474.39999999851,56569.89999999851,60488.79999999702,65929.19999999553,74630.89999999851,78847.5,87422,94350.09999999404,101196.79999999702,103006,110552.19999999553,116960.39999999851,125983.5,130312.39999999851,131891.69999999553]","0.3181818181818182","0.38095238095238093","0","drsp","","","","","","","","","","","","","","","","","","","","","","","","","","","","","","",""
"19994.60000000149","","","","survey-template","4","213828","0.0-2.0-2.0","7","1","2025-07-09 08:39:00","01610cd0009c79a99da7d0a3353eb402","41.13.191.151","Mozilla/5.0 (Windows NT 10.0; Win64; x64) AppleWebKit/537.36 (KHTML, like Gecko) Chrome/138.0.0.0 Safari/537.36","WebKit","Chrome","138.0.0.0","Windows","10.0","https://app.prolific.com/","en-US,en;q=0.9,xh;q=0.8","665f239f78bd39782ef04172","683db7602f5db6a34d12d064","686e2a76ca1cc66db849fefd","1","665f239f78bd39782ef04172","1","2025-07-09T08:42:40.283Z","","{""Q01"":""2"",""Q02"":""2"",""Q03"":""0""}","[0,1,2]","[""Q01"",""Q01"",""Q02"",""Q03""]","[6643,8480.60000000149,14043.10000000149,18393.80000000447]","[]","[6643,8480.60000000149,12895.5,14043.10000000149,18393.80000000447,19993.39999999851]","0.3333333333333333","0.5","0","stress","","","","","","","","","","","","","","","","","","","","","","","","","","","","","","",""
"74550","","","","instructions","5","288381","0.0-3.0-0.0","7","1","2025-07-09 08:39:00","01610cd0009c79a99da7d0a3353eb402","41.13.191.151","Mozilla/5.0 (Windows NT 10.0; Win64; x64) AppleWebKit/537.36 (KHTML, like Gecko) Chrome/138.0.0.0 Safari/537.36","WebKit","Chrome","138.0.0.0","Windows","10.0","https://app.prolific.com/","en-US,en;q=0.9,xh;q=0.8","665f239f78bd39782ef04172","683db7602f5db6a34d12d064","686e2a76ca1cc66db849fefd","1","665f239f78bd39782ef04172","1","","","","","","","","","","","","","[{""page_index"":0,""viewing_time"":74550}]","","","","","","","","","","","","","","","","","","","","","","","","","","","","","",""
"20214","","<p>Before you start with this game please answer the following three questions yourself. </p>
  <p>Through this game, we measure several aspects of your cognitive performance, such as reaction times, multi-tasking capabilities </p>
  <p>and the ability to assess the situation you are in.</p>
  <p></p>
  <p><b>How good do you usually are in such tasks?</b></p>","83","html-slider-response","6","308607","0.0-4.0-0.0","7","1","2025-07-09 08:39:00","01610cd0009c79a99da7d0a3353eb402","41.13.191.151","Mozilla/5.0 (Windows NT 10.0; Win64; x64) AppleWebKit/537.36 (KHTML, like Gecko) Chrome/138.0.0.0 Safari/537.36","WebKit","Chrome","138.0.0.0","Windows","10.0","https://app.prolific.com/","en-US,en;q=0.9,xh;q=0.8","665f239f78bd39782ef04172","683db7602f5db6a34d12d064","686e2a76ca1cc66db849fefd","1","665f239f78bd39782ef04172","1","2025-07-09T08:44:15.062Z","","","","","","","","","","","PreSkillQ","","50","","","","","","","","","","","","","","","","","","","","","","","","","","","","",""
"7988","","<div style=""width:500px;"">
  <p>How well do you think you will perform in this task compared to other participants?</p>
  </div>","90","html-slider-response","7","316597","0.0-4.0-1.0","7","1","2025-07-09 08:39:00","01610cd0009c79a99da7d0a3353eb402","41.13.191.151","Mozilla/5.0 (Windows NT 10.0; Win64; x64) AppleWebKit/537.36 (KHTML, like Gecko) Chrome/138.0.0.0 Safari/537.36","WebKit","Chrome","138.0.0.0","Windows","10.0","https://app.prolific.com/","en-US,en;q=0.9,xh;q=0.8","665f239f78bd39782ef04172","683db7602f5db6a34d12d064","686e2a76ca1cc66db849fefd","1","665f239f78bd39782ef04172","1","2025-07-09T08:44:23.052Z","","","","","","","","","","","PrePerfQ","","50","","","","","","","","","","","","","","","","","","","","","","","","","","","","",""
"4319","","<div style=""width:500px;"">
  <p>What best describes how you currently feel?</p>
  </div>","100","html-slider-response","8","320918","0.0-4.0-2.0","7","1","2025-07-09 08:39:00","01610cd0009c79a99da7d0a3353eb402","41.13.191.151","Mozilla/5.0 (Windows NT 10.0; Win64; x64) AppleWebKit/537.36 (KHTML, like Gecko) Chrome/138.0.0.0 Safari/537.36","WebKit","Chrome","138.0.0.0","Windows","10.0","https://app.prolific.com/","en-US,en;q=0.9,xh;q=0.8","665f239f78bd39782ef04172","683db7602f5db6a34d12d064","686e2a76ca1cc66db849fefd","1","665f239f78bd39782ef04172","1","2025-07-09T08:44:27.373Z","","","","","","","","","","","PreMotivationQ","","50","","","","","","","","","","","","","","","","","","","","","","","","","","","","",""
"","","","","ctl-task-cpt","9","350544","0.0-5.0-0.0","7","1","2025-07-09 08:39:00","01610cd0009c79a99da7d0a3353eb402","41.13.191.151","Mozilla/5.0 (Windows NT 10.0; Win64; x64) AppleWebKit/537.36 (KHTML, like Gecko) Chrome/138.0.0.0 Safari/537.36","WebKit","Chrome","138.0.0.0","Windows","10.0","https://app.prolific.com/","en-US,en;q=0.9,xh;q=0.8","665f239f78bd39782ef04172","683db7602f5db6a34d12d064","686e2a76ca1cc66db849fefd","1","665f239f78bd39782ef04172","1","2025-07-09T08:44:56.999Z","","","","","","","","","","","","","","win-only","3","g1:SW,g2:NE","1","1","0","325652.1","5129.9","10142.2","26607.3","1","4","4","6","2","4","4","4","0","0.030303030303030304","1484.3","3000","915","[""up"",""right""]","{""num_key_presses"":6,""num_perfect"":6,""num_errors"":0,""num_randdir"":0,""num_randdir_good_moves"":0,""num_whilered"":0,""num_whileblue"":0,""num_blue"":0,""num_good_moves"":6}","[296.22232142857143,295.12857142857143,1.1,296.22232142857143,295.12857142857143,103.1,296.22232142857143,295.12857142857143,205.6,296.22232142857143,295.12857142857143,306.5,296.22232142857143,295.12857142857143,406.6,296.22232142857143,295.12857142857143,507.5,296.22232142857143,295.12857142857143,618.2,296.22232142857143,295.12857142857143,722.3,516.2223214285714,110.12857142857143,825.8,581.2223214285714,50.128571428571426,928.4,593.2223214285714,28.128571428571426,1030.3,583.2223214285714,30.128571428571426,1132.1,569.2223214285714,39.128571428571426,1240.8,558.2223214285714,48.128571428571426,1345.5,558.2223214285714,48.128571428571426,1457.4,558.2223214285714,48.128571428571426,1569.4,558.2223214285714,48.128571428571426,1672.8,558.2223214285714,48.128571428571426,1776.1,558.2223214285714,48.128571428571426,1876.1,558.2223214285714,48.128571428571426,1977,512.2223214285714,95.12857142857143,2091.4,449.22232142857143,166.12857142857143,2198.7,390.22232142857143,221.12857142857143,2307.8,341.22232142857143,268.12857142857143,2408,311.22232142857143,302.12857142857143,2512.6,296.22232142857143,321.12857142857143,2625.1,287.22232142857143,329.12857142857143,2726,282.22232142857143,334.12857142857143,2826.9,276.22232142857143,338.12857142857143,2938.8,276.22232142857143,338.12857142857143,3048.2,276.22232142857143,338.12857142857143,3148.7,278.22232142857143,338.12857142857143,3248.8,293.22232142857143,336.12857142857143,3360,306.22232142857143,337.12857142857143,3461.4,312.22232142857143,340.12857142857143,3568.5,312.22232142857143,340.12857142857143,3668.9,312.22232142857143,340.12857142857143,3769.1,312.22232142857143,340.12857142857143,3869.4,312.22232142857143,340.12857142857143,3975.6,312.22232142857143,340.12857142857143,4076.4,312.22232142857143,340.12857142857143,4177,312.22232142857143,340.12857142857143,4281.1,312.22232142857143,340.12857142857143,4391.5,312.22232142857143,340.12857142857143,4495.8,312.22232142857143,340.12857142857143,4597,312.22232142857143,340.12857142857143,4699.5,312.22232142857143,340.12857142857143,4808.2,312.22232142857143,340.12857142857143,4908.3]","[1546.4,1546.3,1000,0.2,546.3,""smooth"",""right"",""right"",""good_move"",4571,3022.4,2368.6,1548.6,653.8,""smooth"",""right"",""right"",""good_move"",7500.2,2928.1,2382,4572.3,545.9,""smooth"",""right"",""right"",""good_move"",10597.7,3096.5,2648,7501.2,448.5,""smooth"",""up"",""up"",""good_move"",13634.5,3035.2,2543.4,10599.3,491.8,""smooth"",""up"",""up"",""good_move"",16324.8,2688.8,2115.2,13636,573.6,""smooth"",""up"",""up"",""good_move""]","",""
"5903","","<div style=""width:500px;"">
  <p>What determined the result of this run?</p>
  </div>","100","html-slider-response","10","356449","0.0-5.0-1.0","7","1","2025-07-09 08:39:00","01610cd0009c79a99da7d0a3353eb402","41.13.191.151","Mozilla/5.0 (Windows NT 10.0; Win64; x64) AppleWebKit/537.36 (KHTML, like Gecko) Chrome/138.0.0.0 Safari/537.36","WebKit","Chrome","138.0.0.0","Windows","10.0","https://app.prolific.com/","en-US,en;q=0.9,xh;q=0.8","665f239f78bd39782ef04172","683db7602f5db6a34d12d064","686e2a76ca1cc66db849fefd","1","665f239f78bd39782ef04172","1","2025-07-09T08:45:02.904Z","","","","","","","","","","","AttribQ","","50","","","","","","","","","","","","","","","","","","","","","","","","","","","","",""
"4045","","<div style=""width:500px;"">
  <p>How much control did you have over the ball?</p>
  </div>","100","html-slider-response","11","360496","0.0-5.0-2.0","7","1","2025-07-09 08:39:00","01610cd0009c79a99da7d0a3353eb402","41.13.191.151","Mozilla/5.0 (Windows NT 10.0; Win64; x64) AppleWebKit/537.36 (KHTML, like Gecko) Chrome/138.0.0.0 Safari/537.36","WebKit","Chrome","138.0.0.0","Windows","10.0","https://app.prolific.com/","en-US,en;q=0.9,xh;q=0.8","665f239f78bd39782ef04172","683db7602f5db6a34d12d064","686e2a76ca1cc66db849fefd","1","665f239f78bd39782ef04172","1","2025-07-09T08:45:06.951Z","","","","","","","","","","","ControlQ","","50","","","","","","","","","","","","","","","","","","","","","","","","","","","","",""
"5137","","<div style=""width:500px;"">
  <p>How would you describe your current emotional state?</p>
  </div>","0","html-slider-response","12","365638","0.0-5.0-3.0","7","1","2025-07-09 08:39:00","01610cd0009c79a99da7d0a3353eb402","41.13.191.151","Mozilla/5.0 (Windows NT 10.0; Win64; x64) AppleWebKit/537.36 (KHTML, like Gecko) Chrome/138.0.0.0 Safari/537.36","WebKit","Chrome","138.0.0.0","Windows","10.0","https://app.prolific.com/","en-US,en;q=0.9,xh;q=0.8","665f239f78bd39782ef04172","683db7602f5db6a34d12d064","686e2a76ca1cc66db849fefd","1","665f239f78bd39782ef04172","1","2025-07-09T08:45:12.094Z","","","","","","","","","","","StressQ","","50","","","","","","","","","","","","","","","","","","","","","","","","","","","","",""
"6461","","<div style=""width:500px;"">
  <p>What best describes how you currently feel?</p>
  </div>","92","html-slider-response","13","372101","0.0-5.0-4.0","7","1","2025-07-09 08:39:00","01610cd0009c79a99da7d0a3353eb402","41.13.191.151","Mozilla/5.0 (Windows NT 10.0; Win64; x64) AppleWebKit/537.36 (KHTML, like Gecko) Chrome/138.0.0.0 Safari/537.36","WebKit","Chrome","138.0.0.0","Windows","10.0","https://app.prolific.com/","en-US,en;q=0.9,xh;q=0.8","665f239f78bd39782ef04172","683db7602f5db6a34d12d064","686e2a76ca1cc66db849fefd","1","665f239f78bd39782ef04172","1","2025-07-09T08:45:18.556Z","","","","","","","","","","","MotivationQ","","50","","","","","","","","","","","","","","","","","","","","","","","","","","","","",""
"","","","","ctl-task-cpt","14","403024","0.0-5.0-0.1","7","1","2025-07-09 08:39:00","01610cd0009c79a99da7d0a3353eb402","41.13.191.151","Mozilla/5.0 (Windows NT 10.0; Win64; x64) AppleWebKit/537.36 (KHTML, like Gecko) Chrome/138.0.0.0 Safari/537.36","WebKit","Chrome","138.0.0.0","Windows","10.0","https://app.prolific.com/","en-US,en;q=0.9,xh;q=0.8","665f239f78bd39782ef04172","683db7602f5db6a34d12d064","686e2a76ca1cc66db849fefd","1","665f239f78bd39782ef04172","1","2025-07-09T08:45:49.479Z","","","","","","","","","","","","","","win-only","2","g1:SE,g2:NW","0.9","2","0","376827.6","2880.7","7884.9","27913.6","1","4","8","6","2","8","7","11","4","0.08333333333333333","1892.4","3000","875","[""left"",""up""]","{""num_key_presses"":7,""num_perfect"":6,""num_errors"":1,""num_randdir"":0,""num_randdir_good_moves"":0,""num_whilered"":0,""num_whileblue"":0,""num_blue"":0,""num_good_moves"":6}","[299.22232142857143,293.12857142857143,1.5,299.22232142857143,293.12857142857143,100.6,299.22232142857143,293.12857142857143,200.7,299.22232142857143,293.12857142857143,304.9,299.22232142857143,293.12857142857143,416.5,299.22232142857143,293.12857142857143,518.2,299.22232142857143,293.12857142857143,618.2,299.22232142857143,293.12857142857143,733.3,264.22232142857143,283.12857142857143,836.9,60.222321428571426,-46.871428571428574,937,54.222321428571426,-50.871428571428574,1040.5,54.222321428571426,-50.871428571428574,1140.9,54.222321428571426,-50.871428571428574,1241.8,44.222321428571426,-24.871428571428574,1353.2,46.222321428571426,-2.8714285714285737,1455.2,47.222321428571426,16.128571428571426,1556.9,47.222321428571426,42.128571428571426,1662.1,47.222321428571426,55.128571428571426,1767.6,47.222321428571426,55.128571428571426,1867.9,47.222321428571426,55.128571428571426,1968.6,47.222321428571426,55.128571428571426,2070.8,47.222321428571426,55.128571428571426,2171.1,47.222321428571426,55.128571428571426,2271.4,47.222321428571426,55.128571428571426,2383.3,47.222321428571426,55.128571428571426,2486.2,57.222321428571426,60.128571428571426,2591.8,141.22232142857143,90.12857142857143,2692.7,259.22232142857143,150.12857142857143,2803.4,292.22232142857143,174.12857142857143,2910.9,292.22232142857143,174.12857142857143,3020.2,292.22232142857143,174.12857142857143,3133.1,292.22232142857143,174.12857142857143,3234.6,296.22232142857143,184.12857142857143,3341.8,352.22232142857143,305.12857142857143,3453,356.22232142857143,312.12857142857143,3560.9,356.22232142857143,312.12857142857143,3667.3,356.22232142857143,312.12857142857143,3774,356.22232142857143,312.12857142857143,3883,356.22232142857143,312.12857142857143,3983.5,356.22232142857143,312.12857142857143,4089.9,356.22232142857143,312.12857142857143,4191.9,356.22232142857143,312.12857142857143,4302,356.22232142857143,312.12857142857143,4402.1,356.22232142857143,312.12857142857143,4510.6,356.22232142857143,312.12857142857143,4611,356.22232142857143,312.12857142857143,4711,356.22232142857143,312.12857142857143,4818.2,356.22232142857143,312.12857142857143,4920.9]","[550.9,550.9,1000,0.1,-449.1,""error"",""-"",""-"",""no_move"",4667.5,4115.6,2420.9,1557.3,689.3,""smooth"",""left"",""left"",""good_move"",7805.2,3136.7,2440.7,4668.6,696,""smooth"",""left"",""left"",""good_move"",10621.9,2815.7,2333.8,7806.2,481.9,""smooth"",""left"",""left"",""good_move"",13130.9,2508.2,1990.2,10622.7,518,""smooth"",""up"",""up"",""good_move"",16720.6,3588.1,2971.9,13132.6,616.2,""smooth"",""up"",""up"",""good_move"",19887.4,3165.5,2598.8,16721.9,566.8,""smooth"",""up"",""up"",""good_move""]","",""
"5307","","<div style=""width:500px;"">
  <p>What determined the result of this run?</p>
  </div>","100","html-slider-response","15","408333","0.0-5.0-1.1","7","1","2025-07-09 08:39:00","01610cd0009c79a99da7d0a3353eb402","41.13.191.151","Mozilla/5.0 (Windows NT 10.0; Win64; x64) AppleWebKit/537.36 (KHTML, like Gecko) Chrome/138.0.0.0 Safari/537.36","WebKit","Chrome","138.0.0.0","Windows","10.0","https://app.prolific.com/","en-US,en;q=0.9,xh;q=0.8","665f239f78bd39782ef04172","683db7602f5db6a34d12d064","686e2a76ca1cc66db849fefd","1","665f239f78bd39782ef04172","1","2025-07-09T08:45:54.789Z","","","","","","","","","","","AttribQ","","50","","","","","","","","","","","","","","","","","","","","","","","","","","","","",""
"4542","","<div style=""width:500px;"">
  <p>How much control did you have over the ball?</p>
  </div>","100","html-slider-response","16","412879","0.0-5.0-2.1","7","1","2025-07-09 08:39:00","01610cd0009c79a99da7d0a3353eb402","41.13.191.151","Mozilla/5.0 (Windows NT 10.0; Win64; x64) AppleWebKit/537.36 (KHTML, like Gecko) Chrome/138.0.0.0 Safari/537.36","WebKit","Chrome","138.0.0.0","Windows","10.0","https://app.prolific.com/","en-US,en;q=0.9,xh;q=0.8","665f239f78bd39782ef04172","683db7602f5db6a34d12d064","686e2a76ca1cc66db849fefd","1","665f239f78bd39782ef04172","1","2025-07-09T08:45:59.334Z","","","","","","","","","","","ControlQ","","50","","","","","","","","","","","","","","","","","","","","","","","","","","","","",""
"4289","","<div style=""width:500px;"">
  <p>How would you describe your current emotional state?</p>
  </div>","0","html-slider-response","17","417170","0.0-5.0-3.1","7","1","2025-07-09 08:39:00","01610cd0009c79a99da7d0a3353eb402","41.13.191.151","Mozilla/5.0 (Windows NT 10.0; Win64; x64) AppleWebKit/537.36 (KHTML, like Gecko) Chrome/138.0.0.0 Safari/537.36","WebKit","Chrome","138.0.0.0","Windows","10.0","https://app.prolific.com/","en-US,en;q=0.9,xh;q=0.8","665f239f78bd39782ef04172","683db7602f5db6a34d12d064","686e2a76ca1cc66db849fefd","1","665f239f78bd39782ef04172","1","2025-07-09T08:46:03.625Z","","","","","","","","","","","StressQ","","50","","","","","","","","","","","","","","","","","","","","","","","","","","","","",""
"3879","","<div style=""width:500px;"">
  <p>What best describes how you currently feel?</p>
  </div>","92","html-slider-response","18","421051","0.0-5.0-4.1","7","1","2025-07-09 08:39:00","01610cd0009c79a99da7d0a3353eb402","41.13.191.151","Mozilla/5.0 (Windows NT 10.0; Win64; x64) AppleWebKit/537.36 (KHTML, like Gecko) Chrome/138.0.0.0 Safari/537.36","WebKit","Chrome","138.0.0.0","Windows","10.0","https://app.prolific.com/","en-US,en;q=0.9,xh;q=0.8","665f239f78bd39782ef04172","683db7602f5db6a34d12d064","686e2a76ca1cc66db849fefd","1","665f239f78bd39782ef04172","1","2025-07-09T08:46:07.507Z","","","","","","","","","","","MotivationQ","","50","","","","","","","","","","","","","","","","","","","","","","","","","","","","",""
"","","","","ctl-task-cpt","19","454813","0.0-5.0-0.2","7","1","2025-07-09 08:39:00","01610cd0009c79a99da7d0a3353eb402","41.13.191.151","Mozilla/5.0 (Windows NT 10.0; Win64; x64) AppleWebKit/537.36 (KHTML, like Gecko) Chrome/138.0.0.0 Safari/537.36","WebKit","Chrome","138.0.0.0","Windows","10.0","https://app.prolific.com/","en-US,en;q=0.9,xh;q=0.8","665f239f78bd39782ef04172","683db7602f5db6a34d12d064","686e2a76ca1cc66db849fefd","1","665f239f78bd39782ef04172","1","2025-07-09T08:46:41.268Z","","","","","","","","","","","","","","win-only","0","g1:NW,g2:SE","0.8","3","0","425780.5","3098.1","8109.1","30749.2","1","4","4","6","2","-4","-4","7","11","0.05303030303030303","1674.2","3000","-2350","[""down"",""right""]","{""num_key_presses"":5,""num_perfect"":3,""num_errors"":0,""num_randdir"":2,""num_randdir_good_moves"":0,""num_whilered"":0,""num_whileblue"":0,""num_blue"":2,""num_good_moves"":3}","[301.22232142857143,297.12857142857143,1.1,301.22232142857143,297.12857142857143,110,301.22232142857143,297.12857142857143,216.3,301.22232142857143,297.12857142857143,323.2,301.22232142857143,297.12857142857143,430.7,301.22232142857143,297.12857142857143,531.9,301.22232142857143,297.12857142857143,632.4,301.22232142857143,297.12857142857143,738.9,333.22232142857143,322.12857142857143,848.8,488.22232142857143,450.12857142857143,948.8,551.2223214285714,532.1285714285714,1054.3,562.2223214285714,552.1285714285714,1160.4,561.2223214285714,552.1285714285714,1268,547.2223214285714,538.1285714285714,1372,545.2223214285714,529.1285714285714,1472.5,545.2223214285714,529.1285714285714,1580.8,545.2223214285714,529.1285714285714,1687.5,545.2223214285714,529.1285714285714,1790.4,545.2223214285714,529.1285714285714,1890.4,545.2223214285714,529.1285714285714,1998.6,545.2223214285714,529.1285714285714,2102.4,545.2223214285714,529.1285714285714,2209.8,545.2223214285714,529.1285714285714,2314.6,433.22232142857143,585.1285714285714,2421,373.22232142857143,624.1285714285714,2526.8,317.22232142857143,660.1285714285714,2633.6,315.22232142857143,662.1285714285714,2741.1,315.22232142857143,662.1285714285714,2841.1,315.22232142857143,662.1285714285714,2945.8,315.22232142857143,662.1285714285714,3047.7,315.22232142857143,662.1285714285714,3153,315.22232142857143,662.1285714285714,3255.9,315.22232142857143,662.1285714285714,3363.5,315.22232142857143,662.1285714285714,3467.6,315.22232142857143,662.1285714285714,3573.1,315.22232142857143,662.1285714285714,3675.4,315.22232142857143,662.1285714285714,3782.9,315.22232142857143,662.1285714285714,3883.2,315.22232142857143,662.1285714285714,3984.2,315.22232142857143,662.1285714285714,4091.4,315.22232142857143,662.1285714285714,4197.5,315.22232142857143,662.1285714285714,4299.7,315.22232142857143,662.1285714285714,4402.9,315.22232142857143,662.1285714285714,4505.8,315.22232142857143,662.1285714285714,4610.7,315.22232142857143,662.1285714285714,4721.9,315.22232142857143,662.1285714285714,4823.6,315.22232142857143,662.1285714285714,4929.1]","[1718.3,1718.3,1000,0,718.3,""oops"",""down"",""up"",""bad_move"",4596,2875.6,1902.4,1720.4,973.2,""oops"",""up"",""up"",""bad_move"",10981.3,6384.5,2320.9,8152.4,508,""smooth"",""down"",""down"",""good_move"",14406.9,3424.9,2892.8,10982,532.1,""smooth"",""down"",""down"",""good_move"",19790,5378.5,2535.9,16840.8,413.4,""smooth"",""down"",""down"",""good_move""]","",""
"5464","","<div style=""width:500px;"">
  <p>What determined the result of this run?</p>
  </div>","87","html-slider-response","20","460279","0.0-5.0-1.2","7","1","2025-07-09 08:39:00","01610cd0009c79a99da7d0a3353eb402","41.13.191.151","Mozilla/5.0 (Windows NT 10.0; Win64; x64) AppleWebKit/537.36 (KHTML, like Gecko) Chrome/138.0.0.0 Safari/537.36","WebKit","Chrome","138.0.0.0","Windows","10.0","https://app.prolific.com/","en-US,en;q=0.9,xh;q=0.8","665f239f78bd39782ef04172","683db7602f5db6a34d12d064","686e2a76ca1cc66db849fefd","1","665f239f78bd39782ef04172","1","2025-07-09T08:46:46.734Z","","","","","","","","","","","AttribQ","","50","","","","","","","","","","","","","","","","","","","","","","","","","","","","",""
"3928","","<div style=""width:500px;"">
  <p>How much control did you have over the ball?</p>
  </div>","0","html-slider-response","21","464209","0.0-5.0-2.2","7","1","2025-07-09 08:39:00","01610cd0009c79a99da7d0a3353eb402","41.13.191.151","Mozilla/5.0 (Windows NT 10.0; Win64; x64) AppleWebKit/537.36 (KHTML, like Gecko) Chrome/138.0.0.0 Safari/537.36","WebKit","Chrome","138.0.0.0","Windows","10.0","https://app.prolific.com/","en-US,en;q=0.9,xh;q=0.8","665f239f78bd39782ef04172","683db7602f5db6a34d12d064","686e2a76ca1cc66db849fefd","1","665f239f78bd39782ef04172","1","2025-07-09T08:46:50.664Z","","","","","","","","","","","ControlQ","","50","","","","","","","","","","","","","","","","","","","","","","","","","","","","",""
"5370","","<div style=""width:500px;"">
  <p>How would you describe your current emotional state?</p>
  </div>","26","html-slider-response","22","469581","0.0-5.0-3.2","7","1","2025-07-09 08:39:00","01610cd0009c79a99da7d0a3353eb402","41.13.191.151","Mozilla/5.0 (Windows NT 10.0; Win64; x64) AppleWebKit/537.36 (KHTML, like Gecko) Chrome/138.0.0.0 Safari/537.36","WebKit","Chrome","138.0.0.0","Windows","10.0","https://app.prolific.com/","en-US,en;q=0.9,xh;q=0.8","665f239f78bd39782ef04172","683db7602f5db6a34d12d064","686e2a76ca1cc66db849fefd","1","665f239f78bd39782ef04172","1","2025-07-09T08:46:56.036Z","","","","","","","","","","","StressQ","","50","","","","","","","","","","","","","","","","","","","","","","","","","","","","",""
"4964","","<div style=""width:500px;"">
  <p>What best describes how you currently feel?</p>
  </div>","65","html-slider-response","23","474547","0.0-5.0-4.2","7","1","2025-07-09 08:39:00","01610cd0009c79a99da7d0a3353eb402","41.13.191.151","Mozilla/5.0 (Windows NT 10.0; Win64; x64) AppleWebKit/537.36 (KHTML, like Gecko) Chrome/138.0.0.0 Safari/537.36","WebKit","Chrome","138.0.0.0","Windows","10.0","https://app.prolific.com/","en-US,en;q=0.9,xh;q=0.8","665f239f78bd39782ef04172","683db7602f5db6a34d12d064","686e2a76ca1cc66db849fefd","1","665f239f78bd39782ef04172","1","2025-07-09T08:47:01.003Z","","","","","","","","","","","MotivationQ","","50","","","","","","","","","","","","","","","","","","","","","","","","","","","","",""
"","","","","ctl-task-cpt","24","513475","0.0-5.0-0.3","7","1","2025-07-09 08:39:00","01610cd0009c79a99da7d0a3353eb402","41.13.191.151","Mozilla/5.0 (Windows NT 10.0; Win64; x64) AppleWebKit/537.36 (KHTML, like Gecko) Chrome/138.0.0.0 Safari/537.36","WebKit","Chrome","138.0.0.0","Windows","10.0","https://app.prolific.com/","en-US,en;q=0.9,xh;q=0.8","665f239f78bd39782ef04172","683db7602f5db6a34d12d064","686e2a76ca1cc66db849fefd","1","665f239f78bd39782ef04172","1","2025-07-09T08:47:39.930Z","","","","","","","","","","","","","","win-only","2","g1:SE,g2:NW","0.7","4","0","479277.9","1717","6721.5","35907.7","1","4","8","6","2","8","8","15","7","0.11363636363636363","1629.3","3000","225","[""left"",""up""]","{""num_key_presses"":10,""num_perfect"":7,""num_errors"":0,""num_randdir"":3,""num_randdir_good_moves"":2,""num_whilered"":0,""num_whileblue"":0,""num_blue"":0,""num_good_moves"":8}","[297.22232142857143,292.12857142857143,2,297.22232142857143,292.12857142857143,104.7,297.22232142857143,292.12857142857143,205.3,297.22232142857143,292.12857142857143,310.8,297.22232142857143,292.12857142857143,412.2,297.22232142857143,292.12857142857143,527.5,297.22232142857143,292.12857142857143,633.9,297.22232142857143,292.12857142857143,735.5,43.222321428571426,70.12857142857143,835.6,12.222321428571426,37.128571428571426,935.7,12.222321428571426,37.128571428571426,1046.1,12.222321428571426,37.128571428571426,1150.1,16.222321428571426,40.128571428571426,1255.8,55.222321428571426,53.128571428571426,1357.3,58.222321428571426,52.128571428571426,1458.8,58.222321428571426,52.128571428571426,1563,58.222321428571426,52.128571428571426,1669.1,58.222321428571426,52.128571428571426,1775.9,58.222321428571426,52.128571428571426,1886.1,58.222321428571426,52.128571428571426,1990.3,58.222321428571426,52.128571428571426,2096,58.222321428571426,52.128571428571426,2203.3,58.222321428571426,52.128571428571426,2303.8,70.22232142857143,82.12857142857143,2407.9,67.22232142857143,138.12857142857143,2511.9,12.222321428571426,214.12857142857143,2622.2,-74.77767857142857,286.12857142857143,2725.8,-130.77767857142857,343.12857142857143,2826.3,-141.77767857142857,365.12857142857143,2937.2,-141.77767857142857,365.12857142857143,3049.9,-141.77767857142857,365.12857142857143,3153,-141.77767857142857,365.12857142857143,3253.7,-141.77767857142857,365.12857142857143,3356.4,-141.77767857142857,365.12857142857143,3456.9,-141.77767857142857,365.12857142857143,3561.9,-141.77767857142857,365.12857142857143,3668.3,-141.77767857142857,365.12857142857143,3773.1,-141.77767857142857,365.12857142857143,3883.9,-141.77767857142857,365.12857142857143,3987.9,-141.77767857142857,365.12857142857143,4104.7,-141.77767857142857,365.12857142857143,4208.7,-141.77767857142857,365.12857142857143,4309.5,-141.77767857142857,365.12857142857143,4414.2,-141.77767857142857,365.12857142857143,4522,-141.77767857142857,365.12857142857143,4627.6,-141.77767857142857,365.12857142857143,4729.3,-141.77767857142857,365.12857142857143,4831.4,-141.77767857142857,365.12857142857143,4935.4]","[1572.7,1572.7,1000,0,572.8,""smooth"",""left"",""left"",""good_move"",4928.6,3354.5,2868.4,1574.1,486.1,""smooth"",""left"",""left"",""good_move"",7716.7,2786.4,2245,4930.3,541.4,""smooth"",""left"",""left"",""good_move"",10491.6,2773.8,2259.8,7717.8,514,""oops"",""up"",""down"",""bad_move"",13603.4,3108.2,2649,10495.2,459.2,""smooth"",""down"",""down"",""bad_move"",16157.1,2553,1976.5,13604.1,576.5,""smooth"",""up"",""up"",""good_move"",18930.2,2772,2385.9,16158.2,386.1,""smooth"",""up"",""up"",""good_move"",22549.7,3618.2,3188.3,18931.5,429.9,""oops"",""up"",""up"",""good_move"",25492.6,2941.8,2548.7,22550.8,393.1,""smooth"",""up"",""up"",""good_move"",29015.7,3517.5,3047.4,25498.4,470,""oops"",""up"",""up"",""good_move""]","",""
"5810","","<div style=""width:500px;"">
  <p>What determined the result of this run?</p>
  </div>","100","html-slider-response","25","519287","0.0-5.0-1.3","7","1","2025-07-09 08:39:00","01610cd0009c79a99da7d0a3353eb402","41.13.191.151","Mozilla/5.0 (Windows NT 10.0; Win64; x64) AppleWebKit/537.36 (KHTML, like Gecko) Chrome/138.0.0.0 Safari/537.36","WebKit","Chrome","138.0.0.0","Windows","10.0","https://app.prolific.com/","en-US,en;q=0.9,xh;q=0.8","665f239f78bd39782ef04172","683db7602f5db6a34d12d064","686e2a76ca1cc66db849fefd","1","665f239f78bd39782ef04172","1","2025-07-09T08:47:45.742Z","","","","","","","","","","","AttribQ","","50","","","","","","","","","","","","","","","","","","","","","","","","","","","","",""
"6575","","<div style=""width:500px;"">
  <p>How much control did you have over the ball?</p>
  </div>","71","html-slider-response","26","525865","0.0-5.0-2.3","7","1","2025-07-09 08:39:00","01610cd0009c79a99da7d0a3353eb402","41.13.191.151","Mozilla/5.0 (Windows NT 10.0; Win64; x64) AppleWebKit/537.36 (KHTML, like Gecko) Chrome/138.0.0.0 Safari/537.36","WebKit","Chrome","138.0.0.0","Windows","10.0","https://app.prolific.com/","en-US,en;q=0.9,xh;q=0.8","665f239f78bd39782ef04172","683db7602f5db6a34d12d064","686e2a76ca1cc66db849fefd","1","665f239f78bd39782ef04172","1","2025-07-09T08:47:52.320Z","","","","","","","","","","","ControlQ","","50","","","","","","","","","","","","","","","","","","","","","","","","","","","","",""
"3891","","<div style=""width:500px;"">
  <p>How would you describe your current emotional state?</p>
  </div>","15","html-slider-response","27","529758","0.0-5.0-3.3","7","1","2025-07-09 08:39:00","01610cd0009c79a99da7d0a3353eb402","41.13.191.151","Mozilla/5.0 (Windows NT 10.0; Win64; x64) AppleWebKit/537.36 (KHTML, like Gecko) Chrome/138.0.0.0 Safari/537.36","WebKit","Chrome","138.0.0.0","Windows","10.0","https://app.prolific.com/","en-US,en;q=0.9,xh;q=0.8","665f239f78bd39782ef04172","683db7602f5db6a34d12d064","686e2a76ca1cc66db849fefd","1","665f239f78bd39782ef04172","1","2025-07-09T08:47:56.213Z","","","","","","","","","","","StressQ","","50","","","","","","","","","","","","","","","","","","","","","","","","","","","","",""
"5097","","<div style=""width:500px;"">
  <p>What best describes how you currently feel?</p>
  </div>","70","html-slider-response","28","534858","0.0-5.0-4.3","7","1","2025-07-09 08:39:00","01610cd0009c79a99da7d0a3353eb402","41.13.191.151","Mozilla/5.0 (Windows NT 10.0; Win64; x64) AppleWebKit/537.36 (KHTML, like Gecko) Chrome/138.0.0.0 Safari/537.36","WebKit","Chrome","138.0.0.0","Windows","10.0","https://app.prolific.com/","en-US,en;q=0.9,xh;q=0.8","665f239f78bd39782ef04172","683db7602f5db6a34d12d064","686e2a76ca1cc66db849fefd","1","665f239f78bd39782ef04172","1","2025-07-09T08:48:01.313Z","","","","","","","","","","","MotivationQ","","50","","","","","","","","","","","","","","","","","","","","","","","","","","","","",""
"","","","","ctl-task-cpt","29","574396","0.0-5.0-0.4","7","1","2025-07-09 08:39:00","01610cd0009c79a99da7d0a3353eb402","41.13.191.151","Mozilla/5.0 (Windows NT 10.0; Win64; x64) AppleWebKit/537.36 (KHTML, like Gecko) Chrome/138.0.0.0 Safari/537.36","WebKit","Chrome","138.0.0.0","Windows","10.0","https://app.prolific.com/","en-US,en;q=0.9,xh;q=0.8","665f239f78bd39782ef04172","683db7602f5db6a34d12d064","686e2a76ca1cc66db849fefd","1","665f239f78bd39782ef04172","1","2025-07-09T08:48:40.851Z","","","","","","","","","","","","","","win-only","2","g1:SE,g2:NW","0.6","5","0","539586.6","5700.6","10714.6","36519","1","4","8","6","2","-8","-8","7","15","0.05303030303030303","1427.9","3000","-1995","[""left"",""up""]","{""num_key_presses"":8,""num_perfect"":5,""num_errors"":0,""num_randdir"":3,""num_randdir_good_moves"":0,""num_whilered"":0,""num_whileblue"":0,""num_blue"":0,""num_good_moves"":4}","[291.22232142857143,295.12857142857143,1.3,291.22232142857143,295.12857142857143,104.7,291.22232142857143,295.12857142857143,205.6,291.22232142857143,295.12857142857143,305.8,291.22232142857143,295.12857142857143,414,291.22232142857143,295.12857142857143,514.4,291.22232142857143,295.12857142857143,616.1,236.22232142857143,258.12857142857143,716.9,140.22232142857143,163.12857142857143,829.5,131.22232142857143,149.12857142857143,930.4,101.22232142857143,114.12857142857143,1032.1,74.22232142857143,82.12857142857143,1133.7,67.22232142857143,72.12857142857143,1234.4,66.22232142857143,71.12857142857143,1348.2,66.22232142857143,71.12857142857143,1458,66.22232142857143,71.12857142857143,1560.6,66.22232142857143,71.12857142857143,1668.7,66.22232142857143,71.12857142857143,1779.1,66.22232142857143,71.12857142857143,1883.7,66.22232142857143,71.12857142857143,1986.8,66.22232142857143,71.12857142857143,2094.6,66.22232142857143,71.12857142857143,2199.7,-102.77767857142857,204.12857142857143,2302.4,-116.77767857142857,252.12857142857143,2407.2,-116.77767857142857,252.12857142857143,2509.6,-116.77767857142857,252.12857142857143,2613.8,-116.77767857142857,252.12857142857143,2714.5,-116.77767857142857,252.12857142857143,2816.1,-116.77767857142857,252.12857142857143,2919.2,-116.77767857142857,252.12857142857143,3039,-116.77767857142857,252.12857142857143,3143.2,-116.77767857142857,252.12857142857143,3244,-116.77767857142857,252.12857142857143,3354.1,-116.77767857142857,252.12857142857143,3460.9,-116.77767857142857,252.12857142857143,3576.3,-116.77767857142857,252.12857142857143,3678.2,-116.77767857142857,252.12857142857143,3787.6,-116.77767857142857,252.12857142857143,3896.9,-116.77767857142857,252.12857142857143,4000,-116.77767857142857,252.12857142857143,4111.7,-116.77767857142857,252.12857142857143,4213.7,-116.77767857142857,252.12857142857143,4315.3,-116.77767857142857,252.12857142857143,4428,-116.77767857142857,252.12857142857143,4528.7,-116.77767857142857,252.12857142857143,4642.5,-116.77767857142857,252.12857142857143,4749.7,-116.77767857142857,252.12857142857143,4854.2,-116.77767857142857,252.12857142857143,4956.5]","[1622,1622,1000,0,622,""smooth"",""left"",""left"",""good_move"",4395.9,2773,2231.3,1623,541.7,""smooth"",""left"",""left"",""good_move"",7781.6,3382.1,2902.3,4399.5,479.8,""oops"",""left"",""right"",""bad_move"",10818.5,3035.8,2551,7782.8,484.8,""oops"",""up"",""right"",""bad_move"",14147.5,3328,2707,10819.5,621,""smooth"",""down"",""down"",""bad_move"",16655.7,2506.9,1467.8,14148.8,1039.1,""smooth"",""left"",""left"",""good_move"",19440.1,2783.6,2380,16656.5,403.6,""oops"",""left"",""down"",""bad_move"",22417.8,2976.6,2558.3,19441.3,418.3,""smooth"",""left"",""left"",""good_move""]","",""
"5678","","<div style=""width:500px;"">
  <p>What determined the result of this run?</p>
  </div>","68","html-slider-response","30","580076","0.0-5.0-1.4","7","1","2025-07-09 08:39:00","01610cd0009c79a99da7d0a3353eb402","41.13.191.151","Mozilla/5.0 (Windows NT 10.0; Win64; x64) AppleWebKit/537.36 (KHTML, like Gecko) Chrome/138.0.0.0 Safari/537.36","WebKit","Chrome","138.0.0.0","Windows","10.0","https://app.prolific.com/","en-US,en;q=0.9,xh;q=0.8","665f239f78bd39782ef04172","683db7602f5db6a34d12d064","686e2a76ca1cc66db849fefd","1","665f239f78bd39782ef04172","1","2025-07-09T08:48:46.531Z","","","","","","","","","","","AttribQ","","50","","","","","","","","","","","","","","","","","","","","","","","","","","","","",""
"6466","","<div style=""width:500px;"">
  <p>How much control did you have over the ball?</p>
  </div>","0","html-slider-response","31","586544","0.0-5.0-2.4","7","1","2025-07-09 08:39:00","01610cd0009c79a99da7d0a3353eb402","41.13.191.151","Mozilla/5.0 (Windows NT 10.0; Win64; x64) AppleWebKit/537.36 (KHTML, like Gecko) Chrome/138.0.0.0 Safari/537.36","WebKit","Chrome","138.0.0.0","Windows","10.0","https://app.prolific.com/","en-US,en;q=0.9,xh;q=0.8","665f239f78bd39782ef04172","683db7602f5db6a34d12d064","686e2a76ca1cc66db849fefd","1","665f239f78bd39782ef04172","1","2025-07-09T08:48:52.999Z","","","","","","","","","","","ControlQ","","50","","","","","","","","","","","","","","","","","","","","","","","","","","","","",""
"4437","","<div style=""width:500px;"">
  <p>How would you describe your current emotional state?</p>
  </div>","27","html-slider-response","32","590984","0.0-5.0-3.4","7","1","2025-07-09 08:39:00","01610cd0009c79a99da7d0a3353eb402","41.13.191.151","Mozilla/5.0 (Windows NT 10.0; Win64; x64) AppleWebKit/537.36 (KHTML, like Gecko) Chrome/138.0.0.0 Safari/537.36","WebKit","Chrome","138.0.0.0","Windows","10.0","https://app.prolific.com/","en-US,en;q=0.9,xh;q=0.8","665f239f78bd39782ef04172","683db7602f5db6a34d12d064","686e2a76ca1cc66db849fefd","1","665f239f78bd39782ef04172","1","2025-07-09T08:48:57.439Z","","","","","","","","","","","StressQ","","50","","","","","","","","","","","","","","","","","","","","","","","","","","","","",""
"3810","","<div style=""width:500px;"">
  <p>What best describes how you currently feel?</p>
  </div>","68","html-slider-response","33","594797","0.0-5.0-4.4","7","1","2025-07-09 08:39:00","01610cd0009c79a99da7d0a3353eb402","41.13.191.151","Mozilla/5.0 (Windows NT 10.0; Win64; x64) AppleWebKit/537.36 (KHTML, like Gecko) Chrome/138.0.0.0 Safari/537.36","WebKit","Chrome","138.0.0.0","Windows","10.0","https://app.prolific.com/","en-US,en;q=0.9,xh;q=0.8","665f239f78bd39782ef04172","683db7602f5db6a34d12d064","686e2a76ca1cc66db849fefd","1","665f239f78bd39782ef04172","1","2025-07-09T08:49:01.252Z","","","","","","","","","","","MotivationQ","","50","","","","","","","","","","","","","","","","","","","","","","","","","","","","",""
"","","","","ctl-task-cpt","34","658529","0.0-5.0-0.5","7","1","2025-07-09 08:39:00","01610cd0009c79a99da7d0a3353eb402","41.13.191.151","Mozilla/5.0 (Windows NT 10.0; Win64; x64) AppleWebKit/537.36 (KHTML, like Gecko) Chrome/138.0.0.0 Safari/537.36","WebKit","Chrome","138.0.0.0","Windows","10.0","https://app.prolific.com/","en-US,en;q=0.9,xh;q=0.8","665f239f78bd39782ef04172","683db7602f5db6a34d12d064","686e2a76ca1cc66db849fefd","1","665f239f78bd39782ef04172","1","2025-07-09T08:50:04.984Z","","","","","","","","","","","","","","win-only","0","g1:NW,g2:SE","0.5","6","0","599525.5","34280","39293.2","60692.9","1","4","4","6","2","4","4","11","7","0.08333333333333333","1796","3000","1060","[""down"",""right""]","{""num_key_presses"":6,""num_perfect"":4,""num_errors"":0,""num_randdir"":2,""num_randdir_good_moves"":2,""num_whilered"":0,""num_whileblue"":0,""num_blue"":1,""num_good_moves"":6}","[293.22232142857143,292.12857142857143,0.6,293.22232142857143,292.12857142857143,111.5,293.22232142857143,292.12857142857143,214.8,293.22232142857143,292.12857142857143,317.5,293.22232142857143,292.12857142857143,421.6,293.22232142857143,292.12857142857143,531.2,293.22232142857143,292.12857142857143,636.5,293.22232142857143,292.12857142857143,737.6,293.22232142857143,292.12857142857143,838.8,293.22232142857143,292.12857142857143,938.8,439.22232142857143,363.12857142857143,1047.1,499.22232142857143,421.12857142857143,1148.7,537.2223214285714,461.12857142857143,1250.6,559.2223214285714,538.1285714285714,1368.9,568.2223214285714,547.1285714285714,1470.2,565.2223214285714,548.1285714285714,1577.4,563.2223214285714,548.1285714285714,1684.3,563.2223214285714,548.1285714285714,1786.2,563.2223214285714,548.1285714285714,1889.6,563.2223214285714,548.1285714285714,1992.5,563.2223214285714,548.1285714285714,2096.9,563.2223214285714,548.1285714285714,2204.8,563.2223214285714,548.1285714285714,2312.1,563.2223214285714,548.1285714285714,2417.9,451.22232142857143,477.12857142857143,2521.6,390.22232142857143,488.12857142857143,2636.6,381.22232142857143,485.12857142857143,2737.6,507.22232142857143,364.12857142857143,2843.5,741.2223214285714,246.12857142857143,2948.4,751.2223214285714,242.12857142857143,3059.9,752.2223214285714,242.12857142857143,3164,752.2223214285714,242.12857142857143,3266.6,752.2223214285714,242.12857142857143,3369.4,752.2223214285714,242.12857142857143,3480.2,752.2223214285714,242.12857142857143,3583.4,752.2223214285714,242.12857142857143,3689.9,752.2223214285714,242.12857142857143,3795.8,752.2223214285714,242.12857142857143,3906.3,752.2223214285714,242.12857142857143,4016.8,752.2223214285714,242.12857142857143,4123.2,752.2223214285714,242.12857142857143,4223.8,752.2223214285714,242.12857142857143,4334.1,752.2223214285714,242.12857142857143,4438.6,752.2223214285714,242.12857142857143,4545.3,752.2223214285714,242.12857142857143,4649.3,752.2223214285714,242.12857142857143,4750.7,752.2223214285714,242.12857142857143,4851.5,752.2223214285714,242.12857142857143,4964]","[1592.3,1592.3,1000,0,592.3,""oops"",""down"",""down"",""good_move"",8684.1,7090.8,2672.5,5516.2,495.4,""oops"",""down"",""right"",""good_move"",11659.7,2974.1,2218.6,8685.6,755.5,""smooth"",""down"",""down"",""good_move"",15010.1,3348.6,2862.9,11661.5,485.7,""smooth"",""down"",""down"",""good_move"",18587.1,3571.3,3083.5,15015.8,487.8,""smooth"",""right"",""right"",""good_move"",21273.4,2685.3,2204.3,18588.1,481,""smooth"",""right"",""right"",""good_move""]","",""
"5268","","<div style=""width:500px;"">
  <p>What determined the result of this run?</p>
  </div>","90","html-slider-response","35","663800","0.0-5.0-1.5","7","1","2025-07-09 08:39:00","01610cd0009c79a99da7d0a3353eb402","41.13.191.151","Mozilla/5.0 (Windows NT 10.0; Win64; x64) AppleWebKit/537.36 (KHTML, like Gecko) Chrome/138.0.0.0 Safari/537.36","WebKit","Chrome","138.0.0.0","Windows","10.0","https://app.prolific.com/","en-US,en;q=0.9,xh;q=0.8","665f239f78bd39782ef04172","683db7602f5db6a34d12d064","686e2a76ca1cc66db849fefd","1","665f239f78bd39782ef04172","1","2025-07-09T08:50:10.255Z","","","","","","","","","","","AttribQ","","50","","","","","","","","","","","","","","","","","","","","","","","","","","","","",""
"3596","","<div style=""width:500px;"">
  <p>How much control did you have over the ball?</p>
  </div>","71","html-slider-response","36","667399","0.0-5.0-2.5","7","1","2025-07-09 08:39:00","01610cd0009c79a99da7d0a3353eb402","41.13.191.151","Mozilla/5.0 (Windows NT 10.0; Win64; x64) AppleWebKit/537.36 (KHTML, like Gecko) Chrome/138.0.0.0 Safari/537.36","WebKit","Chrome","138.0.0.0","Windows","10.0","https://app.prolific.com/","en-US,en;q=0.9,xh;q=0.8","665f239f78bd39782ef04172","683db7602f5db6a34d12d064","686e2a76ca1cc66db849fefd","1","665f239f78bd39782ef04172","1","2025-07-09T08:50:13.855Z","","","","","","","","","","","ControlQ","","50","","","","","","","","","","","","","","","","","","","","","","","","","","","","",""
"3957","","<div style=""width:500px;"">
  <p>How would you describe your current emotional state?</p>
  </div>","26","html-slider-response","37","671360","0.0-5.0-3.5","7","1","2025-07-09 08:39:00","01610cd0009c79a99da7d0a3353eb402","41.13.191.151","Mozilla/5.0 (Windows NT 10.0; Win64; x64) AppleWebKit/537.36 (KHTML, like Gecko) Chrome/138.0.0.0 Safari/537.36","WebKit","Chrome","138.0.0.0","Windows","10.0","https://app.prolific.com/","en-US,en;q=0.9,xh;q=0.8","665f239f78bd39782ef04172","683db7602f5db6a34d12d064","686e2a76ca1cc66db849fefd","1","665f239f78bd39782ef04172","1","2025-07-09T08:50:17.815Z","","","","","","","","","","","StressQ","","50","","","","","","","","","","","","","","","","","","","","","","","","","","","","",""
"4741","","<div style=""width:500px;"">
  <p>What best describes how you currently feel?</p>
  </div>","79","html-slider-response","38","676103","0.0-5.0-4.5","7","1","2025-07-09 08:39:00","01610cd0009c79a99da7d0a3353eb402","41.13.191.151","Mozilla/5.0 (Windows NT 10.0; Win64; x64) AppleWebKit/537.36 (KHTML, like Gecko) Chrome/138.0.0.0 Safari/537.36","WebKit","Chrome","138.0.0.0","Windows","10.0","https://app.prolific.com/","en-US,en;q=0.9,xh;q=0.8","665f239f78bd39782ef04172","683db7602f5db6a34d12d064","686e2a76ca1cc66db849fefd","1","665f239f78bd39782ef04172","1","2025-07-09T08:50:22.558Z","","","","","","","","","","","MotivationQ","","50","","","","","","","","","","","","","","","","","","","","","","","","","","","","",""
"","","","","ctl-task-cpt","39","711055","0.0-5.0-0.6","7","1","2025-07-09 08:39:00","01610cd0009c79a99da7d0a3353eb402","41.13.191.151","Mozilla/5.0 (Windows NT 10.0; Win64; x64) AppleWebKit/537.36 (KHTML, like Gecko) Chrome/138.0.0.0 Safari/537.36","WebKit","Chrome","138.0.0.0","Windows","10.0","https://app.prolific.com/","en-US,en;q=0.9,xh;q=0.8","665f239f78bd39782ef04172","683db7602f5db6a34d12d064","686e2a76ca1cc66db849fefd","1","665f239f78bd39782ef04172","1","2025-07-09T08:50:57.511Z","","","","","","","","","","","","","","win-only","0","g1:NW,g2:SE","0.4","7","0","680832.2","2056.7","7069.8","31932.9","1","4","4","6","2","-4","-5","6","11","0.045454545454545456","2562.3","3000","-1775","[""down"",""right""]","{""num_key_presses"":8,""num_perfect"":2,""num_errors"":1,""num_randdir"":5,""num_randdir_good_moves"":2,""num_whilered"":0,""num_whileblue"":1,""num_blue"":1,""num_good_moves"":4}","[295.22232142857143,295.12857142857143,8.1,295.22232142857143,295.12857142857143,101.3,295.22232142857143,295.12857142857143,203.7,295.22232142857143,295.12857142857143,305.6,295.22232142857143,295.12857142857143,406.1,295.22232142857143,295.12857142857143,507.1,295.22232142857143,295.12857142857143,612.6,295.22232142857143,295.12857142857143,717.3,295.22232142857143,295.12857142857143,824.3,295.22232142857143,295.12857142857143,932.1,375.22232142857143,352.12857142857143,1036.8,428.22232142857143,439.12857142857143,1140.2,472.22232142857143,515.1285714285714,1242.4,477.22232142857143,533.1285714285714,1343.4,477.22232142857143,533.1285714285714,1447.1,477.22232142857143,533.1285714285714,1553.8,477.22232142857143,533.1285714285714,1664.9,477.22232142857143,533.1285714285714,1771.3,490.22232142857143,533.1285714285714,1872.2,490.22232142857143,533.1285714285714,1975.1,490.22232142857143,533.1285714285714,2088.1,507.22232142857143,537.1285714285714,2193.4,528.2223214285714,544.1285714285714,2302.7,531.2223214285714,545.1285714285714,2404.5,531.2223214285714,545.1285714285714,2506.5,531.2223214285714,545.1285714285714,2615.3,531.2223214285714,545.1285714285714,2716.3,531.2223214285714,545.1285714285714,2821.3,531.2223214285714,545.1285714285714,2922.1,531.2223214285714,545.1285714285714,3028.7,531.2223214285714,545.1285714285714,3135.8,531.2223214285714,545.1285714285714,3237.1,474.22232142857143,548.1285714285714,3341.5,380.22232142857143,568.1285714285714,3450.4,328.22232142857143,606.1285714285714,3554.4,276.22232142857143,652.1285714285714,3655.4,273.22232142857143,656.1285714285714,3759.2,273.22232142857143,656.1285714285714,3865.1,273.22232142857143,656.1285714285714,3967.2,273.22232142857143,656.1285714285714,4081.3,273.22232142857143,656.1285714285714,4183.7,273.22232142857143,656.1285714285714,4288.5,273.22232142857143,656.1285714285714,4392,273.22232142857143,656.1285714285714,4501.2,273.22232142857143,656.1285714285714,4602.2,273.22232142857143,656.1285714285714,4703.9,273.22232142857143,656.1285714285714,4804.1,273.22232142857143,656.1285714285714,4904.5]","[2091.9,2091.9,1000,0,1091.9,""smooth"",""down"",""down"",""good_move"",6138,4043.5,3515.8,2094.5,527.7,""oops"",""down"",""up"",""bad_move"",9321.7,3179.5,2299.4,6142.2,880.1,""oops"",""right"",""down"",""good_move"",12032.9,2707.4,2212.7,9325.6,494.7,""oops"",""right"",""left"",""bad_move"",14624.9,2590.8,2234.9,12034.2,355.8,""while_blue"",""left"",""up"",""bad_move"",17512.2,2886.2,1933.5,14626,952.7,""oops"",""down"",""left"",""bad_move"",19923,2401.8,1799,17521.3,602.7,""oops"",""down"",""right"",""good_move"",22870.3,2946.3,2503.6,19924.1,442.7,""smooth"",""down"",""down"",""good_move""]","",""
"14394","","<div style=""width:500px;"">
  <p>What determined the result of this run?</p>
  </div>","80","html-slider-response","40","725452","0.0-5.0-1.6","7","1","2025-07-09 08:39:00","01610cd0009c79a99da7d0a3353eb402","41.13.191.151","Mozilla/5.0 (Windows NT 10.0; Win64; x64) AppleWebKit/537.36 (KHTML, like Gecko) Chrome/138.0.0.0 Safari/537.36","WebKit","Chrome","138.0.0.0","Windows","10.0","https://app.prolific.com/","en-US,en;q=0.9,xh;q=0.8","665f239f78bd39782ef04172","683db7602f5db6a34d12d064","686e2a76ca1cc66db849fefd","1","665f239f78bd39782ef04172","1","2025-07-09T08:51:11.907Z","","","","","","","","","","","AttribQ","","50","","","","","","","","","","","","","","","","","","","","","","","","","","","","",""
"31174","","<div style=""width:500px;"">
  <p>How much control did you have over the ball?</p>
  </div>","11","html-slider-response","41","756629","0.0-5.0-2.6","7","1","2025-07-09 08:39:00","01610cd0009c79a99da7d0a3353eb402","41.13.191.151","Mozilla/5.0 (Windows NT 10.0; Win64; x64) AppleWebKit/537.36 (KHTML, like Gecko) Chrome/138.0.0.0 Safari/537.36","WebKit","Chrome","138.0.0.0","Windows","10.0","https://app.prolific.com/","en-US,en;q=0.9,xh;q=0.8","665f239f78bd39782ef04172","683db7602f5db6a34d12d064","686e2a76ca1cc66db849fefd","1","665f239f78bd39782ef04172","1","2025-07-09T08:51:43.084Z","","","","","","","","","","","ControlQ","","50","","","","","","","","","","","","","","","","","","","","","","","","","","","","",""
"5386","","<div style=""width:500px;"">
  <p>How would you describe your current emotional state?</p>
  </div>","19","html-slider-response","42","762017","0.0-5.0-3.6","7","1","2025-07-09 08:39:00","01610cd0009c79a99da7d0a3353eb402","41.13.191.151","Mozilla/5.0 (Windows NT 10.0; Win64; x64) AppleWebKit/537.36 (KHTML, like Gecko) Chrome/138.0.0.0 Safari/537.36","WebKit","Chrome","138.0.0.0","Windows","10.0","https://app.prolific.com/","en-US,en;q=0.9,xh;q=0.8","665f239f78bd39782ef04172","683db7602f5db6a34d12d064","686e2a76ca1cc66db849fefd","1","665f239f78bd39782ef04172","1","2025-07-09T08:51:48.472Z","","","","","","","","","","","StressQ","","50","","","","","","","","","","","","","","","","","","","","","","","","","","","","",""
"6751","","<div style=""width:500px;"">
  <p>What best describes how you currently feel?</p>
  </div>","75","html-slider-response","43","768770","0.0-5.0-4.6","7","1","2025-07-09 08:39:00","01610cd0009c79a99da7d0a3353eb402","41.13.191.151","Mozilla/5.0 (Windows NT 10.0; Win64; x64) AppleWebKit/537.36 (KHTML, like Gecko) Chrome/138.0.0.0 Safari/537.36","WebKit","Chrome","138.0.0.0","Windows","10.0","https://app.prolific.com/","en-US,en;q=0.9,xh;q=0.8","665f239f78bd39782ef04172","683db7602f5db6a34d12d064","686e2a76ca1cc66db849fefd","1","665f239f78bd39782ef04172","1","2025-07-09T08:51:55.225Z","","","","","","","","","","","MotivationQ","","50","","","","","","","","","","","","","","","","","","","","","","","","","","","","",""
"","","","","ctl-task-cpt","44","811640","0.0-5.0-0.7","7","1","2025-07-09 08:39:00","01610cd0009c79a99da7d0a3353eb402","41.13.191.151","Mozilla/5.0 (Windows NT 10.0; Win64; x64) AppleWebKit/537.36 (KHTML, like Gecko) Chrome/138.0.0.0 Safari/537.36","WebKit","Chrome","138.0.0.0","Windows","10.0","https://app.prolific.com/","en-US,en;q=0.9,xh;q=0.8","665f239f78bd39782ef04172","683db7602f5db6a34d12d064","686e2a76ca1cc66db849fefd","1","665f239f78bd39782ef04172","1","2025-07-09T08:52:38.095Z","","","","","","","","","","","","","","win-only","2","g1:SE,g2:NW","0.3","8","0","773500","1980.9","6987.1","39852.3","1","4","8","6","2","-8","-8","0","6","0","1681.7","3000","-1805","[""left"",""up""]","{""num_key_presses"":9,""num_perfect"":3,""num_errors"":0,""num_randdir"":6,""num_randdir_good_moves"":3,""num_whilered"":0,""num_whileblue"":0,""num_blue"":1,""num_good_moves"":6}","[291.22232142857143,291.12857142857143,0.8,291.22232142857143,291.12857142857143,101.6,291.22232142857143,291.12857142857143,202.2,291.22232142857143,291.12857142857143,307.9,291.22232142857143,291.12857142857143,410.4,291.22232142857143,291.12857142857143,524.7,291.22232142857143,291.12857142857143,633.7,291.22232142857143,291.12857142857143,741.6,133.22232142857143,132.12857142857143,852.1,-8.777678571428574,-27.871428571428574,963.9,-18.777678571428574,-39.871428571428574,1074.1,-16.777678571428574,-35.871428571428574,1178.8,26.222321428571426,-2.8714285714285737,1284.2,38.222321428571426,9.128571428571426,1384.8,43.222321428571426,18.128571428571426,1490.4,44.222321428571426,18.128571428571426,1602.2,44.222321428571426,18.128571428571426,1704.7,44.222321428571426,18.128571428571426,1810.6,44.222321428571426,18.128571428571426,1912.8,44.222321428571426,18.128571428571426,2018.5,44.222321428571426,18.128571428571426,2121.1,44.222321428571426,18.128571428571426,2224.8,-30.777678571428574,94.12857142857143,2327.7,-82.77767857142857,183.12857142857143,2439.8,-135.77767857142857,281.12857142857143,2541.1,-150.77767857142857,332.12857142857143,2645.7,-150.77767857142857,332.12857142857143,2755.2,-150.77767857142857,332.12857142857143,2856.2,-150.77767857142857,332.12857142857143,2962.8,-150.77767857142857,332.12857142857143,3067.2,-150.77767857142857,332.12857142857143,3177.7,-150.77767857142857,332.12857142857143,3282,-150.77767857142857,332.12857142857143,3393.5,-150.77767857142857,332.12857142857143,3502.6,-150.77767857142857,332.12857142857143,3614.2,-150.77767857142857,332.12857142857143,3718.2,-150.77767857142857,332.12857142857143,3825,-150.77767857142857,332.12857142857143,3930.6,-150.77767857142857,332.12857142857143,4035,-150.77767857142857,332.12857142857143,4136.1,-150.77767857142857,332.12857142857143,4244.2,-150.77767857142857,332.12857142857143,4345.3,-150.77767857142857,332.12857142857143,4445.8,-150.77767857142857,332.12857142857143,4556.1,-150.77767857142857,332.12857142857143,4664.3,-150.77767857142857,332.12857142857143,4768.4,-150.77767857142857,332.12857142857143,4874.6,-150.77767857142857,332.12857142857143,4979]","[1547.3,1547.3,1000,0,547.3,""oops"",""up"",""up"",""good_move"",4982.7,3430.1,2891.9,1552.6,538.2,""oops"",""up"",""down"",""bad_move"",7530.9,2545.5,2027.3,4985.5,518.1,""oops"",""up"",""left"",""good_move"",14375.6,6839.7,2401.6,11501.2,472.8,""smooth"",""up"",""up"",""good_move"",17978.2,3601.3,2917.4,14377,683.8,""oops"",""up"",""up"",""good_move"",21107,3120.7,2608,17986.4,512.7,""smooth"",""left"",""left"",""good_move"",24378.5,3270.2,2830.6,21108.3,439.6,""smooth"",""left"",""left"",""good_move"",27046.8,2666.9,2281.9,24379.9,385,""oops"",""up"",""down"",""bad_move"",30303,3250.8,2617.7,27052.2,633.1,""oops"",""left"",""right"",""bad_move""]","",""
"6090","","<div style=""width:500px;"">
  <p>What determined the result of this run?</p>
  </div>","69","html-slider-response","45","817732","0.0-5.0-1.7","7","1","2025-07-09 08:39:00","01610cd0009c79a99da7d0a3353eb402","41.13.191.151","Mozilla/5.0 (Windows NT 10.0; Win64; x64) AppleWebKit/537.36 (KHTML, like Gecko) Chrome/138.0.0.0 Safari/537.36","WebKit","Chrome","138.0.0.0","Windows","10.0","https://app.prolific.com/","en-US,en;q=0.9,xh;q=0.8","665f239f78bd39782ef04172","683db7602f5db6a34d12d064","686e2a76ca1cc66db849fefd","1","665f239f78bd39782ef04172","1","2025-07-09T08:52:44.187Z","","","","","","","","","","","AttribQ","","50","","","","","","","","","","","","","","","","","","","","","","","","","","","","",""
"3768","","<div style=""width:500px;"">
  <p>How much control did you have over the ball?</p>
  </div>","0","html-slider-response","46","821502","0.0-5.0-2.7","7","1","2025-07-09 08:39:00","01610cd0009c79a99da7d0a3353eb402","41.13.191.151","Mozilla/5.0 (Windows NT 10.0; Win64; x64) AppleWebKit/537.36 (KHTML, like Gecko) Chrome/138.0.0.0 Safari/537.36","WebKit","Chrome","138.0.0.0","Windows","10.0","https://app.prolific.com/","en-US,en;q=0.9,xh;q=0.8","665f239f78bd39782ef04172","683db7602f5db6a34d12d064","686e2a76ca1cc66db849fefd","1","665f239f78bd39782ef04172","1","2025-07-09T08:52:47.957Z","","","","","","","","","","","ControlQ","","50","","","","","","","","","","","","","","","","","","","","","","","","","","","","",""
"4564","","<div style=""width:500px;"">
  <p>How would you describe your current emotional state?</p>
  </div>","63","html-slider-response","47","826070","0.0-5.0-3.7","7","1","2025-07-09 08:39:00","01610cd0009c79a99da7d0a3353eb402","41.13.191.151","Mozilla/5.0 (Windows NT 10.0; Win64; x64) AppleWebKit/537.36 (KHTML, like Gecko) Chrome/138.0.0.0 Safari/537.36","WebKit","Chrome","138.0.0.0","Windows","10.0","https://app.prolific.com/","en-US,en;q=0.9,xh;q=0.8","665f239f78bd39782ef04172","683db7602f5db6a34d12d064","686e2a76ca1cc66db849fefd","1","665f239f78bd39782ef04172","1","2025-07-09T08:52:52.525Z","","","","","","","","","","","StressQ","","50","","","","","","","","","","","","","","","","","","","","","","","","","","","","",""
"4604","","<div style=""width:500px;"">
  <p>What best describes how you currently feel?</p>
  </div>","79","html-slider-response","48","830676","0.0-5.0-4.7","7","1","2025-07-09 08:39:00","01610cd0009c79a99da7d0a3353eb402","41.13.191.151","Mozilla/5.0 (Windows NT 10.0; Win64; x64) AppleWebKit/537.36 (KHTML, like Gecko) Chrome/138.0.0.0 Safari/537.36","WebKit","Chrome","138.0.0.0","Windows","10.0","https://app.prolific.com/","en-US,en;q=0.9,xh;q=0.8","665f239f78bd39782ef04172","683db7602f5db6a34d12d064","686e2a76ca1cc66db849fefd","1","665f239f78bd39782ef04172","1","2025-07-09T08:52:57.131Z","","","","","","","","","","","MotivationQ","","50","","","","","","","","","","","","","","","","","","","","","","","","","","","","",""
"","","","","ctl-task-cpt","49","911378","0.0-5.0-0.8","7","1","2025-07-09 08:39:00","01610cd0009c79a99da7d0a3353eb402","41.13.191.151","Mozilla/5.0 (Windows NT 10.0; Win64; x64) AppleWebKit/537.36 (KHTML, like Gecko) Chrome/138.0.0.0 Safari/537.36","WebKit","Chrome","138.0.0.0","Windows","10.0","https://app.prolific.com/","en-US,en;q=0.9,xh;q=0.8","665f239f78bd39782ef04172","683db7602f5db6a34d12d064","686e2a76ca1cc66db849fefd","1","665f239f78bd39782ef04172","1","2025-07-09T08:54:17.833Z","","","","","","","","","","","","","","win-only","0","g1:NW,g2:SE","0.2","9","0","835406.1","1975.1","6978.7","77675.9","1","4","8","6","2","-8","-8","0","0","0","1652.7","3000","-945","[""down"",""right""]","{""num_key_presses"":17,""num_perfect"":4,""num_errors"":0,""num_randdir"":13,""num_randdir_good_moves"":6,""num_whilered"":0,""num_whileblue"":0,""num_blue"":5,""num_good_moves"":10}","[294.22232142857143,293.12857142857143,0.6,294.22232142857143,293.12857142857143,102.6,294.22232142857143,293.12857142857143,204.4,294.22232142857143,293.12857142857143,306.5,294.22232142857143,293.12857142857143,415.7,294.22232142857143,293.12857142857143,516.8,294.22232142857143,293.12857142857143,628.4,307.22232142857143,303.12857142857143,730.3,413.22232142857143,383.12857142857143,836.2,460.22232142857143,437.12857142857143,944.5,490.22232142857143,474.12857142857143,1057.7,504.22232142857143,495.12857142857143,1159.5,510.22232142857143,510.12857142857143,1267.7,517.2223214285714,524.1285714285714,1379.4,518.2223214285714,526.1285714285714,1486.6,518.2223214285714,526.1285714285714,1586.8,518.2223214285714,526.1285714285714,1688.4,518.2223214285714,526.1285714285714,1799.3,518.2223214285714,526.1285714285714,1905,518.2223214285714,526.1285714285714,2010.5,518.2223214285714,526.1285714285714,2119.4,502.22232142857143,538.1285714285714,2229.6,409.22232142857143,597.1285714285714,2335.6,320.22232142857143,657.1285714285714,2445,270.22232142857143,683.1285714285714,2547.3,270.22232142857143,683.1285714285714,2654.3,270.22232142857143,683.1285714285714,2763.3,270.22232142857143,683.1285714285714,2869.6,270.22232142857143,683.1285714285714,2972.2,270.22232142857143,683.1285714285714,3075.6,270.22232142857143,683.1285714285714,3184.6,270.22232142857143,683.1285714285714,3288.1,270.22232142857143,683.1285714285714,3400.5,270.22232142857143,683.1285714285714,3508,270.22232142857143,683.1285714285714,3609.7,270.22232142857143,683.1285714285714,3715.6,270.22232142857143,683.1285714285714,3818.5,270.22232142857143,683.1285714285714,3921.3,270.22232142857143,683.1285714285714,4037,270.22232142857143,683.1285714285714,4149.4,270.22232142857143,683.1285714285714,4250.8,270.22232142857143,683.1285714285714,4358.6,270.22232142857143,683.1285714285714,4468,270.22232142857143,683.1285714285714,4573.1,270.22232142857143,683.1285714285714,4674.2,270.22232142857143,683.1285714285714,4785.5,270.22232142857143,683.1285714285714,4900.4]","[1540.4,1540.4,1000,0,540.4,""smooth"",""down"",""down"",""good_move"",4543.2,3002,2584.8,1541.2,417.2,""oops"",""down"",""down"",""good_move"",7634.1,3089.9,2572.1,4544.2,517.8,""oops"",""down"",""left"",""bad_move"",10910.5,3275.4,2635,7635.1,640.4,""smooth"",""down"",""down"",""good_move"",21160.3,10249,2868.8,17708.1,583.5,""oops"",""right"",""right"",""good_move"",24510.1,3346.1,2775.4,21164,570.7,""oops"",""right"",""right"",""good_move"",27319.3,2801,2257.1,24518.3,543.9,""oops"",""right"",""left"",""bad_move"",36391.7,9069.5,2410.1,33356.2,625.4,""oops"",""right"",""right"",""good_move"",39575.6,3183.3,2657.1,36392.4,526.2,""oops"",""right"",""left"",""bad_move"",46369.3,6792,2125.7,43561.9,681.7,""oops"",""right"",""left"",""bad_move"",50111.9,3741.8,2041.7,46370.1,1700.1,""smooth"",""right"",""right"",""good_move"",53347.3,3234.5,2692.3,50112.9,542.1,""smooth"",""right"",""right"",""good_move"",55841.6,2491.3,1903.1,53350.3,588.2,""oops"",""right"",""right"",""good_move"",58783.4,2940.9,2493.4,55842.6,447.5,""oops"",""right"",""up"",""bad_move"",62444.8,3660.3,2868.1,58784.6,792.1,""oops"",""right"",""left"",""bad_move"",65559.1,3113.1,2701.5,62446.1,411.5,""oops"",""right"",""right"",""good_move"",68390.4,2830.3,2513.6,65560.1,316.7,""oops"",""right"",""up"",""bad_move""]","",""
"6225","","<div style=""width:500px;"">
  <p>What determined the result of this run?</p>
  </div>","64","html-slider-response","50","917606","0.0-5.0-1.8","7","1","2025-07-09 08:39:00","01610cd0009c79a99da7d0a3353eb402","41.13.191.151","Mozilla/5.0 (Windows NT 10.0; Win64; x64) AppleWebKit/537.36 (KHTML, like Gecko) Chrome/138.0.0.0 Safari/537.36","WebKit","Chrome","138.0.0.0","Windows","10.0","https://app.prolific.com/","en-US,en;q=0.9,xh;q=0.8","665f239f78bd39782ef04172","683db7602f5db6a34d12d064","686e2a76ca1cc66db849fefd","1","665f239f78bd39782ef04172","1","2025-07-09T08:54:24.061Z","","","","","","","","","","","AttribQ","","50","","","","","","","","","","","","","","","","","","","","","","","","","","","","",""
"4953","","<div style=""width:500px;"">
  <p>How much control did you have over the ball?</p>
  </div>","0","html-slider-response","51","922563","0.0-5.0-2.8","7","1","2025-07-09 08:39:00","01610cd0009c79a99da7d0a3353eb402","41.13.191.151","Mozilla/5.0 (Windows NT 10.0; Win64; x64) AppleWebKit/537.36 (KHTML, like Gecko) Chrome/138.0.0.0 Safari/537.36","WebKit","Chrome","138.0.0.0","Windows","10.0","https://app.prolific.com/","en-US,en;q=0.9,xh;q=0.8","665f239f78bd39782ef04172","683db7602f5db6a34d12d064","686e2a76ca1cc66db849fefd","1","665f239f78bd39782ef04172","1","2025-07-09T08:54:29.018Z","","","","","","","","","","","ControlQ","","50","","","","","","","","","","","","","","","","","","","","","","","","","","","","",""
"4134","","<div style=""width:500px;"">
  <p>How would you describe your current emotional state?</p>
  </div>","71","html-slider-response","52","926701","0.0-5.0-3.8","7","1","2025-07-09 08:39:00","01610cd0009c79a99da7d0a3353eb402","41.13.191.151","Mozilla/5.0 (Windows NT 10.0; Win64; x64) AppleWebKit/537.36 (KHTML, like Gecko) Chrome/138.0.0.0 Safari/537.36","WebKit","Chrome","138.0.0.0","Windows","10.0","https://app.prolific.com/","en-US,en;q=0.9,xh;q=0.8","665f239f78bd39782ef04172","683db7602f5db6a34d12d064","686e2a76ca1cc66db849fefd","1","665f239f78bd39782ef04172","1","2025-07-09T08:54:33.156Z","","","","","","","","","","","StressQ","","50","","","","","","","","","","","","","","","","","","","","","","","","","","","","",""
"3250","","<div style=""width:500px;"">
  <p>What best describes how you currently feel?</p>
  </div>","80","html-slider-response","53","929954","0.0-5.0-4.8","7","1","2025-07-09 08:39:00","01610cd0009c79a99da7d0a3353eb402","41.13.191.151","Mozilla/5.0 (Windows NT 10.0; Win64; x64) AppleWebKit/537.36 (KHTML, like Gecko) Chrome/138.0.0.0 Safari/537.36","WebKit","Chrome","138.0.0.0","Windows","10.0","https://app.prolific.com/","en-US,en;q=0.9,xh;q=0.8","665f239f78bd39782ef04172","683db7602f5db6a34d12d064","686e2a76ca1cc66db849fefd","1","665f239f78bd39782ef04172","1","2025-07-09T08:54:36.409Z","","","","","","","","","","","MotivationQ","","50","","","","","","","","","","","","","","","","","","","","","","","","","","","","",""
"","","","","ctl-task-cpt","54","1016993","0.0-5.0-0.9","7","1","2025-07-09 08:39:00","01610cd0009c79a99da7d0a3353eb402","41.13.191.151","Mozilla/5.0 (Windows NT 10.0; Win64; x64) AppleWebKit/537.36 (KHTML, like Gecko) Chrome/138.0.0.0 Safari/537.36","WebKit","Chrome","138.0.0.0","Windows","10.0","https://app.prolific.com/","en-US,en;q=0.9,xh;q=0.8","665f239f78bd39782ef04172","683db7602f5db6a34d12d064","686e2a76ca1cc66db849fefd","1","665f239f78bd39782ef04172","1","2025-07-09T08:56:03.448Z","","","","","","","","","","","","","","win-only","1","g1:NE,g2:SW","0.4","10","0","934682.4","1715.4","6727.3","84006.3","1","4","4","6","2","-4","-5","0","0","0","1266.1","3000","-1285","[""down"",""left""]","{""num_key_presses"":20,""num_perfect"":7,""num_errors"":1,""num_randdir"":12,""num_randdir_good_moves"":4,""num_whilered"":0,""num_whileblue"":1,""num_blue"":4,""num_good_moves"":11}","[295.22232142857143,292.12857142857143,12.2,295.22232142857143,292.12857142857143,108.6,295.22232142857143,292.12857142857143,219.3,295.22232142857143,292.12857142857143,322.1,295.22232142857143,292.12857142857143,423.6,295.22232142857143,292.12857142857143,532.9,177.22232142857143,429.12857142857143,638.7,104.22232142857143,513.1285714285714,739.3,94.22232142857143,519.1285714285714,839.5,62.222321428571426,522.1285714285714,954.9,49.222321428571426,528.1285714285714,1058.8,49.222321428571426,528.1285714285714,1168.7,49.222321428571426,528.1285714285714,1282,49.222321428571426,528.1285714285714,1386.1,49.222321428571426,528.1285714285714,1487.9,49.222321428571426,528.1285714285714,1588.7,49.222321428571426,528.1285714285714,1688.9,49.222321428571426,528.1285714285714,1792.1,49.222321428571426,528.1285714285714,1903.5,348.22232142857143,431.12857142857143,2014.7,714.2223214285714,258.12857142857143,2118.1,891.2223214285714,268.12857142857143,2224.1,935.2223214285714,301.12857142857143,2337.3,935.2223214285714,301.12857142857143,2440.3,935.2223214285714,301.12857142857143,2543.1,935.2223214285714,301.12857142857143,2653.8,935.2223214285714,301.12857142857143,2754,935.2223214285714,301.12857142857143,2854.7,935.2223214285714,301.12857142857143,2965.8,935.2223214285714,301.12857142857143,3075.5,935.2223214285714,301.12857142857143,3179.8,935.2223214285714,301.12857142857143,3284.5,935.2223214285714,301.12857142857143,3388.9,935.2223214285714,301.12857142857143,3497.4,935.2223214285714,301.12857142857143,3606.5,935.2223214285714,301.12857142857143,3708.9,935.2223214285714,301.12857142857143,3812.7,935.2223214285714,301.12857142857143,3921.3,935.2223214285714,301.12857142857143,4021.3,935.2223214285714,301.12857142857143,4128.2,935.2223214285714,301.12857142857143,4239.8,935.2223214285714,301.12857142857143,4344.5,935.2223214285714,301.12857142857143,4448.5,935.2223214285714,301.12857142857143,4550.1,935.2223214285714,301.12857142857143,4653.1,935.2223214285714,301.12857142857143,4762.5,935.2223214285714,301.12857142857143,4866.4,935.2223214285714,301.12857142857143,4974.4]","[1533.6,1533.6,1000,0,533.6,""oops"",""down"",""up"",""bad_move"",4667.8,3133.2,2407.5,1534.7,725.6,""smooth"",""down"",""down"",""good_move"",7292.2,2623.2,2145.7,4669,477.5,""smooth"",""down"",""down"",""good_move"",10261.2,2968.1,2481.8,7293.1,486.3,""oops"",""down"",""left"",""good_move"",12865.5,2603,2111.4,10262.5,491.6,""smooth"",""down"",""down"",""good_move"",15585.4,2718.2,2281.3,12867.2,436.9,""smooth"",""down"",""down"",""good_move"",18351.3,2764.4,2344.7,15586.9,419.7,""oops"",""left"",""right"",""bad_move"",21780.3,3427.9,2636.9,18352.4,791,""oops"",""left"",""left"",""good_move"",25272.7,3489.1,2255,21783.6,1234.1,""oops"",""left"",""right"",""bad_move"",28622.6,3349.1,2914,25273.5,435.1,""oops"",""left"",""right"",""bad_move"",35474.3,6849.4,2778,32113.9,582.4,""oops"",""right"",""up"",""bad_move"",40062.6,4587.4,2787.7,35475.2,1799.7,""smooth"",""left"",""left"",""good_move"",49848.5,9785.1,2226.1,47079.1,543.3,""smooth"",""left"",""left"",""good_move"",53308.6,3457.4,2760.7,49851.3,696.7,""oops"",""left"",""up"",""bad_move"",57061.2,3751.7,3236,53309.6,515.6,""smooth"",""left"",""left"",""good_move"",60669.3,3607.1,2694.8,57062.2,912.3,""oops"",""left"",""down"",""good_move"",64168.4,3498.1,2618.2,60670.4,879.9,""oops"",""left"",""up"",""bad_move"",67814.9,3645.5,2509.9,64169.4,1135.6,""oops"",""right"",""right"",""bad_move"",71177.3,3359.4,2972,67818,387.3,""while_blue"",""left"",""right"",""bad_move"",74415.2,3237,2546.9,71178.2,690.1,""oops"",""left"",""down"",""good_move""]","",""
"7230","","<div style=""width:500px;"">
  <p>What determined the result of this run?</p>
  </div>","0","html-slider-response","55","1024226","0.0-5.0-1.9","7","1","2025-07-09 08:39:00","01610cd0009c79a99da7d0a3353eb402","41.13.191.151","Mozilla/5.0 (Windows NT 10.0; Win64; x64) AppleWebKit/537.36 (KHTML, like Gecko) Chrome/138.0.0.0 Safari/537.36","WebKit","Chrome","138.0.0.0","Windows","10.0","https://app.prolific.com/","en-US,en;q=0.9,xh;q=0.8","665f239f78bd39782ef04172","683db7602f5db6a34d12d064","686e2a76ca1cc66db849fefd","1","665f239f78bd39782ef04172","1","2025-07-09T08:56:10.681Z","","","","","","","","","","","AttribQ","","50","","","","","","","","","","","","","","","","","","","","","","","","","","","","",""
"4131","","<div style=""width:500px;"">
  <p>How much control did you have over the ball?</p>
  </div>","0","html-slider-response","56","1028361","0.0-5.0-2.9","7","1","2025-07-09 08:39:00","01610cd0009c79a99da7d0a3353eb402","41.13.191.151","Mozilla/5.0 (Windows NT 10.0; Win64; x64) AppleWebKit/537.36 (KHTML, like Gecko) Chrome/138.0.0.0 Safari/537.36","WebKit","Chrome","138.0.0.0","Windows","10.0","https://app.prolific.com/","en-US,en;q=0.9,xh;q=0.8","665f239f78bd39782ef04172","683db7602f5db6a34d12d064","686e2a76ca1cc66db849fefd","1","665f239f78bd39782ef04172","1","2025-07-09T08:56:14.816Z","","","","","","","","","","","ControlQ","","50","","","","","","","","","","","","","","","","","","","","","","","","","","","","",""
"8081","","<div style=""width:500px;"">
  <p>How would you describe your current emotional state?</p>
  </div>","73","html-slider-response","57","1036444","0.0-5.0-3.9","7","1","2025-07-09 08:39:00","01610cd0009c79a99da7d0a3353eb402","41.13.191.151","Mozilla/5.0 (Windows NT 10.0; Win64; x64) AppleWebKit/537.36 (KHTML, like Gecko) Chrome/138.0.0.0 Safari/537.36","WebKit","Chrome","138.0.0.0","Windows","10.0","https://app.prolific.com/","en-US,en;q=0.9,xh;q=0.8","665f239f78bd39782ef04172","683db7602f5db6a34d12d064","686e2a76ca1cc66db849fefd","1","665f239f78bd39782ef04172","1","2025-07-09T08:56:22.899Z","","","","","","","","","","","StressQ","","50","","","","","","","","","","","","","","","","","","","","","","","","","","","","",""
"4279","","<div style=""width:500px;"">
  <p>What best describes how you currently feel?</p>
  </div>","69","html-slider-response","58","1040726","0.0-5.0-4.9","7","1","2025-07-09 08:39:00","01610cd0009c79a99da7d0a3353eb402","41.13.191.151","Mozilla/5.0 (Windows NT 10.0; Win64; x64) AppleWebKit/537.36 (KHTML, like Gecko) Chrome/138.0.0.0 Safari/537.36","WebKit","Chrome","138.0.0.0","Windows","10.0","https://app.prolific.com/","en-US,en;q=0.9,xh;q=0.8","665f239f78bd39782ef04172","683db7602f5db6a34d12d064","686e2a76ca1cc66db849fefd","1","665f239f78bd39782ef04172","1","2025-07-09T08:56:27.181Z","","","","","","","","","","","MotivationQ","","50","","","","","","","","","","","","","","","","","","","","","","","","","","","","",""
"","","","","ctl-task-cpt","59","1403790","0.0-5.0-0.10","7","1","2025-07-09 08:39:00","01610cd0009c79a99da7d0a3353eb402","41.13.191.151","Mozilla/5.0 (Windows NT 10.0; Win64; x64) AppleWebKit/537.36 (KHTML, like Gecko) Chrome/138.0.0.0 Safari/537.36","WebKit","Chrome","138.0.0.0","Windows","10.0","https://app.prolific.com/","en-US,en;q=0.9,xh;q=0.8","665f239f78bd39782ef04172","683db7602f5db6a34d12d064","686e2a76ca1cc66db849fefd","1","665f239f78bd39782ef04172","1","2025-07-09T09:02:30.245Z","","","","","","","","","","","","","","win-only","1","g1:NE,g2:SW","0.5","11","0","1045455.8","259771.6","264820","359975.2","1","4","8","6","2","8","7","7","0","0.05303030303030303","1391.1","3000","1700","[""down"",""left""]","{""num_key_presses"":15,""num_perfect"":7,""num_errors"":1,""num_randdir"":7,""num_randdir_good_moves"":3,""num_whilered"":0,""num_whileblue"":0,""num_blue"":2,""num_good_moves"":10}","[293.22232142857143,294.12857142857143,1,293.22232142857143,294.12857142857143,116.6,293.22232142857143,294.12857142857143,222.7,293.22232142857143,294.12857142857143,329.3,293.22232142857143,294.12857142857143,431.6,293.22232142857143,294.12857142857143,535.3,293.22232142857143,294.12857142857143,646,293.22232142857143,294.12857142857143,761.9,65.22232142857143,487.12857142857143,882.3,49.222321428571426,495.12857142857143,1005.2,44.222321428571426,519.1285714285714,1124.1,41.222321428571426,536.1285714285714,1260.5,41.222321428571426,536.1285714285714,1372.7,41.222321428571426,536.1285714285714,1477.8,41.222321428571426,536.1285714285714,1596.1,41.222321428571426,536.1285714285714,1711,41.222321428571426,536.1285714285714,1813.9,41.222321428571426,536.1285714285714,1944.6,65.22232142857143,517.1285714285714,2066.3,439.22232142857143,390.12857142857143,2189.4,645.2223214285714,455.12857142857143,2309.6,655.2223214285714,458.12857142857143,2411.4,655.2223214285714,458.12857142857143,2519.3,655.2223214285714,458.12857142857143,2624.1,668.2223214285714,455.12857142857143,2753.9,674.2223214285714,454.12857142857143,2866.8,675.2223214285714,454.12857142857143,2977.5,675.2223214285714,454.12857142857143,3085.6,675.2223214285714,454.12857142857143,3200.1,675.2223214285714,454.12857142857143,3320,675.2223214285714,454.12857142857143,3420.3,675.2223214285714,454.12857142857143,3520.8,675.2223214285714,454.12857142857143,3720.7,675.2223214285714,454.12857142857143,3824.1,675.2223214285714,454.12857142857143,3928.9,675.2223214285714,454.12857142857143,4030.4,675.2223214285714,454.12857142857143,4132.2,675.2223214285714,454.12857142857143,4278.8,675.2223214285714,454.12857142857143,4387,675.2223214285714,454.12857142857143,4500.5,675.2223214285714,454.12857142857143,4601.6,675.2223214285714,454.12857142857143,4704.6,675.2223214285714,454.12857142857143,4852.6,675.2223214285714,454.12857142857143,4996.2]","[1619.8,1619.8,1000,0,619.8,""oops"",""down"",""up"",""bad_move"",10796.8,9175.8,3084,1621,6091.8,""smooth"",""left"",""left"",""good_move"",20209.9,9412.3,2744.1,10797.6,6668.2,""oops"",""left"",""right"",""bad_move"",23971.2,3758.3,2647.1,20213,1111.1,""oops"",""down"",""right"",""bad_move"",29486.2,5514.2,2515.2,23972,2999,""smooth"",""down"",""down"",""good_move"",33589.5,4102.3,2080.2,29487.3,2022,""smooth"",""down"",""down"",""good_move"",37103.9,3513.6,2662.8,33590.3,850.8,""oops"",""down"",""up"",""bad_move"",46533.3,9429.3,2850,37104.1,6579.2,""oops"",""down"",""down"",""good_move"",48068.1,1534.3,2812.4,46533.8,-1278.1,""error"",""-"",""-"",""no_move"",55262.9,7193.7,1751.8,52855.6,655.5,""smooth"",""down"",""down"",""good_move"",58731.3,3467.3,2545.3,55264,922,""smooth"",""down"",""down"",""good_move"",66016.2,7284.1,2717.5,62705.9,592.8,""smooth"",""left"",""left"",""good_move"",75307.6,9290.7,3350.7,66016.9,5940,""smooth"",""left"",""left"",""good_move"",84794.3,9486.1,3020.3,75308.2,6465.8,""oops"",""left"",""left"",""good_move"",94317.7,9522.7,2330.1,84795,7192.6,""oops"",""left"",""left"",""good_move""]","",""
"9733","","<div style=""width:500px;"">
  <p>What determined the result of this run?</p>
  </div>","66","html-slider-response","60","1413531","0.0-5.0-1.10","7","1","2025-07-09 08:39:00","01610cd0009c79a99da7d0a3353eb402","41.13.191.151","Mozilla/5.0 (Windows NT 10.0; Win64; x64) AppleWebKit/537.36 (KHTML, like Gecko) Chrome/138.0.0.0 Safari/537.36","WebKit","Chrome","138.0.0.0","Windows","10.0","https://app.prolific.com/","en-US,en;q=0.9,xh;q=0.8","665f239f78bd39782ef04172","683db7602f5db6a34d12d064","686e2a76ca1cc66db849fefd","1","665f239f78bd39782ef04172","1","2025-07-09T09:02:39.986Z","","","","","","","","","","","AttribQ","","50","","","","","","","","","","","","","","","","","","","","","","","","","","","","",""
"4187","","<div style=""width:500px;"">
  <p>How much control did you have over the ball?</p>
  </div>","42","html-slider-response","61","1417728","0.0-5.0-2.10","7","1","2025-07-09 08:39:00","01610cd0009c79a99da7d0a3353eb402","41.13.191.151","Mozilla/5.0 (Windows NT 10.0; Win64; x64) AppleWebKit/537.36 (KHTML, like Gecko) Chrome/138.0.0.0 Safari/537.36","WebKit","Chrome","138.0.0.0","Windows","10.0","https://app.prolific.com/","en-US,en;q=0.9,xh;q=0.8","665f239f78bd39782ef04172","683db7602f5db6a34d12d064","686e2a76ca1cc66db849fefd","1","665f239f78bd39782ef04172","1","2025-07-09T09:02:44.183Z","","","","","","","","","","","ControlQ","","50","","","","","","","","","","","","","","","","","","","","","","","","","","","","",""
"4047","","<div style=""width:500px;"">
  <p>How would you describe your current emotional state?</p>
  </div>","36","html-slider-response","62","1421778","0.0-5.0-3.10","7","1","2025-07-09 08:39:00","01610cd0009c79a99da7d0a3353eb402","41.13.191.151","Mozilla/5.0 (Windows NT 10.0; Win64; x64) AppleWebKit/537.36 (KHTML, like Gecko) Chrome/138.0.0.0 Safari/537.36","WebKit","Chrome","138.0.0.0","Windows","10.0","https://app.prolific.com/","en-US,en;q=0.9,xh;q=0.8","665f239f78bd39782ef04172","683db7602f5db6a34d12d064","686e2a76ca1cc66db849fefd","1","665f239f78bd39782ef04172","1","2025-07-09T09:02:48.233Z","","","","","","","","","","","StressQ","","50","","","","","","","","","","","","","","","","","","","","","","","","","","","","",""
"3082","","<div style=""width:500px;"">
  <p>What best describes how you currently feel?</p>
  </div>","77","html-slider-response","63","1424863","0.0-5.0-4.10","7","1","2025-07-09 08:39:00","01610cd0009c79a99da7d0a3353eb402","41.13.191.151","Mozilla/5.0 (Windows NT 10.0; Win64; x64) AppleWebKit/537.36 (KHTML, like Gecko) Chrome/138.0.0.0 Safari/537.36","WebKit","Chrome","138.0.0.0","Windows","10.0","https://app.prolific.com/","en-US,en;q=0.9,xh;q=0.8","665f239f78bd39782ef04172","683db7602f5db6a34d12d064","686e2a76ca1cc66db849fefd","1","665f239f78bd39782ef04172","1","2025-07-09T09:02:51.318Z","","","","","","","","","","","MotivationQ","","50","","","","","","","","","","","","","","","","","","","","","","","","","","","","",""
"","","","","ctl-task-cpt","64","1462232","0.0-5.0-0.11","7","1","2025-07-09 08:39:00","01610cd0009c79a99da7d0a3353eb402","41.13.191.151","Mozilla/5.0 (Windows NT 10.0; Win64; x64) AppleWebKit/537.36 (KHTML, like Gecko) Chrome/138.0.0.0 Safari/537.36","WebKit","Chrome","138.0.0.0","Windows","10.0","https://app.prolific.com/","en-US,en;q=0.9,xh;q=0.8","665f239f78bd39782ef04172","683db7602f5db6a34d12d064","686e2a76ca1cc66db849fefd","1","665f239f78bd39782ef04172","1","2025-07-09T09:03:28.687Z","","","","","","","","","","","","","","win-only","3","g1:SW,g2:NE","0.6","12","0","1429593.5","1850.8","6855.6","34334.3","1","4","4","6","2","4","4","11","7","0.08333333333333333","1656.7","3000","2140","[""up"",""right""]","{""num_key_presses"":6,""num_perfect"":5,""num_errors"":0,""num_randdir"":1,""num_randdir_good_moves"":1,""num_whilered"":0,""num_whileblue"":0,""num_blue"":2,""num_good_moves"":6}","[298.22232142857143,290.12857142857143,1,298.22232142857143,290.12857142857143,105.2,298.22232142857143,290.12857142857143,218.3,298.22232142857143,290.12857142857143,336.9,298.22232142857143,290.12857142857143,452.8,298.22232142857143,290.12857142857143,568.5,298.22232142857143,290.12857142857143,681.1,561.2223214285714,-72.87142857142857,789.8,561.2223214285714,-72.87142857142857,904.6,561.2223214285714,-72.87142857142857,1022.2,561.2223214285714,-72.87142857142857,1125.4,567.2223214285714,3.1285714285714263,1242.5,556.2223214285714,26.128571428571426,1359.1,553.2223214285714,32.128571428571426,1466.8,553.2223214285714,32.128571428571426,1566.9,553.2223214285714,32.128571428571426,1675,553.2223214285714,32.128571428571426,1787.7,553.2223214285714,32.128571428571426,1892.8,553.2223214285714,32.128571428571426,1994,553.2223214285714,32.128571428571426,2107.2,553.2223214285714,32.128571428571426,2218.6,548.2223214285714,44.128571428571426,2323.9,540.2223214285714,109.12857142857143,2443.9,606.2223214285714,122.12857142857143,2553,641.2223214285714,135.12857142857143,2666.5,643.2223214285714,138.12857142857143,2777.4,643.2223214285714,138.12857142857143,2892.7,643.2223214285714,138.12857142857143,3007.9,643.2223214285714,138.12857142857143,3108.7,643.2223214285714,138.12857142857143,3228.5,643.2223214285714,138.12857142857143,3342.2,643.2223214285714,138.12857142857143,3442.4,643.2223214285714,138.12857142857143,3557.9,643.2223214285714,138.12857142857143,3669.2,643.2223214285714,138.12857142857143,3769.6,643.2223214285714,138.12857142857143,3884.9,643.2223214285714,138.12857142857143,3996.8,643.2223214285714,138.12857142857143,4100.1,643.2223214285714,138.12857142857143,4218.3,643.2223214285714,138.12857142857143,4333.6,643.2223214285714,138.12857142857143,4435.9,643.2223214285714,138.12857142857143,4548.7,643.2223214285714,138.12857142857143,4655.5,643.2223214285714,138.12857142857143,4756.6,643.2223214285714,138.12857142857143,4871,643.2223214285714,138.12857142857143,4988.4]","[5926.9,5926.9,3370.8,2014.8,541.3,""smooth"",""right"",""right"",""good_move"",9560.9,3627.8,3071.5,5933.1,556.3,""smooth"",""right"",""right"",""good_move"",12686,3124.2,2552.7,9561.8,571.5,""oops"",""right"",""right"",""good_move"",16223,3535.9,3106,12687.1,429.9,""smooth"",""up"",""up"",""good_move"",20027.9,3803.6,2655.6,16224.3,1148,""smooth"",""up"",""up"",""good_move"",27073,7043.9,1965.5,24561.3,546.2,""smooth"",""up"",""up"",""good_move""]","",""
"4399","","<div style=""width:500px;"">
  <p>What determined the result of this run?</p>
  </div>","86","html-slider-response","65","1466635","0.0-5.0-1.11","7","1","2025-07-09 08:39:00","01610cd0009c79a99da7d0a3353eb402","41.13.191.151","Mozilla/5.0 (Windows NT 10.0; Win64; x64) AppleWebKit/537.36 (KHTML, like Gecko) Chrome/138.0.0.0 Safari/537.36","WebKit","Chrome","138.0.0.0","Windows","10.0","https://app.prolific.com/","en-US,en;q=0.9,xh;q=0.8","665f239f78bd39782ef04172","683db7602f5db6a34d12d064","686e2a76ca1cc66db849fefd","1","665f239f78bd39782ef04172","1","2025-07-09T09:03:33.091Z","","","","","","","","","","","AttribQ","","50","","","","","","","","","","","","","","","","","","","","","","","","","","","","",""
"3965","","<div style=""width:500px;"">
  <p>How much control did you have over the ball?</p>
  </div>","64","html-slider-response","66","1470604","0.0-5.0-2.11","7","1","2025-07-09 08:39:00","01610cd0009c79a99da7d0a3353eb402","41.13.191.151","Mozilla/5.0 (Windows NT 10.0; Win64; x64) AppleWebKit/537.36 (KHTML, like Gecko) Chrome/138.0.0.0 Safari/537.36","WebKit","Chrome","138.0.0.0","Windows","10.0","https://app.prolific.com/","en-US,en;q=0.9,xh;q=0.8","665f239f78bd39782ef04172","683db7602f5db6a34d12d064","686e2a76ca1cc66db849fefd","1","665f239f78bd39782ef04172","1","2025-07-09T09:03:37.060Z","","","","","","","","","","","ControlQ","","50","","","","","","","","","","","","","","","","","","","","","","","","","","","","",""
"3249","","<div style=""width:500px;"">
  <p>How would you describe your current emotional state?</p>
  </div>","25","html-slider-response","67","1473857","0.0-5.0-3.11","7","1","2025-07-09 08:39:00","01610cd0009c79a99da7d0a3353eb402","41.13.191.151","Mozilla/5.0 (Windows NT 10.0; Win64; x64) AppleWebKit/537.36 (KHTML, like Gecko) Chrome/138.0.0.0 Safari/537.36","WebKit","Chrome","138.0.0.0","Windows","10.0","https://app.prolific.com/","en-US,en;q=0.9,xh;q=0.8","665f239f78bd39782ef04172","683db7602f5db6a34d12d064","686e2a76ca1cc66db849fefd","1","665f239f78bd39782ef04172","1","2025-07-09T09:03:40.313Z","","","","","","","","","","","StressQ","","50","","","","","","","","","","","","","","","","","","","","","","","","","","","","",""
"3575","","<div style=""width:500px;"">
  <p>What best describes how you currently feel?</p>
  </div>","72","html-slider-response","68","1477438","0.0-5.0-4.11","7","1","2025-07-09 08:39:00","01610cd0009c79a99da7d0a3353eb402","41.13.191.151","Mozilla/5.0 (Windows NT 10.0; Win64; x64) AppleWebKit/537.36 (KHTML, like Gecko) Chrome/138.0.0.0 Safari/537.36","WebKit","Chrome","138.0.0.0","Windows","10.0","https://app.prolific.com/","en-US,en;q=0.9,xh;q=0.8","665f239f78bd39782ef04172","683db7602f5db6a34d12d064","686e2a76ca1cc66db849fefd","1","665f239f78bd39782ef04172","1","2025-07-09T09:03:43.893Z","","","","","","","","","","","MotivationQ","","50","","","","","","","","","","","","","","","","","","","","","","","","","","","","",""
"","","","","ctl-task-cpt","69","1545058","0.0-5.0-0.12","7","1","2025-07-09 08:39:00","01610cd0009c79a99da7d0a3353eb402","41.13.191.151","Mozilla/5.0 (Windows NT 10.0; Win64; x64) AppleWebKit/537.36 (KHTML, like Gecko) Chrome/138.0.0.0 Safari/537.36","WebKit","Chrome","138.0.0.0","Windows","10.0","https://app.prolific.com/","en-US,en;q=0.9,xh;q=0.8","665f239f78bd39782ef04172","683db7602f5db6a34d12d064","686e2a76ca1cc66db849fefd","1","665f239f78bd39782ef04172","1","2025-07-09T09:04:51.513Z","","","","","","","","","","","","","","win-only","1","g1:NE,g2:SW","0.7","13","0","1482169.2","2660.8","7675.2","64554.3","1","4","8","6","2","8","8","19","11","0.14393939393939395","1348.4","3000","2220","[""down"",""left""]","{""num_key_presses"":8,""num_perfect"":6,""num_errors"":0,""num_randdir"":2,""num_randdir_good_moves"":1,""num_whilered"":0,""num_whileblue"":0,""num_blue"":3,""num_good_moves"":7}","[296.22232142857143,297.12857142857143,1.2,296.22232142857143,297.12857142857143,114.2,296.22232142857143,297.12857142857143,244.5,296.22232142857143,297.12857142857143,348.9,296.22232142857143,297.12857142857143,456,296.22232142857143,297.12857142857143,568.6,296.22232142857143,297.12857142857143,675.2,116.22232142857143,479.12857142857143,788.1,76.22232142857143,510.12857142857143,905.1,62.222321428571426,520.1285714285714,1022.2,48.222321428571426,535.1285714285714,1134.9,47.222321428571426,537.1285714285714,1238.5,47.222321428571426,537.1285714285714,1343.1,47.222321428571426,537.1285714285714,1451,47.222321428571426,537.1285714285714,1555.4,47.222321428571426,537.1285714285714,1660.2,47.222321428571426,537.1285714285714,1761.7,47.222321428571426,537.1285714285714,1862.9,47.222321428571426,537.1285714285714,1965.6,47.222321428571426,537.1285714285714,2073.3,47.222321428571426,537.1285714285714,2213.7,62.222321428571426,535.1285714285714,2322,183.22232142857143,493.12857142857143,2437.3,411.22232142857143,469.12857142857143,2557.6,439.22232142857143,478.12857142857143,2662.4,439.22232142857143,478.12857142857143,2763.4,439.22232142857143,478.12857142857143,2865.8,439.22232142857143,478.12857142857143,2967.9,523.2223214285714,433.12857142857143,3086.2,659.2223214285714,382.12857142857143,3204.4,664.2223214285714,382.12857142857143,3315.3,664.2223214285714,382.12857142857143,3444,664.2223214285714,382.12857142857143,3553.4,665.2223214285714,382.12857142857143,3663.7,679.2223214285714,394.12857142857143,3775.2,686.2223214285714,400.12857142857143,3892.2,687.2223214285714,400.12857142857143,3997.5,687.2223214285714,400.12857142857143,4111.1,640.2223214285714,395.12857142857143,4221.8,539.2223214285714,395.12857142857143,4342.5,536.2223214285714,395.12857142857143,4452.2,536.2223214285714,395.12857142857143,4555,499.22232142857143,406.12857142857143,4661.3,200.22232142857143,502.12857142857143,4782.4,181.22232142857143,512.1285714285714,4899.5]","[2229.9,2230,1000,0,1230,""smooth"",""down"",""down"",""good_move"",11788.6,9557.9,2772.7,8461.8,554.1,""smooth"",""down"",""down"",""good_move"",15549.4,3760.4,2954.7,11789.1,805.7,""smooth"",""down"",""down"",""good_move"",19070.8,3520.7,1968.1,15550.2,1552.6,""oops"",""left"",""right"",""bad_move"",26786.4,7714.2,2937,23120.2,729.2,""smooth"",""left"",""left"",""good_move"",36321,9533.7,3222.7,26787.3,6311,""oops"",""left"",""left"",""good_move"",46081.3,9759.7,2116.8,36321.7,7642.8,""smooth"",""left"",""left"",""good_move"",55823.8,9741.9,2911,46082,6830.9,""smooth"",""left"",""left"",""good_move""]","",""
"9222","","<div style=""width:500px;"">
  <p>What determined the result of this run?</p>
  </div>","86","html-slider-response","70","1554285","0.0-5.0-1.12","7","1","2025-07-09 08:39:00","01610cd0009c79a99da7d0a3353eb402","41.13.191.151","Mozilla/5.0 (Windows NT 10.0; Win64; x64) AppleWebKit/537.36 (KHTML, like Gecko) Chrome/138.0.0.0 Safari/537.36","WebKit","Chrome","138.0.0.0","Windows","10.0","https://app.prolific.com/","en-US,en;q=0.9,xh;q=0.8","665f239f78bd39782ef04172","683db7602f5db6a34d12d064","686e2a76ca1cc66db849fefd","1","665f239f78bd39782ef04172","1","2025-07-09T09:05:00.740Z","","","","","","","","","","","AttribQ","","50","","","","","","","","","","","","","","","","","","","","","","","","","","","","",""
"5092","","<div style=""width:500px;"">
  <p>How much control did you have over the ball?</p>
  </div>","62","html-slider-response","71","1559384","0.0-5.0-2.12","7","1","2025-07-09 08:39:00","01610cd0009c79a99da7d0a3353eb402","41.13.191.151","Mozilla/5.0 (Windows NT 10.0; Win64; x64) AppleWebKit/537.36 (KHTML, like Gecko) Chrome/138.0.0.0 Safari/537.36","WebKit","Chrome","138.0.0.0","Windows","10.0","https://app.prolific.com/","en-US,en;q=0.9,xh;q=0.8","665f239f78bd39782ef04172","683db7602f5db6a34d12d064","686e2a76ca1cc66db849fefd","1","665f239f78bd39782ef04172","1","2025-07-09T09:05:05.839Z","","","","","","","","","","","ControlQ","","50","","","","","","","","","","","","","","","","","","","","","","","","","","","","",""
"3907","","<div style=""width:500px;"">
  <p>How would you describe your current emotional state?</p>
  </div>","20","html-slider-response","72","1563298","0.0-5.0-3.12","7","1","2025-07-09 08:39:00","01610cd0009c79a99da7d0a3353eb402","41.13.191.151","Mozilla/5.0 (Windows NT 10.0; Win64; x64) AppleWebKit/537.36 (KHTML, like Gecko) Chrome/138.0.0.0 Safari/537.36","WebKit","Chrome","138.0.0.0","Windows","10.0","https://app.prolific.com/","en-US,en;q=0.9,xh;q=0.8","665f239f78bd39782ef04172","683db7602f5db6a34d12d064","686e2a76ca1cc66db849fefd","1","665f239f78bd39782ef04172","1","2025-07-09T09:05:09.753Z","","","","","","","","","","","StressQ","","50","","","","","","","","","","","","","","","","","","","","","","","","","","","","",""
"5571","","<div style=""width:500px;"">
  <p>What best describes how you currently feel?</p>
  </div>","74","html-slider-response","73","1568878","0.0-5.0-4.12","7","1","2025-07-09 08:39:00","01610cd0009c79a99da7d0a3353eb402","41.13.191.151","Mozilla/5.0 (Windows NT 10.0; Win64; x64) AppleWebKit/537.36 (KHTML, like Gecko) Chrome/138.0.0.0 Safari/537.36","WebKit","Chrome","138.0.0.0","Windows","10.0","https://app.prolific.com/","en-US,en;q=0.9,xh;q=0.8","665f239f78bd39782ef04172","683db7602f5db6a34d12d064","686e2a76ca1cc66db849fefd","1","665f239f78bd39782ef04172","1","2025-07-09T09:05:15.333Z","","","","","","","","","","","MotivationQ","","50","","","","","","","","","","","","","","","","","","","","","","","","","","","","",""
"","","","","ctl-task-cpt","74","1627321","0.0-5.0-0.13","7","1","2025-07-09 08:39:00","01610cd0009c79a99da7d0a3353eb402","41.13.191.151","Mozilla/5.0 (Windows NT 10.0; Win64; x64) AppleWebKit/537.36 (KHTML, like Gecko) Chrome/138.0.0.0 Safari/537.36","WebKit","Chrome","138.0.0.0","Windows","10.0","https://app.prolific.com/","en-US,en;q=0.9,xh;q=0.8","665f239f78bd39782ef04172","683db7602f5db6a34d12d064","686e2a76ca1cc66db849fefd","1","665f239f78bd39782ef04172","1","2025-07-09T09:06:13.777Z","","","","","","","","","","","","","","win-only","3","g1:SW,g2:NE","0.8","14","0","1573609.9","2393.8","7432.2","55372.9","1","4","4","6","2","4","4","23","19","0.17424242424242425","1514","3000","2565","[""up"",""right""]","{""num_key_presses"":8,""num_perfect"":7,""num_errors"":0,""num_randdir"":1,""num_randdir_good_moves"":0,""num_whilered"":0,""num_whileblue"":0,""num_blue"":0,""num_good_moves"":7}","[294.22232142857143,291.12857142857143,0.7,294.22232142857143,291.12857142857143,136.7,294.22232142857143,291.12857142857143,264.5,294.22232142857143,291.12857142857143,388.9,294.22232142857143,291.12857142857143,517.7,294.22232142857143,291.12857142857143,638.7,302.22232142857143,283.12857142857143,780.8,417.22232142857143,174.12857142857143,916.9,451.22232142857143,137.12857142857143,1052.6,507.22232142857143,74.12857142857143,1188.8,535.2223214285714,55.128571428571426,1321.8,536.2223214285714,55.128571428571426,1446.4,536.2223214285714,55.128571428571426,1574.4,536.2223214285714,55.128571428571426,1704.5,536.2223214285714,55.128571428571426,1827.3,536.2223214285714,55.128571428571426,1951.9,536.2223214285714,55.128571428571426,2077,641.2223214285714,67.12857142857143,2222.9,715.2223214285714,110.12857142857143,2350,715.2223214285714,110.12857142857143,2472.9,715.2223214285714,110.12857142857143,2594.8,715.2223214285714,110.12857142857143,2715.5,715.2223214285714,110.12857142857143,2833.7,715.2223214285714,110.12857142857143,2957.3,715.2223214285714,110.12857142857143,3087.4,715.2223214285714,110.12857142857143,3210,715.2223214285714,110.12857142857143,3331.4,715.2223214285714,110.12857142857143,3452.8,715.2223214285714,110.12857142857143,3571.7,715.2223214285714,110.12857142857143,3695.9,715.2223214285714,110.12857142857143,3815.2,715.2223214285714,110.12857142857143,3935.3,715.2223214285714,110.12857142857143,4056.5,715.2223214285714,110.12857142857143,4183.8,715.2223214285714,110.12857142857143,4307.6,715.2223214285714,110.12857142857143,4423.7,715.2223214285714,110.12857142857143,4548.2,715.2223214285714,110.12857142857143,4668.3,715.2223214285714,110.12857142857143,4794.6,715.2223214285714,110.12857142857143,4913.3]","[1671,1671,1000,0,671,""smooth"",""right"",""right"",""good_move"",4768.9,3097,2273.7,1671.9,823.3,""oops"",""right"",""down"",""bad_move"",7268.4,2496.9,1797.8,4771.5,699.1,""smooth"",""right"",""right"",""good_move"",10060,2791.4,2143.6,7268.6,647.8,""smooth"",""right"",""right"",""good_move"",13006.3,2945.5,2050.4,10060.8,895.2,""smooth"",""up"",""up"",""good_move"",24174.8,11167.4,1829,13007.4,9338.4,""smooth"",""up"",""up"",""good_move"",35632.5,11457,2959.6,24175.5,8497.4,""smooth"",""up"",""up"",""good_move"",47239.1,11606.2,2776.2,35632.9,8830,""smooth"",""up"",""up"",""good_move""]","",""
"6087","","<div style=""width:500px;"">
  <p>What determined the result of this run?</p>
