"rt","response_timestamp","stimulus","response","trial_type","trial_index","time_elapsed","internal_node_id","run_id","condition","recorded_at","source_code_version","ip","user_agent","device","browser","browser_version","platform","platform_version","referer","accept_language","PROLIFIC_PID","STUDY_ID","SESSION_ID","WEEK","BATCH","prolific_id","week","batch","realtime","success","responses","item_order","radio_event_ids","radio_event_times","key_event_times","mouse_event_times","straightlining","zigzagging","honeypot","eventType","view_history","slider_start","which_type","canvas_config","goals_layout","control_level","trial_number","tutorial_trial_number","trial_start_time","phase1_start_time","phase2_start_time","phase3_start_time","goal_1_value","goal_1_distance","goal_2_value","goal_2_distance","goal_selected","outcome","outcome_total","participant_final_score","participant_initial_score","participant_final_score_prop","goal_choice_rt","allocated_time","allocated_time_remaining","goal_direction","counts","mouse_movements","key_presses","question_order","question_id"
"27225","1754366770303","<p style='font-size:40px;line-height:1.25'><strong>Welcome to the experiment!</strong></p><p style='font-size:1.1em;line-height:1.25'>Thank you for participanting in our experiment again! You will be asked to play the Dysfunctional Ball Game again. We will briefly recap the rules before we start.</p><p style='font-size:1.1em;line-height:1.25'>Press <strong>Next</strong> to continue.</p>","0","custom-html-button-response","0","27228","0.0-0.0","314","1","2025-08-05 04:05:42","1f75c3e559b7213887762d5229550c2b","71.138.89.249","Mozilla/5.0 (Windows NT 10.0; Win64; x64) AppleWebKit/537.36 (KHTML, like Gecko) Chrome/138.0.0.0 Safari/537.36","WebKit","Chrome","138.0.0.0","Windows","10.0","https://app.prolific.com/","en-US,en;q=0.9","5f0a7dec44c42c19a6c9f6d9","6877631c9844ddd5501205fc","689183102d242346150d0d12","3","1","5f0a7dec44c42c19a6c9f6d9","3","1","2025-08-05T04:06:10.304Z","","","","","","","","","","","","","","","","","","","","","","","","","","","","","","","","","","","","","","","","","",""
"3225","","","","fullscreen","1","31464","0.0-1.0","314","1","2025-08-05 04:05:42","1f75c3e559b7213887762d5229550c2b","71.138.89.249","Mozilla/5.0 (Windows NT 10.0; Win64; x64) AppleWebKit/537.36 (KHTML, like Gecko) Chrome/138.0.0.0 Safari/537.36","WebKit","Chrome","138.0.0.0","Windows","10.0","https://app.prolific.com/","en-US,en;q=0.9","5f0a7dec44c42c19a6c9f6d9","6877631c9844ddd5501205fc","689183102d242346150d0d12","3","1","5f0a7dec44c42c19a6c9f6d9","3","1","","true","","","","","","","","","","","","","","","","","","","","","","","","","","","","","","","","","","","","","","","","",""
"152181","1754366926722","<p style='font-size:1.1em;line-height:1.25'>In the following, we will ask you a few questions relating to your feelings in the last 24 hours.<br></p><p style='font-size:1.1em;line-height:1.25'>Press the <strong>Next</strong> button to continue.</p>","0","custom-html-button-response","2","183647","0.0-2.0-0.0","314","1","2025-08-05 04:05:42","1f75c3e559b7213887762d5229550c2b","71.138.89.249","Mozilla/5.0 (Windows NT 10.0; Win64; x64) AppleWebKit/537.36 (KHTML, like Gecko) Chrome/138.0.0.0 Safari/537.36","WebKit","Chrome","138.0.0.0","Windows","10.0","https://app.prolific.com/","en-US,en;q=0.9","5f0a7dec44c42c19a6c9f6d9","6877631c9844ddd5501205fc","689183102d242346150d0d12","3","1","5f0a7dec44c42c19a6c9f6d9","3","1","2025-08-05T04:08:46.723Z","","","","","","","","","","","","","","","","","","","","","","","","","","","","","","","","","","","","","","","","","",""
"68395.30000001192","","","","survey-template","3","252048","0.0-2.0-1.0","314","1","2025-08-05 04:05:42","1f75c3e559b7213887762d5229550c2b","71.138.89.249","Mozilla/5.0 (Windows NT 10.0; Win64; x64) AppleWebKit/537.36 (KHTML, like Gecko) Chrome/138.0.0.0 Safari/537.36","WebKit","Chrome","138.0.0.0","Windows","10.0","https://app.prolific.com/","en-US,en;q=0.9","5f0a7dec44c42c19a6c9f6d9","6877631c9844ddd5501205fc","689183102d242346150d0d12","3","1","5f0a7dec44c42c19a6c9f6d9","3","1","2025-08-05T04:09:55.124Z","","{""Q01"":""1"",""Q02"":""0"",""Q03"":""0"",""Q04"":""2"",""Q05"":""2"",""Q06"":""1"",""Q07"":""1"",""Q08"":""0"",""Q09"":""1"",""Q10"":""0"",""Q11"":""1"",""Q12"":""2"",""Q13"":""5"",""Q14"":""2"",""Q15"":""1"",""Q16"":""1"",""Q17"":""1"",""Q18"":""0"",""Q19"":""1"",""Q20"":""1"",""Q21"":""1"",""Q22"":""2""}","[0,1,2,3,4,5,6,7,8,9,10,11,12,13,14,15,16,17,18,19,20,21]","[""Q01"",""Q01"",""Q02"",""Q03"",""Q04"",""Q05"",""Q06"",""Q07"",""Q08"",""Q09"",""Q10"",""Q11"",""Q12"",""Q13"",""Q14"",""Q15"",""Q16"",""Q17"",""Q18"",""Q19"",""Q19"",""Q20"",""Q21"",""Q22"",""Q22""]","[3717.7000000178814,6802.0999999940395,8377.300000011921,10062.40000000596,11363.300000011921,12817.200000017881,15521.800000011921,17061.09999999404,21942.09999999404,24445.30000001192,26963.20000001788,30925.40000000596,32732.80000001192,35437.09999999404,39465.5,42487.20000001788,46048.09999999404,51761.40000000596,53372.90000000596,54521.20000001788,55772.90000000596,60967,63450.90000000596,65179,67564.90000000596]","[]","[0.20000001788139343,3717.7000000178814,6802.0999999940395,8377.300000011921,10062.40000000596,11363.300000011921,12817.200000017881,15521.800000011921,17061.09999999404,21942.09999999404,24445.30000001192,26963.20000001788,30925.40000000596,32732.80000001192,35437.09999999404,39465.5,41618.5,42487.20000001788,46048.09999999404,51761.40000000596,53372.90000000596,54521.20000001788,55772.90000000596,60967,62829.09999999404,63450.90000000596,65179,67118,67564.90000000596,68391.5]","0.5","0.5238095238095238","0","drsp","","","","","","","","","","","","","","","","","","","","","","","","","","","","","","",""
"8471","","","","survey-template","4","260521","0.0-2.0-2.0","314","1","2025-08-05 04:05:42","1f75c3e559b7213887762d5229550c2b","71.138.89.249","Mozilla/5.0 (Windows NT 10.0; Win64; x64) AppleWebKit/537.36 (KHTML, like Gecko) Chrome/138.0.0.0 Safari/537.36","WebKit","Chrome","138.0.0.0","Windows","10.0","https://app.prolific.com/","en-US,en;q=0.9","5f0a7dec44c42c19a6c9f6d9","6877631c9844ddd5501205fc","689183102d242346150d0d12","3","1","5f0a7dec44c42c19a6c9f6d9","3","1","2025-08-05T04:10:03.597Z","","{""Q01"":""3"",""Q02"":""2"",""Q03"":""0""}","[0,1,2]","[""Q01"",""Q02"",""Q03""]","[2498.300000011921,4997.700000017881,7210.4000000059605]","[]","[2498.300000011921,4997.700000017881,7210.4000000059605,8470.200000017881]","0.6666666666666666","0","0","stress","","","","","","","","","","","","","","","","","","","","","","","","","","","","","","",""
"25870","","","","instructions","5","286392","0.0-3.0-0.0","314","1","2025-08-05 04:05:42","1f75c3e559b7213887762d5229550c2b","71.138.89.249","Mozilla/5.0 (Windows NT 10.0; Win64; x64) AppleWebKit/537.36 (KHTML, like Gecko) Chrome/138.0.0.0 Safari/537.36","WebKit","Chrome","138.0.0.0","Windows","10.0","https://app.prolific.com/","en-US,en;q=0.9","5f0a7dec44c42c19a6c9f6d9","6877631c9844ddd5501205fc","689183102d242346150d0d12","3","1","5f0a7dec44c42c19a6c9f6d9","3","1","","","","","","","","","","","","","[{""page_index"":0,""viewing_time"":25869}]","","","","","","","","","","","","","","","","","","","","","","","","","","","","","",""
"3722","","<p>Before you start with this game please answer the following three questions yourself. </p>
  <p>Through this game, we measure several aspects of your cognitive performance, such as reaction times, multi-tasking capabilities </p>
  <p>and the ability to assess the situation you are in.</p>
  <p></p>
  <p><b>How good do you usually are in such tasks?</b></p>","72","html-slider-response","6","290116","0.0-4.0-0.0","314","1","2025-08-05 04:05:42","1f75c3e559b7213887762d5229550c2b","71.138.89.249","Mozilla/5.0 (Windows NT 10.0; Win64; x64) AppleWebKit/537.36 (KHTML, like Gecko) Chrome/138.0.0.0 Safari/537.36","WebKit","Chrome","138.0.0.0","Windows","10.0","https://app.prolific.com/","en-US,en;q=0.9","5f0a7dec44c42c19a6c9f6d9","6877631c9844ddd5501205fc","689183102d242346150d0d12","3","1","5f0a7dec44c42c19a6c9f6d9","3","1","2025-08-05T04:10:33.193Z","","","","","","","","","","","PreSkillQ","","50","","","","","","","","","","","","","","","","","","","","","","","","","","","","",""
"4090","","<div style=""width:500px;"">
  <p>How well do you think you will perform in this task compared to other participants?</p>
  </div>","51","html-slider-response","7","294208","0.0-4.0-1.0","314","1","2025-08-05 04:05:42","1f75c3e559b7213887762d5229550c2b","71.138.89.249","Mozilla/5.0 (Windows NT 10.0; Win64; x64) AppleWebKit/537.36 (KHTML, like Gecko) Chrome/138.0.0.0 Safari/537.36","WebKit","Chrome","138.0.0.0","Windows","10.0","https://app.prolific.com/","en-US,en;q=0.9","5f0a7dec44c42c19a6c9f6d9","6877631c9844ddd5501205fc","689183102d242346150d0d12","3","1","5f0a7dec44c42c19a6c9f6d9","3","1","2025-08-05T04:10:37.284Z","","","","","","","","","","","PrePerfQ","","50","","","","","","","","","","","","","","","","","","","","","","","","","","","","",""
"3432","","<div style=""width:500px;"">
  <p>What best describes how you currently feel?</p>
  </div>","68","html-slider-response","8","297641","0.0-4.0-2.0","314","1","2025-08-05 04:05:42","1f75c3e559b7213887762d5229550c2b","71.138.89.249","Mozilla/5.0 (Windows NT 10.0; Win64; x64) AppleWebKit/537.36 (KHTML, like Gecko) Chrome/138.0.0.0 Safari/537.36","WebKit","Chrome","138.0.0.0","Windows","10.0","https://app.prolific.com/","en-US,en;q=0.9","5f0a7dec44c42c19a6c9f6d9","6877631c9844ddd5501205fc","689183102d242346150d0d12","3","1","5f0a7dec44c42c19a6c9f6d9","3","1","2025-08-05T04:10:40.717Z","","","","","","","","","","","PreMotivationQ","","50","","","","","","","","","","","","","","","","","","","","","","","","","","","","",""
"","","","","ctl-task-cpt","9","327791","0.0-5.0-0.0","314","1","2025-08-05 04:05:42","1f75c3e559b7213887762d5229550c2b","71.138.89.249","Mozilla/5.0 (Windows NT 10.0; Win64; x64) AppleWebKit/537.36 (KHTML, like Gecko) Chrome/138.0.0.0 Safari/537.36","WebKit","Chrome","138.0.0.0","Windows","10.0","https://app.prolific.com/","en-US,en;q=0.9","5f0a7dec44c42c19a6c9f6d9","6877631c9844ddd5501205fc","689183102d242346150d0d12","3","1","5f0a7dec44c42c19a6c9f6d9","3","1","2025-08-05T04:11:10.867Z","","","","","","","","","","","","","","win-only","1","g1:NE,g2:SW","1","1","0","300516.1","1178.7","6181.3","27138.6","1","4","8","6","2","8","8","8","0","0.06060606060606061","5002.6","3000","445","[""down"",""left""]","{""num_key_presses"":6,""num_perfect"":6,""num_errors"":0,""num_randdir"":0,""num_randdir_good_moves"":0,""num_whilered"":0,""num_whileblue"":0,""num_blue"":1,""num_good_moves"":6}","[344.2851462364197,355.3789039850235,0.2,344.2851462364197,355.3789039850235,102.1,344.2851462364197,355.3789039850235,202.2,344.2851462364197,355.3789039850235,302.2,344.2851462364197,355.3789039850235,407.5,344.2851462364197,355.3789039850235,507.7,344.2851462364197,355.3789039850235,616.4,344.2851462364197,355.3789039850235,716.5,344.2851462364197,355.3789039850235,816.6,344.2851462364197,355.3789039850235,916.7,344.2851462364197,355.3789039850235,1017,344.2851462364197,355.3789039850235,1117,344.2851462364197,355.3789039850235,1222.2,372.1757712364197,342.2539039850235,1322.2,421.3945212364197,320.9257789850235,1422.2,421.3945212364197,320.9257789850235,1526.8,421.3945212364197,320.9257789850235,1633.1,421.3945212364197,320.9257789850235,1733.4,421.3945212364197,320.9257789850235,1833.5,421.3945212364197,320.9257789850235,1937.7,421.3945212364197,320.9257789850235,2037.8,421.3945212364197,320.9257789850235,2141.9,421.3945212364197,320.9257789850235,2242,421.3945212364197,320.9257789850235,2350.1,421.3945212364197,320.9257789850235,2450.4,421.3945212364197,320.9257789850235,2552,421.3945212364197,320.9257789850235,2652.8,421.3945212364197,320.9257789850235,2757.1,421.3945212364197,320.9257789850235,2857.2,421.3945212364197,320.9257789850235,2966.6,421.3945212364197,320.9257789850235,3066.7,421.3945212364197,320.9257789850235,3172,421.3945212364197,320.9257789850235,3283.3,421.3945212364197,320.9257789850235,3383.3,421.3945212364197,320.9257789850235,3487.5,421.3945212364197,320.9257789850235,3587.7,421.3945212364197,320.9257789850235,3691.9,421.3945212364197,320.9257789850235,3791.9,421.3945212364197,320.9257789850235,3892,421.3945212364197,320.9257789850235,3992.2,421.3945212364197,320.9257789850235,4099.8,421.3945212364197,320.9257789850235,4199.8,421.3945212364197,320.9257789850235,4299.9,421.3945212364197,320.9257789850235,4402.7,421.3945212364197,320.9257789850235,4507.6,421.3945212364197,320.9257789850235,4616.3,421.3945212364197,320.9257789850235,4716.4,421.3945212364197,320.9257789850235,4816.6,421.3945212364197,320.9257789850235,4921.9]","[1515.7,1515.6,1000,0.1,515.6,""smooth"",""down"",""down"",""good_move"",5047,3530.9,3178.8,1516.1,352.1,""smooth"",""down"",""down"",""good_move"",11233.4,6186,2282.7,8469.6,481.1,""smooth"",""down"",""down"",""good_move"",14585.9,3352.2,2697.9,11233.7,654.3,""smooth"",""left"",""left"",""good_move"",17763.4,3177,2753.1,14586.4,424,""smooth"",""left"",""left"",""good_move"",20863.7,3099.9,2637.4,17763.8,462.5,""smooth"",""left"",""left"",""good_move""]","",""
"2945","","<div style=""width:500px;"">
  <p>What determined the result of this run?</p>
  </div>","78","html-slider-response","10","330738","0.0-5.0-1.0","314","1","2025-08-05 04:05:42","1f75c3e559b7213887762d5229550c2b","71.138.89.249","Mozilla/5.0 (Windows NT 10.0; Win64; x64) AppleWebKit/537.36 (KHTML, like Gecko) Chrome/138.0.0.0 Safari/537.36","WebKit","Chrome","138.0.0.0","Windows","10.0","https://app.prolific.com/","en-US,en;q=0.9","5f0a7dec44c42c19a6c9f6d9","6877631c9844ddd5501205fc","689183102d242346150d0d12","3","1","5f0a7dec44c42c19a6c9f6d9","3","1","2025-08-05T04:11:13.814Z","","","","","","","","","","","AttribQ","","50","","","","","","","","","","","","","","","","","","","","","","","","","","","","",""
"2609","","<div style=""width:500px;"">
  <p>How much control did you have over the ball?</p>
  </div>","94","html-slider-response","11","333348","0.0-5.0-2.0","314","1","2025-08-05 04:05:42","1f75c3e559b7213887762d5229550c2b","71.138.89.249","Mozilla/5.0 (Windows NT 10.0; Win64; x64) AppleWebKit/537.36 (KHTML, like Gecko) Chrome/138.0.0.0 Safari/537.36","WebKit","Chrome","138.0.0.0","Windows","10.0","https://app.prolific.com/","en-US,en;q=0.9","5f0a7dec44c42c19a6c9f6d9","6877631c9844ddd5501205fc","689183102d242346150d0d12","3","1","5f0a7dec44c42c19a6c9f6d9","3","1","2025-08-05T04:11:16.424Z","","","","","","","","","","","ControlQ","","50","","","","","","","","","","","","","","","","","","","","","","","","","","","","",""
"2796","","<div style=""width:500px;"">
  <p>How would you describe your current emotional state?</p>
  </div>","24","html-slider-response","12","336145","0.0-5.0-3.0","314","1","2025-08-05 04:05:42","1f75c3e559b7213887762d5229550c2b","71.138.89.249","Mozilla/5.0 (Windows NT 10.0; Win64; x64) AppleWebKit/537.36 (KHTML, like Gecko) Chrome/138.0.0.0 Safari/537.36","WebKit","Chrome","138.0.0.0","Windows","10.0","https://app.prolific.com/","en-US,en;q=0.9","5f0a7dec44c42c19a6c9f6d9","6877631c9844ddd5501205fc","689183102d242346150d0d12","3","1","5f0a7dec44c42c19a6c9f6d9","3","1","2025-08-05T04:11:19.221Z","","","","","","","","","","","StressQ","","50","","","","","","","","","","","","","","","","","","","","","","","","","","","","",""
"3993","","<div style=""width:500px;"">
  <p>What best describes how you currently feel?</p>
  </div>","84","html-slider-response","13","340140","0.0-5.0-4.0","314","1","2025-08-05 04:05:42","1f75c3e559b7213887762d5229550c2b","71.138.89.249","Mozilla/5.0 (Windows NT 10.0; Win64; x64) AppleWebKit/537.36 (KHTML, like Gecko) Chrome/138.0.0.0 Safari/537.36","WebKit","Chrome","138.0.0.0","Windows","10.0","https://app.prolific.com/","en-US,en;q=0.9","5f0a7dec44c42c19a6c9f6d9","6877631c9844ddd5501205fc","689183102d242346150d0d12","3","1","5f0a7dec44c42c19a6c9f6d9","3","1","2025-08-05T04:11:23.216Z","","","","","","","","","","","MotivationQ","","50","","","","","","","","","","","","","","","","","","","","","","","","","","","","",""
"","","","","ctl-task-cpt","14","363791","0.0-5.0-0.1","314","1","2025-08-05 04:05:42","1f75c3e559b7213887762d5229550c2b","71.138.89.249","Mozilla/5.0 (Windows NT 10.0; Win64; x64) AppleWebKit/537.36 (KHTML, like Gecko) Chrome/138.0.0.0 Safari/537.36","WebKit","Chrome","138.0.0.0","Windows","10.0","https://app.prolific.com/","en-US,en;q=0.9","5f0a7dec44c42c19a6c9f6d9","6877631c9844ddd5501205fc","689183102d242346150d0d12","3","1","5f0a7dec44c42c19a6c9f6d9","3","1","2025-08-05T04:11:46.867Z","","","","","","","","","","","","","","win-only","0","g1:NW,g2:SE","0.9","2","0","343013.2","2534.7","7536.8","20640.7","1","4","4","6","1","1","1","9","8","0.06818181818181818","5002.1","3000","1510","[""left"",""up""]","{""num_key_presses"":4,""num_perfect"":4,""num_errors"":0,""num_randdir"":0,""num_randdir_good_moves"":0,""num_whilered"":0,""num_whileblue"":0,""num_blue"":1,""num_good_moves"":4}","[352.4882712364197,348.8164039850235,0.7,352.4882712364197,348.8164039850235,101.3,386.9413962364197,366.8632789850235,206.4,390.2226462364197,370.1445289850235,314.6,447.6445212364197,381.6289039850235,415.1,508.3476462364197,383.2695289850235,517,560.8476462364197,393.1132789850235,618,560.8476462364197,393.1132789850235,720.7,560.8476462364197,393.1132789850235,821,560.8476462364197,393.1132789850235,931.1,572.3320212364197,394.7539039850235,1031.3,701.9413962364197,406.2382789850235,1131.5,738.0351462364197,407.8789039850235,1238.2,738.0351462364197,407.8789039850235,1342.6,738.0351462364197,407.8789039850235,1447.3,741.3163962364197,412.8007789850235,1547.6,742.9570212364197,411.1601539850235,1647.7,744.5976462364197,406.2382789850235,1751.3,747.8788962364197,406.2382789850235,1856.6,770.8476462364197,402.9570289850235,1964.3,770.8476462364197,402.9570289850235,2065,774.1288962364197,402.9570289850235,2166.3,774.1288962364197,402.9570289850235,2266.6,774.1288962364197,402.9570289850235,2372.5,774.1288962364197,402.9570289850235,2480.8,774.1288962364197,402.9570289850235,2581,774.1288962364197,402.9570289850235,2685.7,774.1288962364197,402.9570289850235,2785.9,774.1288962364197,402.9570289850235,2886.2,774.1288962364197,402.9570289850235,2987.9,774.1288962364197,402.9570289850235,3091,774.1288962364197,402.9570289850235,3191.6,774.1288962364197,402.9570289850235,3297.3,774.1288962364197,402.9570289850235,3401.4,774.1288962364197,402.9570289850235,3506.3,774.1288962364197,402.9570289850235,3608,774.1288962364197,402.9570289850235,3714,774.1288962364197,402.9570289850235,3816.2,774.1288962364197,402.9570289850235,3916.3,774.1288962364197,402.9570289850235,4016.9,774.1288962364197,402.9570289850235,4118.1,774.1288962364197,402.9570289850235,4222.3,774.1288962364197,402.9570289850235,4330.6,774.1288962364197,402.9570289850235,4435.6,774.1288962364197,402.9570289850235,4536.5,774.1288962364197,402.9570289850235,4641.6,774.1288962364197,402.9570289850235,4742.5,774.1288962364197,402.9570289850235,4847.3,774.1288962364197,402.9570289850235,4947.5]","[5134.1,5134.1,2717.9,2004.6,411.6,""smooth"",""up"",""up"",""good_move"",7518,2383.3,1967.4,5134.7,415.9,""smooth"",""up"",""up"",""good_move"",10398.6,2880.3,2444.5,7518.3,435.8,""smooth"",""left"",""left"",""good_move"",13011.5,2612.5,2190.2,10399,422.3,""smooth"",""left"",""left"",""good_move""]","",""
"7793","","<div style=""width:500px;"">
  <p>What determined the result of this run?</p>
  </div>","85","html-slider-response","15","371586","0.0-5.0-1.1","314","1","2025-08-05 04:05:42","1f75c3e559b7213887762d5229550c2b","71.138.89.249","Mozilla/5.0 (Windows NT 10.0; Win64; x64) AppleWebKit/537.36 (KHTML, like Gecko) Chrome/138.0.0.0 Safari/537.36","WebKit","Chrome","138.0.0.0","Windows","10.0","https://app.prolific.com/","en-US,en;q=0.9","5f0a7dec44c42c19a6c9f6d9","6877631c9844ddd5501205fc","689183102d242346150d0d12","3","1","5f0a7dec44c42c19a6c9f6d9","3","1","2025-08-05T04:11:54.662Z","","","","","","","","","","","AttribQ","","50","","","","","","","","","","","","","","","","","","","","","","","","","","","","",""
"2461","","<div style=""width:500px;"">
  <p>How much control did you have over the ball?</p>
  </div>","100","html-slider-response","16","374048","0.0-5.0-2.1","314","1","2025-08-05 04:05:42","1f75c3e559b7213887762d5229550c2b","71.138.89.249","Mozilla/5.0 (Windows NT 10.0; Win64; x64) AppleWebKit/537.36 (KHTML, like Gecko) Chrome/138.0.0.0 Safari/537.36","WebKit","Chrome","138.0.0.0","Windows","10.0","https://app.prolific.com/","en-US,en;q=0.9","5f0a7dec44c42c19a6c9f6d9","6877631c9844ddd5501205fc","689183102d242346150d0d12","3","1","5f0a7dec44c42c19a6c9f6d9","3","1","2025-08-05T04:11:57.124Z","","","","","","","","","","","ControlQ","","50","","","","","","","","","","","","","","","","","","","","","","","","","","","","",""
"2980","","<div style=""width:500px;"">
  <p>How would you describe your current emotional state?</p>
  </div>","31","html-slider-response","17","377029","0.0-5.0-3.1","314","1","2025-08-05 04:05:42","1f75c3e559b7213887762d5229550c2b","71.138.89.249","Mozilla/5.0 (Windows NT 10.0; Win64; x64) AppleWebKit/537.36 (KHTML, like Gecko) Chrome/138.0.0.0 Safari/537.36","WebKit","Chrome","138.0.0.0","Windows","10.0","https://app.prolific.com/","en-US,en;q=0.9","5f0a7dec44c42c19a6c9f6d9","6877631c9844ddd5501205fc","689183102d242346150d0d12","3","1","5f0a7dec44c42c19a6c9f6d9","3","1","2025-08-05T04:12:00.105Z","","","","","","","","","","","StressQ","","50","","","","","","","","","","","","","","","","","","","","","","","","","","","","",""
"1745","","<div style=""width:500px;"">
  <p>What best describes how you currently feel?</p>
  </div>","74","html-slider-response","18","378776","0.0-5.0-4.1","314","1","2025-08-05 04:05:42","1f75c3e559b7213887762d5229550c2b","71.138.89.249","Mozilla/5.0 (Windows NT 10.0; Win64; x64) AppleWebKit/537.36 (KHTML, like Gecko) Chrome/138.0.0.0 Safari/537.36","WebKit","Chrome","138.0.0.0","Windows","10.0","https://app.prolific.com/","en-US,en;q=0.9","5f0a7dec44c42c19a6c9f6d9","6877631c9844ddd5501205fc","689183102d242346150d0d12","3","1","5f0a7dec44c42c19a6c9f6d9","3","1","2025-08-05T04:12:01.852Z","","","","","","","","","","","MotivationQ","","50","","","","","","","","","","","","","","","","","","","","","","","","","","","","",""
"","","","","ctl-task-cpt","19","397642","0.0-5.0-0.2","314","1","2025-08-05 04:05:42","1f75c3e559b7213887762d5229550c2b","71.138.89.249","Mozilla/5.0 (Windows NT 10.0; Win64; x64) AppleWebKit/537.36 (KHTML, like Gecko) Chrome/138.0.0.0 Safari/537.36","WebKit","Chrome","138.0.0.0","Windows","10.0","https://app.prolific.com/","en-US,en;q=0.9","5f0a7dec44c42c19a6c9f6d9","6877631c9844ddd5501205fc","689183102d242346150d0d12","3","1","5f0a7dec44c42c19a6c9f6d9","3","1","2025-08-05T04:12:20.718Z","","","","","","","","","","","","","","win-only","3","g1:SW,g2:NE","0.8","3","0","381650.6","1252.7","6256.7","15845.3","1","4","4","6","1","1","0","9","9","0.06818181818181818","5004","3000","1935","[""down"",""left""]","{""num_key_presses"":4,""num_perfect"":3,""num_errors"":1,""num_randdir"":0,""num_randdir_good_moves"":0,""num_whilered"":0,""num_whileblue"":1,""num_blue"":1,""num_good_moves"":4}","[345.9257712364197,347.1757789850235,0.2,345.9257712364197,347.1757789850235,102.7,368.8945212364197,358.6601539850235,202.8,606.7851462364197,393.1132789850235,302.8,765.9257712364197,386.5507789850235,403.1,903.7382712364197,378.3476539850235,510.9,905.3788962364197,376.7070289850235,611.7,905.3788962364197,376.7070289850235,712.8,905.3788962364197,376.7070289850235,813.8,905.3788962364197,376.7070289850235,918,905.3788962364197,376.7070289850235,1026.5,905.3788962364197,376.7070289850235,1128.7,905.3788962364197,376.7070289850235,1229.6,905.3788962364197,376.7070289850235,1334.2,905.3788962364197,376.7070289850235,1442.6,905.3788962364197,376.7070289850235,1545.8,905.3788962364197,376.7070289850235,1646.1,905.3788962364197,376.7070289850235,1747.8,905.3788962364197,376.7070289850235,1849,905.3788962364197,376.7070289850235,1949.2,905.3788962364197,376.7070289850235,2059.8,905.3788962364197,376.7070289850235,2160.7,905.3788962364197,376.7070289850235,2263.5,905.3788962364197,376.7070289850235,2368.7,905.3788962364197,376.7070289850235,2476.3,905.3788962364197,376.7070289850235,2578.3,905.3788962364197,376.7070289850235,2679.2,905.3788962364197,376.7070289850235,2783.7,905.3788962364197,376.7070289850235,2883.8,905.3788962364197,376.7070289850235,2992.7,905.3788962364197,376.7070289850235,3098.1,905.3788962364197,376.7070289850235,3208.8,905.3788962364197,376.7070289850235,3311,905.3788962364197,376.7070289850235,3413.5,905.3788962364197,376.7070289850235,3514.2,905.3788962364197,376.7070289850235,3619.1,905.3788962364197,376.7070289850235,3719.2,905.3788962364197,376.7070289850235,3825.6,905.3788962364197,376.7070289850235,3926.1,905.3788962364197,376.7070289850235,4026.2,905.3788962364197,376.7070289850235,4128.5,905.3788962364197,376.7070289850235,4233.4,905.3788962364197,376.7070289850235,4343.7,905.3788962364197,376.7070289850235,4448.2,905.3788962364197,376.7070289850235,4548.3,905.3788962364197,376.7070289850235,4653.9,905.3788962364197,376.7070289850235,4759.7,905.3788962364197,376.7070289850235,4860.5,905.3788962364197,376.7070289850235,4962.9]","[1370.9,1370.9,1000,0,370.9,""smooth"",""down"",""down"",""good_move"",3346.6,1975.3,1560.1,1371.3,415.2,""smooth"",""down"",""down"",""good_move"",6139.5,2792.8,2425.9,3346.8,366.9,""while_blue"",""left"",""left"",""good_move"",9491.8,3351.4,2921.8,6140.4,429.6,""smooth"",""left"",""left"",""good_move""]","",""
"7331","","<div style=""width:500px;"">
  <p>What determined the result of this run?</p>
  </div>","88","html-slider-response","20","404975","0.0-5.0-1.2","314","1","2025-08-05 04:05:42","1f75c3e559b7213887762d5229550c2b","71.138.89.249","Mozilla/5.0 (Windows NT 10.0; Win64; x64) AppleWebKit/537.36 (KHTML, like Gecko) Chrome/138.0.0.0 Safari/537.36","WebKit","Chrome","138.0.0.0","Windows","10.0","https://app.prolific.com/","en-US,en;q=0.9","5f0a7dec44c42c19a6c9f6d9","6877631c9844ddd5501205fc","689183102d242346150d0d12","3","1","5f0a7dec44c42c19a6c9f6d9","3","1","2025-08-05T04:12:28.051Z","","","","","","","","","","","AttribQ","","50","","","","","","","","","","","","","","","","","","","","","","","","","","","","",""
"2231","","<div style=""width:500px;"">
  <p>How much control did you have over the ball?</p>
  </div>","91","html-slider-response","21","407207","0.0-5.0-2.2","314","1","2025-08-05 04:05:42","1f75c3e559b7213887762d5229550c2b","71.138.89.249","Mozilla/5.0 (Windows NT 10.0; Win64; x64) AppleWebKit/537.36 (KHTML, like Gecko) Chrome/138.0.0.0 Safari/537.36","WebKit","Chrome","138.0.0.0","Windows","10.0","https://app.prolific.com/","en-US,en;q=0.9","5f0a7dec44c42c19a6c9f6d9","6877631c9844ddd5501205fc","689183102d242346150d0d12","3","1","5f0a7dec44c42c19a6c9f6d9","3","1","2025-08-05T04:12:30.283Z","","","","","","","","","","","ControlQ","","50","","","","","","","","","","","","","","","","","","","","","","","","","","","","",""
"2341","","<div style=""width:500px;"">
  <p>How would you describe your current emotional state?</p>
  </div>","34","html-slider-response","22","409550","0.0-5.0-3.2","314","1","2025-08-05 04:05:42","1f75c3e559b7213887762d5229550c2b","71.138.89.249","Mozilla/5.0 (Windows NT 10.0; Win64; x64) AppleWebKit/537.36 (KHTML, like Gecko) Chrome/138.0.0.0 Safari/537.36","WebKit","Chrome","138.0.0.0","Windows","10.0","https://app.prolific.com/","en-US,en;q=0.9","5f0a7dec44c42c19a6c9f6d9","6877631c9844ddd5501205fc","689183102d242346150d0d12","3","1","5f0a7dec44c42c19a6c9f6d9","3","1","2025-08-05T04:12:32.626Z","","","","","","","","","","","StressQ","","50","","","","","","","","","","","","","","","","","","","","","","","","","","","","",""
"1519","","<div style=""width:500px;"">
  <p>What best describes how you currently feel?</p>
  </div>","74","html-slider-response","23","411071","0.0-5.0-4.2","314","1","2025-08-05 04:05:42","1f75c3e559b7213887762d5229550c2b","71.138.89.249","Mozilla/5.0 (Windows NT 10.0; Win64; x64) AppleWebKit/537.36 (KHTML, like Gecko) Chrome/138.0.0.0 Safari/537.36","WebKit","Chrome","138.0.0.0","Windows","10.0","https://app.prolific.com/","en-US,en;q=0.9","5f0a7dec44c42c19a6c9f6d9","6877631c9844ddd5501205fc","689183102d242346150d0d12","3","1","5f0a7dec44c42c19a6c9f6d9","3","1","2025-08-05T04:12:34.147Z","","","","","","","","","","","MotivationQ","","50","","","","","","","","","","","","","","","","","","","","","","","","","","","","",""
"","","","","ctl-task-cpt","24","457578","0.0-5.0-0.3","314","1","2025-08-05 04:05:42","1f75c3e559b7213887762d5229550c2b","71.138.89.249","Mozilla/5.0 (Windows NT 10.0; Win64; x64) AppleWebKit/537.36 (KHTML, like Gecko) Chrome/138.0.0.0 Safari/537.36","WebKit","Chrome","138.0.0.0","Windows","10.0","https://app.prolific.com/","en-US,en;q=0.9","5f0a7dec44c42c19a6c9f6d9","6877631c9844ddd5501205fc","689183102d242346150d0d12","3","1","5f0a7dec44c42c19a6c9f6d9","3","1","2025-08-05T04:13:20.654Z","","","","","","","","","","","","","","win-only","2","g1:SE,g2:NW","0.7","4","0","413945.1","789.4","5791.8","43487.5","1","4","8","6","2","-8","-8","1","9","0.007575757575757576","5002.4","3000","-2965","[""left"",""up""]","{""num_key_presses"":8,""num_perfect"":6,""num_errors"":0,""num_randdir"":2,""num_randdir_good_moves"":0,""num_whilered"":0,""num_whileblue"":0,""num_blue"":4,""num_good_moves"":6}","[350.8476462364197,350.4570289850235,0.2,350.8476462364197,350.4570289850235,101.3,467.3320212364197,365.2226539850235,201.7,669.1288962364197,371.7851539850235,301.7,847.9570212364197,361.9414039850235,407.9,847.9570212364197,361.9414039850235,508.2,849.5976462364197,365.2226539850235,612.3,849.5976462364197,365.2226539850235,713.1,849.5976462364197,365.2226539850235,814.7,849.5976462364197,365.2226539850235,916.3,849.5976462364197,365.2226539850235,1021.6,849.5976462364197,365.2226539850235,1121.6,849.5976462364197,365.2226539850235,1228.8,849.5976462364197,365.2226539850235,1331.3,849.5976462364197,365.2226539850235,1431.4,849.5976462364197,365.2226539850235,1537.3,849.5976462364197,365.2226539850235,1646.1,849.5976462364197,365.2226539850235,1751.7,849.5976462364197,365.2226539850235,1857.1,849.5976462364197,365.2226539850235,1962.8,849.5976462364197,365.2226539850235,2066.8,849.5976462364197,365.2226539850235,2167.6,849.5976462364197,365.2226539850235,2271.5,849.5976462364197,365.2226539850235,2371.7,849.5976462364197,365.2226539850235,2471.9,849.5976462364197,365.2226539850235,2572.1,849.5976462364197,365.2226539850235,2678.1,849.5976462364197,365.2226539850235,2779.3,849.5976462364197,365.2226539850235,2881.9,849.5976462364197,365.2226539850235,2986.3,849.5976462364197,365.2226539850235,3086.7,849.5976462364197,365.2226539850235,3186.8,849.5976462364197,365.2226539850235,3295.1,849.5976462364197,365.2226539850235,3395.2,849.5976462364197,365.2226539850235,3495.9,849.5976462364197,365.2226539850235,3597.8,849.5976462364197,365.2226539850235,3701.5,849.5976462364197,365.2226539850235,3802.3,849.5976462364197,365.2226539850235,3912.6,849.5976462364197,365.2226539850235,4016.3,849.5976462364197,365.2226539850235,4117.1,849.5976462364197,365.2226539850235,4217.7,849.5976462364197,365.2226539850235,4321.1,849.5976462364197,365.2226539850235,4421.5,849.5976462364197,365.2226539850235,4521.6,849.5976462364197,365.2226539850235,4628.8,849.5976462364197,365.2226539850235,4729.4,849.5976462364197,365.2226539850235,4831.6,849.5976462364197,365.2226539850235,4936.3]","[1424.6,1424.7,1000,0,424.7,""smooth"",""up"",""up"",""good_move"",4612.8,3187.6,2786.7,1425.2,400.9,""smooth"",""up"",""up"",""good_move"",7924.5,3311.3,2904.6,4613.2,406.7,""smooth"",""up"",""up"",""good_move"",14198,6273.1,2266.8,11526.5,404.7,""smooth"",""left"",""left"",""good_move"",21061.4,6862.9,3071.8,17615.2,374.4,""oops"",""left"",""down"",""bad_move"",26663.1,5601.2,2893.8,23405.7,363.6,""smooth"",""left"",""left"",""good_move"",32404.4,5741,2273.1,29744.2,387.1,""smooth"",""left"",""left"",""good_move"",35775.8,3371.1,2984.2,32404.8,386.9,""oops"",""up"",""down"",""bad_move""]","",""
"6060","","<div style=""width:500px;"">
  <p>What determined the result of this run?</p>
  </div>","33","html-slider-response","25","463639","0.0-5.0-1.3","314","1","2025-08-05 04:05:42","1f75c3e559b7213887762d5229550c2b","71.138.89.249","Mozilla/5.0 (Windows NT 10.0; Win64; x64) AppleWebKit/537.36 (KHTML, like Gecko) Chrome/138.0.0.0 Safari/537.36","WebKit","Chrome","138.0.0.0","Windows","10.0","https://app.prolific.com/","en-US,en;q=0.9","5f0a7dec44c42c19a6c9f6d9","6877631c9844ddd5501205fc","689183102d242346150d0d12","3","1","5f0a7dec44c42c19a6c9f6d9","3","1","2025-08-05T04:13:26.715Z","","","","","","","","","","","AttribQ","","50","","","","","","","","","","","","","","","","","","","","","","","","","","","","",""
"1989","","<div style=""width:500px;"">
  <p>How much control did you have over the ball?</p>
  </div>","30","html-slider-response","26","465629","0.0-5.0-2.3","314","1","2025-08-05 04:05:42","1f75c3e559b7213887762d5229550c2b","71.138.89.249","Mozilla/5.0 (Windows NT 10.0; Win64; x64) AppleWebKit/537.36 (KHTML, like Gecko) Chrome/138.0.0.0 Safari/537.36","WebKit","Chrome","138.0.0.0","Windows","10.0","https://app.prolific.com/","en-US,en;q=0.9","5f0a7dec44c42c19a6c9f6d9","6877631c9844ddd5501205fc","689183102d242346150d0d12","3","1","5f0a7dec44c42c19a6c9f6d9","3","1","2025-08-05T04:13:28.706Z","","","","","","","","","","","ControlQ","","50","","","","","","","","","","","","","","","","","","","","","","","","","","","","",""
"1778","","<div style=""width:500px;"">
  <p>How would you describe your current emotional state?</p>
  </div>","66","html-slider-response","27","467409","0.0-5.0-3.3","314","1","2025-08-05 04:05:42","1f75c3e559b7213887762d5229550c2b","71.138.89.249","Mozilla/5.0 (Windows NT 10.0; Win64; x64) AppleWebKit/537.36 (KHTML, like Gecko) Chrome/138.0.0.0 Safari/537.36","WebKit","Chrome","138.0.0.0","Windows","10.0","https://app.prolific.com/","en-US,en;q=0.9","5f0a7dec44c42c19a6c9f6d9","6877631c9844ddd5501205fc","689183102d242346150d0d12","3","1","5f0a7dec44c42c19a6c9f6d9","3","1","2025-08-05T04:13:30.485Z","","","","","","","","","","","StressQ","","50","","","","","","","","","","","","","","","","","","","","","","","","","","","","",""
"2149","","<div style=""width:500px;"">
  <p>What best describes how you currently feel?</p>
  </div>","61","html-slider-response","28","469560","0.0-5.0-4.3","314","1","2025-08-05 04:05:42","1f75c3e559b7213887762d5229550c2b","71.138.89.249","Mozilla/5.0 (Windows NT 10.0; Win64; x64) AppleWebKit/537.36 (KHTML, like Gecko) Chrome/138.0.0.0 Safari/537.36","WebKit","Chrome","138.0.0.0","Windows","10.0","https://app.prolific.com/","en-US,en;q=0.9","5f0a7dec44c42c19a6c9f6d9","6877631c9844ddd5501205fc","689183102d242346150d0d12","3","1","5f0a7dec44c42c19a6c9f6d9","3","1","2025-08-05T04:13:32.636Z","","","","","","","","","","","MotivationQ","","50","","","","","","","","","","","","","","","","","","","","","","","","","","","","",""
"","","","","ctl-task-cpt","29","499860","0.0-5.0-0.4","314","1","2025-08-05 04:05:42","1f75c3e559b7213887762d5229550c2b","71.138.89.249","Mozilla/5.0 (Windows NT 10.0; Win64; x64) AppleWebKit/537.36 (KHTML, like Gecko) Chrome/138.0.0.0 Safari/537.36","WebKit","Chrome","138.0.0.0","Windows","10.0","https://app.prolific.com/","en-US,en;q=0.9","5f0a7dec44c42c19a6c9f6d9","6877631c9844ddd5501205fc","689183102d242346150d0d12","3","1","5f0a7dec44c42c19a6c9f6d9","3","1","2025-08-05T04:14:02.936Z","","","","","","","","","","","","","","win-only","3","g1:SW,g2:NE","0.6","5","0","472434","945.2","5946.7","27280.6","1","4","4","6","1","1","1","2","1","0.015151515151515152","5001.5","3000","1550","[""down"",""left""]","{""num_key_presses"":4,""num_perfect"":3,""num_errors"":0,""num_randdir"":1,""num_randdir_good_moves"":1,""num_whilered"":0,""num_whileblue"":0,""num_blue"":3,""num_good_moves"":4}","[342.6445212364197,342.2539039850235,0.1,342.6445212364197,342.2539039850235,101.3,365.6132712364197,358.6601539850235,203.2,385.3007712364197,366.8632789850235,307.2,386.9413962364197,366.8632789850235,411.4,400.0663962364197,379.9882789850235,519.3,400.0663962364197,379.9882789850235,622,395.1445212364197,388.1914039850235,725.8,390.2226462364197,407.8789039850235,825.8,390.2226462364197,411.1601539850235,925.8,391.8632712364197,411.1601539850235,1026.7,601.8632712364197,370.1445289850235,1135.5,1098.9726462364197,238.8945289850235,1241.4,1105.5351462364197,237.2539039850235,1342,1105.5351462364197,237.2539039850235,1450.9,1105.5351462364197,237.2539039850235,1551,1105.5351462364197,237.2539039850235,1652.1,1105.5351462364197,237.2539039850235,1755.8,1105.5351462364197,237.2539039850235,1861.7,1105.5351462364197,237.2539039850235,1968.2,1105.5351462364197,237.2539039850235,2068.8,1105.5351462364197,237.2539039850235,2171,1105.5351462364197,237.2539039850235,2275.4,1105.5351462364197,237.2539039850235,2375.7,1105.5351462364197,237.2539039850235,2484.3,1105.5351462364197,237.2539039850235,2585.8,1105.5351462364197,237.2539039850235,2686.7,1105.5351462364197,237.2539039850235,2786.9,1105.5351462364197,237.2539039850235,2890.8,1105.5351462364197,237.2539039850235,2990.8,1105.5351462364197,237.2539039850235,3100.7,1105.5351462364197,237.2539039850235,3208.1,1105.5351462364197,237.2539039850235,3310.4,1105.5351462364197,237.2539039850235,3411.6,1105.5351462364197,237.2539039850235,3518.3,1105.5351462364197,237.2539039850235,3619.1,1105.5351462364197,237.2539039850235,3720,1105.5351462364197,237.2539039850235,3821.4,1105.5351462364197,237.2539039850235,3925.2,1105.5351462364197,237.2539039850235,4026.1,1105.5351462364197,237.2539039850235,4135.2,1105.5351462364197,237.2539039850235,4235.3,1105.5351462364197,237.2539039850235,4336.5,1105.5351462364197,237.2539039850235,4441.3,1105.5351462364197,237.2539039850235,4551,1105.5351462364197,237.2539039850235,4652,1105.5351462364197,237.2539039850235,4756.5,1105.5351462364197,237.2539039850235,4860.3,1105.5351462364197,237.2539039850235,4960.3]","[4536.2,4536.2,2109.9,2009.1,417.2,""smooth"",""down"",""down"",""good_move"",12139.1,7602.2,3109.9,8484.9,544.3,""smooth"",""down"",""down"",""good_move"",14974.6,2835.3,2414.9,12139.3,420.4,""smooth"",""left"",""left"",""good_move"",21231.2,6256.1,1961.1,18905.1,365,""oops"",""left"",""left"",""good_move""]","",""
"5342","","<div style=""width:500px;"">
  <p>What determined the result of this run?</p>
  </div>","81","html-slider-response","30","505203","0.0-5.0-1.4","314","1","2025-08-05 04:05:42","1f75c3e559b7213887762d5229550c2b","71.138.89.249","Mozilla/5.0 (Windows NT 10.0; Win64; x64) AppleWebKit/537.36 (KHTML, like Gecko) Chrome/138.0.0.0 Safari/537.36","WebKit","Chrome","138.0.0.0","Windows","10.0","https://app.prolific.com/","en-US,en;q=0.9","5f0a7dec44c42c19a6c9f6d9","6877631c9844ddd5501205fc","689183102d242346150d0d12","3","1","5f0a7dec44c42c19a6c9f6d9","3","1","2025-08-05T04:14:08.279Z","","","","","","","","","","","AttribQ","","50","","","","","","","","","","","","","","","","","","","","","","","","","","","","",""
"5397","","<div style=""width:500px;"">
  <p>How much control did you have over the ball?</p>
  </div>","80","html-slider-response","31","510604","0.0-5.0-2.4","314","1","2025-08-05 04:05:42","1f75c3e559b7213887762d5229550c2b","71.138.89.249","Mozilla/5.0 (Windows NT 10.0; Win64; x64) AppleWebKit/537.36 (KHTML, like Gecko) Chrome/138.0.0.0 Safari/537.36","WebKit","Chrome","138.0.0.0","Windows","10.0","https://app.prolific.com/","en-US,en;q=0.9","5f0a7dec44c42c19a6c9f6d9","6877631c9844ddd5501205fc","689183102d242346150d0d12","3","1","5f0a7dec44c42c19a6c9f6d9","3","1","2025-08-05T04:14:13.681Z","","","","","","","","","","","ControlQ","","50","","","","","","","","","","","","","","","","","","","","","","","","","","","","",""
"4036","","<div style=""width:500px;"">
  <p>How would you describe your current emotional state?</p>
  </div>","45","html-slider-response","32","514645","0.0-5.0-3.4","314","1","2025-08-05 04:05:42","1f75c3e559b7213887762d5229550c2b","71.138.89.249","Mozilla/5.0 (Windows NT 10.0; Win64; x64) AppleWebKit/537.36 (KHTML, like Gecko) Chrome/138.0.0.0 Safari/537.36","WebKit","Chrome","138.0.0.0","Windows","10.0","https://app.prolific.com/","en-US,en;q=0.9","5f0a7dec44c42c19a6c9f6d9","6877631c9844ddd5501205fc","689183102d242346150d0d12","3","1","5f0a7dec44c42c19a6c9f6d9","3","1","2025-08-05T04:14:17.722Z","","","","","","","","","","","StressQ","","50","","","","","","","","","","","","","","","","","","","","","","","","","","","","",""
"1268","","<div style=""width:500px;"">
  <p>What best describes how you currently feel?</p>
  </div>","62","html-slider-response","33","515915","0.0-5.0-4.4","314","1","2025-08-05 04:05:42","1f75c3e559b7213887762d5229550c2b","71.138.89.249","Mozilla/5.0 (Windows NT 10.0; Win64; x64) AppleWebKit/537.36 (KHTML, like Gecko) Chrome/138.0.0.0 Safari/537.36","WebKit","Chrome","138.0.0.0","Windows","10.0","https://app.prolific.com/","en-US,en;q=0.9","5f0a7dec44c42c19a6c9f6d9","6877631c9844ddd5501205fc","689183102d242346150d0d12","3","1","5f0a7dec44c42c19a6c9f6d9","3","1","2025-08-05T04:14:18.991Z","","","","","","","","","","","MotivationQ","","50","","","","","","","","","","","","","","","","","","","","","","","","","","","","",""
"","","","","ctl-task-cpt","34","550615","0.0-5.0-0.5","314","1","2025-08-05 04:05:42","1f75c3e559b7213887762d5229550c2b","71.138.89.249","Mozilla/5.0 (Windows NT 10.0; Win64; x64) AppleWebKit/537.36 (KHTML, like Gecko) Chrome/138.0.0.0 Safari/537.36","WebKit","Chrome","138.0.0.0","Windows","10.0","https://app.prolific.com/","en-US,en;q=0.9","5f0a7dec44c42c19a6c9f6d9","6877631c9844ddd5501205fc","689183102d242346150d0d12","3","1","5f0a7dec44c42c19a6c9f6d9","3","1","2025-08-05T04:14:53.691Z","","","","","","","","","","","","","","win-only","0","g1:NW,g2:SE","0.5","6","0","518789.1","989.9","6004.9","31680.6","1","4","8","6","2","8","8","10","2","0.07575757575757576","5015","3000","470","[""down"",""right""]","{""num_key_presses"":8,""num_perfect"":4,""num_errors"":0,""num_randdir"":4,""num_randdir_good_moves"":3,""num_whilered"":0,""num_whileblue"":0,""num_blue"":1,""num_good_moves"":7}","[354.1288962364197,348.8164039850235,0.1,352.4882712364197,348.8164039850235,101.9,788.8945212364197,355.3789039850235,205,949.6757712364197,357.0195289850235,307,949.6757712364197,357.0195289850235,412.1,949.6757712364197,357.0195289850235,519.5,949.6757712364197,357.0195289850235,619.5,949.6757712364197,357.0195289850235,720,949.6757712364197,357.0195289850235,820.4,949.6757712364197,357.0195289850235,920.7,949.6757712364197,357.0195289850235,1021.8,949.6757712364197,357.0195289850235,1125.9,949.6757712364197,357.0195289850235,1226.7,949.6757712364197,357.0195289850235,1336.2,949.6757712364197,357.0195289850235,1441,949.6757712364197,357.0195289850235,1541.8,949.6757712364197,357.0195289850235,1645.7,949.6757712364197,357.0195289850235,1747.8,949.6757712364197,357.0195289850235,1857.3,949.6757712364197,357.0195289850235,1960.9,949.6757712364197,357.0195289850235,2065.8,949.6757712364197,357.0195289850235,2169.4,949.6757712364197,357.0195289850235,2271.4,949.6757712364197,357.0195289850235,2375.9,949.6757712364197,357.0195289850235,2476.3,949.6757712364197,357.0195289850235,2576.8,949.6757712364197,357.0195289850235,2677.3,949.6757712364197,357.0195289850235,2786.7,949.6757712364197,357.0195289850235,2886.8,949.6757712364197,357.0195289850235,2991.1,949.6757712364197,357.0195289850235,3098.1,949.6757712364197,357.0195289850235,3199,949.6757712364197,357.0195289850235,3305.4,949.6757712364197,357.0195289850235,3407.1,949.6757712364197,357.0195289850235,3511.7,949.6757712364197,357.0195289850235,3611.8,949.6757712364197,357.0195289850235,3712.5,949.6757712364197,357.0195289850235,3822.4,949.6757712364197,357.0195289850235,3926.3,949.6757712364197,357.0195289850235,4031.6,949.6757712364197,357.0195289850235,4135.6,949.6757712364197,357.0195289850235,4239.1,949.6757712364197,357.0195289850235,4341.9,949.6757712364197,357.0195289850235,4442.6,949.6757712364197,357.0195289850235,4546.6,949.6757712364197,357.0195289850235,4653.1,949.6757712364197,357.0195289850235,4755.3,949.6757712364197,357.0195289850235,4856.6,949.6757712364197,357.0195289850235,4961.6]","[5347.5,5347.6,2923.5,2006.6,417.5,""oops"",""right"",""left"",""bad_move"",8540.7,3192,2778.8,5348.7,413.2,""oops"",""down"",""down"",""good_move"",11782.5,3241.2,2781.9,8541.3,459.3,""smooth"",""down"",""down"",""good_move"",15020.8,3237.4,2894.4,11783.4,343,""oops"",""down"",""right"",""good_move"",17723,2701.5,2350.4,15021.5,351.1,""smooth"",""down"",""down"",""good_move"",20386,2662.7,2279,17723.3,383.7,""smooth"",""down"",""right"",""good_move"",23209.9,2823,2471.5,20386.9,351.5,""oops"",""down"",""right"",""good_move"",25572.7,2362.4,1993.6,23210.3,368.8,""smooth"",""down"",""right"",""good_move""]","",""
"2866","","<div style=""width:500px;"">
  <p>What determined the result of this run?</p>
  </div>","89","html-slider-response","35","553483","0.0-5.0-1.5","314","1","2025-08-05 04:05:42","1f75c3e559b7213887762d5229550c2b","71.138.89.249","Mozilla/5.0 (Windows NT 10.0; Win64; x64) AppleWebKit/537.36 (KHTML, like Gecko) Chrome/138.0.0.0 Safari/537.36","WebKit","Chrome","138.0.0.0","Windows","10.0","https://app.prolific.com/","en-US,en;q=0.9","5f0a7dec44c42c19a6c9f6d9","6877631c9844ddd5501205fc","689183102d242346150d0d12","3","1","5f0a7dec44c42c19a6c9f6d9","3","1","2025-08-05T04:14:56.559Z","","","","","","","","","","","AttribQ","","50","","","","","","","","","","","","","","","","","","","","","","","","","","","","",""
"1539","","<div style=""width:500px;"">
  <p>How much control did you have over the ball?</p>
  </div>","90","html-slider-response","36","555023","0.0-5.0-2.5","314","1","2025-08-05 04:05:42","1f75c3e559b7213887762d5229550c2b","71.138.89.249","Mozilla/5.0 (Windows NT 10.0; Win64; x64) AppleWebKit/537.36 (KHTML, like Gecko) Chrome/138.0.0.0 Safari/537.36","WebKit","Chrome","138.0.0.0","Windows","10.0","https://app.prolific.com/","en-US,en;q=0.9","5f0a7dec44c42c19a6c9f6d9","6877631c9844ddd5501205fc","689183102d242346150d0d12","3","1","5f0a7dec44c42c19a6c9f6d9","3","1","2025-08-05T04:14:58.099Z","","","","","","","","","","","ControlQ","","50","","","","","","","","","","","","","","","","","","","","","","","","","","","","",""
"2738","","<div style=""width:500px;"">
  <p>How would you describe your current emotional state?</p>
  </div>","35","html-slider-response","37","557763","0.0-5.0-3.5","314","1","2025-08-05 04:05:42","1f75c3e559b7213887762d5229550c2b","71.138.89.249","Mozilla/5.0 (Windows NT 10.0; Win64; x64) AppleWebKit/537.36 (KHTML, like Gecko) Chrome/138.0.0.0 Safari/537.36","WebKit","Chrome","138.0.0.0","Windows","10.0","https://app.prolific.com/","en-US,en;q=0.9","5f0a7dec44c42c19a6c9f6d9","6877631c9844ddd5501205fc","689183102d242346150d0d12","3","1","5f0a7dec44c42c19a6c9f6d9","3","1","2025-08-05T04:15:00.839Z","","","","","","","","","","","StressQ","","50","","","","","","","","","","","","","","","","","","","","","","","","","","","","",""
"1480","","<div style=""width:500px;"">
  <p>What best describes how you currently feel?</p>
  </div>","70","html-slider-response","38","559244","0.0-5.0-4.5","314","1","2025-08-05 04:05:42","1f75c3e559b7213887762d5229550c2b","71.138.89.249","Mozilla/5.0 (Windows NT 10.0; Win64; x64) AppleWebKit/537.36 (KHTML, like Gecko) Chrome/138.0.0.0 Safari/537.36","WebKit","Chrome","138.0.0.0","Windows","10.0","https://app.prolific.com/","en-US,en;q=0.9","5f0a7dec44c42c19a6c9f6d9","6877631c9844ddd5501205fc","689183102d242346150d0d12","3","1","5f0a7dec44c42c19a6c9f6d9","3","1","2025-08-05T04:15:02.320Z","","","","","","","","","","","MotivationQ","","50","","","","","","","","","","","","","","","","","","","","","","","","","","","","",""
"","","","","ctl-task-cpt","39","596612","0.0-5.0-0.6","314","1","2025-08-05 04:05:42","1f75c3e559b7213887762d5229550c2b","71.138.89.249","Mozilla/5.0 (Windows NT 10.0; Win64; x64) AppleWebKit/537.36 (KHTML, like Gecko) Chrome/138.0.0.0 Safari/537.36","WebKit","Chrome","138.0.0.0","Windows","10.0","https://app.prolific.com/","en-US,en;q=0.9","5f0a7dec44c42c19a6c9f6d9","6877631c9844ddd5501205fc","689183102d242346150d0d12","3","1","5f0a7dec44c42c19a6c9f6d9","3","1","2025-08-05T04:15:39.688Z","","","","","","","","","","","","","","win-only","0","g1:NW,g2:SE","0.4","7","0","562119.3","1088.9","6099.9","34347","1","4","4","6","1","-1","-1","9","10","0.06818181818181818","5011","3000","-2445","[""left"",""up""]","{""num_key_presses"":8,""num_perfect"":4,""num_errors"":0,""num_randdir"":4,""num_randdir_good_moves"":2,""num_whilered"":0,""num_whileblue"":0,""num_blue"":1,""num_good_moves"":5}","[352.4882712364197,348.8164039850235,0.7,349.2070212364197,347.1757789850235,110.6,349.2070212364197,347.1757789850235,212.5,357.4101462364197,350.4570289850235,326,455.8476462364197,365.2226539850235,428.8,697.0195212364197,363.5820289850235,531.4,879.1288962364197,340.6132789850235,633.1,879.1288962364197,340.6132789850235,742.3,879.1288962364197,340.6132789850235,843,880.7695212364197,340.6132789850235,947.2,880.7695212364197,340.6132789850235,1054,880.7695212364197,340.6132789850235,1158.9,880.7695212364197,340.6132789850235,1259.3,880.7695212364197,340.6132789850235,1361.7,880.7695212364197,340.6132789850235,1462.8,880.7695212364197,340.6132789850235,1573.7,880.7695212364197,340.6132789850235,1677.5,880.7695212364197,340.6132789850235,1782.2,880.7695212364197,340.6132789850235,1883.3,880.7695212364197,340.6132789850235,1993.4,880.7695212364197,340.6132789850235,2093.7,880.7695212364197,340.6132789850235,2197.2,880.7695212364197,340.6132789850235,2305.8,880.7695212364197,340.6132789850235,2410.3,880.7695212364197,340.6132789850235,2511.4,880.7695212364197,340.6132789850235,2613.1,880.7695212364197,340.6132789850235,2713.2,880.7695212364197,340.6132789850235,2825.5,880.7695212364197,340.6132789850235,2927.3,880.7695212364197,340.6132789850235,3033,880.7695212364197,340.6132789850235,3140.7,880.7695212364197,340.6132789850235,3241.8,880.7695212364197,340.6132789850235,3345.9,880.7695212364197,340.6132789850235,3448.3,880.7695212364197,340.6132789850235,3553.1,880.7695212364197,340.6132789850235,3662.7,880.7695212364197,340.6132789850235,3769,880.7695212364197,340.6132789850235,3877.9,880.7695212364197,340.6132789850235,3982.3,880.7695212364197,340.6132789850235,4082.8,880.7695212364197,340.6132789850235,4191.4,880.7695212364197,340.6132789850235,4293.8,880.7695212364197,340.6132789850235,4397.1,880.7695212364197,340.6132789850235,4503.1,880.7695212364197,340.6132789850235,4609.6,880.7695212364197,340.6132789850235,4712.2,880.7695212364197,340.6132789850235,4824.2,880.7695212364197,340.6132789850235,4927.2]","[1431.3,1431.3,1000,0,431.3,""smooth"",""up"",""up"",""good_move"",4061.6,2629.7,2116.8,1431.9,512.9,""oops"",""up"",""up"",""good_move"",6649.5,2587.6,2115.3,4061.9,472.3,""smooth"",""up"",""right"",""bad_move"",9712.5,3062.3,2662.8,6650.2,399.5,""oops"",""left"",""left"",""good_move"",12612.5,2899.5,2494.3,9713,405.2,""smooth"",""left"",""left"",""good_move"",19855,7242.3,2791.3,16585.7,478,""oops"",""left"",""down"",""bad_move"",22744.1,2888.7,2452.2,19855.4,436.5,""smooth"",""left"",""left"",""good_move"",25662.1,2917.6,2494.8,22744.5,422.8,""oops"",""up"",""right"",""bad_move""]","",""
"2971","","<div style=""width:500px;"">
  <p>What determined the result of this run?</p>
  </div>","25","html-slider-response","40","599585","0.0-5.0-1.6","314","1","2025-08-05 04:05:42","1f75c3e559b7213887762d5229550c2b","71.138.89.249","Mozilla/5.0 (Windows NT 10.0; Win64; x64) AppleWebKit/537.36 (KHTML, like Gecko) Chrome/138.0.0.0 Safari/537.36","WebKit","Chrome","138.0.0.0","Windows","10.0","https://app.prolific.com/","en-US,en;q=0.9","5f0a7dec44c42c19a6c9f6d9","6877631c9844ddd5501205fc","689183102d242346150d0d12","3","1","5f0a7dec44c42c19a6c9f6d9","3","1","2025-08-05T04:15:42.661Z","","","","","","","","","","","AttribQ","","50","","","","","","","","","","","","","","","","","","","","","","","","","","","","",""
"2986","","<div style=""width:500px;"">
  <p>How much control did you have over the ball?</p>
  </div>","20","html-slider-response","41","602572","0.0-5.0-2.6","314","1","2025-08-05 04:05:42","1f75c3e559b7213887762d5229550c2b","71.138.89.249","Mozilla/5.0 (Windows NT 10.0; Win64; x64) AppleWebKit/537.36 (KHTML, like Gecko) Chrome/138.0.0.0 Safari/537.36","WebKit","Chrome","138.0.0.0","Windows","10.0","https://app.prolific.com/","en-US,en;q=0.9","5f0a7dec44c42c19a6c9f6d9","6877631c9844ddd5501205fc","689183102d242346150d0d12","3","1","5f0a7dec44c42c19a6c9f6d9","3","1","2025-08-05T04:15:45.648Z","","","","","","","","","","","ControlQ","","50","","","","","","","","","","","","","","","","","","","","","","","","","","","","",""
"2579","","<div style=""width:500px;"">
  <p>How would you describe your current emotional state?</p>
  </div>","85","html-slider-response","42","605152","0.0-5.0-3.6","314","1","2025-08-05 04:05:42","1f75c3e559b7213887762d5229550c2b","71.138.89.249","Mozilla/5.0 (Windows NT 10.0; Win64; x64) AppleWebKit/537.36 (KHTML, like Gecko) Chrome/138.0.0.0 Safari/537.36","WebKit","Chrome","138.0.0.0","Windows","10.0","https://app.prolific.com/","en-US,en;q=0.9","5f0a7dec44c42c19a6c9f6d9","6877631c9844ddd5501205fc","689183102d242346150d0d12","3","1","5f0a7dec44c42c19a6c9f6d9","3","1","2025-08-05T04:15:48.228Z","","","","","","","","","","","StressQ","","50","","","","","","","","","","","","","","","","","","","","","","","","","","","","",""
"2836","","<div style=""width:500px;"">
  <p>What best describes how you currently feel?</p>
  </div>","49","html-slider-response","43","607991","0.0-5.0-4.6","314","1","2025-08-05 04:05:42","1f75c3e559b7213887762d5229550c2b","71.138.89.249","Mozilla/5.0 (Windows NT 10.0; Win64; x64) AppleWebKit/537.36 (KHTML, like Gecko) Chrome/138.0.0.0 Safari/537.36","WebKit","Chrome","138.0.0.0","Windows","10.0","https://app.prolific.com/","en-US,en;q=0.9","5f0a7dec44c42c19a6c9f6d9","6877631c9844ddd5501205fc","689183102d242346150d0d12","3","1","5f0a7dec44c42c19a6c9f6d9","3","1","2025-08-05T04:15:51.068Z","","","","","","","","","","","MotivationQ","","50","","","","","","","","","","","","","","","","","","","","","","","","","","","","",""
"","","","","ctl-task-cpt","44","680098","0.0-5.0-0.7","314","1","2025-08-05 04:05:42","1f75c3e559b7213887762d5229550c2b","71.138.89.249","Mozilla/5.0 (Windows NT 10.0; Win64; x64) AppleWebKit/537.36 (KHTML, like Gecko) Chrome/138.0.0.0 Safari/537.36","WebKit","Chrome","138.0.0.0","Windows","10.0","https://app.prolific.com/","en-US,en;q=0.9","5f0a7dec44c42c19a6c9f6d9","6877631c9844ddd5501205fc","689183102d242346150d0d12","3","1","5f0a7dec44c42c19a6c9f6d9","3","1","2025-08-05T04:17:03.174Z","","","","","","","","","","","","","","win-only","3","g1:SW,g2:NE","0.3","8","0","610869.9","31726.4","36734.3","69081.6","1","4","8","6","2","-8","-8","1","9","0.007575757575757576","5007.9","3000","-2325","[""up"",""right""]","{""num_key_presses"":9,""num_perfect"":3,""num_errors"":0,""num_randdir"":6,""num_randdir_good_moves"":3,""num_whilered"":0,""num_whileblue"":0,""num_blue"":2,""num_good_moves"":6}","[344.2851462364197,350.4570289850235,0.4,344.2851462364197,350.4570289850235,105.8,344.2851462364197,350.4570289850235,209.9,344.2851462364197,350.4570289850235,316.7,344.2851462364197,350.4570289850235,418.8,344.2851462364197,350.4570289850235,525.2,344.2851462364197,350.4570289850235,626.6,344.2851462364197,350.4570289850235,733.5,344.2851462364197,350.4570289850235,834.7,344.2851462364197,350.4570289850235,935.6,344.2851462364197,350.4570289850235,1042.4,344.2851462364197,350.4570289850235,1145.1,344.2851462364197,350.4570289850235,1253.6,344.2851462364197,350.4570289850235,1362.6,344.2851462364197,350.4570289850235,1467.7,344.2851462364197,350.4570289850235,1574.9,344.2851462364197,350.4570289850235,1676.6,344.2851462364197,350.4570289850235,1782.5,344.2851462364197,350.4570289850235,1885.7,344.2851462364197,350.4570289850235,1995.9,344.2851462364197,350.4570289850235,2096.1,344.2851462364197,350.4570289850235,2208.6,344.2851462364197,350.4570289850235,2309.7,344.2851462364197,350.4570289850235,2412.3,344.2851462364197,350.4570289850235,2517.2,344.2851462364197,350.4570289850235,2624.3,344.2851462364197,350.4570289850235,2725.9,344.2851462364197,350.4570289850235,2825.9,344.2851462364197,350.4570289850235,2939.6,344.2851462364197,350.4570289850235,3040.7,344.2851462364197,350.4570289850235,3145.4,357.4101462364197,347.1757789850235,3246.1,359.0507712364197,347.1757789850235,3353.9,362.3320212364197,347.1757789850235,3455.7,802.0195212364197,311.0820289850235,3558.3,1167.8788962364197,304.5195289850235,3659.9,1167.8788962364197,304.5195289850235,3760.6,1167.8788962364197,304.5195289850235,3860.7,1167.8788962364197,304.5195289850235,3960.9,1167.8788962364197,304.5195289850235,4071.7,1167.8788962364197,304.5195289850235,4172.3,1167.8788962364197,304.5195289850235,4274.7,1167.8788962364197,304.5195289850235,4374.7,1167.8788962364197,304.5195289850235,4475,1167.8788962364197,304.5195289850235,4586.2,1167.8788962364197,304.5195289850235,4687,1167.8788962364197,304.5195289850235,4787.3,1167.8788962364197,304.5195289850235,4887.9,1167.8788962364197,304.5195289850235,4994.1]","[1398.1,1398.1,1000,0,398.1,""oops"",""up"",""up"",""good_move"",3311.9,1913.1,1469.2,1398.8,443.9,""smooth"",""up"",""up"",""good_move"",9948,6635.1,2329.3,7136.7,482,""oops"",""up"",""up"",""good_move"",16651.6,6703,2818.8,13466.2,366.6,""smooth"",""right"",""right"",""good_move"",19082.9,2430.9,2079.2,16652,351.7,""smooth"",""right"",""right"",""good_move"",22233.2,3149.3,2723.6,19083.9,425.7,""oops"",""right"",""down"",""bad_move"",24213.3,1979.7,1314.1,22233.6,665.6,""oops"",""up"",""down"",""bad_move"",27182.3,2968.8,2609.3,24213.6,359.4,""oops"",""right"",""down"",""bad_move"",29928.9,2745,2369.2,27183.9,375.8,""oops"",""up"",""right"",""good_move""]","",""
"5872","","<div style=""width:500px;"">
  <p>What determined the result of this run?</p>
  </div>","7","html-slider-response","45","685975","0.0-5.0-1.7","314","1","2025-08-05 04:05:42","1f75c3e559b7213887762d5229550c2b","71.138.89.249","Mozilla/5.0 (Windows NT 10.0; Win64; x64) AppleWebKit/537.36 (KHTML, like Gecko) Chrome/138.0.0.0 Safari/537.36","WebKit","Chrome","138.0.0.0","Windows","10.0","https://app.prolific.com/","en-US,en;q=0.9","5f0a7dec44c42c19a6c9f6d9","6877631c9844ddd5501205fc","689183102d242346150d0d12","3","1","5f0a7dec44c42c19a6c9f6d9","3","1","2025-08-05T04:17:09.052Z","","","","","","","","","","","AttribQ","","50","","","","","","","","","","","","","","","","","","","","","","","","","","","","",""
"2272","","<div style=""width:500px;"">
  <p>How much control did you have over the ball?</p>
  </div>","5","html-slider-response","46","688252","0.0-5.0-2.7","314","1","2025-08-05 04:05:42","1f75c3e559b7213887762d5229550c2b","71.138.89.249","Mozilla/5.0 (Windows NT 10.0; Win64; x64) AppleWebKit/537.36 (KHTML, like Gecko) Chrome/138.0.0.0 Safari/537.36","WebKit","Chrome","138.0.0.0","Windows","10.0","https://app.prolific.com/","en-US,en;q=0.9","5f0a7dec44c42c19a6c9f6d9","6877631c9844ddd5501205fc","689183102d242346150d0d12","3","1","5f0a7dec44c42c19a6c9f6d9","3","1","2025-08-05T04:17:11.328Z","","","","","","","","","","","ControlQ","","50","","","","","","","","","","","","","","","","","","","","","","","","","","","","",""
"2685","","<div style=""width:500px;"">
  <p>How would you describe your current emotional state?</p>
  </div>","96","html-slider-response","47","690939","0.0-5.0-3.7","314","1","2025-08-05 04:05:42","1f75c3e559b7213887762d5229550c2b","71.138.89.249","Mozilla/5.0 (Windows NT 10.0; Win64; x64) AppleWebKit/537.36 (KHTML, like Gecko) Chrome/138.0.0.0 Safari/537.36","WebKit","Chrome","138.0.0.0","Windows","10.0","https://app.prolific.com/","en-US,en;q=0.9","5f0a7dec44c42c19a6c9f6d9","6877631c9844ddd5501205fc","689183102d242346150d0d12","3","1","5f0a7dec44c42c19a6c9f6d9","3","1","2025-08-05T04:17:14.015Z","","","","","","","","","","","StressQ","","50","","","","","","","","","","","","","","","","","","","","","","","","","","","","",""
"2560","","<div style=""width:500px;"">
  <p>What best describes how you currently feel?</p>
  </div>","52","html-slider-response","48","693500","0.0-5.0-4.7","314","1","2025-08-05 04:05:42","1f75c3e559b7213887762d5229550c2b","71.138.89.249","Mozilla/5.0 (Windows NT 10.0; Win64; x64) AppleWebKit/537.36 (KHTML, like Gecko) Chrome/138.0.0.0 Safari/537.36","WebKit","Chrome","138.0.0.0","Windows","10.0","https://app.prolific.com/","en-US,en;q=0.9","5f0a7dec44c42c19a6c9f6d9","6877631c9844ddd5501205fc","689183102d242346150d0d12","3","1","5f0a7dec44c42c19a6c9f6d9","3","1","2025-08-05T04:17:16.576Z","","","","","","","","","","","MotivationQ","","50","","","","","","","","","","","","","","","","","","","","","","","","","","","","",""
"","","","","ctl-task-cpt","49","722367","0.0-5.0-0.8","314","1","2025-08-05 04:05:42","1f75c3e559b7213887762d5229550c2b","71.138.89.249","Mozilla/5.0 (Windows NT 10.0; Win64; x64) AppleWebKit/537.36 (KHTML, like Gecko) Chrome/138.0.0.0 Safari/537.36","WebKit","Chrome","138.0.0.0","Windows","10.0","https://app.prolific.com/","en-US,en;q=0.9","5f0a7dec44c42c19a6c9f6d9","6877631c9844ddd5501205fc","689183102d242346150d0d12","3","1","5f0a7dec44c42c19a6c9f6d9","3","1","2025-08-05T04:17:45.443Z","","","","","","","","","","","","","","win-only","1","g1:NE,g2:SW","0.2","9","0","696374.1","1194.4","6196.2","25845.2","1","4","4","6","1","1","1","2","1","0.015151515151515152","5001.7","3000","1280","[""up"",""right""]","{""num_key_presses"":6,""num_perfect"":2,""num_errors"":0,""num_randdir"":4,""num_randdir_good_moves"":3,""num_whilered"":0,""num_whileblue"":0,""num_blue"":1,""num_good_moves"":5}","[357.4101462364197,347.1757789850235,0.3,357.4101462364197,347.1757789850235,102,357.4101462364197,347.1757789850235,202.1,357.4101462364197,348.8164039850235,305.5,390.2226462364197,348.8164039850235,405.5,391.8632712364197,347.1757789850235,510.1,393.5038962364197,347.1757789850235,612.9,393.5038962364197,347.1757789850235,721.4,421.3945212364197,334.0507789850235,823.4,467.3320212364197,329.1289039850235,932,523.1132712364197,337.3320289850235,1039.4,529.6757712364197,337.3320289850235,1148.5,529.6757712364197,357.0195289850235,1249.2,580.5351462364197,393.1132789850235,1351.8,585.4570212364197,388.1914039850235,1453,608.4257712364197,371.7851539850235,1563.9,672.4101462364197,352.0976539850235,1667,682.2538962364197,357.0195289850235,1767.5,683.8945212364197,357.0195289850235,1867.8,723.2695212364197,348.8164039850235,1968.8,729.8320212364197,352.0976539850235,2071,746.2382712364197,342.2539039850235,2173.6,761.0038962364197,337.3320289850235,2279.5,765.9257712364197,337.3320289850235,2382.4,767.5663962364197,337.3320289850235,2487.6,767.5663962364197,337.3320289850235,2591.7,767.5663962364197,337.3320289850235,2699.5,767.5663962364197,337.3320289850235,2801.7,767.5663962364197,337.3320289850235,2911.8,767.5663962364197,337.3320289850235,3020.2,767.5663962364197,337.3320289850235,3121.5,767.5663962364197,337.3320289850235,3222.7,767.5663962364197,337.3320289850235,3326.1,767.5663962364197,337.3320289850235,3426.3,767.5663962364197,337.3320289850235,3532.5,767.5663962364197,337.3320289850235,3637.7,767.5663962364197,337.3320289850235,3746.6,767.5663962364197,337.3320289850235,3847.2,767.5663962364197,337.3320289850235,3948.9,767.5663962364197,337.3320289850235,4051.3,767.5663962364197,337.3320289850235,4152.8,767.5663962364197,337.3320289850235,4263.4,767.5663962364197,337.3320289850235,4367.6,767.5663962364197,337.3320289850235,4469.4,767.5663962364197,337.3320289850235,4571.7,767.5663962364197,337.3320289850235,4682.5,767.5663962364197,337.3320289850235,4785.3,767.5663962364197,337.3320289850235,4886.6,767.5663962364197,337.3320289850235,4986.7]","[1377.5,1377.5,1000,0,377.5,""oops"",""up"",""up"",""good_move"",3760.9,2383,1984.1,1377.9,398.9,""smooth"",""up"",""up"",""good_move"",7247.5,3486.2,3077.4,3761.3,408.8,""oops"",""right"",""left"",""bad_move"",10532.6,3284.3,2898.6,7248.3,385.7,""oops"",""right"",""right"",""good_move"",16989.3,6456,2567.1,14063.1,359.1,""oops"",""right"",""right"",""good_move"",19532,2542,2122.5,16990,419.5,""smooth"",""right"",""right"",""good_move""]","",""
"2811","","<div style=""width:500px;"">
  <p>What determined the result of this run?</p>
  </div>","88","html-slider-response","50","725179","0.0-5.0-1.8","314","1","2025-08-05 04:05:42","1f75c3e559b7213887762d5229550c2b","71.138.89.249","Mozilla/5.0 (Windows NT 10.0; Win64; x64) AppleWebKit/537.36 (KHTML, like Gecko) Chrome/138.0.0.0 Safari/537.36","WebKit","Chrome","138.0.0.0","Windows","10.0","https://app.prolific.com/","en-US,en;q=0.9","5f0a7dec44c42c19a6c9f6d9","6877631c9844ddd5501205fc","689183102d242346150d0d12","3","1","5f0a7dec44c42c19a6c9f6d9","3","1","2025-08-05T04:17:48.255Z","","","","","","","","","","","AttribQ","","50","","","","","","","","","","","","","","","","","","","","","","","","","","","","",""
"1525","","<div style=""width:500px;"">
  <p>How much control did you have over the ball?</p>
  </div>","78","html-slider-response","51","726707","0.0-5.0-2.8","314","1","2025-08-05 04:05:42","1f75c3e559b7213887762d5229550c2b","71.138.89.249","Mozilla/5.0 (Windows NT 10.0; Win64; x64) AppleWebKit/537.36 (KHTML, like Gecko) Chrome/138.0.0.0 Safari/537.36","WebKit","Chrome","138.0.0.0","Windows","10.0","https://app.prolific.com/","en-US,en;q=0.9","5f0a7dec44c42c19a6c9f6d9","6877631c9844ddd5501205fc","689183102d242346150d0d12","3","1","5f0a7dec44c42c19a6c9f6d9","3","1","2025-08-05T04:17:49.783Z","","","","","","","","","","","ControlQ","","50","","","","","","","","","","","","","","","","","","","","","","","","","","","","",""
"3152","","<div style=""width:500px;"">
  <p>How would you describe your current emotional state?</p>
  </div>","55","html-slider-response","52","729862","0.0-5.0-3.8","314","1","2025-08-05 04:05:42","1f75c3e559b7213887762d5229550c2b","71.138.89.249","Mozilla/5.0 (Windows NT 10.0; Win64; x64) AppleWebKit/537.36 (KHTML, like Gecko) Chrome/138.0.0.0 Safari/537.36","WebKit","Chrome","138.0.0.0","Windows","10.0","https://app.prolific.com/","en-US,en;q=0.9","5f0a7dec44c42c19a6c9f6d9","6877631c9844ddd5501205fc","689183102d242346150d0d12","3","1","5f0a7dec44c42c19a6c9f6d9","3","1","2025-08-05T04:17:52.938Z","","","","","","","","","","","StressQ","","50","","","","","","","","","","","","","","","","","","","","","","","","","","","","",""
"1781","","<div style=""width:500px;"">
  <p>What best describes how you currently feel?</p>
  </div>","69","html-slider-response","53","731648","0.0-5.0-4.8","314","1","2025-08-05 04:05:42","1f75c3e559b7213887762d5229550c2b","71.138.89.249","Mozilla/5.0 (Windows NT 10.0; Win64; x64) AppleWebKit/537.36 (KHTML, like Gecko) Chrome/138.0.0.0 Safari/537.36","WebKit","Chrome","138.0.0.0","Windows","10.0","https://app.prolific.com/","en-US,en;q=0.9","5f0a7dec44c42c19a6c9f6d9","6877631c9844ddd5501205fc","689183102d242346150d0d12","3","1","5f0a7dec44c42c19a6c9f6d9","3","1","2025-08-05T04:17:54.724Z","","","","","","","","","","","MotivationQ","","50","","","","","","","","","","","","","","","","","","","","","","","","","","","","",""
"","","","","ctl-task-cpt","54","769532","0.0-5.0-0.9","314","1","2025-08-05 04:05:42","1f75c3e559b7213887762d5229550c2b","71.138.89.249","Mozilla/5.0 (Windows NT 10.0; Win64; x64) AppleWebKit/537.36 (KHTML, like Gecko) Chrome/138.0.0.0 Safari/537.36","WebKit","Chrome","138.0.0.0","Windows","10.0","https://app.prolific.com/","en-US,en;q=0.9","5f0a7dec44c42c19a6c9f6d9","6877631c9844ddd5501205fc","689183102d242346150d0d12","3","1","5f0a7dec44c42c19a6c9f6d9","3","1","2025-08-05T04:18:32.608Z","","","","","","","","","","","","","","win-only","0","g1:NW,g2:SE","0.4","10","0","734523.6","1411.8","6415.5","34866.1","1","4","8","6","1","-1","-2","0","2","0","5003.7","3000","-2385","[""left"",""up""]","{""num_key_presses"":9,""num_perfect"":3,""num_errors"":1,""num_randdir"":5,""num_randdir_good_moves"":1,""num_whilered"":0,""num_whileblue"":1,""num_blue"":2,""num_good_moves"":5}","[345.9257712364197,343.8945289850235,0.3,345.9257712364197,343.8945289850235,103.4,345.9257712364197,343.8945289850235,204.3,345.9257712364197,343.8945289850235,308.9,345.9257712364197,343.8945289850235,414.9,345.9257712364197,343.8945289850235,516.3,345.9257712364197,343.8945289850235,618,345.9257712364197,343.8945289850235,719,345.9257712364197,345.5351539850235,820.2,345.9257712364197,348.8164039850235,925.1,345.9257712364197,348.8164039850235,1038.1,473.8945212364197,350.4570289850235,1148.7,1007.0976462364197,307.8007789850235,1255.2,1021.8632712364197,307.8007789850235,1370.1,1021.8632712364197,307.8007789850235,1471.1,1021.8632712364197,307.8007789850235,1584.5,1021.8632712364197,307.8007789850235,1685.4,1016.9413962364197,307.8007789850235,1789.9,1016.9413962364197,307.8007789850235,1891,1016.9413962364197,307.8007789850235,1992.3,1016.9413962364197,307.8007789850235,2095.8,1016.9413962364197,307.8007789850235,2201,1016.9413962364197,307.8007789850235,2304.8,1016.9413962364197,307.8007789850235,2407.1,1016.9413962364197,307.8007789850235,2509.8,1016.9413962364197,307.8007789850235,2612.2,1016.9413962364197,307.8007789850235,2716.1,1016.9413962364197,307.8007789850235,2824.6,1016.9413962364197,307.8007789850235,2930.2,1016.9413962364197,307.8007789850235,3031.3,1016.9413962364197,307.8007789850235,3138.3,1016.9413962364197,307.8007789850235,3246.4,1016.9413962364197,307.8007789850235,3351.1,1016.9413962364197,307.8007789850235,3451.8,1016.9413962364197,307.8007789850235,3553.7,1016.9413962364197,307.8007789850235,3659.5,1016.9413962364197,307.8007789850235,3767.9,1016.9413962364197,307.8007789850235,3873.1,1016.9413962364197,307.8007789850235,3975.1,1016.9413962364197,307.8007789850235,4076.6,1016.9413962364197,307.8007789850235,4189.7,1016.9413962364197,307.8007789850235,4289.9,1016.9413962364197,307.8007789850235,4397.5,1016.9413962364197,307.8007789850235,4499.9,1016.9413962364197,307.8007789850235,4603.8,1016.9413962364197,307.8007789850235,4707.9,1016.9413962364197,307.8007789850235,4809.9,1016.9413962364197,307.8007789850235,4914.3]","[5348.2,5348.2,2790.9,2000.3,557,""smooth"",""up"",""up"",""good_move"",7373.8,2025.1,1572.1,5348.7,453,""smooth"",""up"",""up"",""good_move"",10613.9,3239.6,2700.4,7374.3,539.2,""oops"",""left"",""right"",""bad_move"",13359.1,2744.1,2365.4,10615,378.7,""while_blue"",""left"",""left"",""good_move"",16093.8,2733.8,2168.4,13360,565.4,""smooth"",""left"",""left"",""good_move"",18759.6,2665.5,2269.4,16094.1,396.1,""oops"",""left"",""down"",""bad_move"",20447.3,1686.9,1238.9,18760.4,448,""oops"",""left"",""right"",""bad_move"",23144.7,2696.8,2270.7,20448,426.1,""oops"",""left"",""right"",""bad_move"",25981.6,2835.8,2471.1,23145.8,364.7,""oops"",""up"",""left"",""good_move""]","",""
"3406","","<div style=""width:500px;"">
  <p>What determined the result of this run?</p>
  </div>","15","html-slider-response","55","772940","0.0-5.0-1.9","314","1","2025-08-05 04:05:42","1f75c3e559b7213887762d5229550c2b","71.138.89.249","Mozilla/5.0 (Windows NT 10.0; Win64; x64) AppleWebKit/537.36 (KHTML, like Gecko) Chrome/138.0.0.0 Safari/537.36","WebKit","Chrome","138.0.0.0","Windows","10.0","https://app.prolific.com/","en-US,en;q=0.9","5f0a7dec44c42c19a6c9f6d9","6877631c9844ddd5501205fc","689183102d242346150d0d12","3","1","5f0a7dec44c42c19a6c9f6d9","3","1","2025-08-05T04:18:36.016Z","","","","","","","","","","","AttribQ","","50","","","","","","","","","","","","","","","","","","","","","","","","","","","","",""
"2189","","<div style=""width:500px;"">
  <p>How much control did you have over the ball?</p>
  </div>","6","html-slider-response","56","775131","0.0-5.0-2.9","314","1","2025-08-05 04:05:42","1f75c3e559b7213887762d5229550c2b","71.138.89.249","Mozilla/5.0 (Windows NT 10.0; Win64; x64) AppleWebKit/537.36 (KHTML, like Gecko) Chrome/138.0.0.0 Safari/537.36","WebKit","Chrome","138.0.0.0","Windows","10.0","https://app.prolific.com/","en-US,en;q=0.9","5f0a7dec44c42c19a6c9f6d9","6877631c9844ddd5501205fc","689183102d242346150d0d12","3","1","5f0a7dec44c42c19a6c9f6d9","3","1","2025-08-05T04:18:38.207Z","","","","","","","","","","","ControlQ","","50","","","","","","","","","","","","","","","","","","","","","","","","","","","","",""
"2691","","<div style=""width:500px;"">
  <p>How would you describe your current emotional state?</p>
  </div>","96","html-slider-response","57","777828","0.0-5.0-3.9","314","1","2025-08-05 04:05:42","1f75c3e559b7213887762d5229550c2b","71.138.89.249","Mozilla/5.0 (Windows NT 10.0; Win64; x64) AppleWebKit/537.36 (KHTML, like Gecko) Chrome/138.0.0.0 Safari/537.36","WebKit","Chrome","138.0.0.0","Windows","10.0","https://app.prolific.com/","en-US,en;q=0.9","5f0a7dec44c42c19a6c9f6d9","6877631c9844ddd5501205fc","689183102d242346150d0d12","3","1","5f0a7dec44c42c19a6c9f6d9","3","1","2025-08-05T04:18:40.904Z","","","","","","","","","","","StressQ","","50","","","","","","","","","","","","","","","","","","","","","","","","","","","","",""
"2397","","<div style=""width:500px;"">
  <p>What best describes how you currently feel?</p>
  </div>","43","html-slider-response","58","780227","0.0-5.0-4.9","314","1","2025-08-05 04:05:42","1f75c3e559b7213887762d5229550c2b","71.138.89.249","Mozilla/5.0 (Windows NT 10.0; Win64; x64) AppleWebKit/537.36 (KHTML, like Gecko) Chrome/138.0.0.0 Safari/537.36","WebKit","Chrome","138.0.0.0","Windows","10.0","https://app.prolific.com/","en-US,en;q=0.9","5f0a7dec44c42c19a6c9f6d9","6877631c9844ddd5501205fc","689183102d242346150d0d12","3","1","5f0a7dec44c42c19a6c9f6d9","3","1","2025-08-05T04:18:43.303Z","","","","","","","","","","","MotivationQ","","50","","","","","","","","","","","","","","","","","","","","","","","","","","","","",""
"","","","","ctl-task-cpt","59","839032","0.0-5.0-0.10","314","1","2025-08-05 04:05:42","1f75c3e559b7213887762d5229550c2b","71.138.89.249","Mozilla/5.0 (Windows NT 10.0; Win64; x64) AppleWebKit/537.36 (KHTML, like Gecko) Chrome/138.0.0.0 Safari/537.36","WebKit","Chrome","138.0.0.0","Windows","10.0","https://app.prolific.com/","en-US,en;q=0.9","5f0a7dec44c42c19a6c9f6d9","6877631c9844ddd5501205fc","689183102d242346150d0d12","3","1","5f0a7dec44c42c19a6c9f6d9","3","1","2025-08-05T04:19:42.108Z","","","","","","","","","","","","","","win-only","3","g1:SW,g2:NE","0.5","11","0","783101.7","914.7","5926","55782.8","1","4","4","6","2","4","3","3","0","0.022727272727272728","5011.3","3000","15","[""up"",""right""]","{""num_key_presses"":14,""num_perfect"":7,""num_errors"":1,""num_randdir"":6,""num_randdir_good_moves"":2,""num_whilered"":0,""num_whileblue"":1,""num_blue"":4,""num_good_moves"":10}","[349.2070212364197,348.8164039850235,1.2,349.2070212364197,348.8164039850235,104.2,349.2070212364197,348.8164039850235,215.5,349.2070212364197,348.8164039850235,327.1,347.5663962364197,350.4570289850235,431,347.5663962364197,350.4570289850235,531.6,347.5663962364197,350.4570289850235,635.6,347.5663962364197,355.3789039850235,739.1,344.2851462364197,375.0664039850235,844.5,324.5976462364197,394.7539039850235,944.8,314.7538962364197,402.9570289850235,1057.7,327.8788962364197,402.9570289850235,1177.6,624.8320212364197,363.5820289850235,1281.5,733.1132712364197,360.3007789850235,1394.6,774.1288962364197,338.9726539850235,1501.6,803.6601462364197,338.9726539850235,1605,803.6601462364197,338.9726539850235,1720.3,803.6601462364197,338.9726539850235,1823.4,803.6601462364197,338.9726539850235,1923.4,803.6601462364197,338.9726539850235,2029,803.6601462364197,338.9726539850235,2131.5,803.6601462364197,338.9726539850235,2238.7,803.6601462364197,338.9726539850235,2349.6,803.6601462364197,338.9726539850235,2451.3,803.6601462364197,338.9726539850235,2569.4,803.6601462364197,338.9726539850235,2671,803.6601462364197,338.9726539850235,2774,803.6601462364197,338.9726539850235,2876.7,803.6601462364197,338.9726539850235,2982.5,803.6601462364197,338.9726539850235,3086,803.6601462364197,338.9726539850235,3188.1,803.6601462364197,338.9726539850235,3298.7,803.6601462364197,338.9726539850235,3402,803.6601462364197,338.9726539850235,3507.4,803.6601462364197,338.9726539850235,3607.9,803.6601462364197,338.9726539850235,3713.6,803.6601462364197,338.9726539850235,3817.9,803.6601462364197,338.9726539850235,3922.5,803.6601462364197,338.9726539850235,4023.7,803.6601462364197,338.9726539850235,4130.8,803.6601462364197,338.9726539850235,4230.9,803.6601462364197,338.9726539850235,4337.9,803.6601462364197,338.9726539850235,4443.4,803.6601462364197,338.9726539850235,4545.8,803.6601462364197,338.9726539850235,4646.5,803.6601462364197,338.9726539850235,4753.7,803.6601462364197,338.9726539850235,4853.6,803.6601462364197,338.9726539850235,4954.7]","[4665.3,4665.3,2265.4,2019.1,380.8,""smooth"",""up"",""up"",""good_move"",7455.1,2789.4,2339.1,4665.7,450.3,""smooth"",""up"",""up"",""good_move"",10313.2,2857.4,2461.6,7455.8,395.8,""smooth"",""up"",""up"",""good_move"",13080.2,2766.7,2379.9,10313.5,386.8,""oops"",""right"",""right"",""good_move"",15712.5,2631.8,2277.6,13080.7,354.2,""smooth"",""right"",""right"",""good_move"",19335.7,3622.8,3250.2,15712.9,372.6,""oops"",""right"",""down"",""bad_move"",22237,2900.9,2559.5,19336.1,341.4,""oops"",""right"",""left"",""bad_move"",24920.4,2682.8,2265.5,22237.6,417.3,""oops"",""up"",""down"",""bad_move"",27909.7,2988.7,2642.2,24921,346.5,""smooth"",""right"",""right"",""good_move"",31079.3,3168.7,2767.8,27910.6,400.9,""oops"",""right"",""down"",""bad_move"",34318.5,3238.5,2898.5,31080,340,""while_blue"",""up"",""up"",""good_move"",36906.2,2586.9,2176.9,34319.3,410,""oops"",""up"",""up"",""good_move"",46989.4,10082.8,2570.1,43988.3,431,""smooth"",""up"",""up"",""good_move"",49731.6,2741.6,2349.5,46990,392.2,""smooth"",""right"",""right"",""good_move""]","",""
"2291","","<div style=""width:500px;"">
  <p>What determined the result of this run?</p>
  </div>","53","html-slider-response","60","841324","0.0-5.0-1.10","314","1","2025-08-05 04:05:42","1f75c3e559b7213887762d5229550c2b","71.138.89.249","Mozilla/5.0 (Windows NT 10.0; Win64; x64) AppleWebKit/537.36 (KHTML, like Gecko) Chrome/138.0.0.0 Safari/537.36","WebKit","Chrome","138.0.0.0","Windows","10.0","https://app.prolific.com/","en-US,en;q=0.9","5f0a7dec44c42c19a6c9f6d9","6877631c9844ddd5501205fc","689183102d242346150d0d12","3","1","5f0a7dec44c42c19a6c9f6d9","3","1","2025-08-05T04:19:44.400Z","","","","","","","","","","","AttribQ","","50","","","","","","","","","","","","","","","","","","","","","","","","","","","","",""
"1872","","<div style=""width:500px;"">
  <p>How much control did you have over the ball?</p>
  </div>","36","html-slider-response","61","843200","0.0-5.0-2.10","314","1","2025-08-05 04:05:42","1f75c3e559b7213887762d5229550c2b","71.138.89.249","Mozilla/5.0 (Windows NT 10.0; Win64; x64) AppleWebKit/537.36 (KHTML, like Gecko) Chrome/138.0.0.0 Safari/537.36","WebKit","Chrome","138.0.0.0","Windows","10.0","https://app.prolific.com/","en-US,en;q=0.9","5f0a7dec44c42c19a6c9f6d9","6877631c9844ddd5501205fc","689183102d242346150d0d12","3","1","5f0a7dec44c42c19a6c9f6d9","3","1","2025-08-05T04:19:46.276Z","","","","","","","","","","","ControlQ","","50","","","","","","","","","","","","","","","","","","","","","","","","","","","","",""
"2901","","<div style=""width:500px;"">
  <p>How would you describe your current emotional state?</p>
  </div>","69","html-slider-response","62","846106","0.0-5.0-3.10","314","1","2025-08-05 04:05:42","1f75c3e559b7213887762d5229550c2b","71.138.89.249","Mozilla/5.0 (Windows NT 10.0; Win64; x64) AppleWebKit/537.36 (KHTML, like Gecko) Chrome/138.0.0.0 Safari/537.36","WebKit","Chrome","138.0.0.0","Windows","10.0","https://app.prolific.com/","en-US,en;q=0.9","5f0a7dec44c42c19a6c9f6d9","6877631c9844ddd5501205fc","689183102d242346150d0d12","3","1","5f0a7dec44c42c19a6c9f6d9","3","1","2025-08-05T04:19:49.182Z","","","","","","","","","","","StressQ","","50","","","","","","","","","","","","","","","","","","","","","","","","","","","","",""
"1483","","<div style=""width:500px;"">
  <p>What best describes how you currently feel?</p>
  </div>","57","html-slider-response","63","847590","0.0-5.0-4.10","314","1","2025-08-05 04:05:42","1f75c3e559b7213887762d5229550c2b","71.138.89.249","Mozilla/5.0 (Windows NT 10.0; Win64; x64) AppleWebKit/537.36 (KHTML, like Gecko) Chrome/138.0.0.0 Safari/537.36","WebKit","Chrome","138.0.0.0","Windows","10.0","https://app.prolific.com/","en-US,en;q=0.9","5f0a7dec44c42c19a6c9f6d9","6877631c9844ddd5501205fc","689183102d242346150d0d12","3","1","5f0a7dec44c42c19a6c9f6d9","3","1","2025-08-05T04:19:50.666Z","","","","","","","","","","","MotivationQ","","50","","","","","","","","","","","","","","","","","","","","","","","","","","","","",""
"","","","","ctl-task-cpt","64","878113","0.0-5.0-0.11","314","1","2025-08-05 04:05:42","1f75c3e559b7213887762d5229550c2b","71.138.89.249","Mozilla/5.0 (Windows NT 10.0; Win64; x64) AppleWebKit/537.36 (KHTML, like Gecko) Chrome/138.0.0.0 Safari/537.36","WebKit","Chrome","138.0.0.0","Windows","10.0","https://app.prolific.com/","en-US,en;q=0.9","5f0a7dec44c42c19a6c9f6d9","6877631c9844ddd5501205fc","689183102d242346150d0d12","3","1","5f0a7dec44c42c19a6c9f6d9","3","1","2025-08-05T04:20:21.189Z","","","","","","","","","","","","","","win-only","2","g1:SE,g2:NW","0.6","12","0","850464.7","3858.4","8863.7","27501.8","1","4","8","6","1","1","1","4","3","0.030303030303030304","5005.3","3000","1810","[""down"",""right""]","{""num_key_presses"":6,""num_perfect"":4,""num_errors"":0,""num_randdir"":2,""num_randdir_good_moves"":1,""num_whilered"":0,""num_whileblue"":0,""num_blue"":1,""num_good_moves"":5}","[344.2851462364197,353.7382789850235,0.5,344.2851462364197,353.7382789850235,106.7,344.2851462364197,353.7382789850235,209.6,344.2851462364197,353.7382789850235,312.4,354.1288962364197,361.9414039850235,419.9,388.5820212364197,412.8007789850235,531.7,396.7851462364197,424.2851539850235,639.8,396.7851462364197,424.2851539850235,747.7,396.7851462364197,425.9257789850235,855.1,404.9882712364197,424.2851539850235,957.8,519.8320212364197,394.7539039850235,1061.8,564.1288962364197,375.0664039850235,1170.4,577.2538962364197,378.3476539850235,1275.7,582.1757712364197,379.9882789850235,1377.5,710.1445212364197,357.0195289850235,1479.7,719.9882712364197,357.0195289850235,1589.9,733.1132712364197,358.6601539850235,1690.3,741.3163962364197,357.0195289850235,1794.3,741.3163962364197,357.0195289850235,1898.8,746.2382712364197,352.0976539850235,2004.8,756.0820212364197,343.8945289850235,2106,813.5038962364197,343.8945289850235,2207.9,824.9882712364197,345.5351539850235,2324.8,828.2695212364197,345.5351539850235,2425.7,905.3788962364197,301.2382789850235,2528.7,905.3788962364197,301.2382789850235,2630.3,905.3788962364197,301.2382789850235,2733.5,905.3788962364197,301.2382789850235,2836.7,905.3788962364197,301.2382789850235,2940,905.3788962364197,301.2382789850235,3044.4,905.3788962364197,301.2382789850235,3153,905.3788962364197,301.2382789850235,3256.9,905.3788962364197,301.2382789850235,3360.9,905.3788962364197,301.2382789850235,3465.3,905.3788962364197,301.2382789850235,3570.4,905.3788962364197,301.2382789850235,3671.4,905.3788962364197,301.2382789850235,3781.2,905.3788962364197,301.2382789850235,3885.9,905.3788962364197,301.2382789850235,3990.2,905.3788962364197,301.2382789850235,4093.2,905.3788962364197,301.2382789850235,4201,905.3788962364197,301.2382789850235,4312.2,905.3788962364197,301.2382789850235,4417,905.3788962364197,301.2382789850235,4527.8,905.3788962364197,301.2382789850235,4638.8,905.3788962364197,301.2382789850235,4747.2,905.3788962364197,301.2382789850235,4853,905.3788962364197,301.2382789850235,4959.8]","[1457.8,1457.8,1000,0,457.8,""smooth"",""down"",""down"",""good_move"",3953.3,2494,2077.7,1459.3,416.3,""oops"",""down"",""right"",""good_move"",6430.2,2476.5,2063.7,3953.7,412.8,""oops"",""down"",""left"",""bad_move"",13541.3,7110.5,2301.9,10782,457.4,""smooth"",""down"",""down"",""good_move"",15587,2045.3,1663.3,13541.7,382,""smooth"",""right"",""right"",""good_move"",18464.9,2877.2,2502.6,15587.7,374.6,""smooth"",""right"",""right"",""good_move""]","",""
"6161","","<div style=""width:500px;"">
  <p>What determined the result of this run?</p>
  </div>","55","html-slider-response","65","884277","0.0-5.0-1.11","314","1","2025-08-05 04:05:42","1f75c3e559b7213887762d5229550c2b","71.138.89.249","Mozilla/5.0 (Windows NT 10.0; Win64; x64) AppleWebKit/537.36 (KHTML, like Gecko) Chrome/138.0.0.0 Safari/537.36","WebKit","Chrome","138.0.0.0","Windows","10.0","https://app.prolific.com/","en-US,en;q=0.9","5f0a7dec44c42c19a6c9f6d9","6877631c9844ddd5501205fc","689183102d242346150d0d12","3","1","5f0a7dec44c42c19a6c9f6d9","3","1","2025-08-05T04:20:27.353Z","","","","","","","","","","","AttribQ","","50","","","","","","","","","","","","","","","","","","","","","","","","","","","","",""
"4200","","<div style=""width:500px;"">
  <p>How much control did you have over the ball?</p>
  </div>","48","html-slider-response","66","888478","0.0-5.0-2.11","314","1","2025-08-05 04:05:42","1f75c3e559b7213887762d5229550c2b","71.138.89.249","Mozilla/5.0 (Windows NT 10.0; Win64; x64) AppleWebKit/537.36 (KHTML, like Gecko) Chrome/138.0.0.0 Safari/537.36","WebKit","Chrome","138.0.0.0","Windows","10.0","https://app.prolific.com/","en-US,en;q=0.9","5f0a7dec44c42c19a6c9f6d9","6877631c9844ddd5501205fc","689183102d242346150d0d12","3","1","5f0a7dec44c42c19a6c9f6d9","3","1","2025-08-05T04:20:31.554Z","","","","","","","","","","","ControlQ","","50","","","","","","","","","","","","","","","","","","","","","","","","","","","","",""
"2806","","<div style=""width:500px;"">
  <p>How would you describe your current emotional state?</p>
  </div>","98","html-slider-response","67","891286","0.0-5.0-3.11","314","1","2025-08-05 04:05:42","1f75c3e559b7213887762d5229550c2b","71.138.89.249","Mozilla/5.0 (Windows NT 10.0; Win64; x64) AppleWebKit/537.36 (KHTML, like Gecko) Chrome/138.0.0.0 Safari/537.36","WebKit","Chrome","138.0.0.0","Windows","10.0","https://app.prolific.com/","en-US,en;q=0.9","5f0a7dec44c42c19a6c9f6d9","6877631c9844ddd5501205fc","689183102d242346150d0d12","3","1","5f0a7dec44c42c19a6c9f6d9","3","1","2025-08-05T04:20:34.362Z","","","","","","","","","","","StressQ","","50","","","","","","","","","","","","","","","","","","","","","","","","","","","","",""
"1730","","<div style=""width:500px;"">
  <p>What best describes how you currently feel?</p>
  </div>","57","html-slider-response","68","893018","0.0-5.0-4.11","314","1","2025-08-05 04:05:42","1f75c3e559b7213887762d5229550c2b","71.138.89.249","Mozilla/5.0 (Windows NT 10.0; Win64; x64) AppleWebKit/537.36 (KHTML, like Gecko) Chrome/138.0.0.0 Safari/537.36","WebKit","Chrome","138.0.0.0","Windows","10.0","https://app.prolific.com/","en-US,en;q=0.9","5f0a7dec44c42c19a6c9f6d9","6877631c9844ddd5501205fc","689183102d242346150d0d12","3","1","5f0a7dec44c42c19a6c9f6d9","3","1","2025-08-05T04:20:36.094Z","","","","","","","","","","","MotivationQ","","50","","","","","","","","","","","","","","","","","","","","","","","","","","","","",""
"","","","","ctl-task-cpt","69","922188","0.0-5.0-0.12","314","1","2025-08-05 04:05:42","1f75c3e559b7213887762d5229550c2b","71.138.89.249","Mozilla/5.0 (Windows NT 10.0; Win64; x64) AppleWebKit/537.36 (KHTML, like Gecko) Chrome/138.0.0.0 Safari/537.36","WebKit","Chrome","138.0.0.0","Windows","10.0","https://app.prolific.com/","en-US,en;q=0.9","5f0a7dec44c42c19a6c9f6d9","6877631c9844ddd5501205fc","689183102d242346150d0d12","3","1","5f0a7dec44c42c19a6c9f6d9","3","1","2025-08-05T04:21:05.264Z","","","","","","","","","","","","","","win-only","3","g1:SW,g2:NE","0.7","13","0","895891.6","1283","6284.2","26153.7","1","4","8","6","1","1","1","5","4","0.03787878787878788","5001.2","3000","1850","[""down"",""left""]","{""num_key_presses"":6,""num_perfect"":4,""num_errors"":0,""num_randdir"":2,""num_randdir_good_moves"":1,""num_whilered"":0,""num_whileblue"":0,""num_blue"":1,""num_good_moves"":5}","[354.1288962364197,343.8945289850235,0.3,352.4882712364197,343.8945289850235,113.7,391.8632712364197,345.5351539850235,217.5,416.4726462364197,348.8164039850235,321.4,598.5820212364197,352.0976539850235,422.8,777.4101462364197,352.0976539850235,529.9,779.0507712364197,352.0976539850235,637.2,782.3320212364197,352.0976539850235,739.3,785.6132712364197,355.3789039850235,851,787.2538962364197,357.0195289850235,951.2,792.1757712364197,355.3789039850235,1065.9,792.1757712364197,355.3789039850235,1168.6,795.4570212364197,358.6601539850235,1270.1,795.4570212364197,358.6601539850235,1372.2,795.4570212364197,358.6601539850235,1474.4,795.4570212364197,358.6601539850235,1576.8,795.4570212364197,358.6601539850235,1679.7,795.4570212364197,358.6601539850235,1781.2,795.4570212364197,358.6601539850235,1886.6,795.4570212364197,358.6601539850235,1995.1,795.4570212364197,358.6601539850235,2099.4,795.4570212364197,358.6601539850235,2206.9,795.4570212364197,358.6601539850235,2317.2,795.4570212364197,358.6601539850235,2419.9,795.4570212364197,358.6601539850235,2521.7,795.4570212364197,358.6601539850235,2626,795.4570212364197,358.6601539850235,2730,795.4570212364197,358.6601539850235,2834.3,795.4570212364197,358.6601539850235,2940.7,795.4570212364197,358.6601539850235,3050.8,795.4570212364197,358.6601539850235,3150.8,795.4570212364197,358.6601539850235,3258,795.4570212364197,358.6601539850235,3361.6,795.4570212364197,358.6601539850235,3463.2,795.4570212364197,358.6601539850235,3563.8,795.4570212364197,358.6601539850235,3666.3,795.4570212364197,358.6601539850235,3770.4,795.4570212364197,358.6601539850235,3877.3,795.4570212364197,358.6601539850235,3978.6,795.4570212364197,358.6601539850235,4081.3,795.4570212364197,358.6601539850235,4184.5,795.4570212364197,358.6601539850235,4285,795.4570212364197,358.6601539850235,4395.1,795.4570212364197,358.6601539850235,4495.1,795.4570212364197,358.6601539850235,4595.7,793.8163962364197,360.3007789850235,4703.1,793.8163962364197,360.3007789850235,4815,793.8163962364197,360.3007789850235,4920.2]","[1425.2,1425.2,1000,0,425.2,""oops"",""down"",""right"",""bad_move"",4102.9,2676.5,2208.1,1426.4,468.4,""smooth"",""left"",""left"",""good_move"",10384,6280.3,2814.6,7089.1,480.3,""smooth"",""left"",""left"",""good_move"",13776.5,3391.9,2942.1,10384.6,449.8,""oops"",""left"",""down"",""good_move"",16588.9,2811.1,2279.6,13777.8,531.5,""smooth"",""left"",""left"",""good_move"",19717.8,3128,2685.1,16589.8,442.9,""smooth"",""down"",""down"",""good_move""]","",""
"5793","","<div style=""width:500px;"">
  <p>What determined the result of this run?</p>
  </div>","94","html-slider-response","70","927984","0.0-5.0-1.12","314","1","2025-08-05 04:05:42","1f75c3e559b7213887762d5229550c2b","71.138.89.249","Mozilla/5.0 (Windows NT 10.0; Win64; x64) AppleWebKit/537.36 (KHTML, like Gecko) Chrome/138.0.0.0 Safari/537.36","WebKit","Chrome","138.0.0.0","Windows","10.0","https://app.prolific.com/","en-US,en;q=0.9","5f0a7dec44c42c19a6c9f6d9","6877631c9844ddd5501205fc","689183102d242346150d0d12","3","1","5f0a7dec44c42c19a6c9f6d9","3","1","2025-08-05T04:21:11.061Z","","","","","","","","","","","AttribQ","","50","","","","","","","","","","","","","","","","","","","","","","","","","","","","",""
"2159","","<div style=""width:500px;"">
  <p>How much control did you have over the ball?</p>
  </div>","69","html-slider-response","71","930150","0.0-5.0-2.12","314","1","2025-08-05 04:05:42","1f75c3e559b7213887762d5229550c2b","71.138.89.249","Mozilla/5.0 (Windows NT 10.0; Win64; x64) AppleWebKit/537.36 (KHTML, like Gecko) Chrome/138.0.0.0 Safari/537.36","WebKit","Chrome","138.0.0.0","Windows","10.0","https://app.prolific.com/","en-US,en;q=0.9","5f0a7dec44c42c19a6c9f6d9","6877631c9844ddd5501205fc","689183102d242346150d0d12","3","1","5f0a7dec44c42c19a6c9f6d9","3","1","2025-08-05T04:21:13.226Z","","","","","","","","","","","ControlQ","","50","","","","","","","","","","","","","","","","","","","","","","","","","","","","",""
"2763","","<div style=""width:500px;"">
  <p>How would you describe your current emotional state?</p>
  </div>","68","html-slider-response","72","932914","0.0-5.0-3.12","314","1","2025-08-05 04:05:42","1f75c3e559b7213887762d5229550c2b","71.138.89.249","Mozilla/5.0 (Windows NT 10.0; Win64; x64) AppleWebKit/537.36 (KHTML, like Gecko) Chrome/138.0.0.0 Safari/537.36","WebKit","Chrome","138.0.0.0","Windows","10.0","https://app.prolific.com/","en-US,en;q=0.9","5f0a7dec44c42c19a6c9f6d9","6877631c9844ddd5501205fc","689183102d242346150d0d12","3","1","5f0a7dec44c42c19a6c9f6d9","3","1","2025-08-05T04:21:15.990Z","","","","","","","","","","","StressQ","","50","","","","","","","","","","","","","","","","","","","","","","","","","","","","",""
"1650","","<div style=""width:500px;"">
  <p>What best describes how you currently feel?</p>
  </div>","59","html-slider-response","73","934566","0.0-5.0-4.12","314","1","2025-08-05 04:05:42","1f75c3e559b7213887762d5229550c2b","71.138.89.249","Mozilla/5.0 (Windows NT 10.0; Win64; x64) AppleWebKit/537.36 (KHTML, like Gecko) Chrome/138.0.0.0 Safari/537.36","WebKit","Chrome","138.0.0.0","Windows","10.0","https://app.prolific.com/","en-US,en;q=0.9","5f0a7dec44c42c19a6c9f6d9","6877631c9844ddd5501205fc","689183102d242346150d0d12","3","1","5f0a7dec44c42c19a6c9f6d9","3","1","2025-08-05T04:21:17.642Z","","","","","","","","","","","MotivationQ","","50","","","","","","","","","","","","","","","","","","","","","","","","","","","","",""
"","","","","ctl-task-cpt","74","962438","0.0-5.0-0.13","314","1","2025-08-05 04:05:42","1f75c3e559b7213887762d5229550c2b","71.138.89.249","Mozilla/5.0 (Windows NT 10.0; Win64; x64) AppleWebKit/537.36 (KHTML, like Gecko) Chrome/138.0.0.0 Safari/537.36","WebKit","Chrome","138.0.0.0","Windows","10.0","https://app.prolific.com/","en-US,en;q=0.9","5f0a7dec44c42c19a6c9f6d9","6877631c9844ddd5501205fc","689183102d242346150d0d12","3","1","5f0a7dec44c42c19a6c9f6d9","3","1","2025-08-05T04:21:45.514Z","","","","","","","","","","","","","","win-only","3","g1:SW,g2:NE","0.8","14","0","937440.4","1051.7","6064.3","24841.1","1","4","4","6","2","4","4","9","5","0.06818181818181818","5012.6","3000","2010","[""up"",""right""]","{""num_key_presses"":6,""num_perfect"":5,""num_errors"":0,""num_randdir"":1,""num_randdir_good_moves"":1,""num_whilered"":0,""num_whileblue"":0,""num_blue"":1,""num_good_moves"":6}","[354.1288962364197,348.8164039850235,1.4,354.1288962364197,348.8164039850235,104.8,354.1288962364197,348.8164039850235,210.1,368.8945212364197,357.0195289850235,320.6,378.7382712364197,366.8632789850235,429.3,388.5820212364197,389.8320289850235,534.7,390.2226462364197,401.3164039850235,636.7,390.2226462364197,402.9570289850235,752.8,477.1757712364197,404.5976539850235,861.3,874.2070212364197,368.5039039850235,968.2,931.6288962364197,361.9414039850235,1079,931.6288962364197,361.9414039850235,1179.4,931.6288962364197,361.9414039850235,1286.1,931.6288962364197,361.9414039850235,1398.3,931.6288962364197,361.9414039850235,1501.4,931.6288962364197,361.9414039850235,1613.4,931.6288962364197,361.9414039850235,1723.9,931.6288962364197,361.9414039850235,1829.6,931.6288962364197,361.9414039850235,1934,931.6288962364197,361.9414039850235,2036.8,931.6288962364197,361.9414039850235,2144.3,931.6288962364197,361.9414039850235,2252.3,931.6288962364197,361.9414039850235,2357.9,931.6288962364197,361.9414039850235,2467,931.6288962364197,361.9414039850235,2568.9,931.6288962364197,361.9414039850235,2679.1,931.6288962364197,361.9414039850235,2780,931.6288962364197,361.9414039850235,2893.3,931.6288962364197,361.9414039850235,3011.7,931.6288962364197,361.9414039850235,3131.3,931.6288962364197,361.9414039850235,3247.7,931.6288962364197,361.9414039850235,3359.7,931.6288962364197,361.9414039850235,3473.9,931.6288962364197,361.9414039850235,3574.2,931.6288962364197,361.9414039850235,3681.3,931.6288962364197,361.9414039850235,3796.6,931.6288962364197,361.9414039850235,3909.2,931.6288962364197,361.9414039850235,4015.9,931.6288962364197,361.9414039850235,4123,931.6288962364197,361.9414039850235,4237.5,931.6288962364197,361.9414039850235,4348.7,931.6288962364197,361.9414039850235,4465.4,931.6288962364197,361.9414039850235,4569,931.6288962364197,361.9414039850235,4676.4,931.6288962364197,361.9414039850235,4779.1,931.6288962364197,361.9414039850235,4879.9,931.6288962364197,361.9414039850235,4994.4]","[1428.8,1428.8,1000,0,428.8,""smooth"",""up"",""up"",""good_move"",3722.5,2293.2,1875.8,1429.3,417.4,""smooth"",""up"",""up"",""good_move"",6039.3,2315.8,1879.7,3723.5,436.1,""smooth"",""up"",""up"",""good_move"",12856.9,6817,2950.1,9490.3,416.5,""smooth"",""right"",""right"",""good_move"",15803.8,2946.1,2548.6,12857.7,397.5,""oops"",""right"",""right"",""good_move"",18593.7,2789.6,2413.1,15804.1,376.5,""smooth"",""right"",""right"",""good_move""]","",""
"3793","","<div style=""width:500px;"">
  <p>What determined the result of this run?</p>
  </div>","90","html-slider-response","75","966233","0.0-5.0-1.13","314","1","2025-08-05 04:05:42","1f75c3e559b7213887762d5229550c2b","71.138.89.249","Mozilla/5.0 (Windows NT 10.0; Win64; x64) AppleWebKit/537.36 (KHTML, like Gecko) Chrome/138.0.0.0 Safari/537.36","WebKit","Chrome","138.0.0.0","Windows","10.0","https://app.prolific.com/","en-US,en;q=0.9","5f0a7dec44c42c19a6c9f6d9","6877631c9844ddd5501205fc","689183102d242346150d0d12","3","1","5f0a7dec44c42c19a6c9f6d9","3","1","2025-08-05T04:21:49.310Z","","","","","","","","","","","AttribQ","","50","","","","","","","","","","","","","","","","","","","","","","","","","","","","",""
"5533","","<div style=""width:500px;"">
  <p>How much control did you have over the ball?</p>
  </div>","81","html-slider-response","76","971772","0.0-5.0-2.13","314","1","2025-08-05 04:05:42","1f75c3e559b7213887762d5229550c2b","71.138.89.249","Mozilla/5.0 (Windows NT 10.0; Win64; x64) AppleWebKit/537.36 (KHTML, like Gecko) Chrome/138.0.0.0 Safari/537.36","WebKit","Chrome","138.0.0.0","Windows","10.0","https://app.prolific.com/","en-US,en;q=0.9","5f0a7dec44c42c19a6c9f6d9","6877631c9844ddd5501205fc","689183102d242346150d0d12","3","1","5f0a7dec44c42c19a6c9f6d9","3","1","2025-08-05T04:21:54.848Z","","","","","","","","","","","ControlQ","","50","","","","","","","","","","","","","","","","","","","","","","","","","","","","",""
"1785","","<div style=""width:500px;"">
  <p>How would you describe your current emotional state?</p>
  </div>","50","html-slider-response","77","973562","0.0-5.0-3.13","314","1","2025-08-05 04:05:42","1f75c3e559b7213887762d5229550c2b","71.138.89.249","Mozilla/5.0 (Windows NT 10.0; Win64; x64) AppleWebKit/537.36 (KHTML, like Gecko) Chrome/138.0.0.0 Safari/537.36","WebKit","Chrome","138.0.0.0","Windows","10.0","https://app.prolific.com/","en-US,en;q=0.9","5f0a7dec44c42c19a6c9f6d9","6877631c9844ddd5501205fc","689183102d242346150d0d12","3","1","5f0a7dec44c42c19a6c9f6d9","3","1","2025-08-05T04:21:56.638Z","","","","","","","","","","","StressQ","","50","","","","","","","","","","","","","","","","","","","","","","","","","","","","",""
"1860","","<div style=""width:500px;"">
  <p>What best describes how you currently feel?</p>
