"rt","response_timestamp","stimulus","response","trial_type","trial_index","time_elapsed","internal_node_id","run_id","condition","recorded_at","source_code_version","ip","user_agent","device","browser","browser_version","platform","platform_version","referer","accept_language","PROLIFIC_PID","STUDY_ID","SESSION_ID","WEEK","BATCH","prolific_id","week","batch","realtime","success","responses","item_order","radio_event_ids","radio_event_times","key_event_times","mouse_event_times","straightlining","zigzagging","honeypot","eventType","view_history","slider_start","which_type","canvas_config","goals_layout","control_level","trial_number","tutorial_trial_number","trial_start_time","phase1_start_time","phase2_start_time","phase3_start_time","goal_1_value","goal_1_distance","goal_2_value","goal_2_distance","goal_selected","outcome","outcome_total","participant_final_score","participant_initial_score","participant_final_score_prop","goal_choice_rt","allocated_time","allocated_time_remaining","goal_direction","counts","mouse_movements","key_presses","question_order","question_id"
"9455290","1753877898956","<p style='font-size:40px;line-height:1.25'><strong>Welcome to the experiment!</strong></p><p style='font-size:1.1em;line-height:1.25'>Thank you for participanting in our experiment again! You will be asked to play the Dysfunctional Ball Game again. We will briefly recap the rules before we start.</p><p style='font-size:1.1em;line-height:1.25'>Press <strong>Next</strong> to continue.</p>","0","custom-html-button-response","0","9455306","0.0-0.0","282","1","2025-07-30 09:40:43","1f75c3e559b7213887762d5229550c2b","216.120.189.45","Mozilla/5.0 (Windows NT 10.0; Win64; x64) AppleWebKit/537.36 (KHTML, like Gecko) Chrome/138.0.0.0 Safari/537.36","WebKit","Chrome","138.0.0.0","Windows","10.0","https://app.prolific.com/","en-US,en;q=0.9","673594215b1a0b92d5835525","6877631c9844ddd5501205fc","6889d9bbd4d79339b93895a3","3","1","673594215b1a0b92d5835525","3","1","2025-07-30T12:18:18.960Z","","","","","","","","","","","","","","","","","","","","","","","","","","","","","","","","","","","","","","","","","",""
"1352","","","","fullscreen","1","9457668","0.0-1.0","282","1","2025-07-30 09:40:43","1f75c3e559b7213887762d5229550c2b","216.120.189.45","Mozilla/5.0 (Windows NT 10.0; Win64; x64) AppleWebKit/537.36 (KHTML, like Gecko) Chrome/138.0.0.0 Safari/537.36","WebKit","Chrome","138.0.0.0","Windows","10.0","https://app.prolific.com/","en-US,en;q=0.9","673594215b1a0b92d5835525","6877631c9844ddd5501205fc","6889d9bbd4d79339b93895a3","3","1","673594215b1a0b92d5835525","3","1","","true","","","","","","","","","","","","","","","","","","","","","","","","","","","","","","","","","","","","","","","","",""
"1659","1753877902985","<p style='font-size:1.1em;line-height:1.25'>In the following, we will ask you a few questions relating to your feelings in the last 24 hours.<br></p><p style='font-size:1.1em;line-height:1.25'>Press the <strong>Next</strong> button to continue.</p>","0","custom-html-button-response","2","9459332","0.0-2.0-0.0","282","1","2025-07-30 09:40:43","1f75c3e559b7213887762d5229550c2b","216.120.189.45","Mozilla/5.0 (Windows NT 10.0; Win64; x64) AppleWebKit/537.36 (KHTML, like Gecko) Chrome/138.0.0.0 Safari/537.36","WebKit","Chrome","138.0.0.0","Windows","10.0","https://app.prolific.com/","en-US,en;q=0.9","673594215b1a0b92d5835525","6877631c9844ddd5501205fc","6889d9bbd4d79339b93895a3","3","1","673594215b1a0b92d5835525","3","1","2025-07-30T12:18:22.985Z","","","","","","","","","","","","","","","","","","","","","","","","","","","","","","","","","","","","","","","","","",""
"67727.70000000298","","","","survey-template","3","9527067","0.0-2.0-1.0","282","1","2025-07-30 09:40:43","1f75c3e559b7213887762d5229550c2b","216.120.189.45","Mozilla/5.0 (Windows NT 10.0; Win64; x64) AppleWebKit/537.36 (KHTML, like Gecko) Chrome/138.0.0.0 Safari/537.36","WebKit","Chrome","138.0.0.0","Windows","10.0","https://app.prolific.com/","en-US,en;q=0.9","673594215b1a0b92d5835525","6877631c9844ddd5501205fc","6889d9bbd4d79339b93895a3","3","1","673594215b1a0b92d5835525","3","1","2025-07-30T12:19:30.720Z","","{""Q01"":""0"",""Q02"":""0"",""Q03"":""0"",""Q04"":""1"",""Q05"":""2"",""Q06"":""1"",""Q07"":""1"",""Q08"":""1"",""Q09"":""1"",""Q10"":""0"",""Q11"":""1"",""Q12"":""2"",""Q13"":""5"",""Q14"":""2"",""Q15"":""0"",""Q16"":""0"",""Q17"":""1"",""Q18"":""0"",""Q19"":""1"",""Q20"":""1"",""Q21"":""1"",""Q22"":""1""}","[0,1,2,3,4,5,6,7,8,9,10,11,12,13,14,15,16,17,18,19,20,21]","[""Q01"",""Q02"",""Q03"",""Q04"",""Q05"",""Q06"",""Q07"",""Q06"",""Q08"",""Q09"",""Q10"",""Q11"",""Q12"",""Q13"",""Q14"",""Q15"",""Q16"",""Q17"",""Q18"",""Q19"",""Q20"",""Q21"",""Q22""]","[4246.20000000298,6050.5999999940395,8111.70000000298,10279.59999999404,14797.29999999702,23016.90000000596,25525.70000000298,27167.59999999404,29981.59999999404,31712.59999999404,34205.79999999702,36443.70000000298,40808.90000000596,42847.29999999702,45822.5,48969.29999999702,51686.70000000298,54865.79999999702,56149.20000000298,58899.70000000298,62882.70000000298,64841.5,66515.20000000298]","[]","[0.09999999403953552,4246.20000000298,6050.5999999940395,8111.70000000298,10279.59999999404,13949.90000000596,14797.29999999702,23016.90000000596,24750.70000000298,25525.70000000298,27167.59999999404,29981.59999999404,31712.59999999404,34205.79999999702,36443.70000000298,40808.90000000596,42847.29999999702,45822.5,48969.29999999702,51686.70000000298,54865.79999999702,56149.20000000298,58899.70000000298,62882.70000000298,64841.5,66515.20000000298,67722.20000000298]","0.5","0.42857142857142855","0","drsp","","","","","","","","","","","","","","","","","","","","","","","","","","","","","","",""
"10889.79999999702","","","","survey-template","4","9537959","0.0-2.0-2.0","282","1","2025-07-30 09:40:43","1f75c3e559b7213887762d5229550c2b","216.120.189.45","Mozilla/5.0 (Windows NT 10.0; Win64; x64) AppleWebKit/537.36 (KHTML, like Gecko) Chrome/138.0.0.0 Safari/537.36","WebKit","Chrome","138.0.0.0","Windows","10.0","https://app.prolific.com/","en-US,en;q=0.9","673594215b1a0b92d5835525","6877631c9844ddd5501205fc","6889d9bbd4d79339b93895a3","3","1","673594215b1a0b92d5835525","3","1","2025-07-30T12:19:41.612Z","","{""Q01"":""1"",""Q02"":""4"",""Q03"":""1""}","[0,1,2]","[""Q02"",""Q02"",""Q01"",""Q03""]","[4297.70000000298,4480.5,5831.70000000298,7587.5]","[]","[2512.9000000059605,4297.70000000298,4480.5,5831.70000000298,7587.5,10888.90000000596]","1","0","0","stress","","","","","","","","","","","","","","","","","","","","","","","","","","","","","","",""
"1814","","","","instructions","5","9539775","0.0-3.0-0.0","282","1","2025-07-30 09:40:43","1f75c3e559b7213887762d5229550c2b","216.120.189.45","Mozilla/5.0 (Windows NT 10.0; Win64; x64) AppleWebKit/537.36 (KHTML, like Gecko) Chrome/138.0.0.0 Safari/537.36","WebKit","Chrome","138.0.0.0","Windows","10.0","https://app.prolific.com/","en-US,en;q=0.9","673594215b1a0b92d5835525","6877631c9844ddd5501205fc","6889d9bbd4d79339b93895a3","3","1","673594215b1a0b92d5835525","3","1","","","","","","","","","","","","","[{""page_index"":0,""viewing_time"":1814}]","","","","","","","","","","","","","","","","","","","","","","","","","","","","","",""
"4375","","<p>Before you start with this game please answer the following three questions yourself. </p>
  <p>Through this game, we measure several aspects of your cognitive performance, such as reaction times, multi-tasking capabilities </p>
  <p>and the ability to assess the situation you are in.</p>
  <p></p>
  <p><b>How good do you usually are in such tasks?</b></p>","82","html-slider-response","6","9544151","0.0-4.0-0.0","282","1","2025-07-30 09:40:43","1f75c3e559b7213887762d5229550c2b","216.120.189.45","Mozilla/5.0 (Windows NT 10.0; Win64; x64) AppleWebKit/537.36 (KHTML, like Gecko) Chrome/138.0.0.0 Safari/537.36","WebKit","Chrome","138.0.0.0","Windows","10.0","https://app.prolific.com/","en-US,en;q=0.9","673594215b1a0b92d5835525","6877631c9844ddd5501205fc","6889d9bbd4d79339b93895a3","3","1","673594215b1a0b92d5835525","3","1","2025-07-30T12:19:47.804Z","","","","","","","","","","","PreSkillQ","","50","","","","","","","","","","","","","","","","","","","","","","","","","","","","",""
"2886","","<div style=""width:500px;"">
  <p>How well do you think you will perform in this task compared to other participants?</p>
  </div>","77","html-slider-response","7","9547038","0.0-4.0-1.0","282","1","2025-07-30 09:40:43","1f75c3e559b7213887762d5229550c2b","216.120.189.45","Mozilla/5.0 (Windows NT 10.0; Win64; x64) AppleWebKit/537.36 (KHTML, like Gecko) Chrome/138.0.0.0 Safari/537.36","WebKit","Chrome","138.0.0.0","Windows","10.0","https://app.prolific.com/","en-US,en;q=0.9","673594215b1a0b92d5835525","6877631c9844ddd5501205fc","6889d9bbd4d79339b93895a3","3","1","673594215b1a0b92d5835525","3","1","2025-07-30T12:19:50.691Z","","","","","","","","","","","PrePerfQ","","50","","","","","","","","","","","","","","","","","","","","","","","","","","","","",""
"4429","","<div style=""width:500px;"">
  <p>What best describes how you currently feel?</p>
  </div>","100","html-slider-response","8","9551468","0.0-4.0-2.0","282","1","2025-07-30 09:40:43","1f75c3e559b7213887762d5229550c2b","216.120.189.45","Mozilla/5.0 (Windows NT 10.0; Win64; x64) AppleWebKit/537.36 (KHTML, like Gecko) Chrome/138.0.0.0 Safari/537.36","WebKit","Chrome","138.0.0.0","Windows","10.0","https://app.prolific.com/","en-US,en;q=0.9","673594215b1a0b92d5835525","6877631c9844ddd5501205fc","6889d9bbd4d79339b93895a3","3","1","673594215b1a0b92d5835525","3","1","2025-07-30T12:19:55.121Z","","","","","","","","","","","PreMotivationQ","","50","","","","","","","","","","","","","","","","","","","","","","","","","","","","",""
"","","","","ctl-task-cpt","9","9579783","0.0-5.0-0.0","282","1","2025-07-30 09:40:43","1f75c3e559b7213887762d5229550c2b","216.120.189.45","Mozilla/5.0 (Windows NT 10.0; Win64; x64) AppleWebKit/537.36 (KHTML, like Gecko) Chrome/138.0.0.0 Safari/537.36","WebKit","Chrome","138.0.0.0","Windows","10.0","https://app.prolific.com/","en-US,en;q=0.9","673594215b1a0b92d5835525","6877631c9844ddd5501205fc","6889d9bbd4d79339b93895a3","3","1","673594215b1a0b92d5835525","3","1","2025-07-30T12:20:23.437Z","","","","","","","","","","","","","","win-only","1","g1:NE,g2:SW","1","1","0","9554264.6","1392.4","6405.8","25301.6","1","4","8","6","2","8","7","7","0","0.05303030303030303","1842.1","3000","1290","[""down"",""left""]","{""num_key_presses"":7,""num_perfect"":6,""num_errors"":1,""num_randdir"":0,""num_randdir_good_moves"":0,""num_whilered"":0,""num_whileblue"":0,""num_blue"":0,""num_good_moves"":6}","[296.22232142857143,295.12857142857143,1.3,296.22232142857143,295.12857142857143,100.5,296.22232142857143,295.12857142857143,204.5,296.22232142857143,295.12857142857143,308.7,296.22232142857143,295.12857142857143,410.7,296.22232142857143,295.12857142857143,515.4,296.22232142857143,295.12857142857143,620.9,296.22232142857143,295.12857142857143,728.4,296.22232142857143,295.12857142857143,828.8,213.22232142857143,328.12857142857143,929.3,111.22232142857143,387.12857142857143,1039.1,43.222321428571426,440.12857142857143,1146.6,38.222321428571426,446.12857142857143,1248.8,40.222321428571426,480.12857142857143,1350.8,48.222321428571426,491.12857142857143,1458.3,50.222321428571426,495.12857142857143,1566.4,50.222321428571426,495.12857142857143,1670.3,50.222321428571426,495.12857142857143,1780.7,50.222321428571426,495.12857142857143,1884.1,50.222321428571426,495.12857142857143,1987.1,50.222321428571426,495.12857142857143,2087.5,50.222321428571426,495.12857142857143,2195.6,50.222321428571426,495.12857142857143,2308.1,50.222321428571426,495.12857142857143,2415.1,159.22232142857143,417.12857142857143,2523.1,228.22232142857143,379.12857142857143,2623.9,241.22232142857143,371.12857142857143,2726.5,241.22232142857143,371.12857142857143,2831.5,241.22232142857143,371.12857142857143,2943,241.22232142857143,371.12857142857143,3046.6,241.22232142857143,371.12857142857143,3156.8,241.22232142857143,371.12857142857143,3262.2,241.22232142857143,371.12857142857143,3370.4,241.22232142857143,371.12857142857143,3472.8,241.22232142857143,371.12857142857143,3580.5,241.22232142857143,371.12857142857143,3681.8,241.22232142857143,371.12857142857143,3793.4,241.22232142857143,371.12857142857143,3894.2,241.22232142857143,371.12857142857143,3996.1,241.22232142857143,371.12857142857143,4101,241.22232142857143,371.12857142857143,4205.7,241.22232142857143,371.12857142857143,4306.2,241.22232142857143,371.12857142857143,4408.2,241.22232142857143,371.12857142857143,4512.5,241.22232142857143,371.12857142857143,4622.4,241.22232142857143,371.12857142857143,4731.7,241.22232142857143,371.12857142857143,4842.3,241.22232142857143,371.12857142857143,4944]","[418.2,417.9,1000,0.3,-582.1,""error"",""-"",""-"",""no_move"",3881.6,3462.5,2010.4,1423.5,447.8,""smooth"",""down"",""down"",""good_move"",7251.4,3367.7,2937.2,3883.7,430.6,""smooth"",""down"",""down"",""good_move"",9980.6,2727.6,2255.2,7253.1,472.4,""smooth"",""down"",""down"",""good_move"",12761.5,2778.7,2378.5,9982.8,400.2,""smooth"",""left"",""left"",""good_move"",15515.1,2751.9,2359.5,12763.3,392.4,""smooth"",""left"",""left"",""good_move"",18750.3,3234.2,2861.2,15516.2,372.9,""smooth"",""left"",""left"",""good_move""]","",""
"4665","","<div style=""width:500px;"">
  <p>What determined the result of this run?</p>
  </div>","100","html-slider-response","10","9584450","0.0-5.0-1.0","282","1","2025-07-30 09:40:43","1f75c3e559b7213887762d5229550c2b","216.120.189.45","Mozilla/5.0 (Windows NT 10.0; Win64; x64) AppleWebKit/537.36 (KHTML, like Gecko) Chrome/138.0.0.0 Safari/537.36","WebKit","Chrome","138.0.0.0","Windows","10.0","https://app.prolific.com/","en-US,en;q=0.9","673594215b1a0b92d5835525","6877631c9844ddd5501205fc","6889d9bbd4d79339b93895a3","3","1","673594215b1a0b92d5835525","3","1","2025-07-30T12:20:28.104Z","","","","","","","","","","","AttribQ","","50","","","","","","","","","","","","","","","","","","","","","","","","","","","","",""
"3488","","<div style=""width:500px;"">
  <p>How much control did you have over the ball?</p>
  </div>","100","html-slider-response","11","9587939","0.0-5.0-2.0","282","1","2025-07-30 09:40:43","1f75c3e559b7213887762d5229550c2b","216.120.189.45","Mozilla/5.0 (Windows NT 10.0; Win64; x64) AppleWebKit/537.36 (KHTML, like Gecko) Chrome/138.0.0.0 Safari/537.36","WebKit","Chrome","138.0.0.0","Windows","10.0","https://app.prolific.com/","en-US,en;q=0.9","673594215b1a0b92d5835525","6877631c9844ddd5501205fc","6889d9bbd4d79339b93895a3","3","1","673594215b1a0b92d5835525","3","1","2025-07-30T12:20:31.592Z","","","","","","","","","","","ControlQ","","50","","","","","","","","","","","","","","","","","","","","","","","","","","","","",""
"2856","","<div style=""width:500px;"">
  <p>How would you describe your current emotional state?</p>
  </div>","0","html-slider-response","12","9590796","0.0-5.0-3.0","282","1","2025-07-30 09:40:43","1f75c3e559b7213887762d5229550c2b","216.120.189.45","Mozilla/5.0 (Windows NT 10.0; Win64; x64) AppleWebKit/537.36 (KHTML, like Gecko) Chrome/138.0.0.0 Safari/537.36","WebKit","Chrome","138.0.0.0","Windows","10.0","https://app.prolific.com/","en-US,en;q=0.9","673594215b1a0b92d5835525","6877631c9844ddd5501205fc","6889d9bbd4d79339b93895a3","3","1","673594215b1a0b92d5835525","3","1","2025-07-30T12:20:34.449Z","","","","","","","","","","","StressQ","","50","","","","","","","","","","","","","","","","","","","","","","","","","","","","",""
"3580","","<div style=""width:500px;"">
  <p>What best describes how you currently feel?</p>
  </div>","100","html-slider-response","13","9594377","0.0-5.0-4.0","282","1","2025-07-30 09:40:43","1f75c3e559b7213887762d5229550c2b","216.120.189.45","Mozilla/5.0 (Windows NT 10.0; Win64; x64) AppleWebKit/537.36 (KHTML, like Gecko) Chrome/138.0.0.0 Safari/537.36","WebKit","Chrome","138.0.0.0","Windows","10.0","https://app.prolific.com/","en-US,en;q=0.9","673594215b1a0b92d5835525","6877631c9844ddd5501205fc","6889d9bbd4d79339b93895a3","3","1","673594215b1a0b92d5835525","3","1","2025-07-30T12:20:38.030Z","","","","","","","","","","","MotivationQ","","50","","","","","","","","","","","","","","","","","","","","","","","","","","","","",""
"","","","","ctl-task-cpt","14","9631791","0.0-5.0-0.1","282","1","2025-07-30 09:40:43","1f75c3e559b7213887762d5229550c2b","216.120.189.45","Mozilla/5.0 (Windows NT 10.0; Win64; x64) AppleWebKit/537.36 (KHTML, like Gecko) Chrome/138.0.0.0 Safari/537.36","WebKit","Chrome","138.0.0.0","Windows","10.0","https://app.prolific.com/","en-US,en;q=0.9","673594215b1a0b92d5835525","6877631c9844ddd5501205fc","6889d9bbd4d79339b93895a3","3","1","673594215b1a0b92d5835525","3","1","2025-07-30T12:21:15.445Z","","","","","","","","","","","","","","win-only","2","g1:SE,g2:NW","0.9","2","0","9597171.7","2193.1","7196.9","34397.7","1","4","4","6","2","4","4","11","7","0.08333333333333333","1538.2","3000","520","[""left"",""up""]","{""num_key_presses"":10,""num_perfect"":9,""num_errors"":0,""num_randdir"":1,""num_randdir_good_moves"":0,""num_whilered"":0,""num_whileblue"":0,""num_blue"":0,""num_good_moves"":8}","[294.22232142857143,294.12857142857143,0.8,294.22232142857143,294.12857142857143,100.7,294.22232142857143,294.12857142857143,204.2,294.22232142857143,294.12857142857143,308.6,294.22232142857143,294.12857142857143,412.5,300.22232142857143,304.12857142857143,513.7,322.22232142857143,328.12857142857143,623.7,234.22232142857143,252.12857142857143,724.1,74.22232142857143,103.12857142857143,829,74.22232142857143,103.12857142857143,930.3,74.22232142857143,103.12857142857143,1033.1,70.22232142857143,86.12857142857143,1135.1,69.22232142857143,71.12857142857143,1241.5,69.22232142857143,67.12857142857143,1344.7,69.22232142857143,67.12857142857143,1445.3,69.22232142857143,67.12857142857143,1552,69.22232142857143,67.12857142857143,1653.1,69.22232142857143,67.12857142857143,1755.6,69.22232142857143,67.12857142857143,1855.8,69.22232142857143,67.12857142857143,1960.6,69.22232142857143,67.12857142857143,2073.9,69.22232142857143,67.12857142857143,2176,69.22232142857143,67.12857142857143,2279.1,69.22232142857143,67.12857142857143,2395.7,69.22232142857143,67.12857142857143,2500.4,69.22232142857143,67.12857142857143,2611,69.22232142857143,67.12857142857143,2714.8,69.22232142857143,67.12857142857143,2819.7,69.22232142857143,67.12857142857143,2926.8,69.22232142857143,67.12857142857143,3027.3,69.22232142857143,67.12857142857143,3132.5,69.22232142857143,67.12857142857143,3236.5,69.22232142857143,67.12857142857143,3347.1,69.22232142857143,67.12857142857143,3449.1,69.22232142857143,67.12857142857143,3554.2,69.22232142857143,67.12857142857143,3655.4,69.22232142857143,67.12857142857143,3759.6,69.22232142857143,67.12857142857143,3865.5,69.22232142857143,67.12857142857143,3966,69.22232142857143,67.12857142857143,4066.2,69.22232142857143,67.12857142857143,4170.1,69.22232142857143,67.12857142857143,4276.1,69.22232142857143,67.12857142857143,4376.2,69.22232142857143,67.12857142857143,4486.8,69.22232142857143,67.12857142857143,4588.7,69.22232142857143,67.12857142857143,4694.9,69.22232142857143,67.12857142857143,4802.6,69.22232142857143,67.12857142857143,4904]","[1551.1,1551,1000,0.1,551,""smooth"",""left"",""left"",""good_move"",4350,2798.6,2409.1,1551.4,389.6,""smooth"",""left"",""left"",""good_move"",6934,2582.8,2223.9,4351.3,358.8,""smooth"",""up"",""up"",""good_move"",10019.5,3084.2,2730.3,6935.4,353.8,""smooth"",""up"",""up"",""good_move"",12908.3,2886.9,2538.3,10021.4,348.6,""smooth"",""up"",""up"",""good_move"",15787.2,2877.4,2499.9,12909.8,377.5,""oops"",""left"",""right"",""bad_move"",18737.8,2945.5,2599.1,15792.3,346.4,""smooth"",""down"",""down"",""bad_move"",21545.8,2804.8,2430.3,18741.1,374.4,""smooth"",""left"",""left"",""good_move"",23993.5,2446.6,2064.8,21546.9,381.8,""smooth"",""left"",""left"",""good_move"",27066.4,3072.3,2729.5,23994.1,342.8,""smooth"",""up"",""up"",""good_move""]","",""
"4462","","<div style=""width:500px;"">
  <p>What determined the result of this run?</p>
  </div>","100","html-slider-response","15","9636256","0.0-5.0-1.1","282","1","2025-07-30 09:40:43","1f75c3e559b7213887762d5229550c2b","216.120.189.45","Mozilla/5.0 (Windows NT 10.0; Win64; x64) AppleWebKit/537.36 (KHTML, like Gecko) Chrome/138.0.0.0 Safari/537.36","WebKit","Chrome","138.0.0.0","Windows","10.0","https://app.prolific.com/","en-US,en;q=0.9","673594215b1a0b92d5835525","6877631c9844ddd5501205fc","6889d9bbd4d79339b93895a3","3","1","673594215b1a0b92d5835525","3","1","2025-07-30T12:21:19.909Z","","","","","","","","","","","AttribQ","","50","","","","","","","","","","","","","","","","","","","","","","","","","","","","",""
"2809","","<div style=""width:500px;"">
  <p>How much control did you have over the ball?</p>
  </div>","92","html-slider-response","16","9639066","0.0-5.0-2.1","282","1","2025-07-30 09:40:43","1f75c3e559b7213887762d5229550c2b","216.120.189.45","Mozilla/5.0 (Windows NT 10.0; Win64; x64) AppleWebKit/537.36 (KHTML, like Gecko) Chrome/138.0.0.0 Safari/537.36","WebKit","Chrome","138.0.0.0","Windows","10.0","https://app.prolific.com/","en-US,en;q=0.9","673594215b1a0b92d5835525","6877631c9844ddd5501205fc","6889d9bbd4d79339b93895a3","3","1","673594215b1a0b92d5835525","3","1","2025-07-30T12:21:22.720Z","","","","","","","","","","","ControlQ","","50","","","","","","","","","","","","","","","","","","","","","","","","","","","","",""
"3789","","<div style=""width:500px;"">
  <p>How would you describe your current emotional state?</p>
  </div>","0","html-slider-response","17","9642857","0.0-5.0-3.1","282","1","2025-07-30 09:40:43","1f75c3e559b7213887762d5229550c2b","216.120.189.45","Mozilla/5.0 (Windows NT 10.0; Win64; x64) AppleWebKit/537.36 (KHTML, like Gecko) Chrome/138.0.0.0 Safari/537.36","WebKit","Chrome","138.0.0.0","Windows","10.0","https://app.prolific.com/","en-US,en;q=0.9","673594215b1a0b92d5835525","6877631c9844ddd5501205fc","6889d9bbd4d79339b93895a3","3","1","673594215b1a0b92d5835525","3","1","2025-07-30T12:21:26.510Z","","","","","","","","","","","StressQ","","50","","","","","","","","","","","","","","","","","","","","","","","","","","","","",""
"3742","","<div style=""width:500px;"">
  <p>What best describes how you currently feel?</p>
  </div>","100","html-slider-response","18","9646600","0.0-5.0-4.1","282","1","2025-07-30 09:40:43","1f75c3e559b7213887762d5229550c2b","216.120.189.45","Mozilla/5.0 (Windows NT 10.0; Win64; x64) AppleWebKit/537.36 (KHTML, like Gecko) Chrome/138.0.0.0 Safari/537.36","WebKit","Chrome","138.0.0.0","Windows","10.0","https://app.prolific.com/","en-US,en;q=0.9","673594215b1a0b92d5835525","6877631c9844ddd5501205fc","6889d9bbd4d79339b93895a3","3","1","673594215b1a0b92d5835525","3","1","2025-07-30T12:21:30.253Z","","","","","","","","","","","MotivationQ","","50","","","","","","","","","","","","","","","","","","","","","","","","","","","","",""
"","","","","ctl-task-cpt","19","9677902","0.0-5.0-0.2","282","1","2025-07-30 09:40:43","1f75c3e559b7213887762d5229550c2b","216.120.189.45","Mozilla/5.0 (Windows NT 10.0; Win64; x64) AppleWebKit/537.36 (KHTML, like Gecko) Chrome/138.0.0.0 Safari/537.36","WebKit","Chrome","138.0.0.0","Windows","10.0","https://app.prolific.com/","en-US,en;q=0.9","673594215b1a0b92d5835525","6877631c9844ddd5501205fc","6889d9bbd4d79339b93895a3","3","1","673594215b1a0b92d5835525","3","1","2025-07-30T12:22:01.555Z","","","","","","","","","","","","","","win-only","0","g1:NW,g2:SE","0.8","3","0","9649397.1","1666.1","6666.9","28287","1","4","8","6","2","8","8","19","11","0.14393939393939395","1334.9","3000","865","[""down"",""right""]","{""num_key_presses"":8,""num_perfect"":7,""num_errors"":0,""num_randdir"":1,""num_randdir_good_moves"":1,""num_whilered"":0,""num_whileblue"":0,""num_blue"":0,""num_good_moves"":7}","[295.22232142857143,294.12857142857143,0.6,295.22232142857143,294.12857142857143,100.2,295.22232142857143,294.12857142857143,205,295.22232142857143,294.12857142857143,318.8,295.22232142857143,294.12857142857143,420.7,307.22232142857143,306.12857142857143,521.2,443.22232142857143,481.12857142857143,626,463.22232142857143,509.12857142857143,726.8,463.22232142857143,509.12857142857143,831.5,485.22232142857143,517.1285714285714,933.7,512.2223214285714,532.1285714285714,1039.4,523.2223214285714,539.1285714285714,1140,527.2223214285714,539.1285714285714,1246.5,527.2223214285714,539.1285714285714,1350.1,527.2223214285714,539.1285714285714,1451.7,527.2223214285714,539.1285714285714,1554.1,527.2223214285714,539.1285714285714,1654.6,527.2223214285714,539.1285714285714,1756.6,527.2223214285714,539.1285714285714,1861.3,527.2223214285714,539.1285714285714,1969.3,527.2223214285714,539.1285714285714,2071.1,527.2223214285714,539.1285714285714,2172.8,527.2223214285714,539.1285714285714,2279.4,527.2223214285714,539.1285714285714,2385.1,527.2223214285714,539.1285714285714,2489.6,527.2223214285714,539.1285714285714,2596.8,527.2223214285714,539.1285714285714,2697.8,527.2223214285714,539.1285714285714,2801.2,527.2223214285714,539.1285714285714,2912,527.2223214285714,539.1285714285714,3013.4,527.2223214285714,539.1285714285714,3113.6,527.2223214285714,539.1285714285714,3218.6,527.2223214285714,539.1285714285714,3320.6,527.2223214285714,539.1285714285714,3427.7,527.2223214285714,539.1285714285714,3529,527.2223214285714,539.1285714285714,3629,527.2223214285714,539.1285714285714,3730.3,527.2223214285714,539.1285714285714,3834.3,527.2223214285714,539.1285714285714,3946,527.2223214285714,539.1285714285714,4047.4,527.2223214285714,539.1285714285714,4150.9,527.2223214285714,539.1285714285714,4256.8,527.2223214285714,539.1285714285714,4359.5,527.2223214285714,539.1285714285714,4463.2,527.2223214285714,539.1285714285714,4565.6,527.2223214285714,539.1285714285714,4666.6,527.2223214285714,539.1285714285714,4778.2,527.2223214285714,539.1285714285714,4887.7,527.2223214285714,539.1285714285714,4996.1]","[1364,1364.1,1000,0,364.1,""smooth"",""down"",""down"",""good_move"",3837.5,2471.6,2029.4,1366,442.1,""smooth"",""down"",""down"",""good_move"",6885.4,3047.3,2694.9,3838.1,352.4,""oops"",""right"",""down"",""good_move"",10333.5,3447.3,2755.9,6886.2,691.4,""smooth"",""up"",""up"",""bad_move"",13293.7,2958.8,2620.9,10334.9,338,""smooth"",""right"",""right"",""good_move"",15614.9,2318.9,1898.5,13296,420.4,""smooth"",""right"",""right"",""good_move"",18715.9,3100.5,2752.3,15615.5,348.2,""smooth"",""right"",""right"",""good_move"",21467.6,2750.4,2391.5,18717.3,358.9,""smooth"",""down"",""down"",""good_move""]","",""
"4571","","<div style=""width:500px;"">
  <p>What determined the result of this run?</p>
  </div>","100","html-slider-response","20","9682476","0.0-5.0-1.2","282","1","2025-07-30 09:40:43","1f75c3e559b7213887762d5229550c2b","216.120.189.45","Mozilla/5.0 (Windows NT 10.0; Win64; x64) AppleWebKit/537.36 (KHTML, like Gecko) Chrome/138.0.0.0 Safari/537.36","WebKit","Chrome","138.0.0.0","Windows","10.0","https://app.prolific.com/","en-US,en;q=0.9","673594215b1a0b92d5835525","6877631c9844ddd5501205fc","6889d9bbd4d79339b93895a3","3","1","673594215b1a0b92d5835525","3","1","2025-07-30T12:22:06.129Z","","","","","","","","","","","AttribQ","","50","","","","","","","","","","","","","","","","","","","","","","","","","","","","",""
"3145","","<div style=""width:500px;"">
  <p>How much control did you have over the ball?</p>
  </div>","95","html-slider-response","21","9685623","0.0-5.0-2.2","282","1","2025-07-30 09:40:43","1f75c3e559b7213887762d5229550c2b","216.120.189.45","Mozilla/5.0 (Windows NT 10.0; Win64; x64) AppleWebKit/537.36 (KHTML, like Gecko) Chrome/138.0.0.0 Safari/537.36","WebKit","Chrome","138.0.0.0","Windows","10.0","https://app.prolific.com/","en-US,en;q=0.9","673594215b1a0b92d5835525","6877631c9844ddd5501205fc","6889d9bbd4d79339b93895a3","3","1","673594215b1a0b92d5835525","3","1","2025-07-30T12:22:09.276Z","","","","","","","","","","","ControlQ","","50","","","","","","","","","","","","","","","","","","","","","","","","","","","","",""
"3960","","<div style=""width:500px;"">
  <p>How would you describe your current emotional state?</p>
  </div>","0","html-slider-response","22","9689586","0.0-5.0-3.2","282","1","2025-07-30 09:40:43","1f75c3e559b7213887762d5229550c2b","216.120.189.45","Mozilla/5.0 (Windows NT 10.0; Win64; x64) AppleWebKit/537.36 (KHTML, like Gecko) Chrome/138.0.0.0 Safari/537.36","WebKit","Chrome","138.0.0.0","Windows","10.0","https://app.prolific.com/","en-US,en;q=0.9","673594215b1a0b92d5835525","6877631c9844ddd5501205fc","6889d9bbd4d79339b93895a3","3","1","673594215b1a0b92d5835525","3","1","2025-07-30T12:22:13.239Z","","","","","","","","","","","StressQ","","50","","","","","","","","","","","","","","","","","","","","","","","","","","","","",""
"4419","","<div style=""width:500px;"">
  <p>What best describes how you currently feel?</p>
  </div>","100","html-slider-response","23","9694007","0.0-5.0-4.2","282","1","2025-07-30 09:40:43","1f75c3e559b7213887762d5229550c2b","216.120.189.45","Mozilla/5.0 (Windows NT 10.0; Win64; x64) AppleWebKit/537.36 (KHTML, like Gecko) Chrome/138.0.0.0 Safari/537.36","WebKit","Chrome","138.0.0.0","Windows","10.0","https://app.prolific.com/","en-US,en;q=0.9","673594215b1a0b92d5835525","6877631c9844ddd5501205fc","6889d9bbd4d79339b93895a3","3","1","673594215b1a0b92d5835525","3","1","2025-07-30T12:22:17.660Z","","","","","","","","","","","MotivationQ","","50","","","","","","","","","","","","","","","","","","","","","","","","","","","","",""
"","","","","ctl-task-cpt","24","9728543","0.0-5.0-0.3","282","1","2025-07-30 09:40:43","1f75c3e559b7213887762d5229550c2b","216.120.189.45","Mozilla/5.0 (Windows NT 10.0; Win64; x64) AppleWebKit/537.36 (KHTML, like Gecko) Chrome/138.0.0.0 Safari/537.36","WebKit","Chrome","138.0.0.0","Windows","10.0","https://app.prolific.com/","en-US,en;q=0.9","673594215b1a0b92d5835525","6877631c9844ddd5501205fc","6889d9bbd4d79339b93895a3","3","1","673594215b1a0b92d5835525","3","1","2025-07-30T12:22:52.196Z","","","","","","","","","","","","","","win-only","0","g1:NW,g2:SE","0.7","4","0","9696802.7","2256.9","7262.4","31521.5","1","4","4","6","2","4","3","22","19","0.16666666666666666","1492.1","3000","1370","[""down"",""right""]","{""num_key_presses"":8,""num_perfect"":6,""num_errors"":1,""num_randdir"":1,""num_randdir_good_moves"":1,""num_whilered"":0,""num_whileblue"":1,""num_blue"":2,""num_good_moves"":7}","[298.22232142857143,298.12857142857143,0.6,298.22232142857143,298.12857142857143,101.8,298.22232142857143,298.12857142857143,207.7,298.22232142857143,298.12857142857143,308.7,298.22232142857143,298.12857142857143,416.3,298.22232142857143,298.12857142857143,520.5,429.22232142857143,463.12857142857143,631.6,547.2223214285714,598.1285714285714,736.1,547.2223214285714,598.1285714285714,836.6,550.2223214285714,598.1285714285714,947.6,554.2223214285714,596.1285714285714,1052,555.2223214285714,586.1285714285714,1158.1,555.2223214285714,580.1285714285714,1270.4,555.2223214285714,580.1285714285714,1371.8,555.2223214285714,580.1285714285714,1473,555.2223214285714,580.1285714285714,1579.7,555.2223214285714,580.1285714285714,1688.6,555.2223214285714,580.1285714285714,1795.8,555.2223214285714,580.1285714285714,1899.5,555.2223214285714,580.1285714285714,2005.4,555.2223214285714,580.1285714285714,2111.2,555.2223214285714,580.1285714285714,2212.4,555.2223214285714,580.1285714285714,2319.4,555.2223214285714,580.1285714285714,2420.1,555.2223214285714,580.1285714285714,2529,555.2223214285714,580.1285714285714,2629.1,555.2223214285714,580.1285714285714,2733.4,555.2223214285714,580.1285714285714,2835.7,555.2223214285714,580.1285714285714,2936.9,555.2223214285714,580.1285714285714,3037.8,555.2223214285714,580.1285714285714,3138.5,555.2223214285714,580.1285714285714,3240.3,555.2223214285714,580.1285714285714,3341,555.2223214285714,580.1285714285714,3445.5,555.2223214285714,580.1285714285714,3546.2,555.2223214285714,580.1285714285714,3646.5,555.2223214285714,580.1285714285714,3751.8,555.2223214285714,580.1285714285714,3853.7,555.2223214285714,580.1285714285714,3959.5,555.2223214285714,580.1285714285714,4065.8,555.2223214285714,580.1285714285714,4169.4,555.2223214285714,580.1285714285714,4270.1,555.2223214285714,580.1285714285714,4377.7,555.2223214285714,580.1285714285714,4480.2,555.2223214285714,580.1285714285714,4580.2,555.2223214285714,580.1285714285714,4684.7,555.2223214285714,580.1285714285714,4788.4,555.2223214285714,580.1285714285714,4888.6,555.2223214285714,580.1285714285714,4995.8]","[1383.1,1383.1,1000,0,383.1,""smooth"",""down"",""down"",""good_move"",4414,3027.9,2622.9,1386.1,405,""smooth"",""right"",""right"",""good_move"",6796.5,2381.7,1864.8,4414.9,516.8,""smooth"",""right"",""right"",""good_move"",10100.7,3302.1,2960.2,6798.6,341.9,""while_blue"",""right"",""left"",""bad_move"",12817.6,2714.9,2336.4,10102.8,378.5,""smooth"",""down"",""down"",""good_move"",15525.3,2705.7,2343.9,12819.6,361.8,""smooth"",""right"",""right"",""good_move"",18029.8,2502.6,2176.5,15527.2,326.1,""oops"",""down"",""down"",""good_move"",24087,6056.5,2155.3,21540.3,391.4,""smooth"",""right"",""right"",""good_move""]","",""
"3847","","<div style=""width:500px;"">
  <p>What determined the result of this run?</p>
  </div>","100","html-slider-response","25","9732392","0.0-5.0-1.3","282","1","2025-07-30 09:40:43","1f75c3e559b7213887762d5229550c2b","216.120.189.45","Mozilla/5.0 (Windows NT 10.0; Win64; x64) AppleWebKit/537.36 (KHTML, like Gecko) Chrome/138.0.0.0 Safari/537.36","WebKit","Chrome","138.0.0.0","Windows","10.0","https://app.prolific.com/","en-US,en;q=0.9","673594215b1a0b92d5835525","6877631c9844ddd5501205fc","6889d9bbd4d79339b93895a3","3","1","673594215b1a0b92d5835525","3","1","2025-07-30T12:22:56.046Z","","","","","","","","","","","AttribQ","","50","","","","","","","","","","","","","","","","","","","","","","","","","","","","",""
"3704","","<div style=""width:500px;"">
  <p>How much control did you have over the ball?</p>
  </div>","91","html-slider-response","26","9736098","0.0-5.0-2.3","282","1","2025-07-30 09:40:43","1f75c3e559b7213887762d5229550c2b","216.120.189.45","Mozilla/5.0 (Windows NT 10.0; Win64; x64) AppleWebKit/537.36 (KHTML, like Gecko) Chrome/138.0.0.0 Safari/537.36","WebKit","Chrome","138.0.0.0","Windows","10.0","https://app.prolific.com/","en-US,en;q=0.9","673594215b1a0b92d5835525","6877631c9844ddd5501205fc","6889d9bbd4d79339b93895a3","3","1","673594215b1a0b92d5835525","3","1","2025-07-30T12:22:59.751Z","","","","","","","","","","","ControlQ","","50","","","","","","","","","","","","","","","","","","","","","","","","","","","","",""
"3230","","<div style=""width:500px;"">
  <p>How would you describe your current emotional state?</p>
  </div>","0","html-slider-response","27","9739329","0.0-5.0-3.3","282","1","2025-07-30 09:40:43","1f75c3e559b7213887762d5229550c2b","216.120.189.45","Mozilla/5.0 (Windows NT 10.0; Win64; x64) AppleWebKit/537.36 (KHTML, like Gecko) Chrome/138.0.0.0 Safari/537.36","WebKit","Chrome","138.0.0.0","Windows","10.0","https://app.prolific.com/","en-US,en;q=0.9","673594215b1a0b92d5835525","6877631c9844ddd5501205fc","6889d9bbd4d79339b93895a3","3","1","673594215b1a0b92d5835525","3","1","2025-07-30T12:23:02.982Z","","","","","","","","","","","StressQ","","50","","","","","","","","","","","","","","","","","","","","","","","","","","","","",""
"4345","","<div style=""width:500px;"">
  <p>What best describes how you currently feel?</p>
  </div>","100","html-slider-response","28","9743675","0.0-5.0-4.3","282","1","2025-07-30 09:40:43","1f75c3e559b7213887762d5229550c2b","216.120.189.45","Mozilla/5.0 (Windows NT 10.0; Win64; x64) AppleWebKit/537.36 (KHTML, like Gecko) Chrome/138.0.0.0 Safari/537.36","WebKit","Chrome","138.0.0.0","Windows","10.0","https://app.prolific.com/","en-US,en;q=0.9","673594215b1a0b92d5835525","6877631c9844ddd5501205fc","6889d9bbd4d79339b93895a3","3","1","673594215b1a0b92d5835525","3","1","2025-07-30T12:23:07.328Z","","","","","","","","","","","MotivationQ","","50","","","","","","","","","","","","","","","","","","","","","","","","","","","","",""
"","","","","ctl-task-cpt","29","9775880","0.0-5.0-0.4","282","1","2025-07-30 09:40:43","1f75c3e559b7213887762d5229550c2b","216.120.189.45","Mozilla/5.0 (Windows NT 10.0; Win64; x64) AppleWebKit/537.36 (KHTML, like Gecko) Chrome/138.0.0.0 Safari/537.36","WebKit","Chrome","138.0.0.0","Windows","10.0","https://app.prolific.com/","en-US,en;q=0.9","673594215b1a0b92d5835525","6877631c9844ddd5501205fc","6889d9bbd4d79339b93895a3","3","1","673594215b1a0b92d5835525","3","1","2025-07-30T12:23:39.534Z","","","","","","","","","","","","","","win-only","1","g1:NE,g2:SW","0.6","5","0","9746472","1718.9","6723.2","29182.4","1","4","8","6","2","8","8","30","22","0.22727272727272727","1553.9","3000","1370","[""down"",""left""]","{""num_key_presses"":6,""num_perfect"":4,""num_errors"":0,""num_randdir"":2,""num_randdir_good_moves"":2,""num_whilered"":0,""num_whileblue"":0,""num_blue"":2,""num_good_moves"":6}","[296.22232142857143,295.12857142857143,0.3,296.22232142857143,295.12857142857143,105.3,296.22232142857143,295.12857142857143,210.4,296.22232142857143,295.12857142857143,312.5,296.22232142857143,295.12857142857143,419.1,290.22232142857143,307.12857142857143,529,65.22232142857143,564.1285714285714,629.2,-4.777678571428574,625.1285714285714,733.6,-4.777678571428574,625.1285714285714,845.9,-4.777678571428574,623.1285714285714,956.8,10.222321428571426,597.1285714285714,1057.8,42.222321428571426,564.1285714285714,1163,42.222321428571426,564.1285714285714,1266.9,42.222321428571426,564.1285714285714,1371.9,42.222321428571426,564.1285714285714,1478.4,42.222321428571426,564.1285714285714,1579.1,42.222321428571426,564.1285714285714,1684.2,42.222321428571426,564.1285714285714,1787.5,42.222321428571426,564.1285714285714,1888.7,42.222321428571426,564.1285714285714,1995,42.222321428571426,564.1285714285714,2095.3,42.222321428571426,564.1285714285714,2199.5,42.222321428571426,564.1285714285714,2299.5,42.222321428571426,564.1285714285714,2403.4,42.222321428571426,564.1285714285714,2506.6,42.222321428571426,564.1285714285714,2606.8,42.222321428571426,564.1285714285714,2712,42.222321428571426,564.1285714285714,2817.4,42.222321428571426,564.1285714285714,2917.8,42.222321428571426,564.1285714285714,3018,42.222321428571426,564.1285714285714,3118.2,42.222321428571426,564.1285714285714,3218.4,42.222321428571426,564.1285714285714,3323.2,42.222321428571426,564.1285714285714,3424.2,42.222321428571426,564.1285714285714,3529.5,42.222321428571426,564.1285714285714,3640,42.222321428571426,564.1285714285714,3745.1,42.222321428571426,564.1285714285714,3852.6,42.222321428571426,564.1285714285714,3953.8,42.222321428571426,564.1285714285714,4056.8,42.222321428571426,564.1285714285714,4160.9,42.222321428571426,564.1285714285714,4264.2,42.222321428571426,564.1285714285714,4366.6,42.222321428571426,564.1285714285714,4467.1,42.222321428571426,564.1285714285714,4571.8,42.222321428571426,564.1285714285714,4671.9,42.222321428571426,564.1285714285714,4773.2,42.222321428571426,564.1285714285714,4884.8,42.222321428571426,564.1285714285714,4990.1]","[8433.6,8433.5,2136.1,5945,352.5,""oops"",""down"",""left"",""good_move"",11202.5,2765.8,2345.2,8436.7,420.6,""smooth"",""left"",""left"",""good_move"",14681.1,3478.2,3130.4,11202.9,347.8,""smooth"",""down"",""down"",""good_move"",17759.5,3077.3,2681.5,14682.2,395.8,""smooth"",""left"",""left"",""good_move"",19853.3,2092.7,1443.7,17760.6,649,""smooth"",""down"",""down"",""good_move"",22346.8,2491.1,2066.1,19855.9,424.8,""oops"",""down"",""down"",""good_move""]","",""
"4209","","<div style=""width:500px;"">
  <p>What determined the result of this run?</p>
  </div>","100","html-slider-response","30","9780092","0.0-5.0-1.4","282","1","2025-07-30 09:40:43","1f75c3e559b7213887762d5229550c2b","216.120.189.45","Mozilla/5.0 (Windows NT 10.0; Win64; x64) AppleWebKit/537.36 (KHTML, like Gecko) Chrome/138.0.0.0 Safari/537.36","WebKit","Chrome","138.0.0.0","Windows","10.0","https://app.prolific.com/","en-US,en;q=0.9","673594215b1a0b92d5835525","6877631c9844ddd5501205fc","6889d9bbd4d79339b93895a3","3","1","673594215b1a0b92d5835525","3","1","2025-07-30T12:23:43.745Z","","","","","","","","","","","AttribQ","","50","","","","","","","","","","","","","","","","","","","","","","","","","","","","",""
"3571","","<div style=""width:500px;"">
  <p>How much control did you have over the ball?</p>
  </div>","97","html-slider-response","31","9783664","0.0-5.0-2.4","282","1","2025-07-30 09:40:43","1f75c3e559b7213887762d5229550c2b","216.120.189.45","Mozilla/5.0 (Windows NT 10.0; Win64; x64) AppleWebKit/537.36 (KHTML, like Gecko) Chrome/138.0.0.0 Safari/537.36","WebKit","Chrome","138.0.0.0","Windows","10.0","https://app.prolific.com/","en-US,en;q=0.9","673594215b1a0b92d5835525","6877631c9844ddd5501205fc","6889d9bbd4d79339b93895a3","3","1","673594215b1a0b92d5835525","3","1","2025-07-30T12:23:47.317Z","","","","","","","","","","","ControlQ","","50","","","","","","","","","","","","","","","","","","","","","","","","","","","","",""
"5290","","<div style=""width:500px;"">
  <p>How would you describe your current emotional state?</p>
  </div>","0","html-slider-response","32","9788956","0.0-5.0-3.4","282","1","2025-07-30 09:40:43","1f75c3e559b7213887762d5229550c2b","216.120.189.45","Mozilla/5.0 (Windows NT 10.0; Win64; x64) AppleWebKit/537.36 (KHTML, like Gecko) Chrome/138.0.0.0 Safari/537.36","WebKit","Chrome","138.0.0.0","Windows","10.0","https://app.prolific.com/","en-US,en;q=0.9","673594215b1a0b92d5835525","6877631c9844ddd5501205fc","6889d9bbd4d79339b93895a3","3","1","673594215b1a0b92d5835525","3","1","2025-07-30T12:23:52.609Z","","","","","","","","","","","StressQ","","50","","","","","","","","","","","","","","","","","","","","","","","","","","","","",""
"3640","","<div style=""width:500px;"">
  <p>What best describes how you currently feel?</p>
  </div>","100","html-slider-response","33","9792598","0.0-5.0-4.4","282","1","2025-07-30 09:40:43","1f75c3e559b7213887762d5229550c2b","216.120.189.45","Mozilla/5.0 (Windows NT 10.0; Win64; x64) AppleWebKit/537.36 (KHTML, like Gecko) Chrome/138.0.0.0 Safari/537.36","WebKit","Chrome","138.0.0.0","Windows","10.0","https://app.prolific.com/","en-US,en;q=0.9","673594215b1a0b92d5835525","6877631c9844ddd5501205fc","6889d9bbd4d79339b93895a3","3","1","673594215b1a0b92d5835525","3","1","2025-07-30T12:23:56.251Z","","","","","","","","","","","MotivationQ","","50","","","","","","","","","","","","","","","","","","","","","","","","","","","","",""
"","","","","ctl-task-cpt","34","9849263","0.0-5.0-0.5","282","1","2025-07-30 09:40:43","1f75c3e559b7213887762d5229550c2b","216.120.189.45","Mozilla/5.0 (Windows NT 10.0; Win64; x64) AppleWebKit/537.36 (KHTML, like Gecko) Chrome/138.0.0.0 Safari/537.36","WebKit","Chrome","138.0.0.0","Windows","10.0","https://app.prolific.com/","en-US,en;q=0.9","673594215b1a0b92d5835525","6877631c9844ddd5501205fc","6889d9bbd4d79339b93895a3","3","1","673594215b1a0b92d5835525","3","1","2025-07-30T12:24:52.916Z","","","","","","","","","","","","","","win-only","3","g1:SW,g2:NE","0.5","6","0","9795395.1","1628.8","6630.4","53657.6","1","4","4","6","2","-4","-4","26","30","0.19696969696969696","1900.9","3000","-1735","[""up"",""right""]","{""num_key_presses"":13,""num_perfect"":7,""num_errors"":0,""num_randdir"":6,""num_randdir_good_moves"":3,""num_whilered"":0,""num_whileblue"":0,""num_blue"":2,""num_good_moves"":9}","[291.22232142857143,301.12857142857143,2.1,291.22232142857143,301.12857142857143,105.3,291.22232142857143,301.12857142857143,211.8,291.22232142857143,301.12857142857143,311.8,291.22232142857143,301.12857142857143,414.5,283.22232142857143,313.12857142857143,532.7,259.22232142857143,337.12857142857143,639.9,389.22232142857143,190.12857142857143,742.2,389.22232142857143,190.12857142857143,842.8,389.22232142857143,190.12857142857143,950.8,389.22232142857143,163.12857142857143,1055.8,428.22232142857143,83.12857142857143,1158.3,482.22232142857143,23.128571428571426,1258.7,505.22232142857143,14.128571428571426,1362.2,505.22232142857143,14.128571428571426,1484.4,530.2223214285714,38.128571428571426,1586.1,541.2223214285714,44.128571428571426,1689.1,541.2223214285714,44.128571428571426,1800.5,541.2223214285714,44.128571428571426,1910.9,541.2223214285714,44.128571428571426,2013.7,541.2223214285714,44.128571428571426,2115.1,541.2223214285714,44.128571428571426,2221.8,541.2223214285714,44.128571428571426,2326.7,541.2223214285714,44.128571428571426,2430.4,541.2223214285714,44.128571428571426,2532.2,541.2223214285714,44.128571428571426,2635,541.2223214285714,44.128571428571426,2737.5,541.2223214285714,44.128571428571426,2842.5,541.2223214285714,44.128571428571426,2945.8,541.2223214285714,44.128571428571426,3046.7,541.2223214285714,44.128571428571426,3155.7,541.2223214285714,44.128571428571426,3261.4,541.2223214285714,44.128571428571426,3363.4,541.2223214285714,44.128571428571426,3465.2,541.2223214285714,44.128571428571426,3568.8,541.2223214285714,44.128571428571426,3672.6,541.2223214285714,44.128571428571426,3779.3,541.2223214285714,44.128571428571426,3880,541.2223214285714,44.128571428571426,3981.6,541.2223214285714,44.128571428571426,4083.5,541.2223214285714,44.128571428571426,4195.5,541.2223214285714,44.128571428571426,4297.4,541.2223214285714,44.128571428571426,4397.7,541.2223214285714,44.128571428571426,4499.7,541.2223214285714,44.128571428571426,4611,541.2223214285714,44.128571428571426,4713.7,541.2223214285714,44.128571428571426,4826.9,541.2223214285714,44.128571428571426,4928.2]","[4915.2,4915.2,2505.1,2002.9,407.2,""smooth"",""up"",""up"",""good_move"",7965.4,3049.7,2633.8,4915.8,415.9,""oops"",""up"",""right"",""good_move"",11452.7,3481.9,3125.7,7970.8,356.3,""oops"",""right"",""up"",""good_move"",14733.6,3279.5,2924.7,11454.1,354.8,""oops"",""up"",""left"",""bad_move"",17510.1,2775.9,2323.6,14734.2,452.4,""smooth"",""up"",""up"",""good_move"",20261,2749.9,2382,17511.1,367.9,""oops"",""right"",""left"",""bad_move"",23034.1,2772.4,2430.1,20261.7,342.3,""oops"",""down"",""right"",""good_move"",25894.8,2858.7,2446.8,23036.1,411.9,""smooth"",""down"",""down"",""bad_move"",32679,6782.8,2722,29559.2,397.8,""smooth"",""right"",""right"",""good_move"",35097.8,2417.1,1971.5,32680.8,445.6,""smooth"",""right"",""right"",""good_move"",38143.1,3044.7,2661.4,35098.4,383.3,""oops"",""up"",""left"",""bad_move"",41194.6,3049.6,2641,38145,408.6,""smooth"",""right"",""right"",""good_move"",44222.7,3027,2666.2,41195.7,360.8,""smooth"",""right"",""right"",""good_move""]","",""
"4469","","<div style=""width:500px;"">
  <p>What determined the result of this run?</p>
  </div>","81","html-slider-response","35","9853734","0.0-5.0-1.5","282","1","2025-07-30 09:40:43","1f75c3e559b7213887762d5229550c2b","216.120.189.45","Mozilla/5.0 (Windows NT 10.0; Win64; x64) AppleWebKit/537.36 (KHTML, like Gecko) Chrome/138.0.0.0 Safari/537.36","WebKit","Chrome","138.0.0.0","Windows","10.0","https://app.prolific.com/","en-US,en;q=0.9","673594215b1a0b92d5835525","6877631c9844ddd5501205fc","6889d9bbd4d79339b93895a3","3","1","673594215b1a0b92d5835525","3","1","2025-07-30T12:24:57.387Z","","","","","","","","","","","AttribQ","","50","","","","","","","","","","","","","","","","","","","","","","","","","","","","",""
"3181","","<div style=""width:500px;"">
  <p>How much control did you have over the ball?</p>
  </div>","65","html-slider-response","36","9856916","0.0-5.0-2.5","282","1","2025-07-30 09:40:43","1f75c3e559b7213887762d5229550c2b","216.120.189.45","Mozilla/5.0 (Windows NT 10.0; Win64; x64) AppleWebKit/537.36 (KHTML, like Gecko) Chrome/138.0.0.0 Safari/537.36","WebKit","Chrome","138.0.0.0","Windows","10.0","https://app.prolific.com/","en-US,en;q=0.9","673594215b1a0b92d5835525","6877631c9844ddd5501205fc","6889d9bbd4d79339b93895a3","3","1","673594215b1a0b92d5835525","3","1","2025-07-30T12:25:00.569Z","","","","","","","","","","","ControlQ","","50","","","","","","","","","","","","","","","","","","","","","","","","","","","","",""
"4993","","<div style=""width:500px;"">
  <p>How would you describe your current emotional state?</p>
  </div>","9","html-slider-response","37","9861910","0.0-5.0-3.5","282","1","2025-07-30 09:40:43","1f75c3e559b7213887762d5229550c2b","216.120.189.45","Mozilla/5.0 (Windows NT 10.0; Win64; x64) AppleWebKit/537.36 (KHTML, like Gecko) Chrome/138.0.0.0 Safari/537.36","WebKit","Chrome","138.0.0.0","Windows","10.0","https://app.prolific.com/","en-US,en;q=0.9","673594215b1a0b92d5835525","6877631c9844ddd5501205fc","6889d9bbd4d79339b93895a3","3","1","673594215b1a0b92d5835525","3","1","2025-07-30T12:25:05.564Z","","","","","","","","","","","StressQ","","50","","","","","","","","","","","","","","","","","","","","","","","","","","","","",""
"4087","","<div style=""width:500px;"">
  <p>What best describes how you currently feel?</p>
  </div>","100","html-slider-response","38","9865999","0.0-5.0-4.5","282","1","2025-07-30 09:40:43","1f75c3e559b7213887762d5229550c2b","216.120.189.45","Mozilla/5.0 (Windows NT 10.0; Win64; x64) AppleWebKit/537.36 (KHTML, like Gecko) Chrome/138.0.0.0 Safari/537.36","WebKit","Chrome","138.0.0.0","Windows","10.0","https://app.prolific.com/","en-US,en;q=0.9","673594215b1a0b92d5835525","6877631c9844ddd5501205fc","6889d9bbd4d79339b93895a3","3","1","673594215b1a0b92d5835525","3","1","2025-07-30T12:25:09.652Z","","","","","","","","","","","MotivationQ","","50","","","","","","","","","","","","","","","","","","","","","","","","","","","","",""
"","","","","ctl-task-cpt","39","9916536","0.0-5.0-0.6","282","1","2025-07-30 09:40:43","1f75c3e559b7213887762d5229550c2b","216.120.189.45","Mozilla/5.0 (Windows NT 10.0; Win64; x64) AppleWebKit/537.36 (KHTML, like Gecko) Chrome/138.0.0.0 Safari/537.36","WebKit","Chrome","138.0.0.0","Windows","10.0","https://app.prolific.com/","en-US,en;q=0.9","673594215b1a0b92d5835525","6877631c9844ddd5501205fc","6889d9bbd4d79339b93895a3","3","1","673594215b1a0b92d5835525","3","1","2025-07-30T12:26:00.190Z","","","","","","","","","","","","","","win-only","3","g1:SW,g2:NE","0.4","7","0","9868794.7","1490.9","6507.7","47520.4","1","4","8","6","2","8","6","32","26","0.24242424242424243","1269.4","3000","290","[""up"",""right""]","{""num_key_presses"":12,""num_perfect"":4,""num_errors"":2,""num_randdir"":6,""num_randdir_good_moves"":3,""num_whilered"":0,""num_whileblue"":2,""num_blue"":4,""num_good_moves"":9}","[295.22232142857143,290.12857142857143,2.2,295.22232142857143,290.12857142857143,101.7,295.22232142857143,290.12857142857143,202.2,295.22232142857143,290.12857142857143,312,295.22232142857143,290.12857142857143,416.2,292.22232142857143,290.12857142857143,516.7,286.22232142857143,272.12857142857143,639.1,536.2223214285714,86.12857142857143,746.6,536.2223214285714,86.12857142857143,847.4,536.2223214285714,86.12857142857143,958.2,536.2223214285714,85.12857142857143,1079.7,536.2223214285714,85.12857142857143,1184.6,536.2223214285714,85.12857142857143,1285,536.2223214285714,85.12857142857143,1388.6,536.2223214285714,85.12857142857143,1490.2,536.2223214285714,85.12857142857143,1590.2,536.2223214285714,85.12857142857143,1697.2,536.2223214285714,85.12857142857143,1801,536.2223214285714,85.12857142857143,1904.3,536.2223214285714,85.12857142857143,2007,536.2223214285714,85.12857142857143,2111.1,536.2223214285714,85.12857142857143,2220.5,536.2223214285714,85.12857142857143,2327.9,536.2223214285714,85.12857142857143,2428.8,536.2223214285714,85.12857142857143,2529.3,536.2223214285714,85.12857142857143,2633.6,536.2223214285714,85.12857142857143,2735.1,536.2223214285714,85.12857142857143,2846.9,536.2223214285714,85.12857142857143,2951.4,536.2223214285714,85.12857142857143,3061.1,536.2223214285714,85.12857142857143,3169.2,536.2223214285714,85.12857142857143,3271.1,536.2223214285714,85.12857142857143,3378.1,536.2223214285714,85.12857142857143,3479.6,536.2223214285714,85.12857142857143,3581.8,536.2223214285714,85.12857142857143,3694.7,536.2223214285714,85.12857142857143,3802.1,536.2223214285714,85.12857142857143,3911.3,536.2223214285714,85.12857142857143,4013.9,536.2223214285714,85.12857142857143,4116.5,536.2223214285714,85.12857142857143,4225.4,536.2223214285714,85.12857142857143,4330.3,536.2223214285714,85.12857142857143,4438.5,536.2223214285714,85.12857142857143,4540.9,536.2223214285714,85.12857142857143,4648.6,536.2223214285714,85.12857142857143,4771,536.2223214285714,85.12857142857143,4873.2,536.2223214285714,85.12857142857143,4982.3]","[1394.4,1394.4,1000,0,394.4,""oops"",""right"",""right"",""good_move"",3929.3,2533.9,2164.4,1395.5,369.4,""oops"",""right"",""down"",""bad_move"",6719.7,2789.4,2385.9,3930.3,403.5,""oops"",""up"",""right"",""good_move"",13336,6615.9,2677.4,10282.7,375.9,""while_blue"",""up"",""right"",""good_move"",20112.6,6772.6,2493.4,17209.5,409.7,""oops"",""up"",""down"",""bad_move"",22910.9,2797.5,2309.1,20113.4,488.4,""oops"",""up"",""up"",""good_move"",25796.7,2884.8,2044.5,22911.9,840.3,""oops"",""left"",""down"",""bad_move"",29416.8,3619.3,3237.5,25797.5,381.9,""smooth"",""up"",""up"",""good_move"",32879.7,3459.3,3093.4,29420.4,365.9,""smooth"",""up"",""up"",""good_move"",35355.1,2475.1,2084.5,32880.1,390.6,""smooth"",""up"",""up"",""good_move"",37700.3,2343.9,1957.2,35356.4,386.7,""smooth"",""up"",""up"",""good_move"",40849.4,3148.7,2821.9,37700.7,326.8,""while_blue"",""up"",""up"",""good_move""]","",""
"8892","","<div style=""width:500px;"">
  <p>What determined the result of this run?</p>
  </div>","84","html-slider-response","40","9925431","0.0-5.0-1.6","282","1","2025-07-30 09:40:43","1f75c3e559b7213887762d5229550c2b","216.120.189.45","Mozilla/5.0 (Windows NT 10.0; Win64; x64) AppleWebKit/537.36 (KHTML, like Gecko) Chrome/138.0.0.0 Safari/537.36","WebKit","Chrome","138.0.0.0","Windows","10.0","https://app.prolific.com/","en-US,en;q=0.9","673594215b1a0b92d5835525","6877631c9844ddd5501205fc","6889d9bbd4d79339b93895a3","3","1","673594215b1a0b92d5835525","3","1","2025-07-30T12:26:09.084Z","","","","","","","","","","","AttribQ","","50","","","","","","","","","","","","","","","","","","","","","","","","","","","","",""
"2753","","<div style=""width:500px;"">
  <p>How much control did you have over the ball?</p>
  </div>","68","html-slider-response","41","9928186","0.0-5.0-2.6","282","1","2025-07-30 09:40:43","1f75c3e559b7213887762d5229550c2b","216.120.189.45","Mozilla/5.0 (Windows NT 10.0; Win64; x64) AppleWebKit/537.36 (KHTML, like Gecko) Chrome/138.0.0.0 Safari/537.36","WebKit","Chrome","138.0.0.0","Windows","10.0","https://app.prolific.com/","en-US,en;q=0.9","673594215b1a0b92d5835525","6877631c9844ddd5501205fc","6889d9bbd4d79339b93895a3","3","1","673594215b1a0b92d5835525","3","1","2025-07-30T12:26:11.839Z","","","","","","","","","","","ControlQ","","50","","","","","","","","","","","","","","","","","","","","","","","","","","","","",""
"3315","","<div style=""width:500px;"">
  <p>How would you describe your current emotional state?</p>
  </div>","0","html-slider-response","42","9931503","0.0-5.0-3.6","282","1","2025-07-30 09:40:43","1f75c3e559b7213887762d5229550c2b","216.120.189.45","Mozilla/5.0 (Windows NT 10.0; Win64; x64) AppleWebKit/537.36 (KHTML, like Gecko) Chrome/138.0.0.0 Safari/537.36","WebKit","Chrome","138.0.0.0","Windows","10.0","https://app.prolific.com/","en-US,en;q=0.9","673594215b1a0b92d5835525","6877631c9844ddd5501205fc","6889d9bbd4d79339b93895a3","3","1","673594215b1a0b92d5835525","3","1","2025-07-30T12:26:15.156Z","","","","","","","","","","","StressQ","","50","","","","","","","","","","","","","","","","","","","","","","","","","","","","",""
"3222","","<div style=""width:500px;"">
  <p>What best describes how you currently feel?</p>
  </div>","100","html-slider-response","43","9934727","0.0-5.0-4.6","282","1","2025-07-30 09:40:43","1f75c3e559b7213887762d5229550c2b","216.120.189.45","Mozilla/5.0 (Windows NT 10.0; Win64; x64) AppleWebKit/537.36 (KHTML, like Gecko) Chrome/138.0.0.0 Safari/537.36","WebKit","Chrome","138.0.0.0","Windows","10.0","https://app.prolific.com/","en-US,en;q=0.9","673594215b1a0b92d5835525","6877631c9844ddd5501205fc","6889d9bbd4d79339b93895a3","3","1","673594215b1a0b92d5835525","3","1","2025-07-30T12:26:18.380Z","","","","","","","","","","","MotivationQ","","50","","","","","","","","","","","","","","","","","","","","","","","","","","","","",""
"","","","","ctl-task-cpt","44","9993905","0.0-5.0-0.7","282","1","2025-07-30 09:40:43","1f75c3e559b7213887762d5229550c2b","216.120.189.45","Mozilla/5.0 (Windows NT 10.0; Win64; x64) AppleWebKit/537.36 (KHTML, like Gecko) Chrome/138.0.0.0 Safari/537.36","WebKit","Chrome","138.0.0.0","Windows","10.0","https://app.prolific.com/","en-US,en;q=0.9","673594215b1a0b92d5835525","6877631c9844ddd5501205fc","6889d9bbd4d79339b93895a3","3","1","673594215b1a0b92d5835525","3","1","2025-07-30T12:27:17.558Z","","","","","","","","","","","","","","win-only","0","g1:NW,g2:SE","0.3","8","0","9937525.8","1558.4","6571.1","56161.2","1","4","4","6","2","-4","-4","28","32","0.21212121212121213","1017.1","3000","-1820","[""down"",""right""]","{""num_key_presses"":11,""num_perfect"":3,""num_errors"":0,""num_randdir"":8,""num_randdir_good_moves"":2,""num_whilered"":0,""num_whileblue"":0,""num_blue"":5,""num_good_moves"":5}","[301.22232142857143,298.12857142857143,1.8,301.22232142857143,298.12857142857143,104.5,301.22232142857143,298.12857142857143,211.3,301.22232142857143,298.12857142857143,312.3,301.22232142857143,298.12857142857143,416.4,301.22232142857143,298.12857142857143,520.2,451.22232142857143,460.12857142857143,620.6,559.2223214285714,572.1285714285714,722.3,559.2223214285714,572.1285714285714,823,559.2223214285714,572.1285714285714,924.9,559.2223214285714,572.1285714285714,1027.5,559.2223214285714,572.1285714285714,1128.3,559.2223214285714,572.1285714285714,1229,559.2223214285714,572.1285714285714,1330.7,559.2223214285714,572.1285714285714,1431.3,559.2223214285714,572.1285714285714,1547.3,559.2223214285714,572.1285714285714,1666.9,559.2223214285714,572.1285714285714,1773,559.2223214285714,572.1285714285714,1877.8,559.2223214285714,572.1285714285714,1987.9,559.2223214285714,572.1285714285714,2094.6,559.2223214285714,572.1285714285714,2204.7,559.2223214285714,572.1285714285714,2305.7,559.2223214285714,572.1285714285714,2406.1,559.2223214285714,572.1285714285714,2513.6,559.2223214285714,572.1285714285714,2615.8,559.2223214285714,572.1285714285714,2718.7,559.2223214285714,572.1285714285714,2822.4,559.2223214285714,572.1285714285714,2927.7,559.2223214285714,572.1285714285714,3031.5,559.2223214285714,572.1285714285714,3133.4,559.2223214285714,572.1285714285714,3239.9,559.2223214285714,572.1285714285714,3342.2,559.2223214285714,572.1285714285714,3453.7,559.2223214285714,572.1285714285714,3571,559.2223214285714,572.1285714285714,3673.3,559.2223214285714,572.1285714285714,3782.5,559.2223214285714,572.1285714285714,3888.2,559.2223214285714,572.1285714285714,3993.1,559.2223214285714,572.1285714285714,4093.5,559.2223214285714,572.1285714285714,4193.7,559.2223214285714,572.1285714285714,4296.2,559.2223214285714,572.1285714285714,4398.3,559.2223214285714,572.1285714285714,4505.6,559.2223214285714,572.1285714285714,4608.5,559.2223214285714,572.1285714285714,4716.6,559.2223214285714,572.1285714285714,4822.9,559.2223214285714,572.1285714285714,4931]","[1363,1363,1000,0,363,""oops"",""down"",""up"",""bad_move"",4019.8,2655.7,2240.2,1364.1,415.5,""oops"",""up"",""up"",""bad_move"",7104.8,3084.1,2725.6,4020.7,358.5,""oops"",""right"",""left"",""bad_move"",9551.2,2445,1961.5,7106.3,483.5,""smooth"",""down"",""down"",""good_move"",20748,11195,3311.6,17026,410.4,""oops"",""down"",""down"",""good_move"",23386.9,2636.7,2253.6,20750.3,383,""smooth"",""down"",""down"",""good_move"",27069.4,3681.5,3299.5,23387.9,382,""oops"",""down"",""left"",""bad_move"",29652.9,2581.5,2038.9,27071.4,542.6,""oops"",""right"",""down"",""good_move"",35857.2,6204,2163.2,33230.4,463.6,""oops"",""down"",""up"",""bad_move"",38708.7,2850.3,2380.5,35858.4,469.8,""smooth"",""right"",""right"",""good_move"",41537.3,2825.2,2453,38712.1,372.2,""oops"",""right"",""left"",""bad_move""]","",""
"4902","","<div style=""width:500px;"">
  <p>What determined the result of this run?</p>
  </div>","37","html-slider-response","45","9998809","0.0-5.0-1.7","282","1","2025-07-30 09:40:43","1f75c3e559b7213887762d5229550c2b","216.120.189.45","Mozilla/5.0 (Windows NT 10.0; Win64; x64) AppleWebKit/537.36 (KHTML, like Gecko) Chrome/138.0.0.0 Safari/537.36","WebKit","Chrome","138.0.0.0","Windows","10.0","https://app.prolific.com/","en-US,en;q=0.9","673594215b1a0b92d5835525","6877631c9844ddd5501205fc","6889d9bbd4d79339b93895a3","3","1","673594215b1a0b92d5835525","3","1","2025-07-30T12:27:22.462Z","","","","","","","","","","","AttribQ","","50","","","","","","","","","","","","","","","","","","","","","","","","","","","","",""
"5338","","<div style=""width:500px;"">
  <p>How much control did you have over the ball?</p>
  </div>","24","html-slider-response","46","10004148","0.0-5.0-2.7","282","1","2025-07-30 09:40:43","1f75c3e559b7213887762d5229550c2b","216.120.189.45","Mozilla/5.0 (Windows NT 10.0; Win64; x64) AppleWebKit/537.36 (KHTML, like Gecko) Chrome/138.0.0.0 Safari/537.36","WebKit","Chrome","138.0.0.0","Windows","10.0","https://app.prolific.com/","en-US,en;q=0.9","673594215b1a0b92d5835525","6877631c9844ddd5501205fc","6889d9bbd4d79339b93895a3","3","1","673594215b1a0b92d5835525","3","1","2025-07-30T12:27:27.802Z","","","","","","","","","","","ControlQ","","50","","","","","","","","","","","","","","","","","","","","","","","","","","","","",""
"5328","","<div style=""width:500px;"">
  <p>How would you describe your current emotional state?</p>
  </div>","0","html-slider-response","47","10009479","0.0-5.0-3.7","282","1","2025-07-30 09:40:43","1f75c3e559b7213887762d5229550c2b","216.120.189.45","Mozilla/5.0 (Windows NT 10.0; Win64; x64) AppleWebKit/537.36 (KHTML, like Gecko) Chrome/138.0.0.0 Safari/537.36","WebKit","Chrome","138.0.0.0","Windows","10.0","https://app.prolific.com/","en-US,en;q=0.9","673594215b1a0b92d5835525","6877631c9844ddd5501205fc","6889d9bbd4d79339b93895a3","3","1","673594215b1a0b92d5835525","3","1","2025-07-30T12:27:33.132Z","","","","","","","","","","","StressQ","","50","","","","","","","","","","","","","","","","","","","","","","","","","","","","",""
"3832","","<div style=""width:500px;"">
  <p>What best describes how you currently feel?</p>
  </div>","100","html-slider-response","48","10013312","0.0-5.0-4.7","282","1","2025-07-30 09:40:43","1f75c3e559b7213887762d5229550c2b","216.120.189.45","Mozilla/5.0 (Windows NT 10.0; Win64; x64) AppleWebKit/537.36 (KHTML, like Gecko) Chrome/138.0.0.0 Safari/537.36","WebKit","Chrome","138.0.0.0","Windows","10.0","https://app.prolific.com/","en-US,en;q=0.9","673594215b1a0b92d5835525","6877631c9844ddd5501205fc","6889d9bbd4d79339b93895a3","3","1","673594215b1a0b92d5835525","3","1","2025-07-30T12:27:36.965Z","","","","","","","","","","","MotivationQ","","50","","","","","","","","","","","","","","","","","","","","","","","","","","","","",""
"","","","","ctl-task-cpt","49","10073497","0.0-5.0-0.8","282","1","2025-07-30 09:40:43","1f75c3e559b7213887762d5229550c2b","216.120.189.45","Mozilla/5.0 (Windows NT 10.0; Win64; x64) AppleWebKit/537.36 (KHTML, like Gecko) Chrome/138.0.0.0 Safari/537.36","WebKit","Chrome","138.0.0.0","Windows","10.0","https://app.prolific.com/","en-US,en;q=0.9","673594215b1a0b92d5835525","6877631c9844ddd5501205fc","6889d9bbd4d79339b93895a3","3","1","673594215b1a0b92d5835525","3","1","2025-07-30T12:28:37.150Z","","","","","","","","","","","","","","win-only","2","g1:SE,g2:NW","0.2","9","0","10016109.5","1667.4","6690.1","57165.1","1","4","8","6","2","-8","-8","20","28","0.15151515151515152","1445.5","3000","-1835","[""left"",""up""]","{""num_key_presses"":15,""num_perfect"":3,""num_errors"":0,""num_randdir"":12,""num_randdir_good_moves"":5,""num_whilered"":0,""num_whileblue"":0,""num_blue"":1,""num_good_moves"":8}","[293.22232142857143,289.12857142857143,0.4,293.22232142857143,289.12857142857143,100.9,293.22232142857143,289.12857142857143,206.3,293.22232142857143,289.12857142857143,308.1,293.22232142857143,289.12857142857143,412.1,293.22232142857143,289.12857142857143,518.4,145.22232142857143,115.12857142857143,620,97.22232142857143,38.128571428571426,723,97.22232142857143,38.128571428571426,828.7,97.22232142857143,38.128571428571426,941,97.22232142857143,38.128571428571426,1041.8,88.22232142857143,36.128571428571426,1146.3,65.22232142857143,31.128571428571426,1247.8,65.22232142857143,31.128571428571426,1353.9,65.22232142857143,31.128571428571426,1471.3,65.22232142857143,31.128571428571426,1578,65.22232142857143,31.128571428571426,1679.3,65.22232142857143,31.128571428571426,1785.1,65.22232142857143,31.128571428571426,1890.9,65.22232142857143,31.128571428571426,1996.4,65.22232142857143,31.128571428571426,2096.7,65.22232142857143,31.128571428571426,2203.8,65.22232142857143,31.128571428571426,2311.9,65.22232142857143,31.128571428571426,2416.7,65.22232142857143,31.128571428571426,2521.8,65.22232142857143,31.128571428571426,2623.6,65.22232142857143,31.128571428571426,2731.9,65.22232142857143,31.128571428571426,2833.9,65.22232142857143,31.128571428571426,2940.8,65.22232142857143,31.128571428571426,3059.1,65.22232142857143,31.128571428571426,3166.2,65.22232142857143,31.128571428571426,3266.4,65.22232142857143,31.128571428571426,3378.2,65.22232142857143,31.128571428571426,3487,65.22232142857143,31.128571428571426,3592.5,65.22232142857143,31.128571428571426,3695.1,65.22232142857143,31.128571428571426,3799.3,65.22232142857143,31.128571428571426,3901,65.22232142857143,31.128571428571426,4002.8,65.22232142857143,31.128571428571426,4108.2,65.22232142857143,31.128571428571426,4208.9,65.22232142857143,31.128571428571426,4316.1,65.22232142857143,31.128571428571426,4421.3,65.22232142857143,31.128571428571426,4528.9,65.22232142857143,31.128571428571426,4638,65.22232142857143,31.128571428571426,4741.1,65.22232142857143,31.128571428571426,4842.8,65.22232142857143,31.128571428571426,4951.8]","[1362.8,1362.8,1000,0,362.8,""smooth"",""up"",""up"",""good_move"",3951,2587.5,2205.5,1363.5,382,""oops"",""up"",""left"",""good_move"",7036.2,3084,2693.6,3952.2,390.4,""oops"",""left"",""up"",""good_move"",10091.3,3054.5,2664,7036.8,390.5,""smooth"",""left"",""left"",""good_move"",13356.2,3263.2,2863,10093.1,400.1,""oops"",""up"",""right"",""bad_move"",17469.7,4111.4,3700.8,13358.4,410.6,""oops"",""left"",""down"",""bad_move"",20340.4,2867.7,2390.2,17472.7,477.5,""oops"",""up"",""up"",""good_move"",27297.4,6956.5,3052.9,23861.8,382.7,""oops"",""up"",""up"",""good_move"",30205.8,2906.7,2527,27299.1,379.7,""oops"",""left"",""down"",""bad_move"",32354.9,2147.9,1702.5,30207,445.4,""oops"",""left"",""right"",""bad_move"",34939.5,2580.6,2200.8,32359,379.7,""oops"",""up"",""right"",""bad_move"",37611.8,2671,2266,34940.9,405,""smooth"",""left"",""left"",""good_move"",40955.6,3342.4,2411,37613.3,931.4,""oops"",""left"",""up"",""good_move"",43930.2,2973.3,2563.5,40957,409.7,""oops"",""left"",""down"",""bad_move"",47211.3,3277.6,2913.2,43933.7,364.4,""oops"",""left"",""right"",""bad_move""]","",""
"9944","","<div style=""width:500px;"">
  <p>What determined the result of this run?</p>
  </div>","1","html-slider-response","50","10083444","0.0-5.0-1.8","282","1","2025-07-30 09:40:43","1f75c3e559b7213887762d5229550c2b","216.120.189.45","Mozilla/5.0 (Windows NT 10.0; Win64; x64) AppleWebKit/537.36 (KHTML, like Gecko) Chrome/138.0.0.0 Safari/537.36","WebKit","Chrome","138.0.0.0","Windows","10.0","https://app.prolific.com/","en-US,en;q=0.9","673594215b1a0b92d5835525","6877631c9844ddd5501205fc","6889d9bbd4d79339b93895a3","3","1","673594215b1a0b92d5835525","3","1","2025-07-30T12:28:47.098Z","","","","","","","","","","","AttribQ","","50","","","","","","","","","","","","","","","","","","","","","","","","","","","","",""
"4415","","<div style=""width:500px;"">
  <p>How much control did you have over the ball?</p>
  </div>","7","html-slider-response","51","10087862","0.0-5.0-2.8","282","1","2025-07-30 09:40:43","1f75c3e559b7213887762d5229550c2b","216.120.189.45","Mozilla/5.0 (Windows NT 10.0; Win64; x64) AppleWebKit/537.36 (KHTML, like Gecko) Chrome/138.0.0.0 Safari/537.36","WebKit","Chrome","138.0.0.0","Windows","10.0","https://app.prolific.com/","en-US,en;q=0.9","673594215b1a0b92d5835525","6877631c9844ddd5501205fc","6889d9bbd4d79339b93895a3","3","1","673594215b1a0b92d5835525","3","1","2025-07-30T12:28:51.515Z","","","","","","","","","","","ControlQ","","50","","","","","","","","","","","","","","","","","","","","","","","","","","","","",""
"7355","","<div style=""width:500px;"">
  <p>How would you describe your current emotional state?</p>
  </div>","0","html-slider-response","52","10095219","0.0-5.0-3.8","282","1","2025-07-30 09:40:43","1f75c3e559b7213887762d5229550c2b","216.120.189.45","Mozilla/5.0 (Windows NT 10.0; Win64; x64) AppleWebKit/537.36 (KHTML, like Gecko) Chrome/138.0.0.0 Safari/537.36","WebKit","Chrome","138.0.0.0","Windows","10.0","https://app.prolific.com/","en-US,en;q=0.9","673594215b1a0b92d5835525","6877631c9844ddd5501205fc","6889d9bbd4d79339b93895a3","3","1","673594215b1a0b92d5835525","3","1","2025-07-30T12:28:58.872Z","","","","","","","","","","","StressQ","","50","","","","","","","","","","","","","","","","","","","","","","","","","","","","",""
"5349","","<div style=""width:500px;"">
  <p>What best describes how you currently feel?</p>
  </div>","100","html-slider-response","53","10100569","0.0-5.0-4.8","282","1","2025-07-30 09:40:43","1f75c3e559b7213887762d5229550c2b","216.120.189.45","Mozilla/5.0 (Windows NT 10.0; Win64; x64) AppleWebKit/537.36 (KHTML, like Gecko) Chrome/138.0.0.0 Safari/537.36","WebKit","Chrome","138.0.0.0","Windows","10.0","https://app.prolific.com/","en-US,en;q=0.9","673594215b1a0b92d5835525","6877631c9844ddd5501205fc","6889d9bbd4d79339b93895a3","3","1","673594215b1a0b92d5835525","3","1","2025-07-30T12:29:04.222Z","","","","","","","","","","","MotivationQ","","50","","","","","","","","","","","","","","","","","","","","","","","","","","","","",""
"","","","","ctl-task-cpt","54","10153542","0.0-5.0-0.9","282","1","2025-07-30 09:40:43","1f75c3e559b7213887762d5229550c2b","216.120.189.45","Mozilla/5.0 (Windows NT 10.0; Win64; x64) AppleWebKit/537.36 (KHTML, like Gecko) Chrome/138.0.0.0 Safari/537.36","WebKit","Chrome","138.0.0.0","Windows","10.0","https://app.prolific.com/","en-US,en;q=0.9","673594215b1a0b92d5835525","6877631c9844ddd5501205fc","6889d9bbd4d79339b93895a3","3","1","673594215b1a0b92d5835525","3","1","2025-07-30T12:29:57.196Z","","","","","","","","","","","","","","win-only","2","g1:SE,g2:NW","0.4","10","0","10103365.9","1615.6","6624.6","49954.6","1","4","4","6","2","-4","-4","16","20","0.12121212121212122","1644.2","3000","-1325","[""left"",""up""]","{""num_key_presses"":12,""num_perfect"":4,""num_errors"":0,""num_randdir"":8,""num_randdir_good_moves"":4,""num_whilered"":0,""num_whileblue"":0,""num_blue"":2,""num_good_moves"":7}","[299.22232142857143,296.12857142857143,0.5,299.22232142857143,296.12857142857143,103,299.22232142857143,296.12857142857143,210.1,299.22232142857143,296.12857142857143,322.6,299.22232142857143,296.12857142857143,440.8,299.22232142857143,296.12857142857143,544.7,204.22232142857143,232.12857142857143,649.3,94.22232142857143,180.12857142857143,755.6,94.22232142857143,180.12857142857143,875.8,77.22232142857143,151.12857142857143,991.8,58.222321428571426,77.12857142857143,1097.2,58.222321428571426,77.12857142857143,1205.8,58.222321428571426,77.12857142857143,1323.3,58.222321428571426,73.12857142857143,1424.3,58.222321428571426,73.12857142857143,1525.5,58.222321428571426,73.12857142857143,1627.6,58.222321428571426,73.12857142857143,1730.4,58.222321428571426,73.12857142857143,1836.9,58.222321428571426,73.12857142857143,1948.8,58.222321428571426,73.12857142857143,2062.2,58.222321428571426,73.12857142857143,2174,58.222321428571426,73.12857142857143,2280.1,58.222321428571426,73.12857142857143,2395.6,173.22232142857143,159.12857142857143,2505.9,247.22232142857143,261.12857142857143,2623.4,247.22232142857143,261.12857142857143,2738.8,247.22232142857143,261.12857142857143,2844.6,348.22232142857143,327.12857142857143,2948.8,359.22232142857143,344.12857142857143,3067,359.22232142857143,344.12857142857143,3168.3,359.22232142857143,344.12857142857143,3270.9,359.22232142857143,344.12857142857143,3371.5,359.22232142857143,344.12857142857143,3473.9,359.22232142857143,344.12857142857143,3576.5,359.22232142857143,344.12857142857143,3683.2,359.22232142857143,344.12857142857143,3786.5,359.22232142857143,344.12857142857143,3887.7,359.22232142857143,344.12857142857143,3990.2,359.22232142857143,344.12857142857143,4095.5,359.22232142857143,344.12857142857143,4197.9,359.22232142857143,344.12857142857143,4301.8,359.22232142857143,344.12857142857143,4403.6,359.22232142857143,344.12857142857143,4508.1,359.22232142857143,344.12857142857143,4611.3,359.22232142857143,344.12857142857143,4716.5,359.22232142857143,344.12857142857143,4822.9,359.22232142857143,344.12857142857143,4927.1]","[4665.5,4665.5,2168.9,2011.5,485.1,""smooth"",""up"",""up"",""good_move"",7619.2,2952.7,2115.8,4666.5,836.9,""oops"",""up"",""up"",""good_move"",10104.5,2483.7,1478.3,7620.8,1005.4,""oops"",""left"",""down"",""bad_move"",13556.4,3450.8,3008.2,10105.7,442.5,""oops"",""right"",""up"",""good_move"",16186.1,2628.1,2081.2,13558,547,""oops"",""right"",""right"",""bad_move"",19221,3033.7,2658.6,16187.3,375.1,""smooth"",""up"",""up"",""good_move"",21977.4,2754.8,2372,19222.7,382.7,""oops"",""left"",""right"",""bad_move"",24643.6,2665,2234.7,21978.7,430.3,""oops"",""left"",""left"",""good_move"",30433.2,5788.5,2223.1,27835.8,374.3,""smooth"",""up"",""right"",""bad_move"",33844.7,3411,3092.1,30433.7,318.9,""smooth"",""left"",""left"",""good_move"",36438.9,2592.6,1631.1,33846.3,961.5,""oops"",""left"",""down"",""bad_move"",39367.6,2928,2470.2,36439.6,457.8,""oops"",""left"",""up"",""good_move""]","",""
"4273","","<div style=""width:500px;"">
  <p>What determined the result of this run?</p>
  </div>","18","html-slider-response","55","10157818","0.0-5.0-1.9","282","1","2025-07-30 09:40:43","1f75c3e559b7213887762d5229550c2b","216.120.189.45","Mozilla/5.0 (Windows NT 10.0; Win64; x64) AppleWebKit/537.36 (KHTML, like Gecko) Chrome/138.0.0.0 Safari/537.36","WebKit","Chrome","138.0.0.0","Windows","10.0","https://app.prolific.com/","en-US,en;q=0.9","673594215b1a0b92d5835525","6877631c9844ddd5501205fc","6889d9bbd4d79339b93895a3","3","1","673594215b1a0b92d5835525","3","1","2025-07-30T12:30:01.471Z","","","","","","","","","","","AttribQ","","50","","","","","","","","","","","","","","","","","","","","","","","","","","","","",""
"3952","","<div style=""width:500px;"">
  <p>How much control did you have over the ball?</p>
  </div>","20","html-slider-response","56","10161772","0.0-5.0-2.9","282","1","2025-07-30 09:40:43","1f75c3e559b7213887762d5229550c2b","216.120.189.45","Mozilla/5.0 (Windows NT 10.0; Win64; x64) AppleWebKit/537.36 (KHTML, like Gecko) Chrome/138.0.0.0 Safari/537.36","WebKit","Chrome","138.0.0.0","Windows","10.0","https://app.prolific.com/","en-US,en;q=0.9","673594215b1a0b92d5835525","6877631c9844ddd5501205fc","6889d9bbd4d79339b93895a3","3","1","673594215b1a0b92d5835525","3","1","2025-07-30T12:30:05.426Z","","","","","","","","","","","ControlQ","","50","","","","","","","","","","","","","","","","","","","","","","","","","","","","",""
"3806","","<div style=""width:500px;"">
  <p>How would you describe your current emotional state?</p>
  </div>","0","html-slider-response","57","10165580","0.0-5.0-3.9","282","1","2025-07-30 09:40:43","1f75c3e559b7213887762d5229550c2b","216.120.189.45","Mozilla/5.0 (Windows NT 10.0; Win64; x64) AppleWebKit/537.36 (KHTML, like Gecko) Chrome/138.0.0.0 Safari/537.36","WebKit","Chrome","138.0.0.0","Windows","10.0","https://app.prolific.com/","en-US,en;q=0.9","673594215b1a0b92d5835525","6877631c9844ddd5501205fc","6889d9bbd4d79339b93895a3","3","1","673594215b1a0b92d5835525","3","1","2025-07-30T12:30:09.233Z","","","","","","","","","","","StressQ","","50","","","","","","","","","","","","","","","","","","","","","","","","","","","","",""
"2859","","<div style=""width:500px;"">
  <p>What best describes how you currently feel?</p>
  </div>","98","html-slider-response","58","10168441","0.0-5.0-4.9","282","1","2025-07-30 09:40:43","1f75c3e559b7213887762d5229550c2b","216.120.189.45","Mozilla/5.0 (Windows NT 10.0; Win64; x64) AppleWebKit/537.36 (KHTML, like Gecko) Chrome/138.0.0.0 Safari/537.36","WebKit","Chrome","138.0.0.0","Windows","10.0","https://app.prolific.com/","en-US,en;q=0.9","673594215b1a0b92d5835525","6877631c9844ddd5501205fc","6889d9bbd4d79339b93895a3","3","1","673594215b1a0b92d5835525","3","1","2025-07-30T12:30:12.094Z","","","","","","","","","","","MotivationQ","","50","","","","","","","","","","","","","","","","","","","","","","","","","","","","",""
"","","","","ctl-task-cpt","59","10195721","0.0-5.0-0.10","282","1","2025-07-30 09:40:43","1f75c3e559b7213887762d5229550c2b","216.120.189.45","Mozilla/5.0 (Windows NT 10.0; Win64; x64) AppleWebKit/537.36 (KHTML, like Gecko) Chrome/138.0.0.0 Safari/537.36","WebKit","Chrome","138.0.0.0","Windows","10.0","https://app.prolific.com/","en-US,en;q=0.9","673594215b1a0b92d5835525","6877631c9844ddd5501205fc","6889d9bbd4d79339b93895a3","3","1","673594215b1a0b92d5835525","3","1","2025-07-30T12:30:39.374Z","","","","","","","","","","","","","","win-only","0","g1:NW,g2:SE","0.5","11","0","10171236.7","1564.4","6575.8","24257.9","1","4","8","6","2","8","8","24","16","0.18181818181818182","1265.1","3000","1830","[""down"",""right""]","{""num_key_presses"":6,""num_perfect"":4,""num_errors"":0,""num_randdir"":2,""num_randdir_good_moves"":2,""num_whilered"":0,""num_whileblue"":0,""num_blue"":0,""num_good_moves"":6}","[297.22232142857143,301.12857142857143,2.1,297.22232142857143,301.12857142857143,102.2,297.22232142857143,301.12857142857143,205.6,297.22232142857143,301.12857142857143,307.7,297.22232142857143,301.12857142857143,410.2,297.22232142857143,301.12857142857143,520.4,440.22232142857143,470.12857142857143,621.8,455.22232142857143,481.12857142857143,724.9,455.22232142857143,481.12857142857143,837,499.22232142857143,501.12857142857143,939.1,512.2223214285714,514.1285714285714,1051.6,513.2223214285714,514.1285714285714,1157.4,513.2223214285714,514.1285714285714,1273.4,513.2223214285714,514.1285714285714,1377.5,513.2223214285714,514.1285714285714,1486.2,513.2223214285714,514.1285714285714,1594.3,513.2223214285714,514.1285714285714,1695.5,513.2223214285714,514.1285714285714,1801,513.2223214285714,514.1285714285714,1909.2,518.2223214285714,517.1285714285714,2015.4,518.2223214285714,517.1285714285714,2119.6,518.2223214285714,517.1285714285714,2226.7,518.2223214285714,517.1285714285714,2327,653.2223214285714,466.12857142857143,2434.1,724.2223214285714,435.12857142857143,2534.5,724.2223214285714,435.12857142857143,2637.9,724.2223214285714,435.12857142857143,2743,724.2223214285714,435.12857142857143,2844.9,724.2223214285714,435.12857142857143,2953.3,724.2223214285714,435.12857142857143,3058.4,724.2223214285714,435.12857142857143,3158.8,724.2223214285714,435.12857142857143,3259.8,724.2223214285714,435.12857142857143,3364.5,724.2223214285714,435.12857142857143,3469.8,724.2223214285714,435.12857142857143,3576.3,724.2223214285714,435.12857142857143,3678.5,724.2223214285714,435.12857142857143,3788.8,724.2223214285714,435.12857142857143,3895.7,724.2223214285714,435.12857142857143,4008.2,724.2223214285714,435.12857142857143,4110.9,724.2223214285714,435.12857142857143,4212.2,724.2223214285714,435.12857142857143,4317.3,724.2223214285714,435.12857142857143,4428.9,724.2223214285714,435.12857142857143,4534.4,724.2223214285714,435.12857142857143,4634.7,724.2223214285714,435.12857142857143,4748.5,724.2223214285714,435.12857142857143,4859.4,724.2223214285714,435.12857142857143,4960]","[1557.1,1557.1,1000,0,557.1,""smooth"",""right"",""right"",""good_move"",5141.6,3583.4,3152,1558.2,431.4,""smooth"",""right"",""right"",""good_move"",7838.9,2696.3,2251,5142.6,445.3,""oops"",""right"",""right"",""good_move"",10702.7,2863.1,2478.6,7839.6,384.6,""smooth"",""down"",""down"",""good_move"",14136.2,3432.2,3022.8,10704.1,409.3,""smooth"",""down"",""down"",""good_move"",17532.9,3396.1,2985.4,14136.8,410.7,""oops"",""down"",""down"",""good_move""]","",""
"5370","","<div style=""width:500px;"">
  <p>What determined the result of this run?</p>
  </div>","100","html-slider-response","60","10201093","0.0-5.0-1.10","282","1","2025-07-30 09:40:43","1f75c3e559b7213887762d5229550c2b","216.120.189.45","Mozilla/5.0 (Windows NT 10.0; Win64; x64) AppleWebKit/537.36 (KHTML, like Gecko) Chrome/138.0.0.0 Safari/537.36","WebKit","Chrome","138.0.0.0","Windows","10.0","https://app.prolific.com/","en-US,en;q=0.9","673594215b1a0b92d5835525","6877631c9844ddd5501205fc","6889d9bbd4d79339b93895a3","3","1","673594215b1a0b92d5835525","3","1","2025-07-30T12:30:44.746Z","","","","","","","","","","","AttribQ","","50","","","","","","","","","","","","","","","","","","","","","","","","","","","","",""
"3138","","<div style=""width:500px;"">
  <p>How much control did you have over the ball?</p>
  </div>","95","html-slider-response","61","10204232","0.0-5.0-2.10","282","1","2025-07-30 09:40:43","1f75c3e559b7213887762d5229550c2b","216.120.189.45","Mozilla/5.0 (Windows NT 10.0; Win64; x64) AppleWebKit/537.36 (KHTML, like Gecko) Chrome/138.0.0.0 Safari/537.36","WebKit","Chrome","138.0.0.0","Windows","10.0","https://app.prolific.com/","en-US,en;q=0.9","673594215b1a0b92d5835525","6877631c9844ddd5501205fc","6889d9bbd4d79339b93895a3","3","1","673594215b1a0b92d5835525","3","1","2025-07-30T12:30:47.885Z","","","","","","","","","","","ControlQ","","50","","","","","","","","","","","","","","","","","","","","","","","","","","","","",""
"3316","","<div style=""width:500px;"">
  <p>How would you describe your current emotional state?</p>
  </div>","0","html-slider-response","62","10207550","0.0-5.0-3.10","282","1","2025-07-30 09:40:43","1f75c3e559b7213887762d5229550c2b","216.120.189.45","Mozilla/5.0 (Windows NT 10.0; Win64; x64) AppleWebKit/537.36 (KHTML, like Gecko) Chrome/138.0.0.0 Safari/537.36","WebKit","Chrome","138.0.0.0","Windows","10.0","https://app.prolific.com/","en-US,en;q=0.9","673594215b1a0b92d5835525","6877631c9844ddd5501205fc","6889d9bbd4d79339b93895a3","3","1","673594215b1a0b92d5835525","3","1","2025-07-30T12:30:51.203Z","","","","","","","","","","","StressQ","","50","","","","","","","","","","","","","","","","","","","","","","","","","","","","",""
"4013","","<div style=""width:500px;"">
  <p>What best describes how you currently feel?</p>
  </div>","100","html-slider-response","63","10211564","0.0-5.0-4.10","282","1","2025-07-30 09:40:43","1f75c3e559b7213887762d5229550c2b","216.120.189.45","Mozilla/5.0 (Windows NT 10.0; Win64; x64) AppleWebKit/537.36 (KHTML, like Gecko) Chrome/138.0.0.0 Safari/537.36","WebKit","Chrome","138.0.0.0","Windows","10.0","https://app.prolific.com/","en-US,en;q=0.9","673594215b1a0b92d5835525","6877631c9844ddd5501205fc","6889d9bbd4d79339b93895a3","3","1","673594215b1a0b92d5835525","3","1","2025-07-30T12:30:55.217Z","","","","","","","","","","","MotivationQ","","50","","","","","","","","","","","","","","","","","","","","","","","","","","","","",""
"","","","","ctl-task-cpt","64","10243067","0.0-5.0-0.11","282","1","2025-07-30 09:40:43","1f75c3e559b7213887762d5229550c2b","216.120.189.45","Mozilla/5.0 (Windows NT 10.0; Win64; x64) AppleWebKit/537.36 (KHTML, like Gecko) Chrome/138.0.0.0 Safari/537.36","WebKit","Chrome","138.0.0.0","Windows","10.0","https://app.prolific.com/","en-US,en;q=0.9","673594215b1a0b92d5835525","6877631c9844ddd5501205fc","6889d9bbd4d79339b93895a3","3","1","673594215b1a0b92d5835525","3","1","2025-07-30T12:31:26.720Z","","","","","","","","","","","","","","win-only","2","g1:SE,g2:NW","0.6","12","0","10214360.3","1430.9","6431.7","28480.1","1","4","4","6","2","4","4","28","24","0.21212121212121213","1369.8","3000","1710","[""left"",""up""]","{""num_key_presses"":8,""num_perfect"":5,""num_errors"":0,""num_randdir"":3,""num_randdir_good_moves"":2,""num_whilered"":0,""num_whileblue"":0,""num_blue"":0,""num_good_moves"":7}","[297.22232142857143,293.12857142857143,0.5,297.22232142857143,293.12857142857143,108,297.22232142857143,293.12857142857143,217.6,297.22232142857143,293.12857142857143,320.1,297.22232142857143,293.12857142857143,426.7,309.22232142857143,294.12857142857143,532.2,148.22232142857143,82.12857142857143,645.5,66.22232142857143,-35.871428571428574,757.2,66.22232142857143,-35.871428571428574,866.2,66.22232142857143,-13.871428571428574,987.1,64.22232142857143,30.128571428571426,1092.1,60.222321428571426,38.128571428571426,1198.3,60.222321428571426,38.128571428571426,1301.4,60.222321428571426,38.128571428571426,1402.6,60.222321428571426,38.128571428571426,1508.2,60.222321428571426,38.128571428571426,1609.4,12.222321428571426,18.128571428571426,1712.5,-88.77767857142857,4.128571428571426,1818.2,-89.77767857142857,3.1285714285714263,1927.1,-89.77767857142857,3.1285714285714263,2051.6,-89.77767857142857,3.1285714285714263,2162.8,-89.77767857142857,3.1285714285714263,2264.3,-89.77767857142857,3.1285714285714263,2369.2,-89.77767857142857,3.1285714285714263,2480.1,-89.77767857142857,3.1285714285714263,2586.4,-89.77767857142857,3.1285714285714263,2691.1,-89.77767857142857,3.1285714285714263,2796,-89.77767857142857,3.1285714285714263,2901.1,-89.77767857142857,3.1285714285714263,3009.9,-89.77767857142857,3.1285714285714263,3118,-89.77767857142857,3.1285714285714263,3229.5,-89.77767857142857,3.1285714285714263,3338.6,-89.77767857142857,3.1285714285714263,3449.1,-89.77767857142857,3.1285714285714263,3552.8,-89.77767857142857,3.1285714285714263,3664.2,-89.77767857142857,3.1285714285714263,3764.7,-89.77767857142857,3.1285714285714263,3871.9,-89.77767857142857,3.1285714285714263,3974.2,-89.77767857142857,3.1285714285714263,4078.6,-89.77767857142857,3.1285714285714263,4178.9,-89.77767857142857,3.1285714285714263,4286.5,-89.77767857142857,3.1285714285714263,4390,-89.77767857142857,3.1285714285714263,4491.2,-89.77767857142857,3.1285714285714263,4597.1,-89.77767857142857,3.1285714285714263,4701.2,-89.77767857142857,3.1285714285714263,4809.9,-89.77767857142857,3.1285714285714263,4912.8]","[1389.1,1389.1,1000,0,389.1,""smooth"",""up"",""up"",""good_move"",4522.7,3131.5,2733.7,1391.2,397.8,""smooth"",""up"",""up"",""good_move"",7093.5,2569.5,2162.5,4524,407,""oops"",""left"",""right"",""bad_move"",10137.6,3042.3,2594.6,7095.3,447.7,""oops"",""up"",""left"",""good_move"",13210.1,3072,2574.2,10138.2,497.8,""oops"",""up"",""up"",""good_move"",16149,2936.9,2567.9,13212.1,369,""smooth"",""left"",""left"",""good_move"",19072.6,2922.6,2565.8,16150,356.8,""smooth"",""left"",""left"",""good_move"",21694.9,2621.6,2241.3,19073.3,380.3,""smooth"",""left"",""left"",""good_move""]","",""
"2391","","<div style=""width:500px;"">
  <p>What determined the result of this run?</p>
  </div>","70","html-slider-response","65","10245462","0.0-5.0-1.11","282","1","2025-07-30 09:40:43","1f75c3e559b7213887762d5229550c2b","216.120.189.45","Mozilla/5.0 (Windows NT 10.0; Win64; x64) AppleWebKit/537.36 (KHTML, like Gecko) Chrome/138.0.0.0 Safari/537.36","WebKit","Chrome","138.0.0.0","Windows","10.0","https://app.prolific.com/","en-US,en;q=0.9","673594215b1a0b92d5835525","6877631c9844ddd5501205fc","6889d9bbd4d79339b93895a3","3","1","673594215b1a0b92d5835525","3","1","2025-07-30T12:31:29.115Z","","","","","","","","","","","AttribQ","","50","","","","","","","","","","","","","","","","","","","","","","","","","","","","",""
"2289","","<div style=""width:500px;"">
  <p>How much control did you have over the ball?</p>
  </div>","57","html-slider-response","66","10247753","0.0-5.0-2.11","282","1","2025-07-30 09:40:43","1f75c3e559b7213887762d5229550c2b","216.120.189.45","Mozilla/5.0 (Windows NT 10.0; Win64; x64) AppleWebKit/537.36 (KHTML, like Gecko) Chrome/138.0.0.0 Safari/537.36","WebKit","Chrome","138.0.0.0","Windows","10.0","https://app.prolific.com/","en-US,en;q=0.9","673594215b1a0b92d5835525","6877631c9844ddd5501205fc","6889d9bbd4d79339b93895a3","3","1","673594215b1a0b92d5835525","3","1","2025-07-30T12:31:31.406Z","","","","","","","","","","","ControlQ","","50","","","","","","","","","","","","","","","","","","","","","","","","","","","","",""
"2961","","<div style=""width:500px;"">
  <p>How would you describe your current emotional state?</p>
  </div>","0","html-slider-response","67","10250715","0.0-5.0-3.11","282","1","2025-07-30 09:40:43","1f75c3e559b7213887762d5229550c2b","216.120.189.45","Mozilla/5.0 (Windows NT 10.0; Win64; x64) AppleWebKit/537.36 (KHTML, like Gecko) Chrome/138.0.0.0 Safari/537.36","WebKit","Chrome","138.0.0.0","Windows","10.0","https://app.prolific.com/","en-US,en;q=0.9","673594215b1a0b92d5835525","6877631c9844ddd5501205fc","6889d9bbd4d79339b93895a3","3","1","673594215b1a0b92d5835525","3","1","2025-07-30T12:31:34.368Z","","","","","","","","","","","StressQ","","50","","","","","","","","","","","","","","","","","","","","","","","","","","","","",""
"5070","","<div style=""width:500px;"">
  <p>What best describes how you currently feel?</p>
  </div>","100","html-slider-response","68","10255787","0.0-5.0-4.11","282","1","2025-07-30 09:40:43","1f75c3e559b7213887762d5229550c2b","216.120.189.45","Mozilla/5.0 (Windows NT 10.0; Win64; x64) AppleWebKit/537.36 (KHTML, like Gecko) Chrome/138.0.0.0 Safari/537.36","WebKit","Chrome","138.0.0.0","Windows","10.0","https://app.prolific.com/","en-US,en;q=0.9","673594215b1a0b92d5835525","6877631c9844ddd5501205fc","6889d9bbd4d79339b93895a3","3","1","673594215b1a0b92d5835525","3","1","2025-07-30T12:31:39.440Z","","","","","","","","","","","MotivationQ","","50","","","","","","","","","","","","","","","","","","","","","","","","","","","","",""
"","","","","ctl-task-cpt","69","10325621","0.0-5.0-0.12","282","1","2025-07-30 09:40:43","1f75c3e559b7213887762d5229550c2b","216.120.189.45","Mozilla/5.0 (Windows NT 10.0; Win64; x64) AppleWebKit/537.36 (KHTML, like Gecko) Chrome/138.0.0.0 Safari/537.36","WebKit","Chrome","138.0.0.0","Windows","10.0","https://app.prolific.com/","en-US,en;q=0.9","673594215b1a0b92d5835525","6877631c9844ddd5501205fc","6889d9bbd4d79339b93895a3","3","1","673594215b1a0b92d5835525","3","1","2025-07-30T12:32:49.275Z","","","","","","","","","","","","","","win-only","3","g1:SW,g2:NE","0.7","13","0","10258584.2","2137.8","7141.8","66817.6","1","4","4","6","2","4","3","31","28","0.23484848484848486","1279.1","3000","640","[""up"",""right""]","{""num_key_presses"":12,""num_perfect"":8,""num_errors"":1,""num_randdir"":3,""num_randdir_good_moves"":1,""num_whilered"":0,""num_whileblue"":1,""num_blue"":8,""num_good_moves"":9}","[294.22232142857143,297.12857142857143,0.3,294.22232142857143,297.12857142857143,103.1,294.22232142857143,297.12857142857143,203.1,294.22232142857143,297.12857142857143,308,294.22232142857143,297.12857142857143,412.9,333.22232142857143,152.12857142857143,526.7,470.22232142857143,-5.871428571428574,636.3,487.22232142857143,-9.871428571428574,736.7,492.22232142857143,2.1285714285714263,841.4,508.22232142857143,35.128571428571426,949.1,535.2223214285714,62.128571428571426,1062.1,535.2223214285714,62.128571428571426,1174.2,535.2223214285714,62.128571428571426,1283.2,535.2223214285714,62.128571428571426,1388.2,535.2223214285714,62.128571428571426,1497.3,535.2223214285714,62.128571428571426,1610.4,535.2223214285714,62.128571428571426,1712.9,535.2223214285714,62.128571428571426,1813.2,535.2223214285714,62.128571428571426,1916.3,535.2223214285714,62.128571428571426,2016.3,535.2223214285714,62.128571428571426,2118.3,535.2223214285714,62.128571428571426,2219.2,535.2223214285714,62.128571428571426,2330.5,535.2223214285714,62.128571428571426,2437.3,535.2223214285714,62.128571428571426,2547.1,535.2223214285714,62.128571428571426,2658.2,535.2223214285714,62.128571428571426,2767.9,535.2223214285714,62.128571428571426,2876,535.2223214285714,62.128571428571426,2986.8,535.2223214285714,62.128571428571426,3090.7,535.2223214285714,62.128571428571426,3210.3,535.2223214285714,62.128571428571426,3311,535.2223214285714,62.128571428571426,3426.2,535.2223214285714,62.128571428571426,3541.9,535.2223214285714,62.128571428571426,3654.2,535.2223214285714,62.128571428571426,3762.7,535.2223214285714,62.128571428571426,3864.7,535.2223214285714,62.128571428571426,3969,535.2223214285714,62.128571428571426,4069.7,535.2223214285714,62.128571428571426,4169.9,535.2223214285714,62.128571428571426,4274.5,535.2223214285714,62.128571428571426,4379.4,535.2223214285714,62.128571428571426,4490.2,535.2223214285714,62.128571428571426,4592.7,535.2223214285714,62.128571428571426,4704,535.2223214285714,62.128571428571426,4812.1,535.2223214285714,62.128571428571426,4919]","[1409.1,1409.1,1000,0,409.1,""smooth"",""right"",""right"",""good_move"",4470,3059.1,2611.3,1411,447.8,""smooth"",""right"",""right"",""good_move"",7355.7,2885.5,2328.1,4470.2,557.4,""smooth"",""right"",""right"",""good_move"",10353.4,2996.9,2661.1,7356.5,335.8,""while_blue"",""up"",""left"",""bad_move"",13556.7,3202.6,1918.3,10354.1,1284.3,""smooth"",""up"",""up"",""good_move"",22613.2,9055.8,1915.4,19881.6,816.2,""oops"",""right"",""left"",""bad_move"",25606.4,2991.8,2127.5,22614.8,864.1,""oops"",""up"",""left"",""bad_move"",39828.1,14220.9,2460.3,36951.2,416.6,""smooth"",""up"",""up"",""good_move"",42701.4,2872.5,1833,39828.9,1039.5,""oops"",""up"",""right"",""good_move"",45809.7,3106.9,2651.8,42702.8,455.1,""smooth"",""up"",""up"",""good_move"",52742.6,6931.6,2627.1,49645.6,469.9,""smooth"",""right"",""right"",""good_move"",59334,6589.9,2957.8,55897.1,479.1,""smooth"",""right"",""right"",""good_move""]","",""
"2604","","<div style=""width:500px;"">
  <p>What determined the result of this run?</p>
  </div>","62","html-slider-response","70","10328227","0.0-5.0-1.12","282","1","2025-07-30 09:40:43","1f75c3e559b7213887762d5229550c2b","216.120.189.45","Mozilla/5.0 (Windows NT 10.0; Win64; x64) AppleWebKit/537.36 (KHTML, like Gecko) Chrome/138.0.0.0 Safari/537.36","WebKit","Chrome","138.0.0.0","Windows","10.0","https://app.prolific.com/","en-US,en;q=0.9","673594215b1a0b92d5835525","6877631c9844ddd5501205fc","6889d9bbd4d79339b93895a3","3","1","673594215b1a0b92d5835525","3","1","2025-07-30T12:32:51.881Z","","","","","","","","","","","AttribQ","","50","","","","","","","","","","","","","","","","","","","","","","","","","","","","",""
"2833","","<div style=""width:500px;"">
  <p>How much control did you have over the ball?</p>
  </div>","44","html-slider-response","71","10331062","0.0-5.0-2.12","282","1","2025-07-30 09:40:43","1f75c3e559b7213887762d5229550c2b","216.120.189.45","Mozilla/5.0 (Windows NT 10.0; Win64; x64) AppleWebKit/537.36 (KHTML, like Gecko) Chrome/138.0.0.0 Safari/537.36","WebKit","Chrome","138.0.0.0","Windows","10.0","https://app.prolific.com/","en-US,en;q=0.9","673594215b1a0b92d5835525","6877631c9844ddd5501205fc","6889d9bbd4d79339b93895a3","3","1","673594215b1a0b92d5835525","3","1","2025-07-30T12:32:54.716Z","","","","","","","","","","","ControlQ","","50","","","","","","","","","","","","","","","","","","","","","","","","","","","","",""
"3929","","<div style=""width:500px;"">
  <p>How would you describe your current emotional state?</p>
  </div>","0","html-slider-response","72","10334994","0.0-5.0-3.12","282","1","2025-07-30 09:40:43","1f75c3e559b7213887762d5229550c2b","216.120.189.45","Mozilla/5.0 (Windows NT 10.0; Win64; x64) AppleWebKit/537.36 (KHTML, like Gecko) Chrome/138.0.0.0 Safari/537.36","WebKit","Chrome","138.0.0.0","Windows","10.0","https://app.prolific.com/","en-US,en;q=0.9","673594215b1a0b92d5835525","6877631c9844ddd5501205fc","6889d9bbd4d79339b93895a3","3","1","673594215b1a0b92d5835525","3","1","2025-07-30T12:32:58.647Z","","","","","","","","","","","StressQ","","50","","","","","","","","","","","","","","","","","","","","","","","","","","","","",""
"3740","","<div style=""width:500px;"">
  <p>What best describes how you currently feel?</p>
  </div>","100","html-slider-response","73","10338738","0.0-5.0-4.12","282","1","2025-07-30 09:40:43","1f75c3e559b7213887762d5229550c2b","216.120.189.45","Mozilla/5.0 (Windows NT 10.0; Win64; x64) AppleWebKit/537.36 (KHTML, like Gecko) Chrome/138.0.0.0 Safari/537.36","WebKit","Chrome","138.0.0.0","Windows","10.0","https://app.prolific.com/","en-US,en;q=0.9","673594215b1a0b92d5835525","6877631c9844ddd5501205fc","6889d9bbd4d79339b93895a3","3","1","673594215b1a0b92d5835525","3","1","2025-07-30T12:33:02.391Z","","","","","","","","","","","MotivationQ","","50","","","","","","","","","","","","","","","","","","","","","","","","","","","","",""
