"rt","response_timestamp","stimulus","response","trial_type","trial_index","time_elapsed","internal_node_id","run_id","condition","recorded_at","source_code_version","ip","user_agent","device","browser","browser_version","platform","platform_version","referer","accept_language","PROLIFIC_PID","STUDY_ID","SESSION_ID","WEEK","BATCH","prolific_id","week","batch","realtime","success","responses","item_order","radio_event_ids","radio_event_times","key_event_times","mouse_event_times","straightlining","zigzagging","honeypot","eventType","view_history","slider_start","which_type","canvas_config","goals_layout","control_level","trial_number","tutorial_trial_number","trial_start_time","phase1_start_time","phase2_start_time","phase3_start_time","goal_1_value","goal_1_distance","goal_2_value","goal_2_distance","goal_selected","outcome","outcome_total","participant_final_score","participant_initial_score","participant_final_score_prop","goal_choice_rt","allocated_time","allocated_time_remaining","goal_direction","counts","mouse_movements","key_presses","question_order","question_id"
"26981","1752654847568","<p style='font-size:40px;line-height:1.25'><strong>Welcome to the experiment!</strong></p><p style='font-size:1.1em;line-height:1.25'>Thank you for participanting in our experiment again! You will be asked to play the Dysfunctional Ball Game again. We will briefly recap the rules before we start.</p><p style='font-size:1.1em;line-height:1.25'>Press <strong>Next</strong> to continue.</p>","0","custom-html-button-response","0","26985","0.0-0.0","72","1","2025-07-16 08:31:56","1f75c3e559b7213887762d5229550c2b","49.206.12.249","Mozilla/5.0 (Windows NT 10.0; Win64; x64) AppleWebKit/537.36 (KHTML, like Gecko) Chrome/138.0.0.0 Safari/537.36","WebKit","Chrome","138.0.0.0","Windows","10.0","https://app.prolific.com/","en-GB,en-US;q=0.9,en;q=0.8,ta;q=0.7","66c5f76d9a214b469f6476c8","686e379bc37a29ffa5cdc956","687760483ac1e062e33ad6bc","1","1","66c5f76d9a214b469f6476c8","1","1","2025-07-16T08:34:07.570Z","","","","","","","","","","","","","","","","","","","","","","","","","","","","","","","","","","","","","","","","","",""
"3060","","","","fullscreen","1","31056","0.0-1.0","72","1","2025-07-16 08:31:56","1f75c3e559b7213887762d5229550c2b","49.206.12.249","Mozilla/5.0 (Windows NT 10.0; Win64; x64) AppleWebKit/537.36 (KHTML, like Gecko) Chrome/138.0.0.0 Safari/537.36","WebKit","Chrome","138.0.0.0","Windows","10.0","https://app.prolific.com/","en-GB,en-US;q=0.9,en;q=0.8,ta;q=0.7","66c5f76d9a214b469f6476c8","686e379bc37a29ffa5cdc956","687760483ac1e062e33ad6bc","1","1","66c5f76d9a214b469f6476c8","1","1","","true","","","","","","","","","","","","","","","","","","","","","","","","","","","","","","","","","","","","","","","","",""
"5332","1752654856975","<p style='font-size:1.1em;line-height:1.25'>In the following, we will ask you a few questions relating to your feelings in the last 24 hours.<br></p><p style='font-size:1.1em;line-height:1.25'>Press the <strong>Next</strong> button to continue.</p>","0","custom-html-button-response","2","36391","0.0-2.0-0.0","72","1","2025-07-16 08:31:56","1f75c3e559b7213887762d5229550c2b","49.206.12.249","Mozilla/5.0 (Windows NT 10.0; Win64; x64) AppleWebKit/537.36 (KHTML, like Gecko) Chrome/138.0.0.0 Safari/537.36","WebKit","Chrome","138.0.0.0","Windows","10.0","https://app.prolific.com/","en-GB,en-US;q=0.9,en;q=0.8,ta;q=0.7","66c5f76d9a214b469f6476c8","686e379bc37a29ffa5cdc956","687760483ac1e062e33ad6bc","1","1","66c5f76d9a214b469f6476c8","1","1","2025-07-16T08:34:16.976Z","","","","","","","","","","","","","","","","","","","","","","","","","","","","","","","","","","","","","","","","","",""
"58601.79999999993","","","","survey-template","3","94998","0.0-2.0-1.0","72","1","2025-07-16 08:31:56","1f75c3e559b7213887762d5229550c2b","49.206.12.249","Mozilla/5.0 (Windows NT 10.0; Win64; x64) AppleWebKit/537.36 (KHTML, like Gecko) Chrome/138.0.0.0 Safari/537.36","WebKit","Chrome","138.0.0.0","Windows","10.0","https://app.prolific.com/","en-GB,en-US;q=0.9,en;q=0.8,ta;q=0.7","66c5f76d9a214b469f6476c8","686e379bc37a29ffa5cdc956","687760483ac1e062e33ad6bc","1","1","66c5f76d9a214b469f6476c8","1","1","2025-07-16T08:35:15.583Z","","{""Q01"":""2"",""Q02"":""1"",""Q03"":""1"",""Q04"":""2"",""Q05"":""2"",""Q06"":""3"",""Q07"":""3"",""Q08"":""2"",""Q09"":""2"",""Q10"":""2"",""Q11"":""2"",""Q12"":""3"",""Q13"":""5"",""Q14"":""2"",""Q15"":""2"",""Q16"":""3"",""Q17"":""3"",""Q18"":""1"",""Q19"":""1"",""Q20"":""2"",""Q21"":""2"",""Q22"":""2""}","[0,1,2,3,4,5,6,7,8,9,10,11,12,13,14,15,16,17,18,19,20,21]","[""Q01"",""Q02"",""Q03"",""Q05"",""Q04"",""Q06"",""Q07"",""Q08"",""Q09"",""Q10"",""Q11"",""Q12"",""Q13"",""Q12"",""Q14"",""Q15"",""Q16"",""Q17"",""Q18"",""Q19"",""Q20"",""Q21"",""Q22""]","[6067.699999999953,8267.5,10292.699999999953,12819.900000000023,13468.5,17267.900000000023,18165.099999999977,19340.099999999977,20491.5,21924.099999999977,22660.099999999977,24291.900000000023,29252,31620,36187.59999999998,38963.79999999993,43467.5,44443.79999999993,46187.69999999995,48507.69999999995,51451.59999999998,53291.29999999993,53843.90000000002]","[]","[0.40000000002328306,6067.699999999953,8267.5,10292.699999999953,11771.699999999953,12819.900000000023,13468.5,17267.900000000023,18165.099999999977,19340.099999999977,20491.5,21292.099999999977,21924.099999999977,22660.099999999977,24291.900000000023,29252,31620,36187.59999999998,38963.79999999993,43467.5,44443.79999999993,46187.69999999995,48507.69999999995,51451.59999999998,53291.29999999993,53843.90000000002,58596]","0.5454545454545454","0.3333333333333333","0","drsp","","","","","","","","","","","","","","","","","","","","","","","","","","","","","","",""
"19983.899999999907","","","","survey-template","4","114985","0.0-2.0-2.0","72","1","2025-07-16 08:31:56","1f75c3e559b7213887762d5229550c2b","49.206.12.249","Mozilla/5.0 (Windows NT 10.0; Win64; x64) AppleWebKit/537.36 (KHTML, like Gecko) Chrome/138.0.0.0 Safari/537.36","WebKit","Chrome","138.0.0.0","Windows","10.0","https://app.prolific.com/","en-GB,en-US;q=0.9,en;q=0.8,ta;q=0.7","66c5f76d9a214b469f6476c8","686e379bc37a29ffa5cdc956","687760483ac1e062e33ad6bc","1","1","66c5f76d9a214b469f6476c8","1","1","2025-07-16T08:35:35.570Z","","{""Q01"":""2"",""Q02"":""3"",""Q03"":""1""}","[0,1,2]","[""Q01"",""Q03"",""Q02""]","[5637.79999999993,7404,18934.399999999907]","[]","[5637.79999999993,6070,7404,8902.29999999993,18934.399999999907,19982.29999999993]","0.6666666666666666","0.5","0","stress","","","","","","","","","","","","","","","","","","","","","","","","","","","","","","",""
"163220","","","","instructions","5","278207","0.0-3.0-0.0","72","1","2025-07-16 08:31:56","1f75c3e559b7213887762d5229550c2b","49.206.12.249","Mozilla/5.0 (Windows NT 10.0; Win64; x64) AppleWebKit/537.36 (KHTML, like Gecko) Chrome/138.0.0.0 Safari/537.36","WebKit","Chrome","138.0.0.0","Windows","10.0","https://app.prolific.com/","en-GB,en-US;q=0.9,en;q=0.8,ta;q=0.7","66c5f76d9a214b469f6476c8","686e379bc37a29ffa5cdc956","687760483ac1e062e33ad6bc","1","1","66c5f76d9a214b469f6476c8","1","1","","","","","","","","","","","","","[{""page_index"":0,""viewing_time"":163220}]","","","","","","","","","","","","","","","","","","","","","","","","","","","","","",""
"3317","","<p>Before you start with this game please answer the following three questions yourself. </p>
  <p>Through this game, we measure several aspects of your cognitive performance, such as reaction times, multi-tasking capabilities </p>
  <p>and the ability to assess the situation you are in.</p>
  <p></p>
  <p><b>How good do you usually are in such tasks?</b></p>","88","html-slider-response","6","281583","0.0-4.0-0.0","72","1","2025-07-16 08:31:56","1f75c3e559b7213887762d5229550c2b","49.206.12.249","Mozilla/5.0 (Windows NT 10.0; Win64; x64) AppleWebKit/537.36 (KHTML, like Gecko) Chrome/138.0.0.0 Safari/537.36","WebKit","Chrome","138.0.0.0","Windows","10.0","https://app.prolific.com/","en-GB,en-US;q=0.9,en;q=0.8,ta;q=0.7","66c5f76d9a214b469f6476c8","686e379bc37a29ffa5cdc956","687760483ac1e062e33ad6bc","1","1","66c5f76d9a214b469f6476c8","1","1","2025-07-16T08:38:22.168Z","","","","","","","","","","","PreSkillQ","","50","","","","","","","","","","","","","","","","","","","","","","","","","","","","",""
"2429","","<div style=""width:500px;"">
  <p>How well do you think you will perform in this task compared to other participants?</p>
  </div>","83","html-slider-response","7","284015","0.0-4.0-1.0","72","1","2025-07-16 08:31:56","1f75c3e559b7213887762d5229550c2b","49.206.12.249","Mozilla/5.0 (Windows NT 10.0; Win64; x64) AppleWebKit/537.36 (KHTML, like Gecko) Chrome/138.0.0.0 Safari/537.36","WebKit","Chrome","138.0.0.0","Windows","10.0","https://app.prolific.com/","en-GB,en-US;q=0.9,en;q=0.8,ta;q=0.7","66c5f76d9a214b469f6476c8","686e379bc37a29ffa5cdc956","687760483ac1e062e33ad6bc","1","1","66c5f76d9a214b469f6476c8","1","1","2025-07-16T08:38:24.600Z","","","","","","","","","","","PrePerfQ","","50","","","","","","","","","","","","","","","","","","","","","","","","","","","","",""
"3061","","<div style=""width:500px;"">
  <p>What best describes how you currently feel?</p>
  </div>","86","html-slider-response","8","287078","0.0-4.0-2.0","72","1","2025-07-16 08:31:56","1f75c3e559b7213887762d5229550c2b","49.206.12.249","Mozilla/5.0 (Windows NT 10.0; Win64; x64) AppleWebKit/537.36 (KHTML, like Gecko) Chrome/138.0.0.0 Safari/537.36","WebKit","Chrome","138.0.0.0","Windows","10.0","https://app.prolific.com/","en-GB,en-US;q=0.9,en;q=0.8,ta;q=0.7","66c5f76d9a214b469f6476c8","686e379bc37a29ffa5cdc956","687760483ac1e062e33ad6bc","1","1","66c5f76d9a214b469f6476c8","1","1","2025-07-16T08:38:27.663Z","","","","","","","","","","","PreMotivationQ","","50","","","","","","","","","","","","","","","","","","","","","","","","","","","","",""
"","","","","ctl-task-cpt","9","317502","0.0-5.0-0.0","72","1","2025-07-16 08:31:56","1f75c3e559b7213887762d5229550c2b","49.206.12.249","Mozilla/5.0 (Windows NT 10.0; Win64; x64) AppleWebKit/537.36 (KHTML, like Gecko) Chrome/138.0.0.0 Safari/537.36","WebKit","Chrome","138.0.0.0","Windows","10.0","https://app.prolific.com/","en-GB,en-US;q=0.9,en;q=0.8,ta;q=0.7","66c5f76d9a214b469f6476c8","686e379bc37a29ffa5cdc956","687760483ac1e062e33ad6bc","1","1","66c5f76d9a214b469f6476c8","1","1","2025-07-16T08:38:58.087Z","","","","","","","","","","","","","","win-only","2","g1:SE,g2:NW","1","1","0","293282.3","4310.1","9311.3","27414.4","1","4","4","6","2","4","4","4","0","0.030303030303030304","1083.7","3000","650","[""left"",""up""]","{""num_key_presses"":6,""num_perfect"":6,""num_errors"":0,""num_randdir"":0,""num_randdir_good_moves"":0,""num_whilered"":0,""num_whileblue"":0,""num_blue"":0,""num_good_moves"":6}","[297.22232142857143,297.12857142857143,0.3,297.22232142857143,297.12857142857143,101.1,297.22232142857143,297.12857142857143,212.2,297.22232142857143,297.12857142857143,317,297.22232142857143,297.12857142857143,426.1,297.22232142857143,297.12857142857143,535.5,297.22232142857143,297.12857142857143,636.3,150.22232142857143,145.12857142857143,743.6,73.22232142857143,93.12857142857143,844.1,72.22232142857143,92.12857142857143,945.4,70.22232142857143,80.12857142857143,1047.8,70.22232142857143,80.12857142857143,1159.8,67.22232142857143,79.12857142857143,1260.1,67.22232142857143,79.12857142857143,1360.9,67.22232142857143,79.12857142857143,1460.9,67.22232142857143,79.12857142857143,1561.5,67.22232142857143,79.12857142857143,1662.2,67.22232142857143,79.12857142857143,1765.6,67.22232142857143,79.12857142857143,1866.1,67.22232142857143,79.12857142857143,1966.2,67.22232142857143,79.12857142857143,2071,67.22232142857143,79.12857142857143,2171,67.22232142857143,79.12857142857143,2271.1,71.22232142857143,89.12857142857143,2375.5,145.22232142857143,177.12857142857143,2476,207.22232142857143,278.12857142857143,2576.6,235.22232142857143,318.12857142857143,2681.3,257.22232142857143,326.12857142857143,2785.5,300.22232142857143,332.12857142857143,2885.8,437.22232142857143,326.12857142857143,2986,454.22232142857143,320.12857142857143,3086.1,454.22232142857143,320.12857142857143,3190.9,454.22232142857143,320.12857142857143,3290.9,454.22232142857143,320.12857142857143,3390.9,454.22232142857143,320.12857142857143,3490.9,454.22232142857143,320.12857142857143,3595.4,454.22232142857143,320.12857142857143,3695.8,454.22232142857143,320.12857142857143,3795.9,454.22232142857143,320.12857142857143,3900.8,454.22232142857143,320.12857142857143,4006.2,454.22232142857143,320.12857142857143,4106.8,454.22232142857143,320.12857142857143,4206.9,454.22232142857143,320.12857142857143,4310.6,454.22232142857143,320.12857142857143,4410.9,454.22232142857143,320.12857142857143,4510.9,454.22232142857143,320.12857142857143,4612,454.22232142857143,320.12857142857143,4716.4,454.22232142857143,320.12857142857143,4821.1,454.22232142857143,320.12857142857143,4926.8]","[1568.8,1568.8,1000,0,568.8,""smooth"",""left"",""left"",""good_move"",5192.9,3623.7,3213.3,1569.2,410.4,""smooth"",""left"",""left"",""good_move"",8614.3,3421.2,2970.9,5193.2,450.2,""smooth"",""left"",""left"",""good_move"",11281,2666.5,2167,8614.5,499.5,""smooth"",""up"",""up"",""good_move"",15092,3810.4,3262.2,11281.6,548.3,""smooth"",""up"",""up"",""good_move"",17992.5,2900.1,2511.1,15092.4,389,""smooth"",""up"",""up"",""good_move""]","",""
"2679","","<div style=""width:500px;"">
  <p>What determined the result of this run?</p>
  </div>","89","html-slider-response","10","320182","0.0-5.0-1.0","72","1","2025-07-16 08:31:56","1f75c3e559b7213887762d5229550c2b","49.206.12.249","Mozilla/5.0 (Windows NT 10.0; Win64; x64) AppleWebKit/537.36 (KHTML, like Gecko) Chrome/138.0.0.0 Safari/537.36","WebKit","Chrome","138.0.0.0","Windows","10.0","https://app.prolific.com/","en-GB,en-US;q=0.9,en;q=0.8,ta;q=0.7","66c5f76d9a214b469f6476c8","686e379bc37a29ffa5cdc956","687760483ac1e062e33ad6bc","1","1","66c5f76d9a214b469f6476c8","1","1","2025-07-16T08:39:00.767Z","","","","","","","","","","","AttribQ","","50","","","","","","","","","","","","","","","","","","","","","","","","","","","","",""
"2990","","<div style=""width:500px;"">
  <p>How much control did you have over the ball?</p>
  </div>","97","html-slider-response","11","323174","0.0-5.0-2.0","72","1","2025-07-16 08:31:56","1f75c3e559b7213887762d5229550c2b","49.206.12.249","Mozilla/5.0 (Windows NT 10.0; Win64; x64) AppleWebKit/537.36 (KHTML, like Gecko) Chrome/138.0.0.0 Safari/537.36","WebKit","Chrome","138.0.0.0","Windows","10.0","https://app.prolific.com/","en-GB,en-US;q=0.9,en;q=0.8,ta;q=0.7","66c5f76d9a214b469f6476c8","686e379bc37a29ffa5cdc956","687760483ac1e062e33ad6bc","1","1","66c5f76d9a214b469f6476c8","1","1","2025-07-16T08:39:03.759Z","","","","","","","","","","","ControlQ","","50","","","","","","","","","","","","","","","","","","","","","","","","","","","","",""
"3238","","<div style=""width:500px;"">
  <p>How would you describe your current emotional state?</p>
  </div>","17","html-slider-response","12","326414","0.0-5.0-3.0","72","1","2025-07-16 08:31:56","1f75c3e559b7213887762d5229550c2b","49.206.12.249","Mozilla/5.0 (Windows NT 10.0; Win64; x64) AppleWebKit/537.36 (KHTML, like Gecko) Chrome/138.0.0.0 Safari/537.36","WebKit","Chrome","138.0.0.0","Windows","10.0","https://app.prolific.com/","en-GB,en-US;q=0.9,en;q=0.8,ta;q=0.7","66c5f76d9a214b469f6476c8","686e379bc37a29ffa5cdc956","687760483ac1e062e33ad6bc","1","1","66c5f76d9a214b469f6476c8","1","1","2025-07-16T08:39:06.999Z","","","","","","","","","","","StressQ","","50","","","","","","","","","","","","","","","","","","","","","","","","","","","","",""
"2446","","<div style=""width:500px;"">
  <p>What best describes how you currently feel?</p>
  </div>","81","html-slider-response","13","328862","0.0-5.0-4.0","72","1","2025-07-16 08:31:56","1f75c3e559b7213887762d5229550c2b","49.206.12.249","Mozilla/5.0 (Windows NT 10.0; Win64; x64) AppleWebKit/537.36 (KHTML, like Gecko) Chrome/138.0.0.0 Safari/537.36","WebKit","Chrome","138.0.0.0","Windows","10.0","https://app.prolific.com/","en-GB,en-US;q=0.9,en;q=0.8,ta;q=0.7","66c5f76d9a214b469f6476c8","686e379bc37a29ffa5cdc956","687760483ac1e062e33ad6bc","1","1","66c5f76d9a214b469f6476c8","1","1","2025-07-16T08:39:09.447Z","","","","","","","","","","","MotivationQ","","50","","","","","","","","","","","","","","","","","","","","","","","","","","","","",""
"","","","","ctl-task-cpt","14","359719","0.0-5.0-0.1","72","1","2025-07-16 08:31:56","1f75c3e559b7213887762d5229550c2b","49.206.12.249","Mozilla/5.0 (Windows NT 10.0; Win64; x64) AppleWebKit/537.36 (KHTML, like Gecko) Chrome/138.0.0.0 Safari/537.36","WebKit","Chrome","138.0.0.0","Windows","10.0","https://app.prolific.com/","en-GB,en-US;q=0.9,en;q=0.8,ta;q=0.7","66c5f76d9a214b469f6476c8","686e379bc37a29ffa5cdc956","687760483ac1e062e33ad6bc","1","1","66c5f76d9a214b469f6476c8","1","1","2025-07-16T08:39:40.304Z","","","","","","","","","","","","","","win-only","0","g1:NW,g2:SE","0.9","2","0","335064.6","3336.8","8341.9","27836.4","1","4","8","6","2","8","8","12","4","0.09090909090909091","1039","3000","280","[""down"",""right""]","{""num_key_presses"":6,""num_perfect"":6,""num_errors"":0,""num_randdir"":0,""num_randdir_good_moves"":0,""num_whilered"":0,""num_whileblue"":0,""num_blue"":1,""num_good_moves"":6}","[295.22232142857143,296.12857142857143,0.4,295.22232142857143,296.12857142857143,103.8,295.22232142857143,296.12857142857143,205.2,295.22232142857143,296.12857142857143,305.4,295.22232142857143,296.12857142857143,409.3,313.22232142857143,340.12857142857143,509.8,506.22232142857143,497.12857142857143,614.5,514.2223214285714,500.12857142857143,718.9,514.2223214285714,499.12857142857143,820.2,517.2223214285714,504.12857142857143,924.2,520.2223214285714,508.12857142857143,1024.8,520.2223214285714,508.12857142857143,1126.9,520.2223214285714,508.12857142857143,1229.3,532.2223214285714,503.12857142857143,1329.8,647.2223214285714,458.12857142857143,1430.1,867.2223214285714,298.12857142857143,1534.3,978.2223214285714,204.12857142857143,1634.7,978.2223214285714,169.12857142857143,1739.6,978.2223214285714,169.12857142857143,1844.1,978.2223214285714,169.12857142857143,1945.5,978.2223214285714,169.12857142857143,2049.3,978.2223214285714,169.12857142857143,2149.9,978.2223214285714,169.12857142857143,2254,978.2223214285714,169.12857142857143,2355.4,978.2223214285714,169.12857142857143,2459.3,978.2223214285714,169.12857142857143,2559.8,978.2223214285714,169.12857142857143,2663.7,978.2223214285714,169.12857142857143,2764.5,978.2223214285714,169.12857142857143,2868.8,978.2223214285714,169.12857142857143,2969.7,978.2223214285714,169.12857142857143,3073.7,978.2223214285714,169.12857142857143,3173.8,978.2223214285714,169.12857142857143,3274.6,978.2223214285714,169.12857142857143,3375,978.2223214285714,169.12857142857143,3478.9,978.2223214285714,169.12857142857143,3579.6,978.2223214285714,169.12857142857143,3684.2,978.2223214285714,169.12857142857143,3784.5,978.2223214285714,169.12857142857143,3889.1,978.2223214285714,169.12857142857143,3989.1,978.2223214285714,169.12857142857143,4094.4,978.2223214285714,169.12857142857143,4198.7,978.2223214285714,169.12857142857143,4299,978.2223214285714,169.12857142857143,4404.5,978.2223214285714,169.12857142857143,4509.2,978.2223214285714,169.12857142857143,4614,978.2223214285714,169.12857142857143,4719.5,978.2223214285714,169.12857142857143,4824.2,978.2223214285714,169.12857142857143,4929]","[1535.8,1535.8,1000,0,535.8,""smooth"",""down"",""down"",""good_move"",4604.3,3068.3,2619.1,1536,449.2,""smooth"",""down"",""down"",""good_move"",7245.1,2640.6,2300.4,4604.5,340.2,""smooth"",""right"",""right"",""good_move"",10649,3403.4,2979.4,7245.6,424,""smooth"",""down"",""down"",""good_move"",16567.1,5918,2108.4,13965.4,493.3,""smooth"",""right"",""right"",""good_move"",19403.9,2836.7,2322.1,16567.2,514.6,""smooth"",""right"",""right"",""good_move""]","",""
"3430","","<div style=""width:500px;"">
  <p>What determined the result of this run?</p>
  </div>","89","html-slider-response","15","363150","0.0-5.0-1.1","72","1","2025-07-16 08:31:56","1f75c3e559b7213887762d5229550c2b","49.206.12.249","Mozilla/5.0 (Windows NT 10.0; Win64; x64) AppleWebKit/537.36 (KHTML, like Gecko) Chrome/138.0.0.0 Safari/537.36","WebKit","Chrome","138.0.0.0","Windows","10.0","https://app.prolific.com/","en-GB,en-US;q=0.9,en;q=0.8,ta;q=0.7","66c5f76d9a214b469f6476c8","686e379bc37a29ffa5cdc956","687760483ac1e062e33ad6bc","1","1","66c5f76d9a214b469f6476c8","1","1","2025-07-16T08:39:43.735Z","","","","","","","","","","","AttribQ","","50","","","","","","","","","","","","","","","","","","","","","","","","","","","","",""
"1607","","<div style=""width:500px;"">
  <p>How much control did you have over the ball?</p>
  </div>","92","html-slider-response","16","364758","0.0-5.0-2.1","72","1","2025-07-16 08:31:56","1f75c3e559b7213887762d5229550c2b","49.206.12.249","Mozilla/5.0 (Windows NT 10.0; Win64; x64) AppleWebKit/537.36 (KHTML, like Gecko) Chrome/138.0.0.0 Safari/537.36","WebKit","Chrome","138.0.0.0","Windows","10.0","https://app.prolific.com/","en-GB,en-US;q=0.9,en;q=0.8,ta;q=0.7","66c5f76d9a214b469f6476c8","686e379bc37a29ffa5cdc956","687760483ac1e062e33ad6bc","1","1","66c5f76d9a214b469f6476c8","1","1","2025-07-16T08:39:45.343Z","","","","","","","","","","","ControlQ","","50","","","","","","","","","","","","","","","","","","","","","","","","","","","","",""
"2863","","<div style=""width:500px;"">
  <p>How would you describe your current emotional state?</p>
  </div>","10","html-slider-response","17","367622","0.0-5.0-3.1","72","1","2025-07-16 08:31:56","1f75c3e559b7213887762d5229550c2b","49.206.12.249","Mozilla/5.0 (Windows NT 10.0; Win64; x64) AppleWebKit/537.36 (KHTML, like Gecko) Chrome/138.0.0.0 Safari/537.36","WebKit","Chrome","138.0.0.0","Windows","10.0","https://app.prolific.com/","en-GB,en-US;q=0.9,en;q=0.8,ta;q=0.7","66c5f76d9a214b469f6476c8","686e379bc37a29ffa5cdc956","687760483ac1e062e33ad6bc","1","1","66c5f76d9a214b469f6476c8","1","1","2025-07-16T08:39:48.207Z","","","","","","","","","","","StressQ","","50","","","","","","","","","","","","","","","","","","","","","","","","","","","","",""
"2038","","<div style=""width:500px;"">
  <p>What best describes how you currently feel?</p>
  </div>","89","html-slider-response","18","369662","0.0-5.0-4.1","72","1","2025-07-16 08:31:56","1f75c3e559b7213887762d5229550c2b","49.206.12.249","Mozilla/5.0 (Windows NT 10.0; Win64; x64) AppleWebKit/537.36 (KHTML, like Gecko) Chrome/138.0.0.0 Safari/537.36","WebKit","Chrome","138.0.0.0","Windows","10.0","https://app.prolific.com/","en-GB,en-US;q=0.9,en;q=0.8,ta;q=0.7","66c5f76d9a214b469f6476c8","686e379bc37a29ffa5cdc956","687760483ac1e062e33ad6bc","1","1","66c5f76d9a214b469f6476c8","1","1","2025-07-16T08:39:50.247Z","","","","","","","","","","","MotivationQ","","50","","","","","","","","","","","","","","","","","","","","","","","","","","","","",""
"","","","","ctl-task-cpt","19","400305","0.0-5.0-0.2","72","1","2025-07-16 08:31:56","1f75c3e559b7213887762d5229550c2b","49.206.12.249","Mozilla/5.0 (Windows NT 10.0; Win64; x64) AppleWebKit/537.36 (KHTML, like Gecko) Chrome/138.0.0.0 Safari/537.36","WebKit","Chrome","138.0.0.0","Windows","10.0","https://app.prolific.com/","en-GB,en-US;q=0.9,en;q=0.8,ta;q=0.7","66c5f76d9a214b469f6476c8","686e379bc37a29ffa5cdc956","687760483ac1e062e33ad6bc","1","1","66c5f76d9a214b469f6476c8","1","1","2025-07-16T08:40:20.890Z","","","","","","","","","","","","","","win-only","1","g1:NE,g2:SW","0.8","3","0","375864.9","1063.6","6067","27632.1","1","4","8","6","2","-8","-8","4","12","0.030303030303030304","808.5","3000","-2685","[""down"",""left""]","{""num_key_presses"":7,""num_perfect"":5,""num_errors"":0,""num_randdir"":2,""num_randdir_good_moves"":1,""num_whilered"":0,""num_whileblue"":0,""num_blue"":0,""num_good_moves"":6}","[295.22232142857143,297.12857142857143,0.2,295.22232142857143,297.12857142857143,102.3,295.22232142857143,297.12857142857143,203.2,295.22232142857143,297.12857142857143,308.3,254.22232142857143,357.12857142857143,412.1,92.22232142857143,506.12857142857143,512.9,88.22232142857143,521.1285714285714,618.2,77.22232142857143,545.1285714285714,718.2,69.22232142857143,551.1285714285714,828,69.22232142857143,551.1285714285714,932.1,107.22232142857143,529.1285714285714,1032.7,505.22232142857143,395.12857142857143,1138.4,701.2223214285714,334.12857142857143,1244,715.2223214285714,317.12857142857143,1344.2,728.2223214285714,294.12857142857143,1444.2,728.2223214285714,294.12857142857143,1547.9,728.2223214285714,294.12857142857143,1652.2,728.2223214285714,294.12857142857143,1759.9,728.2223214285714,294.12857142857143,1860.2,728.2223214285714,294.12857142857143,1960.6,728.2223214285714,294.12857142857143,2062.7,728.2223214285714,294.12857142857143,2163.6,728.2223214285714,294.12857142857143,2266.8,728.2223214285714,294.12857142857143,2366.8,728.2223214285714,294.12857142857143,2468.2,728.2223214285714,294.12857142857143,2577.1,728.2223214285714,294.12857142857143,2677.4,728.2223214285714,294.12857142857143,2782.4,728.2223214285714,294.12857142857143,2882.4,728.2223214285714,294.12857142857143,2982.5,728.2223214285714,294.12857142857143,3082.5,728.2223214285714,294.12857142857143,3182.6,728.2223214285714,294.12857142857143,3287.5,728.2223214285714,294.12857142857143,3388.1,728.2223214285714,294.12857142857143,3488.2,728.2223214285714,294.12857142857143,3593.7,728.2223214285714,294.12857142857143,3693.8,728.2223214285714,294.12857142857143,3797.7,728.2223214285714,294.12857142857143,3903.5,728.2223214285714,294.12857142857143,4010.6,728.2223214285714,294.12857142857143,4111.8,728.2223214285714,294.12857142857143,4212.3,728.2223214285714,294.12857142857143,4317.1,728.2223214285714,294.12857142857143,4418.8,728.2223214285714,294.12857142857143,4527.2,728.2223214285714,294.12857142857143,4632.3,728.2223214285714,294.12857142857143,4738.3,728.2223214285714,294.12857142857143,4842.6,728.2223214285714,294.12857142857143,4943.6]","[1482.9,1482.9,1000,0,482.9,""smooth"",""down"",""down"",""good_move"",4690.1,3207,2752.9,1483.1,454.1,""smooth"",""down"",""down"",""good_move"",8058.1,3367.9,2973.9,4690.2,394,""oops"",""down"",""down"",""good_move"",10973.3,2915.1,2368.9,8058.2,546.2,""oops"",""left"",""right"",""bad_move"",13897.8,2924.3,2483.1,10973.5,441.2,""smooth"",""left"",""left"",""good_move"",16306.7,2408.7,1970.5,13898,438.2,""smooth"",""left"",""left"",""good_move"",19090.5,2783.5,2414.8,16307,368.7,""smooth"",""left"",""left"",""good_move""]","",""
"3844","","<div style=""width:500px;"">
  <p>What determined the result of this run?</p>
  </div>","14","html-slider-response","20","404150","0.0-5.0-1.2","72","1","2025-07-16 08:31:56","1f75c3e559b7213887762d5229550c2b","49.206.12.249","Mozilla/5.0 (Windows NT 10.0; Win64; x64) AppleWebKit/537.36 (KHTML, like Gecko) Chrome/138.0.0.0 Safari/537.36","WebKit","Chrome","138.0.0.0","Windows","10.0","https://app.prolific.com/","en-GB,en-US;q=0.9,en;q=0.8,ta;q=0.7","66c5f76d9a214b469f6476c8","686e379bc37a29ffa5cdc956","687760483ac1e062e33ad6bc","1","1","66c5f76d9a214b469f6476c8","1","1","2025-07-16T08:40:24.735Z","","","","","","","","","","","AttribQ","","50","","","","","","","","","","","","","","","","","","","","","","","","","","","","",""
"3518","","<div style=""width:500px;"">
  <p>How much control did you have over the ball?</p>
  </div>","18","html-slider-response","21","407669","0.0-5.0-2.2","72","1","2025-07-16 08:31:56","1f75c3e559b7213887762d5229550c2b","49.206.12.249","Mozilla/5.0 (Windows NT 10.0; Win64; x64) AppleWebKit/537.36 (KHTML, like Gecko) Chrome/138.0.0.0 Safari/537.36","WebKit","Chrome","138.0.0.0","Windows","10.0","https://app.prolific.com/","en-GB,en-US;q=0.9,en;q=0.8,ta;q=0.7","66c5f76d9a214b469f6476c8","686e379bc37a29ffa5cdc956","687760483ac1e062e33ad6bc","1","1","66c5f76d9a214b469f6476c8","1","1","2025-07-16T08:40:28.255Z","","","","","","","","","","","ControlQ","","50","","","","","","","","","","","","","","","","","","","","","","","","","","","","",""
"2695","","<div style=""width:500px;"">
  <p>How would you describe your current emotional state?</p>
  </div>","93","html-slider-response","22","410366","0.0-5.0-3.2","72","1","2025-07-16 08:31:56","1f75c3e559b7213887762d5229550c2b","49.206.12.249","Mozilla/5.0 (Windows NT 10.0; Win64; x64) AppleWebKit/537.36 (KHTML, like Gecko) Chrome/138.0.0.0 Safari/537.36","WebKit","Chrome","138.0.0.0","Windows","10.0","https://app.prolific.com/","en-GB,en-US;q=0.9,en;q=0.8,ta;q=0.7","66c5f76d9a214b469f6476c8","686e379bc37a29ffa5cdc956","687760483ac1e062e33ad6bc","1","1","66c5f76d9a214b469f6476c8","1","1","2025-07-16T08:40:30.951Z","","","","","","","","","","","StressQ","","50","","","","","","","","","","","","","","","","","","","","","","","","","","","","",""
"3159","","<div style=""width:500px;"">
  <p>What best describes how you currently feel?</p>
  </div>","18","html-slider-response","23","413526","0.0-5.0-4.2","72","1","2025-07-16 08:31:56","1f75c3e559b7213887762d5229550c2b","49.206.12.249","Mozilla/5.0 (Windows NT 10.0; Win64; x64) AppleWebKit/537.36 (KHTML, like Gecko) Chrome/138.0.0.0 Safari/537.36","WebKit","Chrome","138.0.0.0","Windows","10.0","https://app.prolific.com/","en-GB,en-US;q=0.9,en;q=0.8,ta;q=0.7","66c5f76d9a214b469f6476c8","686e379bc37a29ffa5cdc956","687760483ac1e062e33ad6bc","1","1","66c5f76d9a214b469f6476c8","1","1","2025-07-16T08:40:34.111Z","","","","","","","","","","","MotivationQ","","50","","","","","","","","","","","","","","","","","","","","","","","","","","","","",""
"","","","","ctl-task-cpt","24","441185","0.0-5.0-0.3","72","1","2025-07-16 08:31:56","1f75c3e559b7213887762d5229550c2b","49.206.12.249","Mozilla/5.0 (Windows NT 10.0; Win64; x64) AppleWebKit/537.36 (KHTML, like Gecko) Chrome/138.0.0.0 Safari/537.36","WebKit","Chrome","138.0.0.0","Windows","10.0","https://app.prolific.com/","en-GB,en-US;q=0.9,en;q=0.8,ta;q=0.7","66c5f76d9a214b469f6476c8","686e379bc37a29ffa5cdc956","687760483ac1e062e33ad6bc","1","1","66c5f76d9a214b469f6476c8","1","1","2025-07-16T08:41:01.770Z","","","","","","","","","","","","","","win-only","1","g1:NE,g2:SW","0.7","4","0","419729.2","1040.3","6045.4","24640.7","1","4","4","6","2","4","4","8","4","0.06060606060606061","850.3","3000","75","[""down"",""left""]","{""num_key_presses"":6,""num_perfect"":5,""num_errors"":0,""num_randdir"":1,""num_randdir_good_moves"":1,""num_whilered"":0,""num_whileblue"":0,""num_blue"":1,""num_good_moves"":6}","[301.22232142857143,293.12857142857143,0.2,301.22232142857143,293.12857142857143,102.4,301.22232142857143,293.12857142857143,205.6,301.22232142857143,293.12857142857143,305.7,284.22232142857143,303.12857142857143,410.3,123.22232142857143,450.12857142857143,515.7,90.22232142857143,486.12857142857143,615.8,77.22232142857143,515.1285714285714,717.4,54.222321428571426,549.1285714285714,820.3,54.222321428571426,549.1285714285714,929.7,71.22232142857143,538.1285714285714,1031.1,321.22232142857143,394.12857142857143,1131.3,835.2223214285714,205.12857142857143,1235.6,857.2223214285714,186.12857142857143,1335.6,857.2223214285714,186.12857142857143,1436.1,857.2223214285714,186.12857142857143,1537.1,857.2223214285714,186.12857142857143,1640,857.2223214285714,186.12857142857143,1740.2,857.2223214285714,186.12857142857143,1840.5,857.2223214285714,186.12857142857143,1940.8,857.2223214285714,186.12857142857143,2045.7,857.2223214285714,186.12857142857143,2145.7,857.2223214285714,186.12857142857143,2250.1,857.2223214285714,186.12857142857143,2350.1,857.2223214285714,186.12857142857143,2451,857.2223214285714,186.12857142857143,2555.8,857.2223214285714,186.12857142857143,2661,857.2223214285714,186.12857142857143,2765.1,857.2223214285714,186.12857142857143,2870.8,857.2223214285714,186.12857142857143,2971.7,857.2223214285714,186.12857142857143,3076.5,857.2223214285714,186.12857142857143,3180.2,857.2223214285714,186.12857142857143,3281.2,857.2223214285714,186.12857142857143,3386.3,857.2223214285714,186.12857142857143,3491.6,857.2223214285714,186.12857142857143,3595.9,857.2223214285714,186.12857142857143,3700,857.2223214285714,186.12857142857143,3800.5,857.2223214285714,186.12857142857143,3900.9,857.2223214285714,186.12857142857143,4001.6,857.2223214285714,186.12857142857143,4106,857.2223214285714,186.12857142857143,4210.4,857.2223214285714,186.12857142857143,4311.8,857.2223214285714,186.12857142857143,4415.5,857.2223214285714,186.12857142857143,4521.1,857.2223214285714,186.12857142857143,4621.5,857.2223214285714,186.12857142857143,4725.2,857.2223214285714,186.12857142857143,4830.4,857.2223214285714,186.12857142857143,4936.2]","[1404,1404,1000,0,404,""smooth"",""down"",""down"",""good_move"",4237.2,2833,2409.7,1404.2,423.3,""smooth"",""down"",""down"",""good_move"",9760.1,5522.8,1810.4,7481.6,468.1,""oops"",""down"",""left"",""good_move"",12583,2822.6,2268.2,9760.4,554.4,""smooth"",""down"",""down"",""good_move"",15580.7,2997.6,2294.1,12583.1,703.5,""smooth"",""left"",""left"",""good_move"",18506.4,2925.2,2502,15581.2,423.2,""smooth"",""left"",""left"",""good_move""]","",""
"5532","","<div style=""width:500px;"">
  <p>What determined the result of this run?</p>
  </div>","85","html-slider-response","25","446718","0.0-5.0-1.3","72","1","2025-07-16 08:31:56","1f75c3e559b7213887762d5229550c2b","49.206.12.249","Mozilla/5.0 (Windows NT 10.0; Win64; x64) AppleWebKit/537.36 (KHTML, like Gecko) Chrome/138.0.0.0 Safari/537.36","WebKit","Chrome","138.0.0.0","Windows","10.0","https://app.prolific.com/","en-GB,en-US;q=0.9,en;q=0.8,ta;q=0.7","66c5f76d9a214b469f6476c8","686e379bc37a29ffa5cdc956","687760483ac1e062e33ad6bc","1","1","66c5f76d9a214b469f6476c8","1","1","2025-07-16T08:41:07.303Z","","","","","","","","","","","AttribQ","","50","","","","","","","","","","","","","","","","","","","","","","","","","","","","",""
"3014","","<div style=""width:500px;"">
  <p>How much control did you have over the ball?</p>
  </div>","75","html-slider-response","26","449734","0.0-5.0-2.3","72","1","2025-07-16 08:31:56","1f75c3e559b7213887762d5229550c2b","49.206.12.249","Mozilla/5.0 (Windows NT 10.0; Win64; x64) AppleWebKit/537.36 (KHTML, like Gecko) Chrome/138.0.0.0 Safari/537.36","WebKit","Chrome","138.0.0.0","Windows","10.0","https://app.prolific.com/","en-GB,en-US;q=0.9,en;q=0.8,ta;q=0.7","66c5f76d9a214b469f6476c8","686e379bc37a29ffa5cdc956","687760483ac1e062e33ad6bc","1","1","66c5f76d9a214b469f6476c8","1","1","2025-07-16T08:41:10.319Z","","","","","","","","","","","ControlQ","","50","","","","","","","","","","","","","","","","","","","","","","","","","","","","",""
"2104","","<div style=""width:500px;"">
  <p>How would you describe your current emotional state?</p>
  </div>","32","html-slider-response","27","451839","0.0-5.0-3.3","72","1","2025-07-16 08:31:56","1f75c3e559b7213887762d5229550c2b","49.206.12.249","Mozilla/5.0 (Windows NT 10.0; Win64; x64) AppleWebKit/537.36 (KHTML, like Gecko) Chrome/138.0.0.0 Safari/537.36","WebKit","Chrome","138.0.0.0","Windows","10.0","https://app.prolific.com/","en-GB,en-US;q=0.9,en;q=0.8,ta;q=0.7","66c5f76d9a214b469f6476c8","686e379bc37a29ffa5cdc956","687760483ac1e062e33ad6bc","1","1","66c5f76d9a214b469f6476c8","1","1","2025-07-16T08:41:12.424Z","","","","","","","","","","","StressQ","","50","","","","","","","","","","","","","","","","","","","","","","","","","","","","",""
"2013","","<div style=""width:500px;"">
  <p>What best describes how you currently feel?</p>
  </div>","74","html-slider-response","28","453854","0.0-5.0-4.3","72","1","2025-07-16 08:31:56","1f75c3e559b7213887762d5229550c2b","49.206.12.249","Mozilla/5.0 (Windows NT 10.0; Win64; x64) AppleWebKit/537.36 (KHTML, like Gecko) Chrome/138.0.0.0 Safari/537.36","WebKit","Chrome","138.0.0.0","Windows","10.0","https://app.prolific.com/","en-GB,en-US;q=0.9,en;q=0.8,ta;q=0.7","66c5f76d9a214b469f6476c8","686e379bc37a29ffa5cdc956","687760483ac1e062e33ad6bc","1","1","66c5f76d9a214b469f6476c8","1","1","2025-07-16T08:41:14.439Z","","","","","","","","","","","MotivationQ","","50","","","","","","","","","","","","","","","","","","","","","","","","","","","","",""
"","","","","ctl-task-cpt","29","491393","0.0-5.0-0.4","72","1","2025-07-16 08:31:56","1f75c3e559b7213887762d5229550c2b","49.206.12.249","Mozilla/5.0 (Windows NT 10.0; Win64; x64) AppleWebKit/537.36 (KHTML, like Gecko) Chrome/138.0.0.0 Safari/537.36","WebKit","Chrome","138.0.0.0","Windows","10.0","https://app.prolific.com/","en-GB,en-US;q=0.9,en;q=0.8,ta;q=0.7","66c5f76d9a214b469f6476c8","686e379bc37a29ffa5cdc956","687760483ac1e062e33ad6bc","1","1","66c5f76d9a214b469f6476c8","1","1","2025-07-16T08:41:51.978Z","","","","","","","","","","","","","","win-only","1","g1:NE,g2:SW","0.6","5","0","460057.1","1103.6","6105.9","34518.3","1","4","4","6","2","-4","-4","4","8","0.030303030303030304","895.3","3000","-2975","[""down"",""left""]","{""num_key_presses"":6,""num_perfect"":3,""num_errors"":0,""num_randdir"":3,""num_randdir_good_moves"":2,""num_whilered"":0,""num_whileblue"":0,""num_blue"":3,""num_good_moves"":5}","[293.22232142857143,301.12857142857143,0.2,293.22232142857143,301.12857142857143,103.9,293.22232142857143,301.12857142857143,208.3,293.22232142857143,301.12857142857143,315.1,259.22232142857143,318.12857142857143,415.6,225.22232142857143,365.12857142857143,518.2,78.22232142857143,498.12857142857143,622.5,85.22232142857143,507.12857142857143,727,84.22232142857143,511.12857142857143,831.9,81.22232142857143,514.1285714285714,932.3,81.22232142857143,514.1285714285714,1036.9,269.22232142857143,437.12857142857143,1137.4,699.2223214285714,341.12857142857143,1242.1,786.2223214285714,320.12857142857143,1349.5,793.2223214285714,317.12857142857143,1452.3,793.2223214285714,317.12857142857143,1552.6,793.2223214285714,317.12857142857143,1657,793.2223214285714,317.12857142857143,1757.1,793.2223214285714,317.12857142857143,1857.6,793.2223214285714,317.12857142857143,1964.3,793.2223214285714,317.12857142857143,2067.7,793.2223214285714,317.12857142857143,2171.8,793.2223214285714,317.12857142857143,2272,793.2223214285714,317.12857142857143,2377.1,793.2223214285714,317.12857142857143,2480.3,793.2223214285714,317.12857142857143,2582.1,793.2223214285714,317.12857142857143,2687.6,793.2223214285714,317.12857142857143,2788.4,793.2223214285714,317.12857142857143,2891.8,793.2223214285714,317.12857142857143,2992.3,793.2223214285714,317.12857142857143,3099.6,793.2223214285714,317.12857142857143,3202.2,793.2223214285714,317.12857142857143,3306.9,793.2223214285714,317.12857142857143,3406.9,793.2223214285714,317.12857142857143,3507.6,793.2223214285714,317.12857142857143,3612.8,793.2223214285714,317.12857142857143,3714.2,793.2223214285714,317.12857142857143,3815.3,793.2223214285714,317.12857142857143,3917.5,793.2223214285714,317.12857142857143,4022.4,793.2223214285714,317.12857142857143,4122.5,793.2223214285714,317.12857142857143,4222.5,793.2223214285714,317.12857142857143,4326.9,793.2223214285714,317.12857142857143,4427,793.2223214285714,317.12857142857143,4532,793.2223214285714,317.12857142857143,4632.5,793.2223214285714,317.12857142857143,4738.6,793.2223214285714,317.12857142857143,4843.5,793.2223214285714,317.12857142857143,4950.2]","[1458.2,1458.2,1000,0,458.2,""smooth"",""down"",""down"",""good_move"",3845.7,2387.1,1993.2,1458.6,393.9,""smooth"",""down"",""down"",""good_move"",10778.4,6932.5,3155.9,7164.8,457.7,""oops"",""down"",""down"",""good_move"",13281.5,2503,2045,10778.5,458,""smooth"",""left"",""left"",""good_move"",23131,9849.3,2668.3,20070,392.7,""oops"",""left"",""right"",""bad_move"",26422.6,3291.4,2597.6,23131.2,693.8,""oops"",""left"",""left"",""good_move""]","",""
"3195","","<div style=""width:500px;"">
  <p>What determined the result of this run?</p>
  </div>","1","html-slider-response","30","494590","0.0-5.0-1.4","72","1","2025-07-16 08:31:56","1f75c3e559b7213887762d5229550c2b","49.206.12.249","Mozilla/5.0 (Windows NT 10.0; Win64; x64) AppleWebKit/537.36 (KHTML, like Gecko) Chrome/138.0.0.0 Safari/537.36","WebKit","Chrome","138.0.0.0","Windows","10.0","https://app.prolific.com/","en-GB,en-US;q=0.9,en;q=0.8,ta;q=0.7","66c5f76d9a214b469f6476c8","686e379bc37a29ffa5cdc956","687760483ac1e062e33ad6bc","1","1","66c5f76d9a214b469f6476c8","1","1","2025-07-16T08:41:55.175Z","","","","","","","","","","","AttribQ","","50","","","","","","","","","","","","","","","","","","","","","","","","","","","","",""
"3086","","<div style=""width:500px;"">
  <p>How much control did you have over the ball?</p>
  </div>","3","html-slider-response","31","497678","0.0-5.0-2.4","72","1","2025-07-16 08:31:56","1f75c3e559b7213887762d5229550c2b","49.206.12.249","Mozilla/5.0 (Windows NT 10.0; Win64; x64) AppleWebKit/537.36 (KHTML, like Gecko) Chrome/138.0.0.0 Safari/537.36","WebKit","Chrome","138.0.0.0","Windows","10.0","https://app.prolific.com/","en-GB,en-US;q=0.9,en;q=0.8,ta;q=0.7","66c5f76d9a214b469f6476c8","686e379bc37a29ffa5cdc956","687760483ac1e062e33ad6bc","1","1","66c5f76d9a214b469f6476c8","1","1","2025-07-16T08:41:58.263Z","","","","","","","","","","","ControlQ","","50","","","","","","","","","","","","","","","","","","","","","","","","","","","","",""
"3303","","<div style=""width:500px;"">
  <p>How would you describe your current emotional state?</p>
  </div>","98","html-slider-response","32","500982","0.0-5.0-3.4","72","1","2025-07-16 08:31:56","1f75c3e559b7213887762d5229550c2b","49.206.12.249","Mozilla/5.0 (Windows NT 10.0; Win64; x64) AppleWebKit/537.36 (KHTML, like Gecko) Chrome/138.0.0.0 Safari/537.36","WebKit","Chrome","138.0.0.0","Windows","10.0","https://app.prolific.com/","en-GB,en-US;q=0.9,en;q=0.8,ta;q=0.7","66c5f76d9a214b469f6476c8","686e379bc37a29ffa5cdc956","687760483ac1e062e33ad6bc","1","1","66c5f76d9a214b469f6476c8","1","1","2025-07-16T08:42:01.567Z","","","","","","","","","","","StressQ","","50","","","","","","","","","","","","","","","","","","","","","","","","","","","","",""
"1941","","<div style=""width:500px;"">
  <p>What best describes how you currently feel?</p>
  </div>","6","html-slider-response","33","502926","0.0-5.0-4.4","72","1","2025-07-16 08:31:56","1f75c3e559b7213887762d5229550c2b","49.206.12.249","Mozilla/5.0 (Windows NT 10.0; Win64; x64) AppleWebKit/537.36 (KHTML, like Gecko) Chrome/138.0.0.0 Safari/537.36","WebKit","Chrome","138.0.0.0","Windows","10.0","https://app.prolific.com/","en-GB,en-US;q=0.9,en;q=0.8,ta;q=0.7","66c5f76d9a214b469f6476c8","686e379bc37a29ffa5cdc956","687760483ac1e062e33ad6bc","1","1","66c5f76d9a214b469f6476c8","1","1","2025-07-16T08:42:03.511Z","","","","","","","","","","","MotivationQ","","50","","","","","","","","","","","","","","","","","","","","","","","","","","","","",""
"","","","","ctl-task-cpt","34","542876","0.0-5.0-0.5","72","1","2025-07-16 08:31:56","1f75c3e559b7213887762d5229550c2b","49.206.12.249","Mozilla/5.0 (Windows NT 10.0; Win64; x64) AppleWebKit/537.36 (KHTML, like Gecko) Chrome/138.0.0.0 Safari/537.36","WebKit","Chrome","138.0.0.0","Windows","10.0","https://app.prolific.com/","en-GB,en-US;q=0.9,en;q=0.8,ta;q=0.7","66c5f76d9a214b469f6476c8","686e379bc37a29ffa5cdc956","687760483ac1e062e33ad6bc","1","1","66c5f76d9a214b469f6476c8","1","1","2025-07-16T08:42:43.461Z","","","","","","","","","","","","","","win-only","3","g1:SW,g2:NE","0.5","6","0","509128.5","983.7","5986.2","36937.1","1","4","8","6","2","-8","-8","0","4","0","872.1","3000","-2800","[""up"",""right""]","{""num_key_presses"":7,""num_perfect"":4,""num_errors"":0,""num_randdir"":3,""num_randdir_good_moves"":1,""num_whilered"":0,""num_whileblue"":0,""num_blue"":2,""num_good_moves"":5}","[301.22232142857143,297.12857142857143,0.1,301.22232142857143,297.12857142857143,101.1,301.22232142857143,297.12857142857143,202,299.22232142857143,297.12857142857143,302.7,319.22232142857143,284.12857142857143,407.2,533.2223214285714,131.12857142857143,507.3,591.2223214285714,-0.8714285714285737,607.3,550.2223214285714,1.1285714285714263,707.5,518.2223214285714,24.128571428571426,808.6,516.2223214285714,28.128571428571426,916.3,516.2223214285714,28.128571428571426,1017.5,529.2223214285714,28.128571428571426,1122.6,825.2223214285714,72.12857142857143,1232.5,978.2223214285714,140.12857142857143,1337.3,978.2223214285714,138.12857142857143,1437.7,978.2223214285714,130.12857142857143,1543.1,978.2223214285714,130.12857142857143,1643.6,978.2223214285714,130.12857142857143,1752.6,978.2223214285714,130.12857142857143,1858,978.2223214285714,130.12857142857143,1962.6,978.2223214285714,130.12857142857143,2063.3,978.2223214285714,130.12857142857143,2169.5,978.2223214285714,130.12857142857143,2272.9,978.2223214285714,130.12857142857143,2379.3,978.2223214285714,130.12857142857143,2482.4,978.2223214285714,130.12857142857143,2587.2,978.2223214285714,130.12857142857143,2687.3,978.2223214285714,130.12857142857143,2795.8,978.2223214285714,130.12857142857143,2897.5,978.2223214285714,130.12857142857143,3002.6,978.2223214285714,130.12857142857143,3106.6,978.2223214285714,130.12857142857143,3206.8,978.2223214285714,130.12857142857143,3307.9,978.2223214285714,130.12857142857143,3418,978.2223214285714,130.12857142857143,3522.4,978.2223214285714,130.12857142857143,3628.8,978.2223214285714,130.12857142857143,3728.8,978.2223214285714,130.12857142857143,3830.1,978.2223214285714,130.12857142857143,3932.8,978.2223214285714,130.12857142857143,4037,978.2223214285714,130.12857142857143,4143.5,978.2223214285714,130.12857142857143,4250.8,978.2223214285714,130.12857142857143,4352.2,978.2223214285714,130.12857142857143,4457,978.2223214285714,130.12857142857143,4565.7,978.2223214285714,130.12857142857143,4667.3,978.2223214285714,130.12857142857143,4767.4,978.2223214285714,130.12857142857143,4867.5,978.2223214285714,130.12857142857143,4968.3]","[1422.3,1422.3,1000,0,422.3,""smooth"",""right"",""right"",""good_move"",4891.7,3469.1,3072.1,1422.6,397,""smooth"",""right"",""right"",""good_move"",16301,11409.1,2949.9,12970.6,380.5,""smooth"",""right"",""right"",""good_move"",20266.2,3964.9,3030.3,16301.3,934.6,""oops"",""up"",""left"",""bad_move"",22487.6,2221.1,1588.4,20266.5,632.7,""oops"",""right"",""up"",""good_move"",25813.2,3325.4,2913.9,22487.8,411.5,""oops"",""up"",""left"",""bad_move"",28866.5,3053.1,2759.4,25813.4,293.7,""smooth"",""right"",""right"",""good_move""]","",""
"24577","","<div style=""width:500px;"">
  <p>What determined the result of this run?</p>
  </div>","11","html-slider-response","35","567454","0.0-5.0-1.5","72","1","2025-07-16 08:31:56","1f75c3e559b7213887762d5229550c2b","49.206.12.249","Mozilla/5.0 (Windows NT 10.0; Win64; x64) AppleWebKit/537.36 (KHTML, like Gecko) Chrome/138.0.0.0 Safari/537.36","WebKit","Chrome","138.0.0.0","Windows","10.0","https://app.prolific.com/","en-GB,en-US;q=0.9,en;q=0.8,ta;q=0.7","66c5f76d9a214b469f6476c8","686e379bc37a29ffa5cdc956","687760483ac1e062e33ad6bc","1","1","66c5f76d9a214b469f6476c8","1","1","2025-07-16T08:43:08.039Z","","","","","","","","","","","AttribQ","","50","","","","","","","","","","","","","","","","","","","","","","","","","","","","",""
"6310","","<div style=""width:500px;"">
  <p>How much control did you have over the ball?</p>
  </div>","10","html-slider-response","36","573766","0.0-5.0-2.5","72","1","2025-07-16 08:31:56","1f75c3e559b7213887762d5229550c2b","49.206.12.249","Mozilla/5.0 (Windows NT 10.0; Win64; x64) AppleWebKit/537.36 (KHTML, like Gecko) Chrome/138.0.0.0 Safari/537.36","WebKit","Chrome","138.0.0.0","Windows","10.0","https://app.prolific.com/","en-GB,en-US;q=0.9,en;q=0.8,ta;q=0.7","66c5f76d9a214b469f6476c8","686e379bc37a29ffa5cdc956","687760483ac1e062e33ad6bc","1","1","66c5f76d9a214b469f6476c8","1","1","2025-07-16T08:43:14.351Z","","","","","","","","","","","ControlQ","","50","","","","","","","","","","","","","","","","","","","","","","","","","","","","",""
"6399","","<div style=""width:500px;"">
  <p>How would you describe your current emotional state?</p>
  </div>","90","html-slider-response","37","580166","0.0-5.0-3.5","72","1","2025-07-16 08:31:56","1f75c3e559b7213887762d5229550c2b","49.206.12.249","Mozilla/5.0 (Windows NT 10.0; Win64; x64) AppleWebKit/537.36 (KHTML, like Gecko) Chrome/138.0.0.0 Safari/537.36","WebKit","Chrome","138.0.0.0","Windows","10.0","https://app.prolific.com/","en-GB,en-US;q=0.9,en;q=0.8,ta;q=0.7","66c5f76d9a214b469f6476c8","686e379bc37a29ffa5cdc956","687760483ac1e062e33ad6bc","1","1","66c5f76d9a214b469f6476c8","1","1","2025-07-16T08:43:20.751Z","","","","","","","","","","","StressQ","","50","","","","","","","","","","","","","","","","","","","","","","","","","","","","",""
"5895","","<div style=""width:500px;"">
  <p>What best describes how you currently feel?</p>
  </div>","12","html-slider-response","38","586062","0.0-5.0-4.5","72","1","2025-07-16 08:31:56","1f75c3e559b7213887762d5229550c2b","49.206.12.249","Mozilla/5.0 (Windows NT 10.0; Win64; x64) AppleWebKit/537.36 (KHTML, like Gecko) Chrome/138.0.0.0 Safari/537.36","WebKit","Chrome","138.0.0.0","Windows","10.0","https://app.prolific.com/","en-GB,en-US;q=0.9,en;q=0.8,ta;q=0.7","66c5f76d9a214b469f6476c8","686e379bc37a29ffa5cdc956","687760483ac1e062e33ad6bc","1","1","66c5f76d9a214b469f6476c8","1","1","2025-07-16T08:43:26.647Z","","","","","","","","","","","MotivationQ","","50","","","","","","","","","","","","","","","","","","","","","","","","","","","","",""
"","","","","ctl-task-cpt","39","619199","0.0-5.0-0.6","72","1","2025-07-16 08:31:56","1f75c3e559b7213887762d5229550c2b","49.206.12.249","Mozilla/5.0 (Windows NT 10.0; Win64; x64) AppleWebKit/537.36 (KHTML, like Gecko) Chrome/138.0.0.0 Safari/537.36","WebKit","Chrome","138.0.0.0","Windows","10.0","https://app.prolific.com/","en-GB,en-US;q=0.9,en;q=0.8,ta;q=0.7","66c5f76d9a214b469f6476c8","686e379bc37a29ffa5cdc956","687760483ac1e062e33ad6bc","1","1","66c5f76d9a214b469f6476c8","1","1","2025-07-16T08:43:59.784Z","","","","","","","","","","","","","","win-only","3","g1:SW,g2:NE","0.4","7","0","592265.6","5288.9","10290.8","30115.6","1","4","8","6","2","8","8","8","0","0.06060606060606061","1021.6","3000","1005","[""up"",""right""]","{""num_key_presses"":6,""num_perfect"":4,""num_errors"":0,""num_randdir"":2,""num_randdir_good_moves"":2,""num_whilered"":0,""num_whileblue"":0,""num_blue"":1,""num_good_moves"":6}","[288.22232142857143,292.12857142857143,0.2,288.22232142857143,292.12857142857143,115.3,288.22232142857143,292.12857142857143,216.7,288.22232142857143,292.12857142857143,317.5,288.22232142857143,292.12857142857143,424.5,288.22232142857143,292.12857142857143,526,311.22232142857143,286.12857142857143,627.9,573.2223214285714,106.12857142857143,732.9,597.2223214285714,57.128571428571426,838,562.2223214285714,71.12857142857143,941.8,551.2223214285714,71.12857142857143,1049.6,551.2223214285714,71.12857142857143,1156.6,569.2223214285714,71.12857142857143,1262.1,711.2223214285714,81.12857142857143,1364,939.2223214285714,65.12857142857143,1467.1,978.2223214285714,39.128571428571426,1567.7,978.2223214285714,39.128571428571426,1667.7,978.2223214285714,39.128571428571426,1773.3,978.2223214285714,39.128571428571426,1877.4,978.2223214285714,39.128571428571426,1981.6,978.2223214285714,39.128571428571426,2088.4,978.2223214285714,39.128571428571426,2192,978.2223214285714,39.128571428571426,2293.2,978.2223214285714,39.128571428571426,2396.2,978.2223214285714,39.128571428571426,2496.8,978.2223214285714,39.128571428571426,2596.9,978.2223214285714,39.128571428571426,2697.1,978.2223214285714,39.128571428571426,2802.4,978.2223214285714,39.128571428571426,2905.6,978.2223214285714,39.128571428571426,3007,978.2223214285714,39.128571428571426,3110.7,978.2223214285714,39.128571428571426,3211.8,978.2223214285714,39.128571428571426,3316.7,978.2223214285714,39.128571428571426,3423.9,978.2223214285714,39.128571428571426,3527.5,978.2223214285714,39.128571428571426,3627.6,978.2223214285714,39.128571428571426,3731.7,978.2223214285714,39.128571428571426,3833.2,978.2223214285714,39.128571428571426,3938.4,978.2223214285714,39.128571428571426,4043.3,978.2223214285714,39.128571428571426,4146.4,978.2223214285714,39.128571428571426,4246.4,978.2223214285714,39.128571428571426,4346.5,978.2223214285714,39.128571428571426,4447.2,978.2223214285714,39.128571428571426,4551.6,978.2223214285714,39.128571428571426,4656.5,978.2223214285714,39.128571428571426,4762,978.2223214285714,39.128571428571426,4862.2,978.2223214285714,39.128571428571426,4967.3]","[1402.7,1402.7,1000,0,402.7,""smooth"",""right"",""right"",""good_move"",7930.6,6527.2,2727.2,4844.9,358.5,""smooth"",""right"",""right"",""good_move"",11239.3,3308.6,2970.7,7930.7,337.9,""oops"",""right"",""right"",""good_move"",14043.7,2804.1,2359.8,11239.6,444.3,""smooth"",""up"",""up"",""good_move"",17342.4,3298.4,2899,14044,399.4,""oops"",""up"",""up"",""good_move"",19716.9,2374.3,1953.2,17342.6,421.1,""smooth"",""up"",""up"",""good_move""]","",""
"1709","","<div style=""width:500px;"">
  <p>What determined the result of this run?</p>
  </div>","92","html-slider-response","40","620910","0.0-5.0-1.6","72","1","2025-07-16 08:31:56","1f75c3e559b7213887762d5229550c2b","49.206.12.249","Mozilla/5.0 (Windows NT 10.0; Win64; x64) AppleWebKit/537.36 (KHTML, like Gecko) Chrome/138.0.0.0 Safari/537.36","WebKit","Chrome","138.0.0.0","Windows","10.0","https://app.prolific.com/","en-GB,en-US;q=0.9,en;q=0.8,ta;q=0.7","66c5f76d9a214b469f6476c8","686e379bc37a29ffa5cdc956","687760483ac1e062e33ad6bc","1","1","66c5f76d9a214b469f6476c8","1","1","2025-07-16T08:44:01.495Z","","","","","","","","","","","AttribQ","","50","","","","","","","","","","","","","","","","","","","","","","","","","","","","",""
"1183","","<div style=""width:500px;"">
  <p>How much control did you have over the ball?</p>
  </div>","87","html-slider-response","41","622094","0.0-5.0-2.6","72","1","2025-07-16 08:31:56","1f75c3e559b7213887762d5229550c2b","49.206.12.249","Mozilla/5.0 (Windows NT 10.0; Win64; x64) AppleWebKit/537.36 (KHTML, like Gecko) Chrome/138.0.0.0 Safari/537.36","WebKit","Chrome","138.0.0.0","Windows","10.0","https://app.prolific.com/","en-GB,en-US;q=0.9,en;q=0.8,ta;q=0.7","66c5f76d9a214b469f6476c8","686e379bc37a29ffa5cdc956","687760483ac1e062e33ad6bc","1","1","66c5f76d9a214b469f6476c8","1","1","2025-07-16T08:44:02.679Z","","","","","","","","","","","ControlQ","","50","","","","","","","","","","","","","","","","","","","","","","","","","","","","",""
"1622","","<div style=""width:500px;"">
  <p>How would you describe your current emotional state?</p>
  </div>","10","html-slider-response","42","623717","0.0-5.0-3.6","72","1","2025-07-16 08:31:56","1f75c3e559b7213887762d5229550c2b","49.206.12.249","Mozilla/5.0 (Windows NT 10.0; Win64; x64) AppleWebKit/537.36 (KHTML, like Gecko) Chrome/138.0.0.0 Safari/537.36","WebKit","Chrome","138.0.0.0","Windows","10.0","https://app.prolific.com/","en-GB,en-US;q=0.9,en;q=0.8,ta;q=0.7","66c5f76d9a214b469f6476c8","686e379bc37a29ffa5cdc956","687760483ac1e062e33ad6bc","1","1","66c5f76d9a214b469f6476c8","1","1","2025-07-16T08:44:04.302Z","","","","","","","","","","","StressQ","","50","","","","","","","","","","","","","","","","","","","","","","","","","","","","",""
"2336","","<div style=""width:500px;"">
  <p>What best describes how you currently feel?</p>
  </div>","89","html-slider-response","43","626055","0.0-5.0-4.6","72","1","2025-07-16 08:31:56","1f75c3e559b7213887762d5229550c2b","49.206.12.249","Mozilla/5.0 (Windows NT 10.0; Win64; x64) AppleWebKit/537.36 (KHTML, like Gecko) Chrome/138.0.0.0 Safari/537.36","WebKit","Chrome","138.0.0.0","Windows","10.0","https://app.prolific.com/","en-GB,en-US;q=0.9,en;q=0.8,ta;q=0.7","66c5f76d9a214b469f6476c8","686e379bc37a29ffa5cdc956","687760483ac1e062e33ad6bc","1","1","66c5f76d9a214b469f6476c8","1","1","2025-07-16T08:44:06.640Z","","","","","","","","","","","MotivationQ","","50","","","","","","","","","","","","","","","","","","","","","","","","","","","","",""
"","","","","ctl-task-cpt","44","665382","0.0-5.0-0.7","72","1","2025-07-16 08:31:56","1f75c3e559b7213887762d5229550c2b","49.206.12.249","Mozilla/5.0 (Windows NT 10.0; Win64; x64) AppleWebKit/537.36 (KHTML, like Gecko) Chrome/138.0.0.0 Safari/537.36","WebKit","Chrome","138.0.0.0","Windows","10.0","https://app.prolific.com/","en-GB,en-US;q=0.9,en;q=0.8,ta;q=0.7","66c5f76d9a214b469f6476c8","686e379bc37a29ffa5cdc956","687760483ac1e062e33ad6bc","1","1","66c5f76d9a214b469f6476c8","1","1","2025-07-16T08:44:45.967Z","","","","","","","","","","","","","","win-only","3","g1:SW,g2:NE","0.3","8","0","632258.2","766","5773.3","36320.6","1","4","4","6","2","4","4","12","8","0.09090909090909091","1041.1","3000","445","[""up"",""right""]","{""num_key_presses"":6,""num_perfect"":3,""num_errors"":0,""num_randdir"":3,""num_randdir_good_moves"":3,""num_whilered"":0,""num_whileblue"":0,""num_blue"":4,""num_good_moves"":6}","[301.22232142857143,297.12857142857143,0.3,301.22232142857143,297.12857142857143,106,301.22232142857143,297.12857142857143,207.3,287.22232142857143,297.12857142857143,312.7,109.22232142857143,449.12857142857143,414.5,150.22232142857143,453.12857142857143,516.6,344.22232142857143,207.12857142857143,619.8,474.22232142857143,126.12857142857143,723.5,500.22232142857143,99.12857142857143,824.2,518.2223214285714,90.12857142857143,925.4,541.2223214285714,79.12857142857143,1030,541.2223214285714,79.12857142857143,1135.2,545.2223214285714,78.12857142857143,1238.9,717.2223214285714,89.12857142857143,1340,883.2223214285714,101.12857142857143,1440.5,940.2223214285714,103.12857142857143,1545.4,940.2223214285714,103.12857142857143,1650.6,940.2223214285714,103.12857142857143,1757.7,940.2223214285714,103.12857142857143,1857.8,940.2223214285714,103.12857142857143,1959.1,940.2223214285714,103.12857142857143,2059.4,940.2223214285714,103.12857142857143,2159.9,940.2223214285714,103.12857142857143,2265.2,940.2223214285714,103.12857142857143,2369.6,940.2223214285714,103.12857142857143,2472.4,940.2223214285714,103.12857142857143,2574.5,940.2223214285714,103.12857142857143,2679.7,940.2223214285714,103.12857142857143,2781.1,940.2223214285714,103.12857142857143,2888.6,940.2223214285714,103.12857142857143,2990.1,940.2223214285714,103.12857142857143,3095.1,940.2223214285714,103.12857142857143,3195.1,940.2223214285714,103.12857142857143,3301.6,940.2223214285714,103.12857142857143,3408.1,940.2223214285714,103.12857142857143,3510.3,940.2223214285714,103.12857142857143,3614.5,940.2223214285714,103.12857142857143,3716,940.2223214285714,103.12857142857143,3824.4,940.2223214285714,103.12857142857143,3924.7,940.2223214285714,103.12857142857143,4027.8,940.2223214285714,103.12857142857143,4129.5,940.2223214285714,103.12857142857143,4231.6,940.2223214285714,103.12857142857143,4337,940.2223214285714,103.12857142857143,4439.3,940.2223214285714,103.12857142857143,4539.7,940.2223214285714,103.12857142857143,4640,940.2223214285714,103.12857142857143,4740.5,940.2223214285714,103.12857142857143,4844.3,940.2223214285714,103.12857142857143,4944.3]","[8659.1,8659.1,2705.6,5517.9,435.6,""oops"",""right"",""right"",""good_move"",15091.4,6432,2364.5,12207.5,519.4,""oops"",""right"",""up"",""good_move"",17967.3,2875.2,2479.5,15092.1,395.7,""smooth"",""right"",""right"",""good_move"",21040.5,3073.1,2438.8,17967.4,634.3,""smooth"",""right"",""right"",""good_move"",27376.5,6335.8,2543.6,24453.3,379.6,""oops"",""up"",""up"",""good_move"",30450.6,3073.9,2691.5,27376.7,382.4,""smooth"",""up"",""up"",""good_move""]","",""
"2383","","<div style=""width:500px;"">
  <p>What determined the result of this run?</p>
  </div>","94","html-slider-response","45","667767","0.0-5.0-1.7","72","1","2025-07-16 08:31:56","1f75c3e559b7213887762d5229550c2b","49.206.12.249","Mozilla/5.0 (Windows NT 10.0; Win64; x64) AppleWebKit/537.36 (KHTML, like Gecko) Chrome/138.0.0.0 Safari/537.36","WebKit","Chrome","138.0.0.0","Windows","10.0","https://app.prolific.com/","en-GB,en-US;q=0.9,en;q=0.8,ta;q=0.7","66c5f76d9a214b469f6476c8","686e379bc37a29ffa5cdc956","687760483ac1e062e33ad6bc","1","1","66c5f76d9a214b469f6476c8","1","1","2025-07-16T08:44:48.352Z","","","","","","","","","","","AttribQ","","50","","","","","","","","","","","","","","","","","","","","","","","","","","","","",""
"1501","","<div style=""width:500px;"">
  <p>How much control did you have over the ball?</p>
  </div>","92","html-slider-response","46","669270","0.0-5.0-2.7","72","1","2025-07-16 08:31:56","1f75c3e559b7213887762d5229550c2b","49.206.12.249","Mozilla/5.0 (Windows NT 10.0; Win64; x64) AppleWebKit/537.36 (KHTML, like Gecko) Chrome/138.0.0.0 Safari/537.36","WebKit","Chrome","138.0.0.0","Windows","10.0","https://app.prolific.com/","en-GB,en-US;q=0.9,en;q=0.8,ta;q=0.7","66c5f76d9a214b469f6476c8","686e379bc37a29ffa5cdc956","687760483ac1e062e33ad6bc","1","1","66c5f76d9a214b469f6476c8","1","1","2025-07-16T08:44:49.855Z","","","","","","","","","","","ControlQ","","50","","","","","","","","","","","","","","","","","","","","","","","","","","","","",""
"1791","","<div style=""width:500px;"">
  <p>How would you describe your current emotional state?</p>
  </div>","13","html-slider-response","47","671063","0.0-5.0-3.7","72","1","2025-07-16 08:31:56","1f75c3e559b7213887762d5229550c2b","49.206.12.249","Mozilla/5.0 (Windows NT 10.0; Win64; x64) AppleWebKit/537.36 (KHTML, like Gecko) Chrome/138.0.0.0 Safari/537.36","WebKit","Chrome","138.0.0.0","Windows","10.0","https://app.prolific.com/","en-GB,en-US;q=0.9,en;q=0.8,ta;q=0.7","66c5f76d9a214b469f6476c8","686e379bc37a29ffa5cdc956","687760483ac1e062e33ad6bc","1","1","66c5f76d9a214b469f6476c8","1","1","2025-07-16T08:44:51.648Z","","","","","","","","","","","StressQ","","50","","","","","","","","","","","","","","","","","","","","","","","","","","","","",""
"1557","","<div style=""width:500px;"">
  <p>What best describes how you currently feel?</p>
  </div>","96","html-slider-response","48","672622","0.0-5.0-4.7","72","1","2025-07-16 08:31:56","1f75c3e559b7213887762d5229550c2b","49.206.12.249","Mozilla/5.0 (Windows NT 10.0; Win64; x64) AppleWebKit/537.36 (KHTML, like Gecko) Chrome/138.0.0.0 Safari/537.36","WebKit","Chrome","138.0.0.0","Windows","10.0","https://app.prolific.com/","en-GB,en-US;q=0.9,en;q=0.8,ta;q=0.7","66c5f76d9a214b469f6476c8","686e379bc37a29ffa5cdc956","687760483ac1e062e33ad6bc","1","1","66c5f76d9a214b469f6476c8","1","1","2025-07-16T08:44:53.208Z","","","","","","","","","","","MotivationQ","","50","","","","","","","","","","","","","","","","","","","","","","","","","","","","",""
"","","","","ctl-task-cpt","49","708784","0.0-5.0-0.8","72","1","2025-07-16 08:31:56","1f75c3e559b7213887762d5229550c2b","49.206.12.249","Mozilla/5.0 (Windows NT 10.0; Win64; x64) AppleWebKit/537.36 (KHTML, like Gecko) Chrome/138.0.0.0 Safari/537.36","WebKit","Chrome","138.0.0.0","Windows","10.0","https://app.prolific.com/","en-GB,en-US;q=0.9,en;q=0.8,ta;q=0.7","66c5f76d9a214b469f6476c8","686e379bc37a29ffa5cdc956","687760483ac1e062e33ad6bc","1","1","66c5f76d9a214b469f6476c8","1","1","2025-07-16T08:45:29.370Z","","","","","","","","","","","","","","win-only","2","g1:SE,g2:NW","0.2","9","0","678826.6","1213.1","6219.1","33145.3","1","4","4","6","2","-4","-4","8","12","0.06060606060606061","724.2","3000","-2690","[""left"",""up""]","{""num_key_presses"":7,""num_perfect"":2,""num_errors"":0,""num_randdir"":5,""num_randdir_good_moves"":3,""num_whilered"":0,""num_whileblue"":0,""num_blue"":1,""num_good_moves"":5}","[293.22232142857143,291.12857142857143,0.2,293.22232142857143,291.12857142857143,109,293.22232142857143,291.12857142857143,213.4,293.22232142857143,291.12857142857143,317,180.22232142857143,176.12857142857143,427,89.22232142857143,69.12857142857143,528.3,84.22232142857143,68.12857142857143,632.4,78.22232142857143,68.12857142857143,738,79.22232142857143,68.12857142857143,839.7,305.22232142857143,98.12857142857143,942.4,784.2223214285714,164.12857142857143,1045.3,819.2223214285714,169.12857142857143,1147.4,819.2223214285714,169.12857142857143,1247.9,819.2223214285714,169.12857142857143,1360.8,819.2223214285714,169.12857142857143,1461,819.2223214285714,169.12857142857143,1561.3,819.2223214285714,169.12857142857143,1663.2,819.2223214285714,169.12857142857143,1763.3,819.2223214285714,169.12857142857143,1863.8,819.2223214285714,169.12857142857143,1967.7,819.2223214285714,169.12857142857143,2067.9,819.2223214285714,169.12857142857143,2174.5,819.2223214285714,169.12857142857143,2274.8,819.2223214285714,169.12857142857143,2375.3,819.2223214285714,169.12857142857143,2477.6,819.2223214285714,169.12857142857143,2577.8,819.2223214285714,169.12857142857143,2685,819.2223214285714,169.12857142857143,2787.3,819.2223214285714,169.12857142857143,2887.6,819.2223214285714,169.12857142857143,2990.8,819.2223214285714,169.12857142857143,3093,819.2223214285714,169.12857142857143,3193.2,819.2223214285714,169.12857142857143,3293.4,819.2223214285714,169.12857142857143,3398,819.2223214285714,169.12857142857143,3498.1,819.2223214285714,169.12857142857143,3599.2,819.2223214285714,169.12857142857143,3699.4,819.2223214285714,169.12857142857143,3804.4,819.2223214285714,169.12857142857143,3907.8,819.2223214285714,169.12857142857143,4012.5,819.2223214285714,169.12857142857143,4117.2,819.2223214285714,169.12857142857143,4224.9,819.2223214285714,169.12857142857143,4327.2,819.2223214285714,169.12857142857143,4427.5,819.2223214285714,169.12857142857143,4527.5,819.2223214285714,169.12857142857143,4628.5,819.2223214285714,169.12857142857143,4732.2,819.2223214285714,169.12857142857143,4833,819.2223214285714,169.12857142857143,4938.3]","[1427.6,1427.6,1000,0,427.6,""oops"",""left"",""left"",""good_move"",4335.1,2907,2531.2,1428.1,375.8,""oops"",""left"",""up"",""good_move"",7604.2,3268.6,2930.9,4335.6,337.7,""oops"",""left"",""right"",""bad_move"",11268.2,3663.6,3180.2,7604.6,483.4,""oops"",""left"",""left"",""good_move"",17803.8,6535.1,2134.3,15211.3,458.2,""smooth"",""left"",""left"",""good_move"",20804,3000,2443.9,17804,556.1,""smooth"",""left"",""left"",""good_move"",24168.1,3363.9,2598.4,20804.2,765.5,""oops"",""up"",""down"",""bad_move""]","",""
"4453","","<div style=""width:500px;"">
  <p>What determined the result of this run?</p>
  </div>","4","html-slider-response","50","713239","0.0-5.0-1.8","72","1","2025-07-16 08:31:56","1f75c3e559b7213887762d5229550c2b","49.206.12.249","Mozilla/5.0 (Windows NT 10.0; Win64; x64) AppleWebKit/537.36 (KHTML, like Gecko) Chrome/138.0.0.0 Safari/537.36","WebKit","Chrome","138.0.0.0","Windows","10.0","https://app.prolific.com/","en-GB,en-US;q=0.9,en;q=0.8,ta;q=0.7","66c5f76d9a214b469f6476c8","686e379bc37a29ffa5cdc956","687760483ac1e062e33ad6bc","1","1","66c5f76d9a214b469f6476c8","1","1","2025-07-16T08:45:33.824Z","","","","","","","","","","","AttribQ","","50","","","","","","","","","","","","","","","","","","","","","","","","","","","","",""
"5941","","<div style=""width:500px;"">
  <p>How much control did you have over the ball?</p>
  </div>","8","html-slider-response","51","719181","0.0-5.0-2.8","72","1","2025-07-16 08:31:56","1f75c3e559b7213887762d5229550c2b","49.206.12.249","Mozilla/5.0 (Windows NT 10.0; Win64; x64) AppleWebKit/537.36 (KHTML, like Gecko) Chrome/138.0.0.0 Safari/537.36","WebKit","Chrome","138.0.0.0","Windows","10.0","https://app.prolific.com/","en-GB,en-US;q=0.9,en;q=0.8,ta;q=0.7","66c5f76d9a214b469f6476c8","686e379bc37a29ffa5cdc956","687760483ac1e062e33ad6bc","1","1","66c5f76d9a214b469f6476c8","1","1","2025-07-16T08:45:39.766Z","","","","","","","","","","","ControlQ","","50","","","","","","","","","","","","","","","","","","","","","","","","","","","","",""
"6376","","<div style=""width:500px;"">
  <p>How would you describe your current emotional state?</p>
  </div>","94","html-slider-response","52","725558","0.0-5.0-3.8","72","1","2025-07-16 08:31:56","1f75c3e559b7213887762d5229550c2b","49.206.12.249","Mozilla/5.0 (Windows NT 10.0; Win64; x64) AppleWebKit/537.36 (KHTML, like Gecko) Chrome/138.0.0.0 Safari/537.36","WebKit","Chrome","138.0.0.0","Windows","10.0","https://app.prolific.com/","en-GB,en-US;q=0.9,en;q=0.8,ta;q=0.7","66c5f76d9a214b469f6476c8","686e379bc37a29ffa5cdc956","687760483ac1e062e33ad6bc","1","1","66c5f76d9a214b469f6476c8","1","1","2025-07-16T08:45:46.143Z","","","","","","","","","","","StressQ","","50","","","","","","","","","","","","","","","","","","","","","","","","","","","","",""
"20590","","<div style=""width:500px;"">
  <p>What best describes how you currently feel?</p>
  </div>","12","html-slider-response","53","746150","0.0-5.0-4.8","72","1","2025-07-16 08:31:56","1f75c3e559b7213887762d5229550c2b","49.206.12.249","Mozilla/5.0 (Windows NT 10.0; Win64; x64) AppleWebKit/537.36 (KHTML, like Gecko) Chrome/138.0.0.0 Safari/537.36","WebKit","Chrome","138.0.0.0","Windows","10.0","https://app.prolific.com/","en-GB,en-US;q=0.9,en;q=0.8,ta;q=0.7","66c5f76d9a214b469f6476c8","686e379bc37a29ffa5cdc956","687760483ac1e062e33ad6bc","1","1","66c5f76d9a214b469f6476c8","1","1","2025-07-16T08:46:06.736Z","","","","","","","","","","","MotivationQ","","50","","","","","","","","","","","","","","","","","","","","","","","","","","","","",""
"","","","","ctl-task-cpt","54","791656","0.0-5.0-0.9","72","1","2025-07-16 08:31:56","1f75c3e559b7213887762d5229550c2b","49.206.12.249","Mozilla/5.0 (Windows NT 10.0; Win64; x64) AppleWebKit/537.36 (KHTML, like Gecko) Chrome/138.0.0.0 Safari/537.36","WebKit","Chrome","138.0.0.0","Windows","10.0","https://app.prolific.com/","en-GB,en-US;q=0.9,en;q=0.8,ta;q=0.7","66c5f76d9a214b469f6476c8","686e379bc37a29ffa5cdc956","687760483ac1e062e33ad6bc","1","1","66c5f76d9a214b469f6476c8","1","1","2025-07-16T08:46:52.241Z","","","","","","","","","","","","","","win-only","3","g1:SW,g2:NE","0.4","10","0","752354.3","1013.5","6015.2","42485.8","1","4","8","6","2","-8","-9","0","8","0","912.5","3000","-2420","[""up"",""right""]","{""num_key_presses"":10,""num_perfect"":4,""num_errors"":1,""num_randdir"":5,""num_randdir_good_moves"":2,""num_whilered"":0,""num_whileblue"":1,""num_blue"":2,""num_good_moves"":7}","[298.22232142857143,304.12857142857143,0.2,298.22232142857143,304.12857142857143,108.9,298.22232142857143,304.12857142857143,215,298.22232142857143,304.12857142857143,317.8,326.22232142857143,279.12857142857143,419.1,488.22232142857143,120.12857142857143,521.9,505.22232142857143,106.12857142857143,622.6,527.2223214285714,90.12857142857143,730.1,546.2223214285714,70.12857142857143,833.6,546.2223214285714,69.12857142857143,933.6,546.2223214285714,69.12857142857143,1035.7,546.2223214285714,69.12857142857143,1138.1,645.2223214285714,81.12857142857143,1238.7,978.2223214285714,131.12857142857143,1343.7,978.2223214285714,137.12857142857143,1452.8,978.2223214285714,137.12857142857143,1559,978.2223214285714,137.12857142857143,1665.8,978.2223214285714,137.12857142857143,1766.8,978.2223214285714,137.12857142857143,1866.9,978.2223214285714,137.12857142857143,1969,978.2223214285714,137.12857142857143,2074.4,978.2223214285714,137.12857142857143,2184.2,978.2223214285714,137.12857142857143,2287.4,978.2223214285714,137.12857142857143,2388.1,978.2223214285714,137.12857142857143,2492,978.2223214285714,137.12857142857143,2592.5,978.2223214285714,137.12857142857143,2701.3,978.2223214285714,137.12857142857143,2802,978.2223214285714,137.12857142857143,2902.4,978.2223214285714,137.12857142857143,3002.5,978.2223214285714,137.12857142857143,3109.4,978.2223214285714,137.12857142857143,3212.9,978.2223214285714,137.12857142857143,3316.2,978.2223214285714,137.12857142857143,3416.9,978.2223214285714,137.12857142857143,3521.9,978.2223214285714,137.12857142857143,3623.4,978.2223214285714,137.12857142857143,3723.8,978.2223214285714,137.12857142857143,3831.7,978.2223214285714,137.12857142857143,3934.1,978.2223214285714,137.12857142857143,4038.3,978.2223214285714,137.12857142857143,4157.1,978.2223214285714,137.12857142857143,4259,978.2223214285714,137.12857142857143,4363.4,978.2223214285714,137.12857142857143,4463.8,978.2223214285714,137.12857142857143,4567.2,978.2223214285714,137.12857142857143,4672.7,978.2223214285714,137.12857142857143,4778.3,978.2223214285714,137.12857142857143,4879.1,978.2223214285714,137.12857142857143,4984.5]","[1469.1,1469.1,1000,0,469.1,""smooth"",""right"",""right"",""good_move"",4720.4,3251,2914.3,1469.4,336.7,""oops"",""right"",""down"",""bad_move"",7866.7,3145.3,2791.8,4721.4,353.5,""smooth"",""right"",""right"",""good_move"",10465,2598.1,2232.1,7866.9,366,""smooth"",""right"",""right"",""good_move"",13531.2,3065.9,2674.3,10465.3,391.6,""oops"",""up"",""left"",""bad_move"",17190.5,3659.1,3181.2,13531.4,477.9,""oops"",""up"",""up"",""good_move"",23761.3,6570.4,2547.4,20815.2,398.7,""smooth"",""up"",""up"",""good_move"",27023.7,3262.3,2922.2,23761.5,340,""oops"",""up"",""up"",""good_move"",30435.2,3411.1,3063.1,27024.2,347.9,""while_blue"",""right"",""right"",""good_move"",33395.1,2959.6,2482.5,30435.5,477.1,""oops"",""up"",""left"",""bad_move""]","",""
"8156","","<div style=""width:500px;"">
  <p>What determined the result of this run?</p>
  </div>","7","html-slider-response","55","799813","0.0-5.0-1.9","72","1","2025-07-16 08:31:56","1f75c3e559b7213887762d5229550c2b","49.206.12.249","Mozilla/5.0 (Windows NT 10.0; Win64; x64) AppleWebKit/537.36 (KHTML, like Gecko) Chrome/138.0.0.0 Safari/537.36","WebKit","Chrome","138.0.0.0","Windows","10.0","https://app.prolific.com/","en-GB,en-US;q=0.9,en;q=0.8,ta;q=0.7","66c5f76d9a214b469f6476c8","686e379bc37a29ffa5cdc956","687760483ac1e062e33ad6bc","1","1","66c5f76d9a214b469f6476c8","1","1","2025-07-16T08:47:00.399Z","","","","","","","","","","","AttribQ","","50","","","","","","","","","","","","","","","","","","","","","","","","","","","","",""
"2542","","<div style=""width:500px;"">
  <p>How much control did you have over the ball?</p>
  </div>","9","html-slider-response","56","802358","0.0-5.0-2.9","72","1","2025-07-16 08:31:56","1f75c3e559b7213887762d5229550c2b","49.206.12.249","Mozilla/5.0 (Windows NT 10.0; Win64; x64) AppleWebKit/537.36 (KHTML, like Gecko) Chrome/138.0.0.0 Safari/537.36","WebKit","Chrome","138.0.0.0","Windows","10.0","https://app.prolific.com/","en-GB,en-US;q=0.9,en;q=0.8,ta;q=0.7","66c5f76d9a214b469f6476c8","686e379bc37a29ffa5cdc956","687760483ac1e062e33ad6bc","1","1","66c5f76d9a214b469f6476c8","1","1","2025-07-16T08:47:02.943Z","","","","","","","","","","","ControlQ","","50","","","","","","","","","","","","","","","","","","","","","","","","","","","","",""
"2231","","<div style=""width:500px;"">
  <p>How would you describe your current emotional state?</p>
  </div>","92","html-slider-response","57","804590","0.0-5.0-3.9","72","1","2025-07-16 08:31:56","1f75c3e559b7213887762d5229550c2b","49.206.12.249","Mozilla/5.0 (Windows NT 10.0; Win64; x64) AppleWebKit/537.36 (KHTML, like Gecko) Chrome/138.0.0.0 Safari/537.36","WebKit","Chrome","138.0.0.0","Windows","10.0","https://app.prolific.com/","en-GB,en-US;q=0.9,en;q=0.8,ta;q=0.7","66c5f76d9a214b469f6476c8","686e379bc37a29ffa5cdc956","687760483ac1e062e33ad6bc","1","1","66c5f76d9a214b469f6476c8","1","1","2025-07-16T08:47:05.175Z","","","","","","","","","","","StressQ","","50","","","","","","","","","","","","","","","","","","","","","","","","","","","","",""
"1830","","<div style=""width:500px;"">
  <p>What best describes how you currently feel?</p>
  </div>","10","html-slider-response","58","806421","0.0-5.0-4.9","72","1","2025-07-16 08:31:56","1f75c3e559b7213887762d5229550c2b","49.206.12.249","Mozilla/5.0 (Windows NT 10.0; Win64; x64) AppleWebKit/537.36 (KHTML, like Gecko) Chrome/138.0.0.0 Safari/537.36","WebKit","Chrome","138.0.0.0","Windows","10.0","https://app.prolific.com/","en-GB,en-US;q=0.9,en;q=0.8,ta;q=0.7","66c5f76d9a214b469f6476c8","686e379bc37a29ffa5cdc956","687760483ac1e062e33ad6bc","1","1","66c5f76d9a214b469f6476c8","1","1","2025-07-16T08:47:07.006Z","","","","","","","","","","","MotivationQ","","50","","","","","","","","","","","","","","","","","","","","","","","","","","","","",""
"","","","","ctl-task-cpt","59","860897","0.0-5.0-0.10","72","1","2025-07-16 08:31:56","1f75c3e559b7213887762d5229550c2b","49.206.12.249","Mozilla/5.0 (Windows NT 10.0; Win64; x64) AppleWebKit/537.36 (KHTML, like Gecko) Chrome/138.0.0.0 Safari/537.36","WebKit","Chrome","138.0.0.0","Windows","10.0","https://app.prolific.com/","en-GB,en-US;q=0.9,en;q=0.8,ta;q=0.7","66c5f76d9a214b469f6476c8","686e379bc37a29ffa5cdc956","687760483ac1e062e33ad6bc","1","1","66c5f76d9a214b469f6476c8","1","1","2025-07-16T08:48:01.482Z","","","","","","","","","","","","","","win-only","2","g1:SE,g2:NW","0.5","11","0","812624.5","2429.5","7430.7","51456.4","1","4","8","6","2","-8","-8","0","0","0","714.8","3000","-2390","[""left"",""up""]","{""num_key_presses"":10,""num_perfect"":5,""num_errors"":0,""num_randdir"":5,""num_randdir_good_moves"":1,""num_whilered"":0,""num_whileblue"":0,""num_blue"":4,""num_good_moves"":6}","[292.22232142857143,292.12857142857143,0.5,292.22232142857143,292.12857142857143,102.3,292.22232142857143,292.12857142857143,203.9,292.22232142857143,292.12857142857143,307.5,104.22232142857143,85.12857142857143,417.1,80.22232142857143,63.128571428571426,519.7,78.22232142857143,68.12857142857143,621.6,78.22232142857143,68.12857142857143,724.3,78.22232142857143,68.12857142857143,836.8,146.22232142857143,68.12857142857143,943.6,857.2223214285714,159.12857142857143,1046,978.2223214285714,182.12857142857143,1151.7,978.2223214285714,182.12857142857143,1256,978.2223214285714,179.12857142857143,1357.3,978.2223214285714,179.12857142857143,1464.6,978.2223214285714,179.12857142857143,1566.2,978.2223214285714,179.12857142857143,1667.1,978.2223214285714,179.12857142857143,1770.8,978.2223214285714,179.12857142857143,1871.1,978.2223214285714,179.12857142857143,1971.5,978.2223214285714,179.12857142857143,2079.3,978.2223214285714,179.12857142857143,2179.5,978.2223214285714,179.12857142857143,2285.3,978.2223214285714,179.12857142857143,2386.8,978.2223214285714,179.12857142857143,2494.7,978.2223214285714,179.12857142857143,2597.4,978.2223214285714,179.12857142857143,2698,978.2223214285714,179.12857142857143,2801,978.2223214285714,179.12857142857143,2902.7,978.2223214285714,179.12857142857143,3002.8,978.2223214285714,179.12857142857143,3105.5,978.2223214285714,179.12857142857143,3206.9,978.2223214285714,179.12857142857143,3319.1,978.2223214285714,179.12857142857143,3419.3,978.2223214285714,179.12857142857143,3521.1,978.2223214285714,179.12857142857143,3626.4,978.2223214285714,179.12857142857143,3727.5,978.2223214285714,179.12857142857143,3832.7,978.2223214285714,179.12857142857143,3934.7,978.2223214285714,179.12857142857143,4038,978.2223214285714,179.12857142857143,4138.8,978.2223214285714,179.12857142857143,4249.8,978.2223214285714,179.12857142857143,4350.9,978.2223214285714,179.12857142857143,4451.3,978.2223214285714,179.12857142857143,4558.8,978.2223214285714,179.12857142857143,4663.3,978.2223214285714,179.12857142857143,4767.4,978.2223214285714,179.12857142857143,4872,978.2223214285714,179.12857142857143,4980.4]","[1405,1405,1000,0,405,""smooth"",""left"",""left"",""good_move"",3760.1,2354.5,1971.1,1405.6,383.4,""smooth"",""left"",""left"",""good_move"",6200.5,2440,2073.8,3760.5,366.2,""oops"",""left"",""up"",""good_move"",8650,2449.2,2132.6,6200.8,316.6,""oops"",""left"",""right"",""bad_move"",11641.9,2991.4,2611.8,8650.5,379.7,""smooth"",""left"",""left"",""good_move"",14791.2,3148.9,2784.4,11642.4,364.4,""smooth"",""left"",""left"",""good_move"",17856.4,3064.7,2681.3,14791.7,383.4,""oops"",""up"",""down"",""bad_move"",24955.7,7099,2820.7,21719.7,415.3,""smooth"",""up"",""up"",""good_move"",34885,9929.1,2171.1,32273.3,440.7,""oops"",""up"",""down"",""bad_move"",41353.7,6468.2,2850.5,38139.8,363.4,""oops"",""up"",""right"",""bad_move""]","",""
"3947","","<div style=""width:500px;"">
  <p>What determined the result of this run?</p>
  </div>","0","html-slider-response","60","864846","0.0-5.0-1.10","72","1","2025-07-16 08:31:56","1f75c3e559b7213887762d5229550c2b","49.206.12.249","Mozilla/5.0 (Windows NT 10.0; Win64; x64) AppleWebKit/537.36 (KHTML, like Gecko) Chrome/138.0.0.0 Safari/537.36","WebKit","Chrome","138.0.0.0","Windows","10.0","https://app.prolific.com/","en-GB,en-US;q=0.9,en;q=0.8,ta;q=0.7","66c5f76d9a214b469f6476c8","686e379bc37a29ffa5cdc956","687760483ac1e062e33ad6bc","1","1","66c5f76d9a214b469f6476c8","1","1","2025-07-16T08:48:05.431Z","","","","","","","","","","","AttribQ","","50","","","","","","","","","","","","","","","","","","","","","","","","","","","","",""
"1790","","<div style=""width:500px;"">
  <p>How much control did you have over the ball?</p>
  </div>","1","html-slider-response","61","866638","0.0-5.0-2.10","72","1","2025-07-16 08:31:56","1f75c3e559b7213887762d5229550c2b","49.206.12.249","Mozilla/5.0 (Windows NT 10.0; Win64; x64) AppleWebKit/537.36 (KHTML, like Gecko) Chrome/138.0.0.0 Safari/537.36","WebKit","Chrome","138.0.0.0","Windows","10.0","https://app.prolific.com/","en-GB,en-US;q=0.9,en;q=0.8,ta;q=0.7","66c5f76d9a214b469f6476c8","686e379bc37a29ffa5cdc956","687760483ac1e062e33ad6bc","1","1","66c5f76d9a214b469f6476c8","1","1","2025-07-16T08:48:07.223Z","","","","","","","","","","","ControlQ","","50","","","","","","","","","","","","","","","","","","","","","","","","","","","","",""
"2181","","<div style=""width:500px;"">
  <p>How would you describe your current emotional state?</p>
  </div>","99","html-slider-response","62","868821","0.0-5.0-3.10","72","1","2025-07-16 08:31:56","1f75c3e559b7213887762d5229550c2b","49.206.12.249","Mozilla/5.0 (Windows NT 10.0; Win64; x64) AppleWebKit/537.36 (KHTML, like Gecko) Chrome/138.0.0.0 Safari/537.36","WebKit","Chrome","138.0.0.0","Windows","10.0","https://app.prolific.com/","en-GB,en-US;q=0.9,en;q=0.8,ta;q=0.7","66c5f76d9a214b469f6476c8","686e379bc37a29ffa5cdc956","687760483ac1e062e33ad6bc","1","1","66c5f76d9a214b469f6476c8","1","1","2025-07-16T08:48:09.407Z","","","","","","","","","","","StressQ","","50","","","","","","","","","","","","","","","","","","","","","","","","","","","","",""
"1607","","<div style=""width:500px;"">
  <p>What best describes how you currently feel?</p>
  </div>","1","html-slider-response","63","870430","0.0-5.0-4.10","72","1","2025-07-16 08:31:56","1f75c3e559b7213887762d5229550c2b","49.206.12.249","Mozilla/5.0 (Windows NT 10.0; Win64; x64) AppleWebKit/537.36 (KHTML, like Gecko) Chrome/138.0.0.0 Safari/537.36","WebKit","Chrome","138.0.0.0","Windows","10.0","https://app.prolific.com/","en-GB,en-US;q=0.9,en;q=0.8,ta;q=0.7","66c5f76d9a214b469f6476c8","686e379bc37a29ffa5cdc956","687760483ac1e062e33ad6bc","1","1","66c5f76d9a214b469f6476c8","1","1","2025-07-16T08:48:11.016Z","","","","","","","","","","","MotivationQ","","50","","","","","","","","","","","","","","","","","","","","","","","","","","","","",""
"","","","","ctl-task-cpt","64","923275","0.0-5.0-0.11","72","1","2025-07-16 08:31:56","1f75c3e559b7213887762d5229550c2b","49.206.12.249","Mozilla/5.0 (Windows NT 10.0; Win64; x64) AppleWebKit/537.36 (KHTML, like Gecko) Chrome/138.0.0.0 Safari/537.36","WebKit","Chrome","138.0.0.0","Windows","10.0","https://app.prolific.com/","en-GB,en-US;q=0.9,en;q=0.8,ta;q=0.7","66c5f76d9a214b469f6476c8","686e379bc37a29ffa5cdc956","687760483ac1e062e33ad6bc","1","1","66c5f76d9a214b469f6476c8","1","1","2025-07-16T08:49:03.860Z","","","","","","","","","","","","","","win-only","0","g1:NW,g2:SE","0.6","12","0","876635.6","971.7","5977.5","49819.2","1","4","4","6","2","-4","-5","0","0","0","767.2","3000","-2075","[""down"",""right""]","{""num_key_presses"":9,""num_perfect"":5,""num_errors"":1,""num_randdir"":3,""num_randdir_good_moves"":1,""num_whilered"":0,""num_whileblue"":1,""num_blue"":6,""num_good_moves"":6}","[297.22232142857143,305.12857142857143,0.1,297.22232142857143,305.12857142857143,102.6,297.22232142857143,305.12857142857143,205.7,297.22232142857143,305.12857142857143,309.5,345.22232142857143,354.12857142857143,413.8,539.2223214285714,504.12857142857143,517,551.2223214285714,514.1285714285714,619.1,543.2223214285714,519.1285714285714,735.9,543.2223214285714,519.1285714285714,844.4,613.2223214285714,483.12857142857143,946.3,978.2223214285714,392.12857142857143,1048.4,978.2223214285714,266.12857142857143,1148.7,978.2223214285714,256.12857142857143,1251.9,978.2223214285714,256.12857142857143,1352,978.2223214285714,256.12857142857143,1453.9,978.2223214285714,256.12857142857143,1554.5,978.2223214285714,256.12857142857143,1654.7,978.2223214285714,256.12857142857143,1754.7,978.2223214285714,256.12857142857143,1862.8,978.2223214285714,256.12857142857143,1964.5,978.2223214285714,256.12857142857143,2070.3,978.2223214285714,256.12857142857143,2177.2,978.2223214285714,256.12857142857143,2285.9,978.2223214285714,256.12857142857143,2389.4,978.2223214285714,256.12857142857143,2489.8,978.2223214285714,256.12857142857143,2603.2,978.2223214285714,256.12857142857143,2703.7,978.2223214285714,256.12857142857143,2804.2,978.2223214285714,256.12857142857143,2913.4,978.2223214285714,256.12857142857143,3014.3,978.2223214285714,256.12857142857143,3114.7,978.2223214285714,256.12857142857143,3216,978.2223214285714,256.12857142857143,3319,978.2223214285714,256.12857142857143,3419.1,978.2223214285714,256.12857142857143,3519.3,978.2223214285714,256.12857142857143,3619.3,978.2223214285714,256.12857142857143,3720.5,978.2223214285714,256.12857142857143,3836,978.2223214285714,256.12857142857143,3936.4,978.2223214285714,256.12857142857143,4036.4,978.2223214285714,256.12857142857143,4151.2,978.2223214285714,256.12857142857143,4252.3,978.2223214285714,256.12857142857143,4353.6,978.2223214285714,256.12857142857143,4454.1,978.2223214285714,256.12857142857143,4563.2,978.2223214285714,256.12857142857143,4666.8,978.2223214285714,256.12857142857143,4770.5,978.2223214285714,256.12857142857143,4872.6,978.2223214285714,256.12857142857143,4975]","[8164.1,8164.1,2433.8,5209,521.3,""smooth"",""down"",""down"",""good_move"",11174,3009.4,2206.2,8164.6,803.2,""oops"",""down"",""right"",""good_move"",14049.3,2874.8,2482.4,11174.5,392.4,""oops"",""down"",""left"",""bad_move"",16596.6,2546.7,2157.3,14049.9,389.4,""smooth"",""down"",""down"",""good_move"",20069,3472.2,3037.4,16596.8,434.8,""smooth"",""right"",""right"",""good_move"",23061.8,2992.2,2530.5,20069.6,461.7,""smooth"",""right"",""right"",""good_move"",25423.8,2361.7,1942.4,23062.2,419.3,""smooth"",""down"",""down"",""good_move"",31911.7,6487.6,2854.1,28655.3,402.3,""oops"",""right"",""up"",""bad_move"",34249.2,2337.2,2056.1,31912,281.1,""while_blue"",""right"",""up"",""bad_move""]","",""
"2459","","<div style=""width:500px;"">
  <p>What determined the result of this run?</p>
  </div>","2","html-slider-response","65","925735","0.0-5.0-1.11","72","1","2025-07-16 08:31:56","1f75c3e559b7213887762d5229550c2b","49.206.12.249","Mozilla/5.0 (Windows NT 10.0; Win64; x64) AppleWebKit/537.36 (KHTML, like Gecko) Chrome/138.0.0.0 Safari/537.36","WebKit","Chrome","138.0.0.0","Windows","10.0","https://app.prolific.com/","en-GB,en-US;q=0.9,en;q=0.8,ta;q=0.7","66c5f76d9a214b469f6476c8","686e379bc37a29ffa5cdc956","687760483ac1e062e33ad6bc","1","1","66c5f76d9a214b469f6476c8","1","1","2025-07-16T08:49:06.320Z","","","","","","","","","","","AttribQ","","50","","","","","","","","","","","","","","","","","","","","","","","","","","","","",""
"1429","","<div style=""width:500px;"">
  <p>How much control did you have over the ball?</p>
  </div>","3","html-slider-response","66","927166","0.0-5.0-2.11","72","1","2025-07-16 08:31:56","1f75c3e559b7213887762d5229550c2b","49.206.12.249","Mozilla/5.0 (Windows NT 10.0; Win64; x64) AppleWebKit/537.36 (KHTML, like Gecko) Chrome/138.0.0.0 Safari/537.36","WebKit","Chrome","138.0.0.0","Windows","10.0","https://app.prolific.com/","en-GB,en-US;q=0.9,en;q=0.8,ta;q=0.7","66c5f76d9a214b469f6476c8","686e379bc37a29ffa5cdc956","687760483ac1e062e33ad6bc","1","1","66c5f76d9a214b469f6476c8","1","1","2025-07-16T08:49:07.751Z","","","","","","","","","","","ControlQ","","50","","","","","","","","","","","","","","","","","","","","","","","","","","","","",""
"1958","","<div style=""width:500px;"">
  <p>How would you describe your current emotional state?</p>
  </div>","100","html-slider-response","67","929125","0.0-5.0-3.11","72","1","2025-07-16 08:31:56","1f75c3e559b7213887762d5229550c2b","49.206.12.249","Mozilla/5.0 (Windows NT 10.0; Win64; x64) AppleWebKit/537.36 (KHTML, like Gecko) Chrome/138.0.0.0 Safari/537.36","WebKit","Chrome","138.0.0.0","Windows","10.0","https://app.prolific.com/","en-GB,en-US;q=0.9,en;q=0.8,ta;q=0.7","66c5f76d9a214b469f6476c8","686e379bc37a29ffa5cdc956","687760483ac1e062e33ad6bc","1","1","66c5f76d9a214b469f6476c8","1","1","2025-07-16T08:49:09.710Z","","","","","","","","","","","StressQ","","50","","","","","","","","","","","","","","","","","","","","","","","","","","","","",""
"1319","","<div style=""width:500px;"">
  <p>What best describes how you currently feel?</p>
  </div>","0","html-slider-response","68","930446","0.0-5.0-4.11","72","1","2025-07-16 08:31:56","1f75c3e559b7213887762d5229550c2b","49.206.12.249","Mozilla/5.0 (Windows NT 10.0; Win64; x64) AppleWebKit/537.36 (KHTML, like Gecko) Chrome/138.0.0.0 Safari/537.36","WebKit","Chrome","138.0.0.0","Windows","10.0","https://app.prolific.com/","en-GB,en-US;q=0.9,en;q=0.8,ta;q=0.7","66c5f76d9a214b469f6476c8","686e379bc37a29ffa5cdc956","687760483ac1e062e33ad6bc","1","1","66c5f76d9a214b469f6476c8","1","1","2025-07-16T08:49:11.031Z","","","","","","","","","","","MotivationQ","","50","","","","","","","","","","","","","","","","","","","","","","","","","","","","",""
"","","","","ctl-task-cpt","69","978496","0.0-5.0-0.12","72","1","2025-07-16 08:31:56","1f75c3e559b7213887762d5229550c2b","49.206.12.249","Mozilla/5.0 (Windows NT 10.0; Win64; x64) AppleWebKit/537.36 (KHTML, like Gecko) Chrome/138.0.0.0 Safari/537.36","WebKit","Chrome","138.0.0.0","Windows","10.0","https://app.prolific.com/","en-GB,en-US;q=0.9,en;q=0.8,ta;q=0.7","66c5f76d9a214b469f6476c8","686e379bc37a29ffa5cdc956","687760483ac1e062e33ad6bc","1","1","66c5f76d9a214b469f6476c8","1","1","2025-07-16T08:49:59.081Z","","","","","","","","","","","","","","win-only","0","g1:NW,g2:SE","0.7","13","0","936648.5","1643.1","6646.7","45031.1","1","4","4","6","2","4","4","4","0","0.030303030303030304","881","3000","905","[""down"",""right""]","{""num_key_presses"":6,""num_perfect"":6,""num_errors"":0,""num_randdir"":0,""num_randdir_good_moves"":0,""num_whilered"":0,""num_whileblue"":0,""num_blue"":6,""num_good_moves"":6}","[298.22232142857143,293.12857142857143,0.1,298.22232142857143,293.12857142857143,106.1,298.22232142857143,294.12857142857143,219.9,285.22232142857143,293.12857142857143,322.3,286.22232142857143,293.12857142857143,422.3,526.2223214285714,482.12857142857143,523,569.2223214285714,507.12857142857143,629.7,555.2223214285714,509.12857142857143,730.3,542.2223214285714,514.1285714285714,830.3,542.2223214285714,514.1285714285714,932.5,542.2223214285714,514.1285714285714,1036.1,615.2223214285714,477.12857142857143,1137.3,978.2223214285714,169.12857142857143,1237.9,978.2223214285714,106.12857142857143,1338.7,978.2223214285714,106.12857142857143,1462.5,978.2223214285714,106.12857142857143,1573.9,978.2223214285714,106.12857142857143,1682.1,978.2223214285714,106.12857142857143,1782.7,978.2223214285714,106.12857142857143,1884.3,978.2223214285714,106.12857142857143,1987.6,978.2223214285714,106.12857142857143,2095.5,978.2223214285714,106.12857142857143,2198,978.2223214285714,106.12857142857143,2298.4,978.2223214285714,106.12857142857143,2398.5,978.2223214285714,106.12857142857143,2498.9,978.2223214285714,106.12857142857143,2599.7,978.2223214285714,106.12857142857143,2703,978.2223214285714,106.12857142857143,2803.7,978.2223214285714,106.12857142857143,2909.2,978.2223214285714,106.12857142857143,3009.5,978.2223214285714,106.12857142857143,3119.1,978.2223214285714,106.12857142857143,3223.1,978.2223214285714,106.12857142857143,3335.8,978.2223214285714,106.12857142857143,3437.8,978.2223214285714,106.12857142857143,3546.1,978.2223214285714,106.12857142857143,3647.3,978.2223214285714,106.12857142857143,3751.9,978.2223214285714,106.12857142857143,3852.8,978.2223214285714,106.12857142857143,3954,978.2223214285714,106.12857142857143,4059.5,978.2223214285714,106.12857142857143,4162.9,978.2223214285714,106.12857142857143,4263.7,978.2223214285714,106.12857142857143,4368.2,978.2223214285714,106.12857142857143,4473.4,978.2223214285714,106.12857142857143,4574.2,978.2223214285714,106.12857142857143,4677.8,978.2223214285714,106.12857142857143,4784.2,978.2223214285714,106.12857142857143,4889.2,978.2223214285714,106.12857142857143,4997.4]","[1508.7,1508.7,1000,0,508.7,""smooth"",""down"",""down"",""good_move"",4983,3473.9,2683.1,1509.1,790.8,""smooth"",""down"",""down"",""good_move"",14396.6,9413.4,1991.5,11910,495.1,""smooth"",""right"",""right"",""good_move"",20746.9,6350,2794.9,17549.3,402.7,""smooth"",""right"",""right"",""good_move"",30889,10142,2387.6,28016.5,484.9,""smooth"",""down"",""down"",""good_move"",38252.6,7362.8,3023.2,34853.5,375.9,""smooth"",""right"",""right"",""good_move""]","",""
"3061","","<div style=""width:500px;"">
  <p>What determined the result of this run?</p>
  </div>","78","html-slider-response","70","981558","0.0-5.0-1.12","72","1","2025-07-16 08:31:56","1f75c3e559b7213887762d5229550c2b","49.206.12.249","Mozilla/5.0 (Windows NT 10.0; Win64; x64) AppleWebKit/537.36 (KHTML, like Gecko) Chrome/138.0.0.0 Safari/537.36","WebKit","Chrome","138.0.0.0","Windows","10.0","https://app.prolific.com/","en-GB,en-US;q=0.9,en;q=0.8,ta;q=0.7","66c5f76d9a214b469f6476c8","686e379bc37a29ffa5cdc956","687760483ac1e062e33ad6bc","1","1","66c5f76d9a214b469f6476c8","1","1","2025-07-16T08:50:02.143Z","","","","","","","","","","","AttribQ","","50","","","","","","","","","","","","","","","","","","","","","","","","","","","","",""
"3038","","<div style=""width:500px;"">
  <p>How much control did you have over the ball?</p>
  </div>","77","html-slider-response","71","984597","0.0-5.0-2.12","72","1","2025-07-16 08:31:56","1f75c3e559b7213887762d5229550c2b","49.206.12.249","Mozilla/5.0 (Windows NT 10.0; Win64; x64) AppleWebKit/537.36 (KHTML, like Gecko) Chrome/138.0.0.0 Safari/537.36","WebKit","Chrome","138.0.0.0","Windows","10.0","https://app.prolific.com/","en-GB,en-US;q=0.9,en;q=0.8,ta;q=0.7","66c5f76d9a214b469f6476c8","686e379bc37a29ffa5cdc956","687760483ac1e062e33ad6bc","1","1","66c5f76d9a214b469f6476c8","1","1","2025-07-16T08:50:05.182Z","","","","","","","","","","","ControlQ","","50","","","","","","","","","","","","","","","","","","","","","","","","","","","","",""
"1504","","<div style=""width:500px;"">
  <p>How would you describe your current emotional state?</p>
  </div>","25","html-slider-response","72","986102","0.0-5.0-3.12","72","1","2025-07-16 08:31:56","1f75c3e559b7213887762d5229550c2b","49.206.12.249","Mozilla/5.0 (Windows NT 10.0; Win64; x64) AppleWebKit/537.36 (KHTML, like Gecko) Chrome/138.0.0.0 Safari/537.36","WebKit","Chrome","138.0.0.0","Windows","10.0","https://app.prolific.com/","en-GB,en-US;q=0.9,en;q=0.8,ta;q=0.7","66c5f76d9a214b469f6476c8","686e379bc37a29ffa5cdc956","687760483ac1e062e33ad6bc","1","1","66c5f76d9a214b469f6476c8","1","1","2025-07-16T08:50:06.687Z","","","","","","","","","","","StressQ","","50","","","","","","","","","","","","","","","","","","","","","","","","","","","","",""
"1967","","<div style=""width:500px;"">
  <p>What best describes how you currently feel?</p>
  </div>","70","html-slider-response","73","988071","0.0-5.0-4.12","72","1","2025-07-16 08:31:56","1f75c3e559b7213887762d5229550c2b","49.206.12.249","Mozilla/5.0 (Windows NT 10.0; Win64; x64) AppleWebKit/537.36 (KHTML, like Gecko) Chrome/138.0.0.0 Safari/537.36","WebKit","Chrome","138.0.0.0","Windows","10.0","https://app.prolific.com/","en-GB,en-US;q=0.9,en;q=0.8,ta;q=0.7","66c5f76d9a214b469f6476c8","686e379bc37a29ffa5cdc956","687760483ac1e062e33ad6bc","1","1","66c5f76d9a214b469f6476c8","1","1","2025-07-16T08:50:08.656Z","","","","","","","","","","","MotivationQ","","50","","","","","","","","","","","","","","","","","","","","","","","","","","","","",""
"","","","","ctl-task-cpt","74","1014908","0.0-5.0-0.13","72","1","2025-07-16 08:31:56","1f75c3e559b7213887762d5229550c2b","49.206.12.249","Mozilla/5.0 (Windows NT 10.0; Win64; x64) AppleWebKit/537.36 (KHTML, like Gecko) Chrome/138.0.0.0 Safari/537.36","WebKit","Chrome","138.0.0.0","Windows","10.0","https://app.prolific.com/","en-GB,en-US;q=0.9,en;q=0.8,ta;q=0.7","66c5f76d9a214b469f6476c8","686e379bc37a29ffa5cdc956","687760483ac1e062e33ad6bc","1","1","66c5f76d9a214b469f6476c8","1","1","2025-07-16T08:50:35.493Z","","","","","","","","","","","","","","win-only","2","g1:SE,g2:NW","0.8","14","0","994274.7","2341.6","7349.2","23804.3","1","4","8","6","2","8","8","12","4","0.09090909090909091","825.3","3000","1555","[""left"",""up""]","{""num_key_presses"":6,""num_perfect"":6,""num_errors"":0,""num_randdir"":0,""num_randdir_good_moves"":0,""num_whilered"":0,""num_whileblue"":0,""num_blue"":0,""num_good_moves"":6}","[295.22232142857143,300.12857142857143,0.2,295.22232142857143,300.12857142857143,103.3,295.22232142857143,300.12857142857143,204.7,295.22232142857143,300.12857142857143,309.4,260.22232142857143,243.12857142857143,411.8,122.22232142857143,142.12857142857143,515,104.22232142857143,109.12857142857143,625.8,67.22232142857143,66.12857142857143,731.2,52.222321428571426,55.128571428571426,841.4,52.222321428571426,55.128571428571426,946.6,368.22232142857143,97.12857142857143,1049.2,978.2223214285714,187.12857142857143,1150.4,978.2223214285714,194.12857142857143,1254,978.2223214285714,194.12857142857143,1364.1,978.2223214285714,194.12857142857143,1464.2,978.2223214285714,194.12857142857143,1566.4,978.2223214285714,194.12857142857143,1674.1,978.2223214285714,194.12857142857143,1774.2,978.2223214285714,194.12857142857143,1874.8,978.2223214285714,194.12857142857143,1980,978.2223214285714,194.12857142857143,2090.7,978.2223214285714,194.12857142857143,2194.4,978.2223214285714,194.12857142857143,2296.2,978.2223214285714,194.12857142857143,2400.4,978.2223214285714,194.12857142857143,2517.1,978.2223214285714,194.12857142857143,2623,978.2223214285714,194.12857142857143,2723.1,978.2223214285714,194.12857142857143,2824,978.2223214285714,194.12857142857143,2930.3,978.2223214285714,194.12857142857143,3039,978.2223214285714,194.12857142857143,3139.1,978.2223214285714,194.12857142857143,3243.4,978.2223214285714,194.12857142857143,3344.6,978.2223214285714,194.12857142857143,3444.9,978.2223214285714,194.12857142857143,3545.9,978.2223214285714,194.12857142857143,3647.9,978.2223214285714,194.12857142857143,3751.9,978.2223214285714,194.12857142857143,3860.7,978.2223214285714,194.12857142857143,3969.7,978.2223214285714,194.12857142857143,4072.6,978.2223214285714,194.12857142857143,4173.2,978.2223214285714,194.12857142857143,4273.9,978.2223214285714,194.12857142857143,4375.4,978.2223214285714,194.12857142857143,4476.1,978.2223214285714,194.12857142857143,4576.8,978.2223214285714,194.12857142857143,4679.5,978.2223214285714,194.12857142857143,4797.4,978.2223214285714,194.12857142857143,4899.9]","[1542.8,1542.8,1000,0,542.8,""smooth"",""left"",""left"",""good_move"",4183.6,2640.6,2258.9,1543,381.7,""smooth"",""left"",""left"",""good_move"",7148.8,2964.9,2634.1,4183.9,330.8,""smooth"",""left"",""left"",""good_move"",9880.6,2731.7,2327,7148.9,404.7,""smooth"",""up"",""up"",""good_move"",13528.2,3647.1,3246.8,9881.1,400.3,""smooth"",""up"",""up"",""good_move"",16249.5,2720.9,2317.1,13528.6,403.8,""smooth"",""up"",""up"",""good_move""]","",""
"3873","","<div style=""width:500px;"">
  <p>What determined the result of this run?</p>
