"rt","response_timestamp","stimulus","response","trial_type","trial_index","time_elapsed","internal_node_id","run_id","condition","recorded_at","source_code_version","ip","user_agent","device","browser","browser_version","platform","platform_version","referer","accept_language","PROLIFIC_PID","STUDY_ID","SESSION_ID","WEEK","BATCH","prolific_id","week","batch","realtime","success","responses","item_order","radio_event_ids","radio_event_times","key_event_times","mouse_event_times","straightlining","zigzagging","honeypot","eventType","view_history","slider_start","which_type","canvas_config","goals_layout","control_level","trial_number","tutorial_trial_number","trial_start_time","phase1_start_time","phase2_start_time","phase3_start_time","goal_1_value","goal_1_distance","goal_2_value","goal_2_distance","goal_selected","outcome","outcome_total","participant_final_score","participant_initial_score","participant_final_score_prop","goal_choice_rt","allocated_time","allocated_time_remaining","goal_direction","counts","mouse_movements","key_presses","question_order","question_id"
"21926","1753252652478","<p style='font-size:40px;line-height:1.25'><strong>Welcome to the experiment!</strong></p><p style='font-size:1.1em;line-height:1.25'>Thank you for participanting in our experiment again! You will be asked to play the Dysfunctional Ball Game again. We will briefly recap the rules before we start.</p><p style='font-size:1.1em;line-height:1.25'>Press <strong>Next</strong> to continue.</p>","0","custom-html-button-response","0","21928","0.0-0.0","155","1","2025-07-23 06:37:04","1f75c3e559b7213887762d5229550c2b","216.120.189.225","Mozilla/5.0 (Windows NT 10.0; Win64; x64) AppleWebKit/537.36 (KHTML, like Gecko) Chrome/138.0.0.0 Safari/537.36","WebKit","Chrome","138.0.0.0","Windows","10.0","https://app.prolific.com/","en-US,en;q=0.9","663b638be7226d4e3fcc255f","683dba2a8a9dda3513610c04","6880823013e66179db00c1ab","3","0","663b638be7226d4e3fcc255f","3","0","2025-07-23T06:37:32.479Z","","","","","","","","","","","","","","","","","","","","","","","","","","","","","","","","","","","","","","","","","",""
"50392","","","","fullscreen","1","73340","0.0-1.0","155","1","2025-07-23 06:37:04","1f75c3e559b7213887762d5229550c2b","216.120.189.225","Mozilla/5.0 (Windows NT 10.0; Win64; x64) AppleWebKit/537.36 (KHTML, like Gecko) Chrome/138.0.0.0 Safari/537.36","WebKit","Chrome","138.0.0.0","Windows","10.0","https://app.prolific.com/","en-US,en;q=0.9","663b638be7226d4e3fcc255f","683dba2a8a9dda3513610c04","6880823013e66179db00c1ab","3","0","663b638be7226d4e3fcc255f","3","0","","true","","","","","","","","","","","","","","","","","","","","","","","","","","","","","","","","","","","","","","","","",""
"6129","1753252710022","<p style='font-size:1.1em;line-height:1.25'>In the following, we will ask you a few questions relating to your feelings in the last 24 hours.<br></p><p style='font-size:1.1em;line-height:1.25'>Press the <strong>Next</strong> button to continue.</p>","0","custom-html-button-response","2","79471","0.0-2.0-0.0","155","1","2025-07-23 06:37:04","1f75c3e559b7213887762d5229550c2b","216.120.189.225","Mozilla/5.0 (Windows NT 10.0; Win64; x64) AppleWebKit/537.36 (KHTML, like Gecko) Chrome/138.0.0.0 Safari/537.36","WebKit","Chrome","138.0.0.0","Windows","10.0","https://app.prolific.com/","en-US,en;q=0.9","663b638be7226d4e3fcc255f","683dba2a8a9dda3513610c04","6880823013e66179db00c1ab","3","0","663b638be7226d4e3fcc255f","3","0","2025-07-23T06:38:30.023Z","","","","","","","","","","","","","","","","","","","","","","","","","","","","","","","","","","","","","","","","","",""
"98393.80000007153","","","","survey-template","3","177880","0.0-2.0-1.0","155","1","2025-07-23 06:37:04","1f75c3e559b7213887762d5229550c2b","216.120.189.225","Mozilla/5.0 (Windows NT 10.0; Win64; x64) AppleWebKit/537.36 (KHTML, like Gecko) Chrome/138.0.0.0 Safari/537.36","WebKit","Chrome","138.0.0.0","Windows","10.0","https://app.prolific.com/","en-US,en;q=0.9","663b638be7226d4e3fcc255f","683dba2a8a9dda3513610c04","6880823013e66179db00c1ab","3","0","663b638be7226d4e3fcc255f","3","0","2025-07-23T06:40:08.431Z","","{""Q01"":""0"",""Q02"":""0"",""Q03"":""0"",""Q04"":""0"",""Q05"":""0"",""Q06"":""0"",""Q07"":""0"",""Q08"":""0"",""Q09"":""0"",""Q10"":""0"",""Q11"":""0"",""Q12"":""0"",""Q13"":""5"",""Q14"":""3"",""Q15"":""0"",""Q16"":""0"",""Q17"":""0"",""Q18"":""0"",""Q19"":""0"",""Q20"":""0"",""Q21"":""0"",""Q22"":""0""}","[0,1,2,3,4,5,6,7,8,9,10,11,12,13,14,15,16,17,18,19,20,21]","[""Q01"",""Q02"",""Q03"",""Q04"",""Q05"",""Q06"",""Q07"",""Q08"",""Q09"",""Q10"",""Q11"",""Q12"",""Q13"",""Q14"",""Q15"",""Q16"",""Q17"",""Q19"",""Q21"",""Q22"",""Q20"",""Q18""]","[3707.5,5273.5,8005.800000071526,10172,12322.200000047684,22556.200000047684,24005.700000047684,26639.600000023842,31222.300000071526,34352.89999997616,38672,40871.60000002384,44689.800000071526,50903.60000002384,57135.800000071526,63038,65770.20000004768,69719.89999997616,78585.89999997616,83070.30000007153,85100,89068.30000007153]","[]","[0.3999999761581421,3707.5,5273.5,6888.399999976158,8005.800000071526,10172,12322.200000047684,17955.800000071526,20403.100000023842,21638.600000023842,22556.200000047684,24005.700000047684,25639.5,26639.600000023842,31222.300000071526,34352.89999997616,38672,39871.700000047684,40871.60000002384,44689.800000071526,50903.60000002384,57135.800000071526,63038,65770.20000004768,67235.30000007153,69719.89999997616,73759.89999997616,78585.89999997616,83070.30000007153,85100,87934.70000004768,89068.30000007153,98384.70000004768]","0.9090909090909091","0.047619047619047616","0","drsp","","","","","","","","","","","","","","","","","","","","","","","","","","","","","","",""
"18533.100000023842","","","","survey-template","4","196417","0.0-2.0-2.0","155","1","2025-07-23 06:37:04","1f75c3e559b7213887762d5229550c2b","216.120.189.225","Mozilla/5.0 (Windows NT 10.0; Win64; x64) AppleWebKit/537.36 (KHTML, like Gecko) Chrome/138.0.0.0 Safari/537.36","WebKit","Chrome","138.0.0.0","Windows","10.0","https://app.prolific.com/","en-US,en;q=0.9","663b638be7226d4e3fcc255f","683dba2a8a9dda3513610c04","6880823013e66179db00c1ab","3","0","663b638be7226d4e3fcc255f","3","0","2025-07-23T06:40:26.969Z","","{""Q01"":""0"",""Q02"":""1"",""Q03"":""0""}","[0,1,2]","[""Q01"",""Q02"",""Q03""]","[3816.1999999284744,9515.699999928474,17315.100000023842]","[]","[3816.1999999284744,9515.699999928474,17315.100000023842,18531.699999928474]","0.6666666666666666","0","0","stress","","","","","","","","","","","","","","","","","","","","","","","","","","","","","","",""
"7013","","","","instructions","5","203433","0.0-3.0-0.0","155","1","2025-07-23 06:37:04","1f75c3e559b7213887762d5229550c2b","216.120.189.225","Mozilla/5.0 (Windows NT 10.0; Win64; x64) AppleWebKit/537.36 (KHTML, like Gecko) Chrome/138.0.0.0 Safari/537.36","WebKit","Chrome","138.0.0.0","Windows","10.0","https://app.prolific.com/","en-US,en;q=0.9","663b638be7226d4e3fcc255f","683dba2a8a9dda3513610c04","6880823013e66179db00c1ab","3","0","663b638be7226d4e3fcc255f","3","0","","","","","","","","","","","","","[{""page_index"":0,""viewing_time"":7012}]","","","","","","","","","","","","","","","","","","","","","","","","","","","","","",""
"15098","","<p>Before you start with this game please answer the following three questions yourself. </p>
  <p>Through this game, we measure several aspects of your cognitive performance, such as reaction times, multi-tasking capabilities </p>
  <p>and the ability to assess the situation you are in.</p>
  <p></p>
  <p><b>How good do you usually are in such tasks?</b></p>","99","html-slider-response","6","218539","0.0-4.0-0.0","155","1","2025-07-23 06:37:04","1f75c3e559b7213887762d5229550c2b","216.120.189.225","Mozilla/5.0 (Windows NT 10.0; Win64; x64) AppleWebKit/537.36 (KHTML, like Gecko) Chrome/138.0.0.0 Safari/537.36","WebKit","Chrome","138.0.0.0","Windows","10.0","https://app.prolific.com/","en-US,en;q=0.9","663b638be7226d4e3fcc255f","683dba2a8a9dda3513610c04","6880823013e66179db00c1ab","3","0","663b638be7226d4e3fcc255f","3","0","2025-07-23T06:40:49.091Z","","","","","","","","","","","PreSkillQ","","50","","","","","","","","","","","","","","","","","","","","","","","","","","","","",""
"8571","","<div style=""width:500px;"">
  <p>How well do you think you will perform in this task compared to other participants?</p>
  </div>","96","html-slider-response","7","227113","0.0-4.0-1.0","155","1","2025-07-23 06:37:04","1f75c3e559b7213887762d5229550c2b","216.120.189.225","Mozilla/5.0 (Windows NT 10.0; Win64; x64) AppleWebKit/537.36 (KHTML, like Gecko) Chrome/138.0.0.0 Safari/537.36","WebKit","Chrome","138.0.0.0","Windows","10.0","https://app.prolific.com/","en-US,en;q=0.9","663b638be7226d4e3fcc255f","683dba2a8a9dda3513610c04","6880823013e66179db00c1ab","3","0","663b638be7226d4e3fcc255f","3","0","2025-07-23T06:40:57.665Z","","","","","","","","","","","PrePerfQ","","50","","","","","","","","","","","","","","","","","","","","","","","","","","","","",""
"5597","","<div style=""width:500px;"">
  <p>What best describes how you currently feel?</p>
  </div>","100","html-slider-response","8","232712","0.0-4.0-2.0","155","1","2025-07-23 06:37:04","1f75c3e559b7213887762d5229550c2b","216.120.189.225","Mozilla/5.0 (Windows NT 10.0; Win64; x64) AppleWebKit/537.36 (KHTML, like Gecko) Chrome/138.0.0.0 Safari/537.36","WebKit","Chrome","138.0.0.0","Windows","10.0","https://app.prolific.com/","en-US,en;q=0.9","663b638be7226d4e3fcc255f","683dba2a8a9dda3513610c04","6880823013e66179db00c1ab","3","0","663b638be7226d4e3fcc255f","3","0","2025-07-23T06:41:03.264Z","","","","","","","","","","","PreMotivationQ","","50","","","","","","","","","","","","","","","","","","","","","","","","","","","","",""
"","","","","ctl-task-cpt","9","260835","0.0-5.0-0.0","155","1","2025-07-23 06:37:04","1f75c3e559b7213887762d5229550c2b","216.120.189.225","Mozilla/5.0 (Windows NT 10.0; Win64; x64) AppleWebKit/537.36 (KHTML, like Gecko) Chrome/138.0.0.0 Safari/537.36","WebKit","Chrome","138.0.0.0","Windows","10.0","https://app.prolific.com/","en-US,en;q=0.9","663b638be7226d4e3fcc255f","683dba2a8a9dda3513610c04","6880823013e66179db00c1ab","3","0","663b638be7226d4e3fcc255f","3","0","2025-07-23T06:41:31.386Z","","","","","","","","","","","","","","win-only","3","g1:SW,g2:NE","1","1","0","239947.5","5215","10215.5","25106.1","1","4","4","6","2","4","4","4","0","0.030303030303030304","1599.6","3000","945","[""up"",""right""]","{""num_key_presses"":6,""num_perfect"":6,""num_errors"":0,""num_randdir"":0,""num_randdir_good_moves"":0,""num_whilered"":0,""num_whileblue"":0,""num_blue"":0,""num_good_moves"":6}","[289.22232142857143,300.12857142857143,0.1,289.22232142857143,300.12857142857143,100,289.22232142857143,300.12857142857143,200.4,289.22232142857143,300.12857142857143,300.6,289.22232142857143,300.12857142857143,406.3,289.22232142857143,300.12857142857143,511.9,289.22232142857143,300.12857142857143,616.5,289.22232142857143,300.12857142857143,720.3,315.22232142857143,291.12857142857143,820.6,499.22232142857143,133.12857142857143,921.5,510.22232142857143,96.12857142857143,1021.9,510.22232142857143,96.12857142857143,1126,510.22232142857143,96.12857142857143,1227.5,525.2223214285714,83.12857142857143,1333.4,525.2223214285714,82.12857142857143,1436.3,525.2223214285714,82.12857142857143,1541.6,525.2223214285714,82.12857142857143,1650,525.2223214285714,82.12857142857143,1750,525.2223214285714,82.12857142857143,1850.6,525.2223214285714,82.12857142857143,1955.9,525.2223214285714,82.12857142857143,2056.2,525.2223214285714,82.12857142857143,2166.5,525.2223214285714,82.12857142857143,2271.7,525.2223214285714,82.12857142857143,2376,525.2223214285714,82.12857142857143,2476.6,525.2223214285714,82.12857142857143,2583,525.2223214285714,82.12857142857143,2683.1,525.2223214285714,82.12857142857143,2783.1,525.2223214285714,82.12857142857143,2883.1,525.2223214285714,82.12857142857143,2983.1,525.2223214285714,82.12857142857143,3085.9,525.2223214285714,82.12857142857143,3186.1,525.2223214285714,82.12857142857143,3291.5,632.2223214285714,101.12857142857143,3391.9,700.2223214285714,99.12857142857143,3499.9,700.2223214285714,99.12857142857143,3600.1,700.2223214285714,99.12857142857143,3700.8,700.2223214285714,99.12857142857143,3806.7,700.2223214285714,99.12857142857143,3916.3,700.2223214285714,99.12857142857143,4016.3,700.2223214285714,99.12857142857143,4116.3,700.2223214285714,99.12857142857143,4216.5,700.2223214285714,99.12857142857143,4321.7,700.2223214285714,99.12857142857143,4426,700.2223214285714,99.12857142857143,4526.1,700.2223214285714,99.12857142857143,4626.2,700.2223214285714,99.12857142857143,4726.2,700.2223214285714,99.12857142857143,4833,700.2223214285714,99.12857142857143,4935.5]","[1365.7,1365.7,1000,0,365.7,""smooth"",""right"",""right"",""good_move"",3615.4,2249.5,1883.8,1365.9,365.7,""smooth"",""right"",""right"",""good_move"",5815.6,2200,1791.7,3615.6,408.3,""smooth"",""right"",""right"",""good_move"",8640.5,2824.8,2405.9,5815.7,418.9,""smooth"",""up"",""up"",""good_move"",11937.2,3296.4,2876.8,8640.8,419.6,""smooth"",""up"",""up"",""good_move"",14798.1,2860.7,2492.8,11937.4,367.9,""smooth"",""up"",""up"",""good_move""]","",""
"7669","","<div style=""width:500px;"">
  <p>What determined the result of this run?</p>
  </div>","100","html-slider-response","10","268505","0.0-5.0-1.0","155","1","2025-07-23 06:37:04","1f75c3e559b7213887762d5229550c2b","216.120.189.225","Mozilla/5.0 (Windows NT 10.0; Win64; x64) AppleWebKit/537.36 (KHTML, like Gecko) Chrome/138.0.0.0 Safari/537.36","WebKit","Chrome","138.0.0.0","Windows","10.0","https://app.prolific.com/","en-US,en;q=0.9","663b638be7226d4e3fcc255f","683dba2a8a9dda3513610c04","6880823013e66179db00c1ab","3","0","663b638be7226d4e3fcc255f","3","0","2025-07-23T06:41:39.057Z","","","","","","","","","","","AttribQ","","50","","","","","","","","","","","","","","","","","","","","","","","","","","","","",""
"7814","","<div style=""width:500px;"">
  <p>How much control did you have over the ball?</p>
  </div>","100","html-slider-response","11","276321","0.0-5.0-2.0","155","1","2025-07-23 06:37:04","1f75c3e559b7213887762d5229550c2b","216.120.189.225","Mozilla/5.0 (Windows NT 10.0; Win64; x64) AppleWebKit/537.36 (KHTML, like Gecko) Chrome/138.0.0.0 Safari/537.36","WebKit","Chrome","138.0.0.0","Windows","10.0","https://app.prolific.com/","en-US,en;q=0.9","663b638be7226d4e3fcc255f","683dba2a8a9dda3513610c04","6880823013e66179db00c1ab","3","0","663b638be7226d4e3fcc255f","3","0","2025-07-23T06:41:46.872Z","","","","","","","","","","","ControlQ","","50","","","","","","","","","","","","","","","","","","","","","","","","","","","","",""
"5231","","<div style=""width:500px;"">
  <p>How would you describe your current emotional state?</p>
  </div>","0","html-slider-response","12","281554","0.0-5.0-3.0","155","1","2025-07-23 06:37:04","1f75c3e559b7213887762d5229550c2b","216.120.189.225","Mozilla/5.0 (Windows NT 10.0; Win64; x64) AppleWebKit/537.36 (KHTML, like Gecko) Chrome/138.0.0.0 Safari/537.36","WebKit","Chrome","138.0.0.0","Windows","10.0","https://app.prolific.com/","en-US,en;q=0.9","663b638be7226d4e3fcc255f","683dba2a8a9dda3513610c04","6880823013e66179db00c1ab","3","0","663b638be7226d4e3fcc255f","3","0","2025-07-23T06:41:52.105Z","","","","","","","","","","","StressQ","","50","","","","","","","","","","","","","","","","","","","","","","","","","","","","",""
"4727","","<div style=""width:500px;"">
  <p>What best describes how you currently feel?</p>
  </div>","100","html-slider-response","13","286282","0.0-5.0-4.0","155","1","2025-07-23 06:37:04","1f75c3e559b7213887762d5229550c2b","216.120.189.225","Mozilla/5.0 (Windows NT 10.0; Win64; x64) AppleWebKit/537.36 (KHTML, like Gecko) Chrome/138.0.0.0 Safari/537.36","WebKit","Chrome","138.0.0.0","Windows","10.0","https://app.prolific.com/","en-US,en;q=0.9","663b638be7226d4e3fcc255f","683dba2a8a9dda3513610c04","6880823013e66179db00c1ab","3","0","663b638be7226d4e3fcc255f","3","0","2025-07-23T06:41:56.834Z","","","","","","","","","","","MotivationQ","","50","","","","","","","","","","","","","","","","","","","","","","","","","","","","",""
"","","","","ctl-task-cpt","14","319016","0.0-5.0-0.1","155","1","2025-07-23 06:37:04","1f75c3e559b7213887762d5229550c2b","216.120.189.225","Mozilla/5.0 (Windows NT 10.0; Win64; x64) AppleWebKit/537.36 (KHTML, like Gecko) Chrome/138.0.0.0 Safari/537.36","WebKit","Chrome","138.0.0.0","Windows","10.0","https://app.prolific.com/","en-US,en;q=0.9","663b638be7226d4e3fcc255f","683dba2a8a9dda3513610c04","6880823013e66179db00c1ab","3","0","663b638be7226d4e3fcc255f","3","0","2025-07-23T06:42:29.567Z","","","","","","","","","","","","","","win-only","0","g1:NW,g2:SE","0.9","2","0","293511.3","1344.2","6345.8","29720.9","1","4","8","6","2","8","8","12","4","0.09090909090909091","1542.8","3000","855","[""down"",""right""]","{""num_key_presses"":6,""num_perfect"":5,""num_errors"":0,""num_randdir"":1,""num_randdir_good_moves"":1,""num_whilered"":0,""num_whileblue"":0,""num_blue"":2,""num_good_moves"":6}","[294.22232142857143,292.12857142857143,0.2,294.22232142857143,292.12857142857143,102.1,294.22232142857143,292.12857142857143,202.2,294.22232142857143,292.12857142857143,307.1,294.22232142857143,292.12857142857143,407.1,294.22232142857143,292.12857142857143,507.8,294.22232142857143,292.12857142857143,607.8,294.22232142857143,292.12857142857143,711.9,319.22232142857143,316.12857142857143,812.5,400.22232142857143,401.12857142857143,916.9,472.22232142857143,478.12857142857143,1018,500.22232142857143,507.12857142857143,1126.3,544.2223214285714,539.1285714285714,1227.5,551.2223214285714,547.1285714285714,1331.4,551.2223214285714,547.1285714285714,1437.5,551.2223214285714,547.1285714285714,1542.5,551.2223214285714,547.1285714285714,1646.9,551.2223214285714,547.1285714285714,1752.3,551.2223214285714,547.1285714285714,1857.4,551.2223214285714,547.1285714285714,1961.7,642.2223214285714,539.1285714285714,2062.9,673.2223214285714,527.1285714285714,2167.8,674.2223214285714,525.1285714285714,2272.2,674.2223214285714,525.1285714285714,2376.9,674.2223214285714,525.1285714285714,2477.4,674.2223214285714,525.1285714285714,2582.2,674.2223214285714,525.1285714285714,2686.2,674.2223214285714,525.1285714285714,2792.2,674.2223214285714,525.1285714285714,2897,674.2223214285714,525.1285714285714,3001.9,674.2223214285714,525.1285714285714,3106.9,674.2223214285714,525.1285714285714,3207.8,674.2223214285714,525.1285714285714,3311.3,674.2223214285714,525.1285714285714,3411.9,674.2223214285714,525.1285714285714,3516.7,674.2223214285714,525.1285714285714,3621.8,674.2223214285714,525.1285714285714,3727.4,674.2223214285714,525.1285714285714,3832,674.2223214285714,525.1285714285714,3936.4,674.2223214285714,525.1285714285714,4037.6,674.2223214285714,525.1285714285714,4142.3,674.2223214285714,525.1285714285714,4247.3,674.2223214285714,525.1285714285714,4347.7,674.2223214285714,525.1285714285714,4451.4,674.2223214285714,525.1285714285714,4552.2,674.2223214285714,525.1285714285714,4652.6,674.2223214285714,525.1285714285714,4756.8,674.2223214285714,525.1285714285714,4857.5,674.2223214285714,525.1285714285714,4957.7]","[1386.7,1386.6,1000,0.1,386.6,""smooth"",""down"",""down"",""good_move"",8693.7,7306.8,2556.9,5760.5,376.3,""smooth"",""down"",""down"",""good_move"",15172,6478.2,3062,11695.3,414.8,""smooth"",""right"",""right"",""good_move"",18324.1,3151.8,2749.8,15172.3,402,""smooth"",""right"",""right"",""good_move"",20809.8,2485.5,2080.8,18324.3,404.7,""smooth"",""down"",""down"",""good_move"",23269.9,2459.9,2061.2,20810,398.7,""oops"",""right"",""right"",""good_move""]","",""
"4385","","<div style=""width:500px;"">
  <p>What determined the result of this run?</p>
  </div>","100","html-slider-response","15","323403","0.0-5.0-1.1","155","1","2025-07-23 06:37:04","1f75c3e559b7213887762d5229550c2b","216.120.189.225","Mozilla/5.0 (Windows NT 10.0; Win64; x64) AppleWebKit/537.36 (KHTML, like Gecko) Chrome/138.0.0.0 Safari/537.36","WebKit","Chrome","138.0.0.0","Windows","10.0","https://app.prolific.com/","en-US,en;q=0.9","663b638be7226d4e3fcc255f","683dba2a8a9dda3513610c04","6880823013e66179db00c1ab","3","0","663b638be7226d4e3fcc255f","3","0","2025-07-23T06:42:33.954Z","","","","","","","","","","","AttribQ","","50","","","","","","","","","","","","","","","","","","","","","","","","","","","","",""
"3892","","<div style=""width:500px;"">
  <p>How much control did you have over the ball?</p>
  </div>","100","html-slider-response","16","327296","0.0-5.0-2.1","155","1","2025-07-23 06:37:04","1f75c3e559b7213887762d5229550c2b","216.120.189.225","Mozilla/5.0 (Windows NT 10.0; Win64; x64) AppleWebKit/537.36 (KHTML, like Gecko) Chrome/138.0.0.0 Safari/537.36","WebKit","Chrome","138.0.0.0","Windows","10.0","https://app.prolific.com/","en-US,en;q=0.9","663b638be7226d4e3fcc255f","683dba2a8a9dda3513610c04","6880823013e66179db00c1ab","3","0","663b638be7226d4e3fcc255f","3","0","2025-07-23T06:42:37.847Z","","","","","","","","","","","ControlQ","","50","","","","","","","","","","","","","","","","","","","","","","","","","","","","",""
"3090","","<div style=""width:500px;"">
  <p>How would you describe your current emotional state?</p>
  </div>","0","html-slider-response","17","330387","0.0-5.0-3.1","155","1","2025-07-23 06:37:04","1f75c3e559b7213887762d5229550c2b","216.120.189.225","Mozilla/5.0 (Windows NT 10.0; Win64; x64) AppleWebKit/537.36 (KHTML, like Gecko) Chrome/138.0.0.0 Safari/537.36","WebKit","Chrome","138.0.0.0","Windows","10.0","https://app.prolific.com/","en-US,en;q=0.9","663b638be7226d4e3fcc255f","683dba2a8a9dda3513610c04","6880823013e66179db00c1ab","3","0","663b638be7226d4e3fcc255f","3","0","2025-07-23T06:42:40.938Z","","","","","","","","","","","StressQ","","50","","","","","","","","","","","","","","","","","","","","","","","","","","","","",""
"3290","","<div style=""width:500px;"">
  <p>What best describes how you currently feel?</p>
  </div>","100","html-slider-response","18","333678","0.0-5.0-4.1","155","1","2025-07-23 06:37:04","1f75c3e559b7213887762d5229550c2b","216.120.189.225","Mozilla/5.0 (Windows NT 10.0; Win64; x64) AppleWebKit/537.36 (KHTML, like Gecko) Chrome/138.0.0.0 Safari/537.36","WebKit","Chrome","138.0.0.0","Windows","10.0","https://app.prolific.com/","en-US,en;q=0.9","663b638be7226d4e3fcc255f","683dba2a8a9dda3513610c04","6880823013e66179db00c1ab","3","0","663b638be7226d4e3fcc255f","3","0","2025-07-23T06:42:44.229Z","","","","","","","","","","","MotivationQ","","50","","","","","","","","","","","","","","","","","","","","","","","","","","","","",""
"","","","","ctl-task-cpt","19","358663","0.0-5.0-0.2","155","1","2025-07-23 06:37:04","1f75c3e559b7213887762d5229550c2b","216.120.189.225","Mozilla/5.0 (Windows NT 10.0; Win64; x64) AppleWebKit/537.36 (KHTML, like Gecko) Chrome/138.0.0.0 Safari/537.36","WebKit","Chrome","138.0.0.0","Windows","10.0","https://app.prolific.com/","en-US,en;q=0.9","663b638be7226d4e3fcc255f","683dba2a8a9dda3513610c04","6880823013e66179db00c1ab","3","0","663b638be7226d4e3fcc255f","3","0","2025-07-23T06:43:09.214Z","","","","","","","","","","","","","","win-only","2","g1:SE,g2:NW","0.8","3","0","340907","1992.1","7000.9","21975.4","1","4","4","6","2","4","4","16","12","0.12121212121212122","2143.1","3000","965","[""left"",""up""]","{""num_key_presses"":6,""num_perfect"":6,""num_errors"":0,""num_randdir"":0,""num_randdir_good_moves"":0,""num_whilered"":0,""num_whileblue"":0,""num_blue"":0,""num_good_moves"":6}","[295.22232142857143,301.12857142857143,0,295.22232142857143,301.12857142857143,111.2,295.22232142857143,301.12857142857143,212.1,295.22232142857143,301.12857142857143,313.8,295.22232142857143,301.12857142857143,418.9,295.22232142857143,301.12857142857143,519,295.22232142857143,301.12857142857143,619.2,295.22232142857143,301.12857142857143,724.9,295.22232142857143,301.12857142857143,827.8,166.22232142857143,133.12857142857143,928.2,147.22232142857143,117.12857142857143,1033.8,139.22232142857143,111.12857142857143,1133.9,109.22232142857143,106.12857142857143,1234.1,109.22232142857143,106.12857142857143,1334.1,109.22232142857143,106.12857142857143,1445,109.22232142857143,106.12857142857143,1548.7,101.22232142857143,100.12857142857143,1653.6,88.22232142857143,89.12857142857143,1760.3,68.22232142857143,70.12857142857143,1860.8,67.22232142857143,69.12857142857143,1964.4,67.22232142857143,69.12857142857143,2069.6,67.22232142857143,69.12857142857143,2175.6,67.22232142857143,69.12857142857143,2283.5,67.22232142857143,69.12857142857143,2384.2,64.22232142857143,67.12857142857143,2492.3,-15.777678571428574,5.128571428571426,2593.2,-39.777678571428574,-9.871428571428574,2693.5,-52.777678571428574,-18.871428571428574,2794.2,-52.777678571428574,-18.871428571428574,2898.8,-52.777678571428574,-18.871428571428574,2999.5,-52.777678571428574,-18.871428571428574,3109.3,-52.777678571428574,-18.871428571428574,3211.3,-52.777678571428574,-18.871428571428574,3313.9,-52.777678571428574,-18.871428571428574,3419.3,-52.777678571428574,-18.871428571428574,3526.1,-52.777678571428574,-18.871428571428574,3629,-52.777678571428574,-18.871428571428574,3729.6,-52.777678571428574,-18.871428571428574,3833.4,-52.777678571428574,-18.871428571428574,3934.5,-52.777678571428574,-18.871428571428574,4040.2,-57.777678571428574,-19.871428571428574,4142.6,-60.777678571428574,-19.871428571428574,4243.3,-60.777678571428574,-19.871428571428574,4343.6,-60.777678571428574,-19.871428571428574,4443.6,-60.777678571428574,-19.871428571428574,4543.9,-60.777678571428574,-19.871428571428574,4648.9,-60.777678571428574,-19.871428571428574,4748.9,-60.777678571428574,-19.871428571428574,4849.2,-60.777678571428574,-19.871428571428574,4949.3]","[1368.7,1368.7,1000,0,368.7,""smooth"",""up"",""up"",""good_move"",3855.1,2486.1,2090.9,1369,395.2,""smooth"",""left"",""left"",""good_move"",6648.8,2793.4,2428.9,3855.4,364.5,""smooth"",""up"",""up"",""good_move"",10073.4,3424.4,2972.5,6649,451.9,""smooth"",""left"",""left"",""good_move"",12264.8,2191.3,1839.6,10073.5,351.7,""smooth"",""up"",""up"",""good_move"",14866.8,2601.6,2232.2,12265.2,369.4,""smooth"",""left"",""left"",""good_move""]","",""
"7639","","<div style=""width:500px;"">
  <p>What determined the result of this run?</p>
  </div>","100","html-slider-response","20","366302","0.0-5.0-1.2","155","1","2025-07-23 06:37:04","1f75c3e559b7213887762d5229550c2b","216.120.189.225","Mozilla/5.0 (Windows NT 10.0; Win64; x64) AppleWebKit/537.36 (KHTML, like Gecko) Chrome/138.0.0.0 Safari/537.36","WebKit","Chrome","138.0.0.0","Windows","10.0","https://app.prolific.com/","en-US,en;q=0.9","663b638be7226d4e3fcc255f","683dba2a8a9dda3513610c04","6880823013e66179db00c1ab","3","0","663b638be7226d4e3fcc255f","3","0","2025-07-23T06:43:16.854Z","","","","","","","","","","","AttribQ","","50","","","","","","","","","","","","","","","","","","","","","","","","","","","","",""
"12048","","<div style=""width:500px;"">
  <p>How much control did you have over the ball?</p>
  </div>","100","html-slider-response","21","378352","0.0-5.0-2.2","155","1","2025-07-23 06:37:04","1f75c3e559b7213887762d5229550c2b","216.120.189.225","Mozilla/5.0 (Windows NT 10.0; Win64; x64) AppleWebKit/537.36 (KHTML, like Gecko) Chrome/138.0.0.0 Safari/537.36","WebKit","Chrome","138.0.0.0","Windows","10.0","https://app.prolific.com/","en-US,en;q=0.9","663b638be7226d4e3fcc255f","683dba2a8a9dda3513610c04","6880823013e66179db00c1ab","3","0","663b638be7226d4e3fcc255f","3","0","2025-07-23T06:43:28.903Z","","","","","","","","","","","ControlQ","","50","","","","","","","","","","","","","","","","","","","","","","","","","","","","",""
"4108","","<div style=""width:500px;"">
  <p>How would you describe your current emotional state?</p>
  </div>","0","html-slider-response","22","382461","0.0-5.0-3.2","155","1","2025-07-23 06:37:04","1f75c3e559b7213887762d5229550c2b","216.120.189.225","Mozilla/5.0 (Windows NT 10.0; Win64; x64) AppleWebKit/537.36 (KHTML, like Gecko) Chrome/138.0.0.0 Safari/537.36","WebKit","Chrome","138.0.0.0","Windows","10.0","https://app.prolific.com/","en-US,en;q=0.9","663b638be7226d4e3fcc255f","683dba2a8a9dda3513610c04","6880823013e66179db00c1ab","3","0","663b638be7226d4e3fcc255f","3","0","2025-07-23T06:43:33.012Z","","","","","","","","","","","StressQ","","50","","","","","","","","","","","","","","","","","","","","","","","","","","","","",""
"5820","","<div style=""width:500px;"">
  <p>What best describes how you currently feel?</p>
  </div>","100","html-slider-response","23","388282","0.0-5.0-4.2","155","1","2025-07-23 06:37:04","1f75c3e559b7213887762d5229550c2b","216.120.189.225","Mozilla/5.0 (Windows NT 10.0; Win64; x64) AppleWebKit/537.36 (KHTML, like Gecko) Chrome/138.0.0.0 Safari/537.36","WebKit","Chrome","138.0.0.0","Windows","10.0","https://app.prolific.com/","en-US,en;q=0.9","663b638be7226d4e3fcc255f","683dba2a8a9dda3513610c04","6880823013e66179db00c1ab","3","0","663b638be7226d4e3fcc255f","3","0","2025-07-23T06:43:38.834Z","","","","","","","","","","","MotivationQ","","50","","","","","","","","","","","","","","","","","","","","","","","","","","","","",""
"","","","","ctl-task-cpt","24","428627","0.0-5.0-0.3","155","1","2025-07-23 06:37:04","1f75c3e559b7213887762d5229550c2b","216.120.189.225","Mozilla/5.0 (Windows NT 10.0; Win64; x64) AppleWebKit/537.36 (KHTML, like Gecko) Chrome/138.0.0.0 Safari/537.36","WebKit","Chrome","138.0.0.0","Windows","10.0","https://app.prolific.com/","en-US,en;q=0.9","663b638be7226d4e3fcc255f","683dba2a8a9dda3513610c04","6880823013e66179db00c1ab","3","0","663b638be7226d4e3fcc255f","3","0","2025-07-23T06:44:19.178Z","","","","","","","","","","","","","","win-only","0","g1:NW,g2:SE","0.7","4","0","395513.3","3125","8125.8","37325.9","1","4","8","6","2","-8","-8","8","16","0.06060606060606061","1353.1","3000","-2705","[""down"",""right""]","{""num_key_presses"":9,""num_perfect"":7,""num_errors"":0,""num_randdir"":2,""num_randdir_good_moves"":0,""num_whilered"":0,""num_whileblue"":0,""num_blue"":0,""num_good_moves"":7}","[296.22232142857143,296.12857142857143,0.3,296.22232142857143,296.12857142857143,101,296.22232142857143,296.12857142857143,206,296.22232142857143,296.12857142857143,306.3,296.22232142857143,296.12857142857143,410.7,296.22232142857143,296.12857142857143,518.1,296.22232142857143,296.12857142857143,618.1,361.22232142857143,409.12857142857143,718.4,444.22232142857143,489.12857142857143,821.3,508.22232142857143,523.1285714285714,925.8,522.2223214285714,534.1285714285714,1036.7,535.2223214285714,532.1285714285714,1141,536.2223214285714,532.1285714285714,1251,536.2223214285714,532.1285714285714,1352.6,536.2223214285714,532.1285714285714,1453.3,536.2223214285714,532.1285714285714,1554.2,536.2223214285714,532.1285714285714,1656.1,606.2223214285714,511.12857142857143,1760.3,722.2223214285714,482.12857142857143,1861.1,729.2223214285714,480.12857142857143,1968.1,729.2223214285714,480.12857142857143,2071.3,729.2223214285714,480.12857142857143,2176.1,729.2223214285714,480.12857142857143,2286.3,729.2223214285714,480.12857142857143,2390.5,729.2223214285714,480.12857142857143,2500.8,729.2223214285714,480.12857142857143,2601.4,729.2223214285714,480.12857142857143,2705.9,729.2223214285714,480.12857142857143,2806,729.2223214285714,480.12857142857143,2906.2,729.2223214285714,480.12857142857143,3010.8,729.2223214285714,480.12857142857143,3111.3,729.2223214285714,482.12857142857143,3211.3,729.2223214285714,488.12857142857143,3317.6,729.2223214285714,488.12857142857143,3417.8,729.2223214285714,488.12857142857143,3521,729.2223214285714,488.12857142857143,3621.2,729.2223214285714,488.12857142857143,3721.4,729.2223214285714,488.12857142857143,3821.4,729.2223214285714,488.12857142857143,3925.9,729.2223214285714,488.12857142857143,4030.6,729.2223214285714,488.12857142857143,4133.9,729.2223214285714,488.12857142857143,4234.5,729.2223214285714,488.12857142857143,4335.7,729.2223214285714,488.12857142857143,4435.9,729.2223214285714,488.12857142857143,4540.6,729.2223214285714,488.12857142857143,4641,729.2223214285714,488.12857142857143,4741,729.2223214285714,488.12857142857143,4850.1,729.2223214285714,488.12857142857143,4950.5]","[1369.2,1369.2,1000,0,369.2,""smooth"",""down"",""down"",""good_move"",4548.4,3178.7,2800.6,1369.7,378.1,""oops"",""right"",""left"",""bad_move"",8419,3870.3,3481.9,4548.7,388.4,""oops"",""right"",""up"",""bad_move"",12248.5,3829,3451.5,8419.5,377.5,""smooth"",""right"",""right"",""good_move"",14615.6,2366.6,2025.8,12249,340.8,""smooth"",""right"",""right"",""good_move"",18048.6,3432.6,3073.3,14616,359.3,""smooth"",""down"",""down"",""good_move"",20514,2465.1,2082.1,18048.9,383,""smooth"",""down"",""down"",""good_move"",23067,2552.8,2214.4,20514.2,338.4,""smooth"",""right"",""right"",""good_move"",26063.6,2996.4,2743.9,23067.2,252.5,""smooth"",""right"",""right"",""good_move""]","",""
"6033","","<div style=""width:500px;"">
  <p>What determined the result of this run?</p>
  </div>","81","html-slider-response","25","434661","0.0-5.0-1.3","155","1","2025-07-23 06:37:04","1f75c3e559b7213887762d5229550c2b","216.120.189.225","Mozilla/5.0 (Windows NT 10.0; Win64; x64) AppleWebKit/537.36 (KHTML, like Gecko) Chrome/138.0.0.0 Safari/537.36","WebKit","Chrome","138.0.0.0","Windows","10.0","https://app.prolific.com/","en-US,en;q=0.9","663b638be7226d4e3fcc255f","683dba2a8a9dda3513610c04","6880823013e66179db00c1ab","3","0","663b638be7226d4e3fcc255f","3","0","2025-07-23T06:44:25.212Z","","","","","","","","","","","AttribQ","","50","","","","","","","","","","","","","","","","","","","","","","","","","","","","",""
"5307","","<div style=""width:500px;"">
  <p>How much control did you have over the ball?</p>
  </div>","62","html-slider-response","26","439969","0.0-5.0-2.3","155","1","2025-07-23 06:37:04","1f75c3e559b7213887762d5229550c2b","216.120.189.225","Mozilla/5.0 (Windows NT 10.0; Win64; x64) AppleWebKit/537.36 (KHTML, like Gecko) Chrome/138.0.0.0 Safari/537.36","WebKit","Chrome","138.0.0.0","Windows","10.0","https://app.prolific.com/","en-US,en;q=0.9","663b638be7226d4e3fcc255f","683dba2a8a9dda3513610c04","6880823013e66179db00c1ab","3","0","663b638be7226d4e3fcc255f","3","0","2025-07-23T06:44:30.520Z","","","","","","","","","","","ControlQ","","50","","","","","","","","","","","","","","","","","","","","","","","","","","","","",""
"5456","","<div style=""width:500px;"">
  <p>How would you describe your current emotional state?</p>
  </div>","0","html-slider-response","27","445426","0.0-5.0-3.3","155","1","2025-07-23 06:37:04","1f75c3e559b7213887762d5229550c2b","216.120.189.225","Mozilla/5.0 (Windows NT 10.0; Win64; x64) AppleWebKit/537.36 (KHTML, like Gecko) Chrome/138.0.0.0 Safari/537.36","WebKit","Chrome","138.0.0.0","Windows","10.0","https://app.prolific.com/","en-US,en;q=0.9","663b638be7226d4e3fcc255f","683dba2a8a9dda3513610c04","6880823013e66179db00c1ab","3","0","663b638be7226d4e3fcc255f","3","0","2025-07-23T06:44:35.977Z","","","","","","","","","","","StressQ","","50","","","","","","","","","","","","","","","","","","","","","","","","","","","","",""
"4947","","<div style=""width:500px;"">
  <p>What best describes how you currently feel?</p>
  </div>","100","html-slider-response","28","450374","0.0-5.0-4.3","155","1","2025-07-23 06:37:04","1f75c3e559b7213887762d5229550c2b","216.120.189.225","Mozilla/5.0 (Windows NT 10.0; Win64; x64) AppleWebKit/537.36 (KHTML, like Gecko) Chrome/138.0.0.0 Safari/537.36","WebKit","Chrome","138.0.0.0","Windows","10.0","https://app.prolific.com/","en-US,en;q=0.9","663b638be7226d4e3fcc255f","683dba2a8a9dda3513610c04","6880823013e66179db00c1ab","3","0","663b638be7226d4e3fcc255f","3","0","2025-07-23T06:44:40.925Z","","","","","","","","","","","MotivationQ","","50","","","","","","","","","","","","","","","","","","","","","","","","","","","","",""
"","","","","ctl-task-cpt","29","487760","0.0-5.0-0.4","155","1","2025-07-23 06:37:04","1f75c3e559b7213887762d5229550c2b","216.120.189.225","Mozilla/5.0 (Windows NT 10.0; Win64; x64) AppleWebKit/537.36 (KHTML, like Gecko) Chrome/138.0.0.0 Safari/537.36","WebKit","Chrome","138.0.0.0","Windows","10.0","https://app.prolific.com/","en-US,en;q=0.9","663b638be7226d4e3fcc255f","683dba2a8a9dda3513610c04","6880823013e66179db00c1ab","3","0","663b638be7226d4e3fcc255f","3","0","2025-07-23T06:45:18.311Z","","","","","","","","","","","","","","win-only","2","g1:SE,g2:NW","0.6","5","0","457602.9","3686.9","8691.6","34380.5","1","4","8","6","2","-8","-9","0","8","0","1323.5","3000","-2975","[""left"",""up""]","{""num_key_presses"":9,""num_perfect"":4,""num_errors"":1,""num_randdir"":4,""num_randdir_good_moves"":1,""num_whilered"":0,""num_whileblue"":1,""num_blue"":1,""num_good_moves"":5}","[292.22232142857143,301.12857142857143,0.2,292.22232142857143,301.12857142857143,103.4,292.22232142857143,301.12857142857143,204.3,292.22232142857143,301.12857142857143,304.7,292.22232142857143,301.12857142857143,410,292.22232142857143,301.12857142857143,511.5,292.22232142857143,301.12857142857143,613.7,170.22232142857143,195.12857142857143,714,11.222321428571426,90.12857142857143,815.6,8.222321428571426,89.12857142857143,919.9,5.222321428571426,79.12857142857143,1024.5,15.222321428571426,70.12857142857143,1124.7,18.222321428571426,69.12857142857143,1224.7,18.222321428571426,69.12857142857143,1325.6,18.222321428571426,69.12857142857143,1430.9,18.222321428571426,69.12857142857143,1533.2,18.222321428571426,69.12857142857143,1634.2,-88.77767857142857,31.128571428571426,1740.1,-125.77767857142857,20.128571428571426,1842.3,-172.77767857142857,15.128571428571426,1944.4,-175.77767857142857,14.128571428571426,2045.1,-175.77767857142857,14.128571428571426,2149.3,-175.77767857142857,14.128571428571426,2253.3,-175.77767857142857,14.128571428571426,2354,-175.77767857142857,14.128571428571426,2460.1,-175.77767857142857,14.128571428571426,2563.9,-175.77767857142857,14.128571428571426,2664,-175.77767857142857,14.128571428571426,2768.3,-188.77767857142857,25.128571428571426,2868.3,-191.77767857142857,32.128571428571426,2968.5,-184.77767857142857,46.128571428571426,3069.7,-180.77767857142857,47.128571428571426,3173.9,-180.77767857142857,47.128571428571426,3283.4,-180.77767857142857,47.128571428571426,3388.3,-180.77767857142857,47.128571428571426,3488.3,-180.77767857142857,47.128571428571426,3590,-180.77767857142857,47.128571428571426,3694.1,-180.77767857142857,47.128571428571426,3799.2,-180.77767857142857,47.128571428571426,3904.5,-180.77767857142857,47.128571428571426,4004.5,-180.77767857142857,47.128571428571426,4109.5,-180.77767857142857,47.128571428571426,4213.9,-180.77767857142857,47.128571428571426,4318.3,-180.77767857142857,47.128571428571426,4418.3,-180.77767857142857,47.128571428571426,4519.9,-180.77767857142857,47.128571428571426,4625.4,-180.77767857142857,47.128571428571426,4728.7,-180.77767857142857,47.128571428571426,4829.8,-180.77767857142857,47.128571428571426,4934.1]","[1438.9,1438.9,1000,0,438.9,""oops"",""up"",""left"",""good_move"",3530,2090,1767.6,1440,322.4,""smooth"",""up"",""up"",""good_move"",5905.3,2375.2,2055,3530.2,320.2,""smooth"",""up"",""up"",""good_move"",8795.2,2889.3,2543.8,5905.9,345.5,""oops"",""left"",""down"",""bad_move"",12149,3353.5,3001.4,8795.5,352.1,""smooth"",""left"",""left"",""good_move"",14809.7,2660.5,2357.7,12149.2,302.8,""smooth"",""left"",""left"",""good_move"",17400.2,2590.1,2319.2,14810.3,270.7,""while_blue"",""up"",""down"",""bad_move"",19942.6,2541.7,2203.7,17400.9,338,""oops"",""up"",""right"",""bad_move"",23004.7,3061.8,2727.3,19942.9,334.6,""oops"",""up"",""down"",""bad_move""]","",""
"4415","","<div style=""width:500px;"">
  <p>What determined the result of this run?</p>
  </div>","20","html-slider-response","30","492177","0.0-5.0-1.4","155","1","2025-07-23 06:37:04","1f75c3e559b7213887762d5229550c2b","216.120.189.225","Mozilla/5.0 (Windows NT 10.0; Win64; x64) AppleWebKit/537.36 (KHTML, like Gecko) Chrome/138.0.0.0 Safari/537.36","WebKit","Chrome","138.0.0.0","Windows","10.0","https://app.prolific.com/","en-US,en;q=0.9","663b638be7226d4e3fcc255f","683dba2a8a9dda3513610c04","6880823013e66179db00c1ab","3","0","663b638be7226d4e3fcc255f","3","0","2025-07-23T06:45:22.728Z","","","","","","","","","","","AttribQ","","50","","","","","","","","","","","","","","","","","","","","","","","","","","","","",""
"4446","","<div style=""width:500px;"">
  <p>How much control did you have over the ball?</p>
  </div>","26","html-slider-response","31","496623","0.0-5.0-2.4","155","1","2025-07-23 06:37:04","1f75c3e559b7213887762d5229550c2b","216.120.189.225","Mozilla/5.0 (Windows NT 10.0; Win64; x64) AppleWebKit/537.36 (KHTML, like Gecko) Chrome/138.0.0.0 Safari/537.36","WebKit","Chrome","138.0.0.0","Windows","10.0","https://app.prolific.com/","en-US,en;q=0.9","663b638be7226d4e3fcc255f","683dba2a8a9dda3513610c04","6880823013e66179db00c1ab","3","0","663b638be7226d4e3fcc255f","3","0","2025-07-23T06:45:27.174Z","","","","","","","","","","","ControlQ","","50","","","","","","","","","","","","","","","","","","","","","","","","","","","","",""
"7735","","<div style=""width:500px;"">
  <p>How would you describe your current emotional state?</p>
  </div>","5","html-slider-response","32","504359","0.0-5.0-3.4","155","1","2025-07-23 06:37:04","1f75c3e559b7213887762d5229550c2b","216.120.189.225","Mozilla/5.0 (Windows NT 10.0; Win64; x64) AppleWebKit/537.36 (KHTML, like Gecko) Chrome/138.0.0.0 Safari/537.36","WebKit","Chrome","138.0.0.0","Windows","10.0","https://app.prolific.com/","en-US,en;q=0.9","663b638be7226d4e3fcc255f","683dba2a8a9dda3513610c04","6880823013e66179db00c1ab","3","0","663b638be7226d4e3fcc255f","3","0","2025-07-23T06:45:34.910Z","","","","","","","","","","","StressQ","","50","","","","","","","","","","","","","","","","","","","","","","","","","","","","",""
"4566","","<div style=""width:500px;"">
  <p>What best describes how you currently feel?</p>
  </div>","100","html-slider-response","33","508926","0.0-5.0-4.4","155","1","2025-07-23 06:37:04","1f75c3e559b7213887762d5229550c2b","216.120.189.225","Mozilla/5.0 (Windows NT 10.0; Win64; x64) AppleWebKit/537.36 (KHTML, like Gecko) Chrome/138.0.0.0 Safari/537.36","WebKit","Chrome","138.0.0.0","Windows","10.0","https://app.prolific.com/","en-US,en;q=0.9","663b638be7226d4e3fcc255f","683dba2a8a9dda3513610c04","6880823013e66179db00c1ab","3","0","663b638be7226d4e3fcc255f","3","0","2025-07-23T06:45:39.478Z","","","","","","","","","","","MotivationQ","","50","","","","","","","","","","","","","","","","","","","","","","","","","","","","",""
"","","","","ctl-task-cpt","34","543334","0.0-5.0-0.5","155","1","2025-07-23 06:37:04","1f75c3e559b7213887762d5229550c2b","216.120.189.225","Mozilla/5.0 (Windows NT 10.0; Win64; x64) AppleWebKit/537.36 (KHTML, like Gecko) Chrome/138.0.0.0 Safari/537.36","WebKit","Chrome","138.0.0.0","Windows","10.0","https://app.prolific.com/","en-US,en;q=0.9","663b638be7226d4e3fcc255f","683dba2a8a9dda3513610c04","6880823013e66179db00c1ab","3","0","663b638be7226d4e3fcc255f","3","0","2025-07-23T06:46:13.885Z","","","","","","","","","","","","","","win-only","0","g1:NW,g2:SE","0.5","6","0","516157.1","1193.9","6196.3","31388","1","4","4","6","2","4","4","4","0","0.030303030303030304","2250.8","3000","120","[""down"",""right""]","{""num_key_presses"":8,""num_perfect"":5,""num_errors"":0,""num_randdir"":3,""num_randdir_good_moves"":2,""num_whilered"":0,""num_whileblue"":0,""num_blue"":1,""num_good_moves"":7}","[292.22232142857143,291.12857142857143,0.1,292.22232142857143,291.12857142857143,100.7,292.22232142857143,291.12857142857143,202.8,292.22232142857143,291.12857142857143,306.6,292.22232142857143,291.12857142857143,415.2,292.22232142857143,291.12857142857143,517.6,292.22232142857143,291.12857142857143,617.6,318.22232142857143,317.12857142857143,722.2,323.22232142857143,322.12857142857143,842.8,326.22232142857143,324.12857142857143,951.8,403.22232142857143,383.12857142857143,1057.7,469.22232142857143,467.12857142857143,1166.1,469.22232142857143,467.12857142857143,1267.2,469.22232142857143,467.12857142857143,1372,517.2223214285714,526.1285714285714,1472.4,528.2223214285714,538.1285714285714,1583.8,530.2223214285714,539.1285714285714,1686.9,530.2223214285714,539.1285714285714,1787,530.2223214285714,539.1285714285714,1887.3,530.2223214285714,539.1285714285714,1988,530.2223214285714,539.1285714285714,2091.7,530.2223214285714,539.1285714285714,2192.3,530.2223214285714,539.1285714285714,2292.5,530.2223214285714,539.1285714285714,2402.3,530.2223214285714,539.1285714285714,2502.5,530.2223214285714,539.1285714285714,2602.6,587.2223214285714,551.1285714285714,2703,642.2223214285714,561.1285714285714,2806.9,649.2223214285714,563.1285714285714,2907.2,649.2223214285714,563.1285714285714,3017.6,649.2223214285714,563.1285714285714,3122,649.2223214285714,563.1285714285714,3228.8,649.2223214285714,563.1285714285714,3330.4,649.2223214285714,563.1285714285714,3432,649.2223214285714,563.1285714285714,3532.9,649.2223214285714,563.1285714285714,3636.9,649.2223214285714,563.1285714285714,3737.3,649.2223214285714,563.1285714285714,3842.4,649.2223214285714,563.1285714285714,3953.5,649.2223214285714,563.1285714285714,4057,649.2223214285714,563.1285714285714,4157,649.2223214285714,563.1285714285714,4257.4,649.2223214285714,563.1285714285714,4357.5,649.2223214285714,563.1285714285714,4465.2,649.2223214285714,563.1285714285714,4566.6,649.2223214285714,563.1285714285714,4666.9,649.2223214285714,563.1285714285714,4771.5,649.2223214285714,563.1285714285714,4872.5,649.2223214285714,563.1285714285714,4972.8]","[1430.2,1430.3,1000,0,430.3,""smooth"",""down"",""down"",""good_move"",4718.4,3287.2,2888.2,1431.2,399,""oops"",""down"",""down"",""good_move"",7046,2327.3,1949.1,4718.7,378.2,""oops"",""right"",""right"",""good_move"",10045.2,2998.8,2681.8,7046.4,317,""smooth"",""right"",""right"",""good_move"",12732.4,2687,2287.9,10045.4,399.1,""oops"",""down"",""up"",""bad_move"",15252.5,2519.8,2202.2,12732.7,317.6,""smooth"",""down"",""down"",""good_move"",22120.1,6867.4,2257.7,19445.5,417,""smooth"",""down"",""down"",""good_move"",25092.9,2972.7,2633.2,22120.2,339.5,""smooth"",""right"",""right"",""good_move""]","",""
"3718","","<div style=""width:500px;"">
  <p>What determined the result of this run?</p>
  </div>","85","html-slider-response","35","547055","0.0-5.0-1.5","155","1","2025-07-23 06:37:04","1f75c3e559b7213887762d5229550c2b","216.120.189.225","Mozilla/5.0 (Windows NT 10.0; Win64; x64) AppleWebKit/537.36 (KHTML, like Gecko) Chrome/138.0.0.0 Safari/537.36","WebKit","Chrome","138.0.0.0","Windows","10.0","https://app.prolific.com/","en-US,en;q=0.9","663b638be7226d4e3fcc255f","683dba2a8a9dda3513610c04","6880823013e66179db00c1ab","3","0","663b638be7226d4e3fcc255f","3","0","2025-07-23T06:46:17.606Z","","","","","","","","","","","AttribQ","","50","","","","","","","","","","","","","","","","","","","","","","","","","","","","",""
"5555","","<div style=""width:500px;"">
  <p>How much control did you have over the ball?</p>
  </div>","79","html-slider-response","36","552611","0.0-5.0-2.5","155","1","2025-07-23 06:37:04","1f75c3e559b7213887762d5229550c2b","216.120.189.225","Mozilla/5.0 (Windows NT 10.0; Win64; x64) AppleWebKit/537.36 (KHTML, like Gecko) Chrome/138.0.0.0 Safari/537.36","WebKit","Chrome","138.0.0.0","Windows","10.0","https://app.prolific.com/","en-US,en;q=0.9","663b638be7226d4e3fcc255f","683dba2a8a9dda3513610c04","6880823013e66179db00c1ab","3","0","663b638be7226d4e3fcc255f","3","0","2025-07-23T06:46:23.162Z","","","","","","","","","","","ControlQ","","50","","","","","","","","","","","","","","","","","","","","","","","","","","","","",""
"4966","","<div style=""width:500px;"">
  <p>How would you describe your current emotional state?</p>
  </div>","1","html-slider-response","37","557577","0.0-5.0-3.5","155","1","2025-07-23 06:37:04","1f75c3e559b7213887762d5229550c2b","216.120.189.225","Mozilla/5.0 (Windows NT 10.0; Win64; x64) AppleWebKit/537.36 (KHTML, like Gecko) Chrome/138.0.0.0 Safari/537.36","WebKit","Chrome","138.0.0.0","Windows","10.0","https://app.prolific.com/","en-US,en;q=0.9","663b638be7226d4e3fcc255f","683dba2a8a9dda3513610c04","6880823013e66179db00c1ab","3","0","663b638be7226d4e3fcc255f","3","0","2025-07-23T06:46:28.128Z","","","","","","","","","","","StressQ","","50","","","","","","","","","","","","","","","","","","","","","","","","","","","","",""
"5489","","<div style=""width:500px;"">
  <p>What best describes how you currently feel?</p>
  </div>","100","html-slider-response","38","563067","0.0-5.0-4.5","155","1","2025-07-23 06:37:04","1f75c3e559b7213887762d5229550c2b","216.120.189.225","Mozilla/5.0 (Windows NT 10.0; Win64; x64) AppleWebKit/537.36 (KHTML, like Gecko) Chrome/138.0.0.0 Safari/537.36","WebKit","Chrome","138.0.0.0","Windows","10.0","https://app.prolific.com/","en-US,en;q=0.9","663b638be7226d4e3fcc255f","683dba2a8a9dda3513610c04","6880823013e66179db00c1ab","3","0","663b638be7226d4e3fcc255f","3","0","2025-07-23T06:46:33.618Z","","","","","","","","","","","MotivationQ","","50","","","","","","","","","","","","","","","","","","","","","","","","","","","","",""
"","","","","ctl-task-cpt","39","596186","0.0-5.0-0.6","155","1","2025-07-23 06:37:04","1f75c3e559b7213887762d5229550c2b","216.120.189.225","Mozilla/5.0 (Windows NT 10.0; Win64; x64) AppleWebKit/537.36 (KHTML, like Gecko) Chrome/138.0.0.0 Safari/537.36","WebKit","Chrome","138.0.0.0","Windows","10.0","https://app.prolific.com/","en-US,en;q=0.9","663b638be7226d4e3fcc255f","683dba2a8a9dda3513610c04","6880823013e66179db00c1ab","3","0","663b638be7226d4e3fcc255f","3","0","2025-07-23T06:47:06.737Z","","","","","","","","","","","","","","win-only","3","g1:SW,g2:NE","0.4","7","0","570295.8","1721.7","6730.7","30101","1","4","8","6","2","8","8","12","4","0.09090909090909091","1710.5","3000","330","[""up"",""right""]","{""num_key_presses"":8,""num_perfect"":3,""num_errors"":0,""num_randdir"":5,""num_randdir_good_moves"":4,""num_whilered"":0,""num_whileblue"":0,""num_blue"":0,""num_good_moves"":7}","[287.22232142857143,300.12857142857143,0.2,287.22232142857143,300.12857142857143,109.9,287.22232142857143,300.12857142857143,212,287.22232142857143,300.12857142857143,315.3,287.22232142857143,300.12857142857143,416.4,287.22232142857143,300.12857142857143,519.1,287.22232142857143,300.12857142857143,619.6,287.22232142857143,300.12857142857143,725.1,416.22232142857143,148.12857142857143,826.6,424.22232142857143,135.12857142857143,927.5,424.22232142857143,135.12857142857143,1029.6,424.22232142857143,135.12857142857143,1132.4,437.22232142857143,130.12857142857143,1234.5,502.22232142857143,79.12857142857143,1335.5,528.2223214285714,56.128571428571426,1440.1,538.2223214285714,51.128571428571426,1542.9,538.2223214285714,51.128571428571426,1644.2,538.2223214285714,51.128571428571426,1744.7,538.2223214285714,51.128571428571426,1849,538.2223214285714,51.128571428571426,1950.3,538.2223214285714,51.128571428571426,2054.2,563.2223214285714,46.128571428571426,2160.2,657.2223214285714,21.128571428571426,2263.6,670.2223214285714,17.128571428571426,2365.1,670.2223214285714,17.128571428571426,2469.2,670.2223214285714,17.128571428571426,2569.7,670.2223214285714,17.128571428571426,2678.4,670.2223214285714,17.128571428571426,2778.7,670.2223214285714,17.128571428571426,2879.9,670.2223214285714,17.128571428571426,2984.9,670.2223214285714,17.128571428571426,3085.3,670.2223214285714,17.128571428571426,3191.4,670.2223214285714,17.128571428571426,3293.6,670.2223214285714,18.128571428571426,3397.5,670.2223214285714,21.128571428571426,3499,666.2223214285714,22.128571428571426,3599.7,666.2223214285714,22.128571428571426,3704,666.2223214285714,22.128571428571426,3805.9,666.2223214285714,22.128571428571426,3909.6,666.2223214285714,22.128571428571426,4010.5,666.2223214285714,22.128571428571426,4110.6,666.2223214285714,22.128571428571426,4214.6,666.2223214285714,22.128571428571426,4319.4,666.2223214285714,22.128571428571426,4419.4,666.2223214285714,22.128571428571426,4519.4,666.2223214285714,22.128571428571426,4619.8,666.2223214285714,22.128571428571426,4719.8,666.2223214285714,22.128571428571426,4824.1,666.2223214285714,22.128571428571426,4927.6]","[1380,1380,1000,0,380,""oops"",""right"",""right"",""good_move"",3983.9,2603.3,2292.2,1380.6,311.1,""oops"",""right"",""left"",""bad_move"",6617.6,2632,2275.7,3985.6,356.3,""oops"",""up"",""right"",""good_move"",9674.6,3056.1,2704.5,6618.5,351.6,""oops"",""up"",""right"",""good_move"",13488,3813.2,3285.2,9674.8,528,""smooth"",""up"",""up"",""good_move"",17505.3,4016.9,3608.7,13488.4,408.2,""smooth"",""up"",""up"",""good_move"",20280.2,2774.7,2456.4,17505.5,318.3,""smooth"",""up"",""up"",""good_move"",23270.7,2990.1,2709.2,20280.6,280.9,""oops"",""right"",""right"",""good_move""]","",""
"5515","","<div style=""width:500px;"">
  <p>What determined the result of this run?</p>
  </div>","96","html-slider-response","40","601703","0.0-5.0-1.6","155","1","2025-07-23 06:37:04","1f75c3e559b7213887762d5229550c2b","216.120.189.225","Mozilla/5.0 (Windows NT 10.0; Win64; x64) AppleWebKit/537.36 (KHTML, like Gecko) Chrome/138.0.0.0 Safari/537.36","WebKit","Chrome","138.0.0.0","Windows","10.0","https://app.prolific.com/","en-US,en;q=0.9","663b638be7226d4e3fcc255f","683dba2a8a9dda3513610c04","6880823013e66179db00c1ab","3","0","663b638be7226d4e3fcc255f","3","0","2025-07-23T06:47:12.254Z","","","","","","","","","","","AttribQ","","50","","","","","","","","","","","","","","","","","","","","","","","","","","","","",""
"5627","","<div style=""width:500px;"">
  <p>How much control did you have over the ball?</p>
  </div>","95","html-slider-response","41","607331","0.0-5.0-2.6","155","1","2025-07-23 06:37:04","1f75c3e559b7213887762d5229550c2b","216.120.189.225","Mozilla/5.0 (Windows NT 10.0; Win64; x64) AppleWebKit/537.36 (KHTML, like Gecko) Chrome/138.0.0.0 Safari/537.36","WebKit","Chrome","138.0.0.0","Windows","10.0","https://app.prolific.com/","en-US,en;q=0.9","663b638be7226d4e3fcc255f","683dba2a8a9dda3513610c04","6880823013e66179db00c1ab","3","0","663b638be7226d4e3fcc255f","3","0","2025-07-23T06:47:17.883Z","","","","","","","","","","","ControlQ","","50","","","","","","","","","","","","","","","","","","","","","","","","","","","","",""
"9264","","<div style=""width:500px;"">
  <p>How would you describe your current emotional state?</p>
  </div>","1","html-slider-response","42","616597","0.0-5.0-3.6","155","1","2025-07-23 06:37:04","1f75c3e559b7213887762d5229550c2b","216.120.189.225","Mozilla/5.0 (Windows NT 10.0; Win64; x64) AppleWebKit/537.36 (KHTML, like Gecko) Chrome/138.0.0.0 Safari/537.36","WebKit","Chrome","138.0.0.0","Windows","10.0","https://app.prolific.com/","en-US,en;q=0.9","663b638be7226d4e3fcc255f","683dba2a8a9dda3513610c04","6880823013e66179db00c1ab","3","0","663b638be7226d4e3fcc255f","3","0","2025-07-23T06:47:27.148Z","","","","","","","","","","","StressQ","","50","","","","","","","","","","","","","","","","","","","","","","","","","","","","",""
"9105","","<div style=""width:500px;"">
  <p>What best describes how you currently feel?</p>
  </div>","97","html-slider-response","43","625705","0.0-5.0-4.6","155","1","2025-07-23 06:37:04","1f75c3e559b7213887762d5229550c2b","216.120.189.225","Mozilla/5.0 (Windows NT 10.0; Win64; x64) AppleWebKit/537.36 (KHTML, like Gecko) Chrome/138.0.0.0 Safari/537.36","WebKit","Chrome","138.0.0.0","Windows","10.0","https://app.prolific.com/","en-US,en;q=0.9","663b638be7226d4e3fcc255f","683dba2a8a9dda3513610c04","6880823013e66179db00c1ab","3","0","663b638be7226d4e3fcc255f","3","0","2025-07-23T06:47:36.257Z","","","","","","","","","","","MotivationQ","","50","","","","","","","","","","","","","","","","","","","","","","","","","","","","",""
"","","","","ctl-task-cpt","44","668031","0.0-5.0-0.7","155","1","2025-07-23 06:37:04","1f75c3e559b7213887762d5229550c2b","216.120.189.225","Mozilla/5.0 (Windows NT 10.0; Win64; x64) AppleWebKit/537.36 (KHTML, like Gecko) Chrome/138.0.0.0 Safari/537.36","WebKit","Chrome","138.0.0.0","Windows","10.0","https://app.prolific.com/","en-US,en;q=0.9","663b638be7226d4e3fcc255f","683dba2a8a9dda3513610c04","6880823013e66179db00c1ab","3","0","663b638be7226d4e3fcc255f","3","0","2025-07-23T06:48:18.583Z","","","","","","","","","","","","","","win-only","3","g1:SW,g2:NE","0.3","8","0","632946.4","2278.4","7281.7","39292.9","1","4","4","6","2","-4","-5","7","12","0.05303030303030303","1883.5","3000","-2880","[""up"",""right""]","{""num_key_presses"":10,""num_perfect"":3,""num_errors"":1,""num_randdir"":6,""num_randdir_good_moves"":2,""num_whilered"":0,""num_whileblue"":1,""num_blue"":2,""num_good_moves"":6}","[300.22232142857143,288.12857142857143,0.3,300.22232142857143,288.12857142857143,101.2,300.22232142857143,288.12857142857143,204.7,300.22232142857143,288.12857142857143,307.6,300.22232142857143,288.12857142857143,408.3,300.22232142857143,288.12857142857143,517.7,300.22232142857143,288.12857142857143,619,330.22232142857143,258.12857142857143,724.6,420.22232142857143,158.12857142857143,828,490.22232142857143,104.12857142857143,930.4,495.22232142857143,91.12857142857143,1034.7,501.22232142857143,90.12857142857143,1138.6,501.22232142857143,90.12857142857143,1242.1,501.22232142857143,90.12857142857143,1342.5,517.2223214285714,83.12857142857143,1449.2,528.2223214285714,77.12857142857143,1552.9,532.2223214285714,71.12857142857143,1653.2,532.2223214285714,71.12857142857143,1753.9,532.2223214285714,71.12857142857143,1854.3,532.2223214285714,71.12857142857143,1958.3,532.2223214285714,71.12857142857143,2059,532.2223214285714,71.12857142857143,2162.4,532.2223214285714,71.12857142857143,2268.6,532.2223214285714,71.12857142857143,2372.1,540.2223214285714,71.12857142857143,2472.4,559.2223214285714,66.12857142857143,2572.8,563.2223214285714,64.12857142857143,2672.9,588.2223214285714,64.12857142857143,2773.9,608.2223214285714,64.12857142857143,2879.3,617.2223214285714,67.12857142857143,2985.9,625.2223214285714,74.12857142857143,3087.1,625.2223214285714,74.12857142857143,3187.5,625.2223214285714,74.12857142857143,3287.9,625.2223214285714,74.12857142857143,3388.3,625.2223214285714,74.12857142857143,3492.6,625.2223214285714,74.12857142857143,3593.2,625.2223214285714,74.12857142857143,3702.4,625.2223214285714,74.12857142857143,3803.4,625.2223214285714,74.12857142857143,3908,625.2223214285714,74.12857142857143,4008.2,625.2223214285714,74.12857142857143,4108.2,625.2223214285714,74.12857142857143,4215.4,625.2223214285714,74.12857142857143,4318.3,625.2223214285714,74.12857142857143,4422.2,625.2223214285714,74.12857142857143,4522.7,625.2223214285714,74.12857142857143,4627.4,625.2223214285714,74.12857142857143,4730.1,625.2223214285714,74.12857142857143,4831.4,625.2223214285714,74.12857142857143,4932.9]","[1348.2,1348.3,1000,0,348.3,""oops"",""right"",""up"",""good_move"",7799.2,6450.6,2616.5,4874.2,308.5,""smooth"",""right"",""right"",""good_move"",10348.6,2549.2,2195.4,7799.4,353.8,""oops"",""right"",""up"",""good_move"",13509.2,3160.3,2834.8,10348.9,325.5,""oops"",""right"",""left"",""bad_move"",16777.3,3267,2937,13510.3,330,""smooth"",""right"",""right"",""good_move"",19999.2,3221.4,2881.2,16777.9,340.1,""smooth"",""right"",""right"",""good_move"",22571.5,2571.9,2212.8,19999.6,359.1,""oops"",""right"",""left"",""bad_move"",25532,2959.9,2642.7,22572.1,317.2,""while_blue"",""right"",""right"",""good_move"",27801.1,2268.9,1939.5,25532.2,329.4,""oops"",""right"",""left"",""bad_move"",29654.4,1853.1,1400.6,27801.3,452.5,""oops"",""right"",""left"",""bad_move""]","",""
"7269","","<div style=""width:500px;"">
  <p>What determined the result of this run?</p>
  </div>","24","html-slider-response","45","675301","0.0-5.0-1.7","155","1","2025-07-23 06:37:04","1f75c3e559b7213887762d5229550c2b","216.120.189.225","Mozilla/5.0 (Windows NT 10.0; Win64; x64) AppleWebKit/537.36 (KHTML, like Gecko) Chrome/138.0.0.0 Safari/537.36","WebKit","Chrome","138.0.0.0","Windows","10.0","https://app.prolific.com/","en-US,en;q=0.9","663b638be7226d4e3fcc255f","683dba2a8a9dda3513610c04","6880823013e66179db00c1ab","3","0","663b638be7226d4e3fcc255f","3","0","2025-07-23T06:48:25.852Z","","","","","","","","","","","AttribQ","","50","","","","","","","","","","","","","","","","","","","","","","","","","","","","",""
"6099","","<div style=""width:500px;"">
  <p>How much control did you have over the ball?</p>
  </div>","30","html-slider-response","46","681402","0.0-5.0-2.7","155","1","2025-07-23 06:37:04","1f75c3e559b7213887762d5229550c2b","216.120.189.225","Mozilla/5.0 (Windows NT 10.0; Win64; x64) AppleWebKit/537.36 (KHTML, like Gecko) Chrome/138.0.0.0 Safari/537.36","WebKit","Chrome","138.0.0.0","Windows","10.0","https://app.prolific.com/","en-US,en;q=0.9","663b638be7226d4e3fcc255f","683dba2a8a9dda3513610c04","6880823013e66179db00c1ab","3","0","663b638be7226d4e3fcc255f","3","0","2025-07-23T06:48:31.953Z","","","","","","","","","","","ControlQ","","50","","","","","","","","","","","","","","","","","","","","","","","","","","","","",""
"4961","","<div style=""width:500px;"">
  <p>How would you describe your current emotional state?</p>
  </div>","9","html-slider-response","47","686365","0.0-5.0-3.7","155","1","2025-07-23 06:37:04","1f75c3e559b7213887762d5229550c2b","216.120.189.225","Mozilla/5.0 (Windows NT 10.0; Win64; x64) AppleWebKit/537.36 (KHTML, like Gecko) Chrome/138.0.0.0 Safari/537.36","WebKit","Chrome","138.0.0.0","Windows","10.0","https://app.prolific.com/","en-US,en;q=0.9","663b638be7226d4e3fcc255f","683dba2a8a9dda3513610c04","6880823013e66179db00c1ab","3","0","663b638be7226d4e3fcc255f","3","0","2025-07-23T06:48:36.916Z","","","","","","","","","","","StressQ","","50","","","","","","","","","","","","","","","","","","","","","","","","","","","","",""
"17965","","<div style=""width:500px;"">
  <p>What best describes how you currently feel?</p>
  </div>","97","html-slider-response","48","704333","0.0-5.0-4.7","155","1","2025-07-23 06:37:04","1f75c3e559b7213887762d5229550c2b","216.120.189.225","Mozilla/5.0 (Windows NT 10.0; Win64; x64) AppleWebKit/537.36 (KHTML, like Gecko) Chrome/138.0.0.0 Safari/537.36","WebKit","Chrome","138.0.0.0","Windows","10.0","https://app.prolific.com/","en-US,en;q=0.9","663b638be7226d4e3fcc255f","683dba2a8a9dda3513610c04","6880823013e66179db00c1ab","3","0","663b638be7226d4e3fcc255f","3","0","2025-07-23T06:48:54.885Z","","","","","","","","","","","MotivationQ","","50","","","","","","","","","","","","","","","","","","","","","","","","","","","","",""
"","","","","ctl-task-cpt","49","746611","0.0-5.0-0.8","155","1","2025-07-23 06:37:04","1f75c3e559b7213887762d5229550c2b","216.120.189.225","Mozilla/5.0 (Windows NT 10.0; Win64; x64) AppleWebKit/537.36 (KHTML, like Gecko) Chrome/138.0.0.0 Safari/537.36","WebKit","Chrome","138.0.0.0","Windows","10.0","https://app.prolific.com/","en-US,en;q=0.9","663b638be7226d4e3fcc255f","683dba2a8a9dda3513610c04","6880823013e66179db00c1ab","3","0","663b638be7226d4e3fcc255f","3","0","2025-07-23T06:49:37.162Z","","","","","","","","","","","","","","win-only","3","g1:SW,g2:NE","0.2","9","0","711568.6","1955","6956.4","39253","1","4","4","6","2","-4","-4","3","7","0.022727272727272728","1567.6","3000","-2380","[""up"",""right""]","{""num_key_presses"":9,""num_perfect"":2,""num_errors"":0,""num_randdir"":7,""num_randdir_good_moves"":3,""num_whilered"":0,""num_whileblue"":0,""num_blue"":2,""num_good_moves"":5}","[291.22232142857143,304.12857142857143,0.2,291.22232142857143,304.12857142857143,100.3,291.22232142857143,304.12857142857143,201.3,291.22232142857143,304.12857142857143,306.2,291.22232142857143,304.12857142857143,418.4,291.22232142857143,304.12857142857143,520.6,327.22232142857143,279.12857142857143,620.9,506.22232142857143,143.12857142857143,721.1,520.2223214285714,132.12857142857143,825.7,520.2223214285714,132.12857142857143,926.3,520.2223214285714,132.12857142857143,1033.9,533.2223214285714,100.12857142857143,1133.9,535.2223214285714,75.12857142857143,1234.8,536.2223214285714,60.128571428571426,1335.3,536.2223214285714,60.128571428571426,1436,536.2223214285714,60.128571428571426,1536.8,536.2223214285714,60.128571428571426,1640.7,536.2223214285714,60.128571428571426,1740.7,536.2223214285714,60.128571428571426,1841.7,536.2223214285714,60.128571428571426,1946.8,606.2223214285714,37.128571428571426,2050.5,634.2223214285714,37.128571428571426,2150.8,634.2223214285714,37.128571428571426,2256.2,634.2223214285714,37.128571428571426,2356.3,634.2223214285714,37.128571428571426,2467.7,634.2223214285714,37.128571428571426,2570.7,634.2223214285714,37.128571428571426,2671.5,634.2223214285714,37.128571428571426,2775.3,634.2223214285714,37.128571428571426,2876.7,634.2223214285714,37.128571428571426,2976.7,634.2223214285714,37.128571428571426,3077.1,634.2223214285714,37.128571428571426,3184,634.2223214285714,37.128571428571426,3285.8,634.2223214285714,37.128571428571426,3399.7,634.2223214285714,37.128571428571426,3500.9,634.2223214285714,37.128571428571426,3605.3,634.2223214285714,37.128571428571426,3706.2,634.2223214285714,37.128571428571426,3817.9,634.2223214285714,37.128571428571426,3920.4,634.2223214285714,37.128571428571426,4021.6,634.2223214285714,37.128571428571426,4126.5,634.2223214285714,37.128571428571426,4234.3,634.2223214285714,37.128571428571426,4335.7,634.2223214285714,37.128571428571426,4441,634.2223214285714,37.128571428571426,4541.3,634.2223214285714,37.128571428571426,4649.2,634.2223214285714,37.128571428571426,4749.8,634.2223214285714,37.128571428571426,4851.3,634.2223214285714,37.128571428571426,4951.3]","[1413.2,1413.2,1000,0,413.2,""smooth"",""right"",""right"",""good_move"",7125.2,5711.6,2298.5,4514.1,312.6,""smooth"",""right"",""right"",""good_move"",8631.3,1505.9,1068.4,7125.4,437.5,""oops"",""up"",""right"",""good_move"",15065.4,6434,2505.4,12032.7,527.3,""oops"",""up"",""down"",""bad_move"",17868,2802.2,2378.2,15065.8,424,""oops"",""up"",""left"",""bad_move"",20845.8,2977.5,2567.2,17868.3,410.3,""oops"",""up"",""left"",""bad_move"",23937.8,3091.7,2691.2,20846.1,400.5,""oops"",""up"",""down"",""bad_move"",26782.8,2844.7,2472.4,23938.1,372.3,""oops"",""up"",""right"",""good_move"",29846.3,3063.3,2655.8,26783,407.5,""oops"",""up"",""right"",""good_move""]","",""
"8514","","<div style=""width:500px;"">
  <p>What determined the result of this run?</p>
  </div>","2","html-slider-response","50","755126","0.0-5.0-1.8","155","1","2025-07-23 06:37:04","1f75c3e559b7213887762d5229550c2b","216.120.189.225","Mozilla/5.0 (Windows NT 10.0; Win64; x64) AppleWebKit/537.36 (KHTML, like Gecko) Chrome/138.0.0.0 Safari/537.36","WebKit","Chrome","138.0.0.0","Windows","10.0","https://app.prolific.com/","en-US,en;q=0.9","663b638be7226d4e3fcc255f","683dba2a8a9dda3513610c04","6880823013e66179db00c1ab","3","0","663b638be7226d4e3fcc255f","3","0","2025-07-23T06:49:45.677Z","","","","","","","","","","","AttribQ","","50","","","","","","","","","","","","","","","","","","","","","","","","","","","","",""
"5714","","<div style=""width:500px;"">
  <p>How much control did you have over the ball?</p>
  </div>","2","html-slider-response","51","760841","0.0-5.0-2.8","155","1","2025-07-23 06:37:04","1f75c3e559b7213887762d5229550c2b","216.120.189.225","Mozilla/5.0 (Windows NT 10.0; Win64; x64) AppleWebKit/537.36 (KHTML, like Gecko) Chrome/138.0.0.0 Safari/537.36","WebKit","Chrome","138.0.0.0","Windows","10.0","https://app.prolific.com/","en-US,en;q=0.9","663b638be7226d4e3fcc255f","683dba2a8a9dda3513610c04","6880823013e66179db00c1ab","3","0","663b638be7226d4e3fcc255f","3","0","2025-07-23T06:49:51.392Z","","","","","","","","","","","ControlQ","","50","","","","","","","","","","","","","","","","","","","","","","","","","","","","",""
"6612","","<div style=""width:500px;"">
  <p>How would you describe your current emotional state?</p>
  </div>","7","html-slider-response","52","767454","0.0-5.0-3.8","155","1","2025-07-23 06:37:04","1f75c3e559b7213887762d5229550c2b","216.120.189.225","Mozilla/5.0 (Windows NT 10.0; Win64; x64) AppleWebKit/537.36 (KHTML, like Gecko) Chrome/138.0.0.0 Safari/537.36","WebKit","Chrome","138.0.0.0","Windows","10.0","https://app.prolific.com/","en-US,en;q=0.9","663b638be7226d4e3fcc255f","683dba2a8a9dda3513610c04","6880823013e66179db00c1ab","3","0","663b638be7226d4e3fcc255f","3","0","2025-07-23T06:49:58.006Z","","","","","","","","","","","StressQ","","50","","","","","","","","","","","","","","","","","","","","","","","","","","","","",""
"5001","","<div style=""width:500px;"">
  <p>What best describes how you currently feel?</p>
  </div>","88","html-slider-response","53","772457","0.0-5.0-4.8","155","1","2025-07-23 06:37:04","1f75c3e559b7213887762d5229550c2b","216.120.189.225","Mozilla/5.0 (Windows NT 10.0; Win64; x64) AppleWebKit/537.36 (KHTML, like Gecko) Chrome/138.0.0.0 Safari/537.36","WebKit","Chrome","138.0.0.0","Windows","10.0","https://app.prolific.com/","en-US,en;q=0.9","663b638be7226d4e3fcc255f","683dba2a8a9dda3513610c04","6880823013e66179db00c1ab","3","0","663b638be7226d4e3fcc255f","3","0","2025-07-23T06:50:03.008Z","","","","","","","","","","","MotivationQ","","50","","","","","","","","","","","","","","","","","","","","","","","","","","","","",""
"","","","","ctl-task-cpt","54","819809","0.0-5.0-0.9","155","1","2025-07-23 06:37:04","1f75c3e559b7213887762d5229550c2b","216.120.189.225","Mozilla/5.0 (Windows NT 10.0; Win64; x64) AppleWebKit/537.36 (KHTML, like Gecko) Chrome/138.0.0.0 Safari/537.36","WebKit","Chrome","138.0.0.0","Windows","10.0","https://app.prolific.com/","en-US,en;q=0.9","663b638be7226d4e3fcc255f","683dba2a8a9dda3513610c04","6880823013e66179db00c1ab","3","0","663b638be7226d4e3fcc255f","3","0","2025-07-23T06:50:50.360Z","","","","","","","","","","","","","","win-only","3","g1:SW,g2:NE","0.4","10","0","779686.6","1803.6","6806.3","44331.1","1","4","8","6","2","-8","-9","0","3","0","1751.4","3000","-2270","[""up"",""right""]","{""num_key_presses"":11,""num_perfect"":4,""num_errors"":1,""num_randdir"":6,""num_randdir_good_moves"":2,""num_whilered"":0,""num_whileblue"":1,""num_blue"":2,""num_good_moves"":6}","[299.22232142857143,295.12857142857143,0.3,299.22232142857143,295.12857142857143,102.3,299.22232142857143,295.12857142857143,202.6,299.22232142857143,295.12857142857143,309,299.22232142857143,295.12857142857143,412.2,299.22232142857143,295.12857142857143,512.5,299.22232142857143,295.12857142857143,612.7,477.22232142857143,138.12857142857143,714.5,597.2223214285714,32.128571428571426,817.2,598.2223214285714,28.128571428571426,930.3,598.2223214285714,28.128571428571426,1032.5,598.2223214285714,28.128571428571426,1145.6,598.2223214285714,28.128571428571426,1247.5,598.2223214285714,28.128571428571426,1347.6,576.2223214285714,35.128571428571426,1449.2,575.2223214285714,35.128571428571426,1551.7,575.2223214285714,35.128571428571426,1652.1,575.2223214285714,35.128571428571426,1758.7,575.2223214285714,35.128571428571426,1862.5,575.2223214285714,35.128571428571426,1963.3,575.2223214285714,35.128571428571426,2067.2,575.2223214285714,35.128571428571426,2167.3,575.2223214285714,35.128571428571426,2267.3,622.2223214285714,31.128571428571426,2380.7,634.2223214285714,28.128571428571426,2481.9,647.2223214285714,27.128571428571426,2582.7,660.2223214285714,24.128571428571426,2686.6,663.2223214285714,24.128571428571426,2787.3,663.2223214285714,24.128571428571426,2888.3,663.2223214285714,24.128571428571426,2996.2,663.2223214285714,24.128571428571426,3097.3,663.2223214285714,24.128571428571426,3202.5,663.2223214285714,24.128571428571426,3312.7,663.2223214285714,24.128571428571426,3412.9,663.2223214285714,24.128571428571426,3513.6,663.2223214285714,24.128571428571426,3617.2,663.2223214285714,24.128571428571426,3722.5,663.2223214285714,24.128571428571426,3830.3,663.2223214285714,24.128571428571426,3933.5,663.2223214285714,24.128571428571426,4036.8,663.2223214285714,24.128571428571426,4146.5,663.2223214285714,24.128571428571426,4246.6,663.2223214285714,24.128571428571426,4347.3,663.2223214285714,24.128571428571426,4451.9,663.2223214285714,24.128571428571426,4553.4,663.2223214285714,24.128571428571426,4657.7,663.2223214285714,24.128571428571426,4763.2,663.2223214285714,24.128571428571426,4867.3,663.2223214285714,24.128571428571426,4967.4]","[1346,1346,1000,0,346,""oops"",""right"",""down"",""bad_move"",3876.2,2529.8,2169.1,1346.4,360.7,""smooth"",""right"",""right"",""good_move"",7375.5,3499,3130.8,3876.5,368.2,""while_blue"",""right"",""down"",""bad_move"",10232.7,2856.9,2463,7375.8,393.9,""smooth"",""right"",""right"",""good_move"",17657.3,7424.5,2881.7,14393.3,382.3,""smooth"",""right"",""right"",""good_move"",20965.6,3307.2,2899,17658.4,408.2,""oops"",""up"",""up"",""good_move"",24231.8,3266,2900.1,20965.8,365.9,""smooth"",""up"",""up"",""good_move"",26891.3,2659.2,2287,24232.1,372.2,""oops"",""up"",""down"",""bad_move"",29828.4,2936.7,2555.8,26891.7,380.9,""oops"",""up"",""down"",""bad_move"",32562.4,2733.7,2380.8,29828.7,352.9,""oops"",""up"",""up"",""good_move"",35661.8,3099.2,2736.1,32562.6,363.1,""oops"",""up"",""down"",""bad_move""]","",""
"5897","","<div style=""width:500px;"">
  <p>What determined the result of this run?</p>
  </div>","2","html-slider-response","55","825707","0.0-5.0-1.9","155","1","2025-07-23 06:37:04","1f75c3e559b7213887762d5229550c2b","216.120.189.225","Mozilla/5.0 (Windows NT 10.0; Win64; x64) AppleWebKit/537.36 (KHTML, like Gecko) Chrome/138.0.0.0 Safari/537.36","WebKit","Chrome","138.0.0.0","Windows","10.0","https://app.prolific.com/","en-US,en;q=0.9","663b638be7226d4e3fcc255f","683dba2a8a9dda3513610c04","6880823013e66179db00c1ab","3","0","663b638be7226d4e3fcc255f","3","0","2025-07-23T06:50:56.258Z","","","","","","","","","","","AttribQ","","50","","","","","","","","","","","","","","","","","","","","","","","","","","","","",""
"5547","","<div style=""width:500px;"">
  <p>How much control did you have over the ball?</p>
  </div>","2","html-slider-response","56","831255","0.0-5.0-2.9","155","1","2025-07-23 06:37:04","1f75c3e559b7213887762d5229550c2b","216.120.189.225","Mozilla/5.0 (Windows NT 10.0; Win64; x64) AppleWebKit/537.36 (KHTML, like Gecko) Chrome/138.0.0.0 Safari/537.36","WebKit","Chrome","138.0.0.0","Windows","10.0","https://app.prolific.com/","en-US,en;q=0.9","663b638be7226d4e3fcc255f","683dba2a8a9dda3513610c04","6880823013e66179db00c1ab","3","0","663b638be7226d4e3fcc255f","3","0","2025-07-23T06:51:01.806Z","","","","","","","","","","","ControlQ","","50","","","","","","","","","","","","","","","","","","","","","","","","","","","","",""
"3450","","<div style=""width:500px;"">
  <p>How would you describe your current emotional state?</p>
  </div>","13","html-slider-response","57","834707","0.0-5.0-3.9","155","1","2025-07-23 06:37:04","1f75c3e559b7213887762d5229550c2b","216.120.189.225","Mozilla/5.0 (Windows NT 10.0; Win64; x64) AppleWebKit/537.36 (KHTML, like Gecko) Chrome/138.0.0.0 Safari/537.36","WebKit","Chrome","138.0.0.0","Windows","10.0","https://app.prolific.com/","en-US,en;q=0.9","663b638be7226d4e3fcc255f","683dba2a8a9dda3513610c04","6880823013e66179db00c1ab","3","0","663b638be7226d4e3fcc255f","3","0","2025-07-23T06:51:05.258Z","","","","","","","","","","","StressQ","","50","","","","","","","","","","","","","","","","","","","","","","","","","","","","",""
"4588","","<div style=""width:500px;"">
  <p>What best describes how you currently feel?</p>
  </div>","89","html-slider-response","58","839295","0.0-5.0-4.9","155","1","2025-07-23 06:37:04","1f75c3e559b7213887762d5229550c2b","216.120.189.225","Mozilla/5.0 (Windows NT 10.0; Win64; x64) AppleWebKit/537.36 (KHTML, like Gecko) Chrome/138.0.0.0 Safari/537.36","WebKit","Chrome","138.0.0.0","Windows","10.0","https://app.prolific.com/","en-US,en;q=0.9","663b638be7226d4e3fcc255f","683dba2a8a9dda3513610c04","6880823013e66179db00c1ab","3","0","663b638be7226d4e3fcc255f","3","0","2025-07-23T06:51:09.846Z","","","","","","","","","","","MotivationQ","","50","","","","","","","","","","","","","","","","","","","","","","","","","","","","",""
"","","","","ctl-task-cpt","59","886239","0.0-5.0-0.10","155","1","2025-07-23 06:37:04","1f75c3e559b7213887762d5229550c2b","216.120.189.225","Mozilla/5.0 (Windows NT 10.0; Win64; x64) AppleWebKit/537.36 (KHTML, like Gecko) Chrome/138.0.0.0 Safari/537.36","WebKit","Chrome","138.0.0.0","Windows","10.0","https://app.prolific.com/","en-US,en;q=0.9","663b638be7226d4e3fcc255f","683dba2a8a9dda3513610c04","6880823013e66179db00c1ab","3","0","663b638be7226d4e3fcc255f","3","0","2025-07-23T06:51:56.790Z","","","","","","","","","","","","","","win-only","3","g1:SW,g2:NE","0.5","11","0","846524.5","2029.7","7031.7","43923.4","1","4","4","6","2","-4","-5","0","0","0","1514.6","3000","-2625","[""up"",""right""]","{""num_key_presses"":11,""num_perfect"":5,""num_errors"":1,""num_randdir"":5,""num_randdir_good_moves"":2,""num_whilered"":0,""num_whileblue"":0,""num_blue"":1,""num_good_moves"":7}","[297.22232142857143,299.12857142857143,1.7,297.22232142857143,299.12857142857143,100.9,297.22232142857143,299.12857142857143,204.6,297.22232142857143,299.12857142857143,306.6,297.22232142857143,299.12857142857143,411.2,297.22232142857143,299.12857142857143,516.2,297.22232142857143,299.12857142857143,616.4,451.22232142857143,182.12857142857143,716.7,562.2223214285714,96.12857142857143,821.5,562.2223214285714,94.12857142857143,923.2,562.2223214285714,94.12857142857143,1023.7,562.2223214285714,94.12857142857143,1127,563.2223214285714,67.12857142857143,1231.4,561.2223214285714,65.12857142857143,1337.5,561.2223214285714,65.12857142857143,1437.7,561.2223214285714,65.12857142857143,1541.2,561.2223214285714,65.12857142857143,1642.3,561.2223214285714,65.12857142857143,1742.5,561.2223214285714,65.12857142857143,1847,561.2223214285714,65.12857142857143,1947.6,603.2223214285714,64.12857142857143,2057.4,639.2223214285714,71.12857142857143,2160.7,640.2223214285714,71.12857142857143,2261.3,636.2223214285714,71.12857142857143,2363.1,631.2223214285714,71.12857142857143,2464.4,630.2223214285714,71.12857142857143,2566.1,630.2223214285714,71.12857142857143,2673.1,630.2223214285714,71.12857142857143,2779,630.2223214285714,71.12857142857143,2881.1,630.2223214285714,71.12857142857143,2982.4,630.2223214285714,71.12857142857143,3089.4,630.2223214285714,71.12857142857143,3191.5,630.2223214285714,71.12857142857143,3295.7,630.2223214285714,71.12857142857143,3397.4,630.2223214285714,71.12857142857143,3498.9,639.2223214285714,84.12857142857143,3610.1,639.2223214285714,84.12857142857143,3714.3,638.2223214285714,82.12857142857143,3816.4,638.2223214285714,82.12857142857143,3917.3,638.2223214285714,82.12857142857143,4026.9,638.2223214285714,82.12857142857143,4130.8,638.2223214285714,82.12857142857143,4231.3,638.2223214285714,82.12857142857143,4332.6,638.2223214285714,82.12857142857143,4439.9,638.2223214285714,82.12857142857143,4540.9,638.2223214285714,82.12857142857143,4641.8,638.2223214285714,82.12857142857143,4741.8,638.2223214285714,82.12857142857143,4847.4,638.2223214285714,82.12857142857143,4951.1]","[1362.9,1362.9,1000,0,362.9,""smooth"",""right"",""right"",""good_move"",7511.6,6148.3,2258.8,4960.7,292.1,""oops"",""right"",""up"",""good_move"",10227.3,2715.4,2376.8,7511.9,338.6,""oops"",""right"",""up"",""good_move"",12837.7,2609.4,2249.9,10228.3,359.5,""oops"",""right"",""down"",""bad_move"",16092.3,3254.3,2848.2,12838,406.1,""smooth"",""up"",""up"",""good_move"",18988.2,2895.7,2535.3,16092.5,360.4,""oops"",""up"",""down"",""bad_move"",22373.7,3385.1,3024.2,18988.6,360.9,""smooth"",""up"",""up"",""good_move"",24451.4,2075.7,1731.7,22375.7,344.1,""smooth"",""right"",""right"",""good_move"",27465.6,3013.8,2689.1,24451.8,324.7,""oops"",""up"",""left"",""bad_move"",30995.5,3529.4,3178.1,27466.1,351.3,""smooth"",""right"",""right"",""good_move"",33172.4,2176.4,2824.8,30996,-648.4,""error"",""-"",""-"",""no_move""]","",""
"4680","","<div style=""width:500px;"">
  <p>What determined the result of this run?</p>
  </div>","0","html-slider-response","60","890920","0.0-5.0-1.10","155","1","2025-07-23 06:37:04","1f75c3e559b7213887762d5229550c2b","216.120.189.225","Mozilla/5.0 (Windows NT 10.0; Win64; x64) AppleWebKit/537.36 (KHTML, like Gecko) Chrome/138.0.0.0 Safari/537.36","WebKit","Chrome","138.0.0.0","Windows","10.0","https://app.prolific.com/","en-US,en;q=0.9","663b638be7226d4e3fcc255f","683dba2a8a9dda3513610c04","6880823013e66179db00c1ab","3","0","663b638be7226d4e3fcc255f","3","0","2025-07-23T06:52:01.473Z","","","","","","","","","","","AttribQ","","50","","","","","","","","","","","","","","","","","","","","","","","","","","","","",""
"6997","","<div style=""width:500px;"">
  <p>How much control did you have over the ball?</p>
  </div>","1","html-slider-response","61","897921","0.0-5.0-2.10","155","1","2025-07-23 06:37:04","1f75c3e559b7213887762d5229550c2b","216.120.189.225","Mozilla/5.0 (Windows NT 10.0; Win64; x64) AppleWebKit/537.36 (KHTML, like Gecko) Chrome/138.0.0.0 Safari/537.36","WebKit","Chrome","138.0.0.0","Windows","10.0","https://app.prolific.com/","en-US,en;q=0.9","663b638be7226d4e3fcc255f","683dba2a8a9dda3513610c04","6880823013e66179db00c1ab","3","0","663b638be7226d4e3fcc255f","3","0","2025-07-23T06:52:08.472Z","","","","","","","","","","","ControlQ","","50","","","","","","","","","","","","","","","","","","","","","","","","","","","","",""
"6859","","<div style=""width:500px;"">
  <p>How would you describe your current emotional state?</p>
  </div>","14","html-slider-response","62","904783","0.0-5.0-3.10","155","1","2025-07-23 06:37:04","1f75c3e559b7213887762d5229550c2b","216.120.189.225","Mozilla/5.0 (Windows NT 10.0; Win64; x64) AppleWebKit/537.36 (KHTML, like Gecko) Chrome/138.0.0.0 Safari/537.36","WebKit","Chrome","138.0.0.0","Windows","10.0","https://app.prolific.com/","en-US,en;q=0.9","663b638be7226d4e3fcc255f","683dba2a8a9dda3513610c04","6880823013e66179db00c1ab","3","0","663b638be7226d4e3fcc255f","3","0","2025-07-23T06:52:15.335Z","","","","","","","","","","","StressQ","","50","","","","","","","","","","","","","","","","","","","","","","","","","","","","",""
"13472","","<div style=""width:500px;"">
  <p>What best describes how you currently feel?</p>
  </div>","86","html-slider-response","63","918269","0.0-5.0-4.10","155","1","2025-07-23 06:37:04","1f75c3e559b7213887762d5229550c2b","216.120.189.225","Mozilla/5.0 (Windows NT 10.0; Win64; x64) AppleWebKit/537.36 (KHTML, like Gecko) Chrome/138.0.0.0 Safari/537.36","WebKit","Chrome","138.0.0.0","Windows","10.0","https://app.prolific.com/","en-US,en;q=0.9","663b638be7226d4e3fcc255f","683dba2a8a9dda3513610c04","6880823013e66179db00c1ab","3","0","663b638be7226d4e3fcc255f","3","0","2025-07-23T06:52:28.821Z","","","","","","","","","","","MotivationQ","","50","","","","","","","","","","","","","","","","","","","","","","","","","","","","",""
"","","","","ctl-task-cpt","64","949585","0.0-5.0-0.11","155","1","2025-07-23 06:37:04","1f75c3e559b7213887762d5229550c2b","216.120.189.225","Mozilla/5.0 (Windows NT 10.0; Win64; x64) AppleWebKit/537.36 (KHTML, like Gecko) Chrome/138.0.0.0 Safari/537.36","WebKit","Chrome","138.0.0.0","Windows","10.0","https://app.prolific.com/","en-US,en;q=0.9","663b638be7226d4e3fcc255f","683dba2a8a9dda3513610c04","6880823013e66179db00c1ab","3","0","663b638be7226d4e3fcc255f","3","0","2025-07-23T06:53:00.137Z","","","","","","","","","","","","","","win-only","2","g1:SE,g2:NW","0.6","12","0","925516.7","3289.7","8294.8","28272.1","1","4","8","6","2","8","8","8","0","0.06060606060606061","1934.7","3000","755","[""left"",""up""]","{""num_key_presses"":8,""num_perfect"":6,""num_errors"":0,""num_randdir"":2,""num_randdir_good_moves"":1,""num_whilered"":0,""num_whileblue"":0,""num_blue"":0,""num_good_moves"":7}","[293.22232142857143,297.12857142857143,0.2,293.22232142857143,297.12857142857143,106.6,293.22232142857143,297.12857142857143,207.1,293.22232142857143,297.12857142857143,307.1,293.22232142857143,297.12857142857143,412,293.22232142857143,297.12857142857143,517,293.22232142857143,297.12857142857143,623.6,227.22232142857143,211.12857142857143,723.6,164.22232142857143,149.12857142857143,826.4,164.22232142857143,149.12857142857143,927.2,164.22232142857143,149.12857142857143,1033.8,164.22232142857143,149.12857142857143,1137.7,122.22232142857143,95.12857142857143,1241.7,79.22232142857143,49.128571428571426,1343.2,67.22232142857143,44.128571428571426,1454.2,64.22232142857143,43.128571428571426,1556.8,64.22232142857143,43.128571428571426,1657.6,64.22232142857143,43.128571428571426,1762.5,64.22232142857143,43.128571428571426,1862.8,64.22232142857143,43.128571428571426,1968.2,64.22232142857143,43.128571428571426,2069.7,64.22232142857143,43.128571428571426,2171.5,64.22232142857143,43.128571428571426,2273.8,64.22232142857143,43.128571428571426,2380.2,27.222321428571426,35.128571428571426,2481.2,-10.777678571428574,30.128571428571426,2581.2,-20.777678571428574,29.128571428571426,2688.9,-24.777678571428574,27.128571428571426,2791.8,-31.777678571428574,22.128571428571426,2899.2,-38.777678571428574,26.128571428571426,3001.9,-82.77767857142857,90.12857142857143,3107,-88.77767857142857,103.12857142857143,3211.5,-88.77767857142857,103.12857142857143,3318,-88.77767857142857,103.12857142857143,3423.4,-88.77767857142857,103.12857142857143,3523.7,-92.77767857142857,107.12857142857143,3629.6,-110.77767857142857,129.12857142857143,3732.8,-110.77767857142857,129.12857142857143,3833.5,-110.77767857142857,129.12857142857143,3937.2,-110.77767857142857,129.12857142857143,4037.9,-110.77767857142857,129.12857142857143,4141.5,-110.77767857142857,129.12857142857143,4241.6,-110.77767857142857,129.12857142857143,4341.8,-110.77767857142857,129.12857142857143,4450.5,-110.77767857142857,129.12857142857143,4552.2,-110.77767857142857,129.12857142857143,4656.3,-110.77767857142857,129.12857142857143,4756.8,-110.77767857142857,129.12857142857143,4861.1,-110.77767857142857,129.12857142857143,4961.3]","[1335.7,1335.7,1000,0,335.7,""smooth"",""up"",""up"",""good_move"",3444.2,2108.1,1721.5,1336.1,386.6,""oops"",""left"",""left"",""good_move"",6631.9,3187.2,2805.4,3444.7,381.8,""smooth"",""left"",""left"",""good_move"",9533.9,2901.7,2563.9,6632.2,337.8,""smooth"",""left"",""left"",""good_move"",11535.7,2001.7,1615.8,9534.1,385.8,""smooth"",""up"",""up"",""good_move"",14481.5,2944.2,2626,11537.3,318.3,""oops"",""up"",""down"",""bad_move"",17351.6,2869.3,2519,14482.3,350.3,""smooth"",""up"",""up"",""good_move"",19864.8,2513,2160.3,17351.8,352.7,""smooth"",""up"",""up"",""good_move""]","",""
"9812","","<div style=""width:500px;"">
  <p>What determined the result of this run?</p>
  </div>","85","html-slider-response","65","959398","0.0-5.0-1.11","155","1","2025-07-23 06:37:04","1f75c3e559b7213887762d5229550c2b","216.120.189.225","Mozilla/5.0 (Windows NT 10.0; Win64; x64) AppleWebKit/537.36 (KHTML, like Gecko) Chrome/138.0.0.0 Safari/537.36","WebKit","Chrome","138.0.0.0","Windows","10.0","https://app.prolific.com/","en-US,en;q=0.9","663b638be7226d4e3fcc255f","683dba2a8a9dda3513610c04","6880823013e66179db00c1ab","3","0","663b638be7226d4e3fcc255f","3","0","2025-07-23T06:53:09.950Z","","","","","","","","","","","AttribQ","","50","","","","","","","","","","","","","","","","","","","","","","","","","","","","",""
"5119","","<div style=""width:500px;"">
  <p>How much control did you have over the ball?</p>
  </div>","90","html-slider-response","66","964519","0.0-5.0-2.11","155","1","2025-07-23 06:37:04","1f75c3e559b7213887762d5229550c2b","216.120.189.225","Mozilla/5.0 (Windows NT 10.0; Win64; x64) AppleWebKit/537.36 (KHTML, like Gecko) Chrome/138.0.0.0 Safari/537.36","WebKit","Chrome","138.0.0.0","Windows","10.0","https://app.prolific.com/","en-US,en;q=0.9","663b638be7226d4e3fcc255f","683dba2a8a9dda3513610c04","6880823013e66179db00c1ab","3","0","663b638be7226d4e3fcc255f","3","0","2025-07-23T06:53:15.071Z","","","","","","","","","","","ControlQ","","50","","","","","","","","","","","","","","","","","","","","","","","","","","","","",""
"6014","","<div style=""width:500px;"">
  <p>How would you describe your current emotional state?</p>
  </div>","3","html-slider-response","67","970534","0.0-5.0-3.11","155","1","2025-07-23 06:37:04","1f75c3e559b7213887762d5229550c2b","216.120.189.225","Mozilla/5.0 (Windows NT 10.0; Win64; x64) AppleWebKit/537.36 (KHTML, like Gecko) Chrome/138.0.0.0 Safari/537.36","WebKit","Chrome","138.0.0.0","Windows","10.0","https://app.prolific.com/","en-US,en;q=0.9","663b638be7226d4e3fcc255f","683dba2a8a9dda3513610c04","6880823013e66179db00c1ab","3","0","663b638be7226d4e3fcc255f","3","0","2025-07-23T06:53:21.086Z","","","","","","","","","","","StressQ","","50","","","","","","","","","","","","","","","","","","","","","","","","","","","","",""
"5578","","<div style=""width:500px;"">
  <p>What best describes how you currently feel?</p>
  </div>","94","html-slider-response","68","976115","0.0-5.0-4.11","155","1","2025-07-23 06:37:04","1f75c3e559b7213887762d5229550c2b","216.120.189.225","Mozilla/5.0 (Windows NT 10.0; Win64; x64) AppleWebKit/537.36 (KHTML, like Gecko) Chrome/138.0.0.0 Safari/537.36","WebKit","Chrome","138.0.0.0","Windows","10.0","https://app.prolific.com/","en-US,en;q=0.9","663b638be7226d4e3fcc255f","683dba2a8a9dda3513610c04","6880823013e66179db00c1ab","3","0","663b638be7226d4e3fcc255f","3","0","2025-07-23T06:53:26.667Z","","","","","","","","","","","MotivationQ","","50","","","","","","","","","","","","","","","","","","","","","","","","","","","","",""
"","","","","ctl-task-cpt","69","1027499","0.0-5.0-0.12","155","1","2025-07-23 06:37:04","1f75c3e559b7213887762d5229550c2b","216.120.189.225","Mozilla/5.0 (Windows NT 10.0; Win64; x64) AppleWebKit/537.36 (KHTML, like Gecko) Chrome/138.0.0.0 Safari/537.36","WebKit","Chrome","138.0.0.0","Windows","10.0","https://app.prolific.com/","en-US,en;q=0.9","663b638be7226d4e3fcc255f","683dba2a8a9dda3513610c04","6880823013e66179db00c1ab","3","0","663b638be7226d4e3fcc255f","3","0","2025-07-23T06:54:18.050Z","","","","","","","","","","","","","","win-only","2","g1:SE,g2:NW","0.7","13","0","983358","4084.9","9087.6","48349","1","4","4","6","2","4","3","11","8","0.08333333333333333","1551.8","3000","405","[""left"",""up""]","{""num_key_presses"":10,""num_perfect"":6,""num_errors"":1,""num_randdir"":3,""num_randdir_good_moves"":2,""num_whilered"":0,""num_whileblue"":1,""num_blue"":4,""num_good_moves"":8}","[290.22232142857143,296.12857142857143,0.2,290.22232142857143,296.12857142857143,102.6,290.22232142857143,296.12857142857143,203,290.22232142857143,296.12857142857143,310.8,290.22232142857143,296.12857142857143,413.5,290.22232142857143,296.12857142857143,516.4,290.22232142857143,296.12857142857143,620.7,218.22232142857143,223.12857142857143,736.1,121.22232142857143,127.12857142857143,836.9,102.22232142857143,117.12857142857143,944.9,100.22232142857143,116.12857142857143,1045.6,85.22232142857143,96.12857142857143,1148.7,84.22232142857143,94.12857142857143,1250.7,84.22232142857143,94.12857142857143,1352.6,84.22232142857143,94.12857142857143,1453.2,84.22232142857143,94.12857142857143,1554.1,84.22232142857143,94.12857142857143,1657.9,84.22232142857143,94.12857142857143,1762.1,84.22232142857143,94.12857142857143,1862.7,31.222321428571426,79.12857142857143,1966.4,-36.777678571428574,47.128571428571426,2067.6,-83.77767857142857,37.128571428571426,2167.8,-90.77767857142857,37.128571428571426,2284.1,-90.77767857142857,39.128571428571426,2387.3,-90.77767857142857,39.128571428571426,2502.2,-90.77767857142857,39.128571428571426,2602.6,-90.77767857142857,39.128571428571426,2703,-90.77767857142857,39.128571428571426,2807.2,-90.77767857142857,39.128571428571426,2907.6,-90.77767857142857,39.128571428571426,3007.9,-90.77767857142857,39.128571428571426,3115.1,-90.77767857142857,39.128571428571426,3217.2,-90.77767857142857,39.128571428571426,3334.4,-90.77767857142857,39.128571428571426,3436.7,-90.77767857142857,39.128571428571426,3544.6,-90.77767857142857,39.128571428571426,3647.8,-90.77767857142857,39.128571428571426,3752,-90.77767857142857,39.128571428571426,3852.3,-90.77767857142857,39.128571428571426,3952.9,-90.77767857142857,39.128571428571426,4058.4,-90.77767857142857,39.128571428571426,4162.1,-90.77767857142857,39.128571428571426,4266.8,-90.77767857142857,39.128571428571426,4367.6,-90.77767857142857,39.128571428571426,4470.8,-90.77767857142857,39.128571428571426,4571.2,-90.77767857142857,39.128571428571426,4671.4,-90.77767857142857,39.128571428571426,4771.7,-90.77767857142857,39.128571428571426,4878.2,-90.77767857142857,39.128571428571426,4983.2]","[1332,1332,1000,0,332,""oops"",""left"",""right"",""bad_move"",4880.9,3548.6,2846.5,1332.3,702.1,""smooth"",""up"",""up"",""good_move"",8247.5,3366.3,3002.5,4881.2,363.8,""oops"",""up"",""up"",""good_move"",14553,6305.3,2530,11650.7,372.3,""smooth"",""up"",""up"",""good_move"",21109.5,6553.5,2639.7,18158.9,311,""while_blue"",""left"",""right"",""bad_move"",24997.1,3886.4,3432.8,21110.7,453.6,""oops"",""left"",""left"",""good_move"",27158.8,2161.4,1729.1,24997.4,432.3,""smooth"",""left"",""left"",""good_move"",33109.7,5948.8,2094.3,30631.5,384,""smooth"",""left"",""left"",""good_move"",36213.6,3103.3,2733.7,33110.3,369.6,""smooth"",""left"",""left"",""good_move"",39143.2,2929.4,2516.4,36213.8,413,""smooth"",""left"",""left"",""good_move""]","",""
"5317","","<div style=""width:500px;"">
  <p>What determined the result of this run?</p>
  </div>","81","html-slider-response","70","1032817","0.0-5.0-1.12","155","1","2025-07-23 06:37:04","1f75c3e559b7213887762d5229550c2b","216.120.189.225","Mozilla/5.0 (Windows NT 10.0; Win64; x64) AppleWebKit/537.36 (KHTML, like Gecko) Chrome/138.0.0.0 Safari/537.36","WebKit","Chrome","138.0.0.0","Windows","10.0","https://app.prolific.com/","en-US,en;q=0.9","663b638be7226d4e3fcc255f","683dba2a8a9dda3513610c04","6880823013e66179db00c1ab","3","0","663b638be7226d4e3fcc255f","3","0","2025-07-23T06:54:23.368Z","","","","","","","","","","","AttribQ","","50","","","","","","","","","","","","","","","","","","","","","","","","","","","","",""
"6221","","<div style=""width:500px;"">
  <p>How much control did you have over the ball?</p>
  </div>","72","html-slider-response","71","1039041","0.0-5.0-2.12","155","1","2025-07-23 06:37:04","1f75c3e559b7213887762d5229550c2b","216.120.189.225","Mozilla/5.0 (Windows NT 10.0; Win64; x64) AppleWebKit/537.36 (KHTML, like Gecko) Chrome/138.0.0.0 Safari/537.36","WebKit","Chrome","138.0.0.0","Windows","10.0","https://app.prolific.com/","en-US,en;q=0.9","663b638be7226d4e3fcc255f","683dba2a8a9dda3513610c04","6880823013e66179db00c1ab","3","0","663b638be7226d4e3fcc255f","3","0","2025-07-23T06:54:29.593Z","","","","","","","","","","","ControlQ","","50","","","","","","","","","","","","","","","","","","","","","","","","","","","","",""
"24765","","<div style=""width:500px;"">
  <p>How would you describe your current emotional state?</p>
  </div>","0","html-slider-response","72","1063816","0.0-5.0-3.12","155","1","2025-07-23 06:37:04","1f75c3e559b7213887762d5229550c2b","216.120.189.225","Mozilla/5.0 (Windows NT 10.0; Win64; x64) AppleWebKit/537.36 (KHTML, like Gecko) Chrome/138.0.0.0 Safari/537.36","WebKit","Chrome","138.0.0.0","Windows","10.0","https://app.prolific.com/","en-US,en;q=0.9","663b638be7226d4e3fcc255f","683dba2a8a9dda3513610c04","6880823013e66179db00c1ab","3","0","663b638be7226d4e3fcc255f","3","0","2025-07-23T06:54:54.367Z","","","","","","","","","","","StressQ","","50","","","","","","","","","","","","","","","","","","","","","","","","","","","","",""
"11946","","<div style=""width:500px;"">
  <p>What best describes how you currently feel?</p>
  </div>","94","html-slider-response","73","1075766","0.0-5.0-4.12","155","1","2025-07-23 06:37:04","1f75c3e559b7213887762d5229550c2b","216.120.189.225","Mozilla/5.0 (Windows NT 10.0; Win64; x64) AppleWebKit/537.36 (KHTML, like Gecko) Chrome/138.0.0.0 Safari/537.36","WebKit","Chrome","138.0.0.0","Windows","10.0","https://app.prolific.com/","en-US,en;q=0.9","663b638be7226d4e3fcc255f","683dba2a8a9dda3513610c04","6880823013e66179db00c1ab","3","0","663b638be7226d4e3fcc255f","3","0","2025-07-23T06:55:06.319Z","","","","","","","","","","","MotivationQ","","50","","","","","","","","","","","","","","","","","","","","","","","","","","","","",""
"","","","","ctl-task-cpt","74","1103678","0.0-5.0-0.13","155","1","2025-07-23 06:37:04","1f75c3e559b7213887762d5229550c2b","216.120.189.225","Mozilla/5.0 (Windows NT 10.0; Win64; x64) AppleWebKit/537.36 (KHTML, like Gecko) Chrome/138.0.0.0 Safari/537.36","WebKit","Chrome","138.0.0.0","Windows","10.0","https://app.prolific.com/","en-US,en;q=0.9","663b638be7226d4e3fcc255f","683dba2a8a9dda3513610c04","6880823013e66179db00c1ab","3","0","663b638be7226d4e3fcc255f","3","0","2025-07-23T06:55:34.229Z","","","","","","","","","","","","","","win-only","1","g1:NE,g2:SW","0.8","14","0","1083007","1682.5","6683.4","24881.8","1","4","8","6","2","8","8","19","11","0.14393939393939395","1761.5","3000","1410","[""down"",""left""]","{""num_key_presses"":6,""num_perfect"":5,""num_errors"":0,""num_randdir"":1,""num_randdir_good_moves"":1,""num_whilered"":0,""num_whileblue"":0,""num_blue"":1,""num_good_moves"":6}","[296.22232142857143,300.12857142857143,0.3,296.22232142857143,300.12857142857143,103.7,296.22232142857143,300.12857142857143,219.5,296.22232142857143,300.12857142857143,320,296.22232142857143,300.12857142857143,434.2,296.22232142857143,300.12857142857143,534.2,296.22232142857143,300.12857142857143,635.3,265.22232142857143,327.12857142857143,744.8,184.22232142857143,417.12857142857143,848.9,174.22232142857143,433.12857142857143,951.7,174.22232142857143,433.12857142857143,1058.3,122.22232142857143,467.12857142857143,1161.9,40.222321428571426,536.1285714285714,1267,33.222321428571426,542.1285714285714,1372.1,30.222321428571426,545.1285714285714,1476.6,30.222321428571426,547.1285714285714,1585.3,30.222321428571426,547.1285714285714,1699.4,30.222321428571426,547.1285714285714,1800.1,30.222321428571426,547.1285714285714,1902.3,30.222321428571426,547.1285714285714,2012.4,30.222321428571426,547.1285714285714,2116.8,4.222321428571426,547.1285714285714,2217.9,-116.77767857142857,532.1285714285714,2331.2,-141.77767857142857,528.1285714285714,2435.3,-145.77767857142857,529.1285714285714,2542.3,-145.77767857142857,529.1285714285714,2645.1,-145.77767857142857,529.1285714285714,2752.5,-145.77767857142857,529.1285714285714,2864.3,-145.77767857142857,529.1285714285714,2965.9,-145.77767857142857,529.1285714285714,3068.2,-145.77767857142857,529.1285714285714,3170.9,-145.77767857142857,529.1285714285714,3277.6,-145.77767857142857,529.1285714285714,3378.9,-145.77767857142857,529.1285714285714,3479.1,-145.77767857142857,529.1285714285714,3579.3,-145.77767857142857,529.1285714285714,3684.9,-145.77767857142857,529.1285714285714,3785.4,-145.77767857142857,529.1285714285714,3887.3,-145.77767857142857,529.1285714285714,3992.7,-145.77767857142857,529.1285714285714,4094.4,-145.77767857142857,529.1285714285714,4195.3,-145.77767857142857,529.1285714285714,4299,-145.77767857142857,529.1285714285714,4400.8,-145.77767857142857,529.1285714285714,4503.4,-145.77767857142857,529.1285714285714,4608.7,-145.77767857142857,529.1285714285714,4709.8,-145.77767857142857,529.1285714285714,4810.9,-145.77767857142857,529.1285714285714,4916.7]","[1369.1,1369.1,1000,0,369.1,""smooth"",""down"",""down"",""good_move"",4443.3,3070.4,2700.6,1373,369.7,""smooth"",""down"",""down"",""good_move"",7148.5,2704.9,2351.4,4443.6,353.5,""oops"",""down"",""left"",""good_move"",10188.7,3039.9,2682.3,7148.8,357.6,""smooth"",""down"",""down"",""good_move"",15967.6,5774.7,2054.8,13450.2,462.7,""smooth"",""left"",""left"",""good_move"",18057.8,2089.7,1680.5,15968.1,409.2,""smooth"",""left"",""left"",""good_move""]","",""
"6860","","<div style=""width:500px;"">
  <p>What determined the result of this run?</p>
