"rt","response_timestamp","stimulus","response","trial_type","trial_index","time_elapsed","internal_node_id","run_id","condition","recorded_at","source_code_version","ip","user_agent","device","browser","browser_version","platform","platform_version","referer","accept_language","PROLIFIC_PID","STUDY_ID","SESSION_ID","WEEK","prolific_id","week","realtime","success","responses","item_order","radio_event_ids","radio_event_times","key_event_times","mouse_event_times","straightlining","zigzagging","honeypot","eventType","view_history","slider_start","which_type","canvas_config","goals_layout","control_level","trial_number","tutorial_trial_number","trial_start_time","phase1_start_time","phase2_start_time","phase3_start_time","goal_1_value","goal_1_distance","goal_2_value","goal_2_distance","goal_selected","outcome","outcome_total","participant_final_score","participant_initial_score","participant_final_score_prop","goal_choice_rt","allocated_time","allocated_time_remaining","goal_direction","counts","mouse_movements","key_presses","question_order","question_id"
"1867","1752053586419","<p style='font-size:40px;line-height:1.25'><strong>Welcome to the experiment!</strong></p><p style='font-size:1.1em;line-height:1.25'>Thank you for participanting in our experiment again! You will be asked to play the Dysfunctional Ball Game again. We will briefly recap the rules before we start.</p><p style='font-size:1.1em;line-height:1.25'>Press <strong>Next</strong> to continue.</p>","0","custom-html-button-response","0","1870","0.0-0.0","24","1","2025-07-09 09:33:04","01610cd0009c79a99da7d0a3353eb402","94.3.17.192","Mozilla/5.0 (X11; CrOS x86_64 14541.0.0) AppleWebKit/537.36 (KHTML, like Gecko) Chrome/137.0.0.0 Safari/537.36","WebKit","Chrome","137.0.0.0","ChromeOS","14541.0.0","https://app.prolific.com/","en-GB,en-US;q=0.9,en;q=0.8","5b5f23420085cb0001872849","683db7602f5db6a34d12d064","686e37418fd303357d7803f4","1","5b5f23420085cb0001872849","1","2025-07-09T09:33:06.422Z","","","","","","","","","","","","","","","","","","","","","","","","","","","","","","","","","","","","","","","","","",""
"5365","","","","fullscreen","1","8238","0.0-1.0","24","1","2025-07-09 09:33:04","01610cd0009c79a99da7d0a3353eb402","94.3.17.192","Mozilla/5.0 (X11; CrOS x86_64 14541.0.0) AppleWebKit/537.36 (KHTML, like Gecko) Chrome/137.0.0.0 Safari/537.36","WebKit","Chrome","137.0.0.0","ChromeOS","14541.0.0","https://app.prolific.com/","en-GB,en-US;q=0.9,en;q=0.8","5b5f23420085cb0001872849","683db7602f5db6a34d12d064","686e37418fd303357d7803f4","1","5b5f23420085cb0001872849","1","","true","","","","","","","","","","","","","","","","","","","","","","","","","","","","","","","","","","","","","","","","",""
"1198","1752053593988","<p style='font-size:1.1em;line-height:1.25'>In the following, we will ask you a few questions relating to your feelings in the last 24 hours.<br></p><p style='font-size:1.1em;line-height:1.25'>Press the <strong>Next</strong> button to continue.</p>","0","custom-html-button-response","2","9438","0.0-2.0-0.0","24","1","2025-07-09 09:33:04","01610cd0009c79a99da7d0a3353eb402","94.3.17.192","Mozilla/5.0 (X11; CrOS x86_64 14541.0.0) AppleWebKit/537.36 (KHTML, like Gecko) Chrome/137.0.0.0 Safari/537.36","WebKit","Chrome","137.0.0.0","ChromeOS","14541.0.0","https://app.prolific.com/","en-GB,en-US;q=0.9,en;q=0.8","5b5f23420085cb0001872849","683db7602f5db6a34d12d064","686e37418fd303357d7803f4","1","5b5f23420085cb0001872849","1","2025-07-09T09:33:13.990Z","","","","","","","","","","","","","","","","","","","","","","","","","","","","","","","","","","","","","","","","","",""
"37751.89999999991","","","","survey-template","3","47203","0.0-2.0-1.0","24","1","2025-07-09 09:33:04","01610cd0009c79a99da7d0a3353eb402","94.3.17.192","Mozilla/5.0 (X11; CrOS x86_64 14541.0.0) AppleWebKit/537.36 (KHTML, like Gecko) Chrome/137.0.0.0 Safari/537.36","WebKit","Chrome","137.0.0.0","ChromeOS","14541.0.0","https://app.prolific.com/","en-GB,en-US;q=0.9,en;q=0.8","5b5f23420085cb0001872849","683db7602f5db6a34d12d064","686e37418fd303357d7803f4","1","5b5f23420085cb0001872849","1","2025-07-09T09:33:51.754Z","","{""Q01"":""3"",""Q02"":""3"",""Q03"":""1"",""Q04"":""3"",""Q05"":""1"",""Q06"":""2"",""Q07"":""1"",""Q08"":""0"",""Q09"":""1"",""Q10"":""0"",""Q11"":""3"",""Q12"":""1"",""Q13"":""5"",""Q14"":""2"",""Q15"":""0"",""Q16"":""0"",""Q17"":""0"",""Q18"":""0"",""Q19"":""0"",""Q20"":""0"",""Q21"":""0"",""Q22"":""0""}","[0,1,2,3,4,5,6,7,8,9,10,11,12,13,14,15,16,17,18,19,20,21]","[""Q01"",""Q02"",""Q03"",""Q04"",""Q05"",""Q06"",""Q07"",""Q08"",""Q09"",""Q10"",""Q11"",""Q12"",""Q13"",""Q14"",""Q15"",""Q16"",""Q17"",""Q18"",""Q19"",""Q20"",""Q21"",""Q22""]","[2532,3503.899999999907,4808.699999999953,6994.199999999953,7893,9075.09999999986,10156.299999999814,11872.699999999953,13010.59999999986,14068.299999999814,17997.59999999986,18906.09999999986,20642.699999999953,23106.199999999953,24339.899999999907,26110.799999999814,27474.799999999814,28492.299999999814,32254,34255.39999999991,35654.19999999995,36726.299999999814]","[]","[0.2999999998137355,2532,3503.899999999907,4808.699999999953,6143.799999999814,6994.199999999953,7893,9075.09999999986,10156.299999999814,11872.699999999953,13010.59999999986,14068.299999999814,14731.199999999953,17997.59999999986,18906.09999999986,20642.699999999953,23106.199999999953,24339.899999999907,26110.799999999814,27474.799999999814,28492.299999999814,29080.399999999907,32254,34255.39999999991,35654.19999999995,36726.299999999814,37740]","0.45454545454545453","0.23809523809523808","0","drsp","","","","","","","","","","","","","","","","","","","","","","","","","","","","","","",""
"5999.600000000093","","","","survey-template","4","53206","0.0-2.0-2.0","24","1","2025-07-09 09:33:04","01610cd0009c79a99da7d0a3353eb402","94.3.17.192","Mozilla/5.0 (X11; CrOS x86_64 14541.0.0) AppleWebKit/537.36 (KHTML, like Gecko) Chrome/137.0.0.0 Safari/537.36","WebKit","Chrome","137.0.0.0","ChromeOS","14541.0.0","https://app.prolific.com/","en-GB,en-US;q=0.9,en;q=0.8","5b5f23420085cb0001872849","683db7602f5db6a34d12d064","686e37418fd303357d7803f4","1","5b5f23420085cb0001872849","1","2025-07-09T09:33:57.758Z","","{""Q01"":""3"",""Q02"":""4"",""Q03"":""1""}","[0,1,2]","[""Q01"",""Q02"",""Q03""]","[2261.600000000093,3869.5,5179.800000000047]","[]","[2261.600000000093,3869.5,5179.800000000047,5997]","0.6666666666666666","0","0","stress","","","","","","","","","","","","","","","","","","","","","","","","","","","","","","",""
"12440","","","","instructions","5","65650","0.0-3.0-0.0","24","1","2025-07-09 09:33:04","01610cd0009c79a99da7d0a3353eb402","94.3.17.192","Mozilla/5.0 (X11; CrOS x86_64 14541.0.0) AppleWebKit/537.36 (KHTML, like Gecko) Chrome/137.0.0.0 Safari/537.36","WebKit","Chrome","137.0.0.0","ChromeOS","14541.0.0","https://app.prolific.com/","en-GB,en-US;q=0.9,en;q=0.8","5b5f23420085cb0001872849","683db7602f5db6a34d12d064","686e37418fd303357d7803f4","1","5b5f23420085cb0001872849","1","","","","","","","","","","","","","[{""page_index"":0,""viewing_time"":12440}]","","","","","","","","","","","","","","","","","","","","","","","","","","","","","",""
"3031","","<p>Before you start with this game please answer the following three questions yourself. </p>
  <p>Through this game, we measure several aspects of your cognitive performance, such as reaction times, multi-tasking capabilities </p>
  <p>and the ability to assess the situation you are in.</p>
  <p></p>
  <p><b>How good do you usually are in such tasks?</b></p>","60","html-slider-response","6","68685","0.0-4.0-0.0","24","1","2025-07-09 09:33:04","01610cd0009c79a99da7d0a3353eb402","94.3.17.192","Mozilla/5.0 (X11; CrOS x86_64 14541.0.0) AppleWebKit/537.36 (KHTML, like Gecko) Chrome/137.0.0.0 Safari/537.36","WebKit","Chrome","137.0.0.0","ChromeOS","14541.0.0","https://app.prolific.com/","en-GB,en-US;q=0.9,en;q=0.8","5b5f23420085cb0001872849","683db7602f5db6a34d12d064","686e37418fd303357d7803f4","1","5b5f23420085cb0001872849","1","2025-07-09T09:34:13.236Z","","","","","","","","","","","PreSkillQ","","50","","","","","","","","","","","","","","","","","","","","","","","","","","","","",""
"2703","","<div style=""width:500px;"">
  <p>How well do you think you will perform in this task compared to other participants?</p>
  </div>","37","html-slider-response","7","71391","0.0-4.0-1.0","24","1","2025-07-09 09:33:04","01610cd0009c79a99da7d0a3353eb402","94.3.17.192","Mozilla/5.0 (X11; CrOS x86_64 14541.0.0) AppleWebKit/537.36 (KHTML, like Gecko) Chrome/137.0.0.0 Safari/537.36","WebKit","Chrome","137.0.0.0","ChromeOS","14541.0.0","https://app.prolific.com/","en-GB,en-US;q=0.9,en;q=0.8","5b5f23420085cb0001872849","683db7602f5db6a34d12d064","686e37418fd303357d7803f4","1","5b5f23420085cb0001872849","1","2025-07-09T09:34:15.942Z","","","","","","","","","","","PrePerfQ","","50","","","","","","","","","","","","","","","","","","","","","","","","","","","","",""
"3442","","<div style=""width:500px;"">
  <p>What best describes how you currently feel?</p>
  </div>","45","html-slider-response","8","74836","0.0-4.0-2.0","24","1","2025-07-09 09:33:04","01610cd0009c79a99da7d0a3353eb402","94.3.17.192","Mozilla/5.0 (X11; CrOS x86_64 14541.0.0) AppleWebKit/537.36 (KHTML, like Gecko) Chrome/137.0.0.0 Safari/537.36","WebKit","Chrome","137.0.0.0","ChromeOS","14541.0.0","https://app.prolific.com/","en-GB,en-US;q=0.9,en;q=0.8","5b5f23420085cb0001872849","683db7602f5db6a34d12d064","686e37418fd303357d7803f4","1","5b5f23420085cb0001872849","1","2025-07-09T09:34:19.387Z","","","","","","","","","","","PreMotivationQ","","50","","","","","","","","","","","","","","","","","","","","","","","","","","","","",""
"","","","","ctl-task-cpt","9","99796","0.0-5.0-0.0","24","1","2025-07-09 09:33:04","01610cd0009c79a99da7d0a3353eb402","94.3.17.192","Mozilla/5.0 (X11; CrOS x86_64 14541.0.0) AppleWebKit/537.36 (KHTML, like Gecko) Chrome/137.0.0.0 Safari/537.36","WebKit","Chrome","137.0.0.0","ChromeOS","14541.0.0","https://app.prolific.com/","en-GB,en-US;q=0.9,en;q=0.8","5b5f23420085cb0001872849","683db7602f5db6a34d12d064","686e37418fd303357d7803f4","1","5b5f23420085cb0001872849","1","2025-07-09T09:34:44.347Z","","","","","","","","","","","","","","win-only","2","g1:SE,g2:NW","1","1","0","75889.8","1420","6421.1","21946.2","1","4","8","6","2","8","8","8","0","0.06060606060606061","1089.6","3000","1120","[""left"",""up""]","{""num_key_presses"":6,""num_perfect"":6,""num_errors"":0,""num_randdir"":0,""num_randdir_good_moves"":0,""num_whilered"":0,""num_whileblue"":0,""num_blue"":0,""num_good_moves"":6}","[414.0714133126395,422.82142761775424,0.7,414.0714133126395,422.82142761775424,100.9,414.0714133126395,422.82142761775424,201,414.0714133126395,422.82142761775424,306.2,414.0714133126395,422.82142761775424,410.7,414.0714133126395,422.82142761775424,515.6,221.5714133126395,249.07142761775424,616.1,135.3214133126395,141.57142761775424,726.8,117.8214133126395,109.07142761775425,830.3,115.3214133126395,97.82142761775425,932.7,115.3214133126395,97.82142761775425,1039,115.3214133126395,97.82142761775425,1142.3,115.3214133126395,97.82142761775425,1244,115.3214133126395,97.82142761775425,1345.4,115.3214133126395,97.82142761775425,1445.9,115.3214133126395,97.82142761775425,1546,-199.6785866873605,237.82142761775424,1646.6,-240.9285866873605,270.32142761775424,1748.7,-240.9285866873605,270.32142761775424,1851.7,-240.9285866873605,270.32142761775424,1951.9,-240.9285866873605,270.32142761775424,2055.9,-240.9285866873605,270.32142761775424,2156.4,-240.9285866873605,270.32142761775424,2260.8,-240.9285866873605,270.32142761775424,2360.9,-240.9285866873605,270.32142761775424,2460.9,-240.9285866873605,270.32142761775424,2560.9,-240.9285866873605,270.32142761775424,2661,-240.9285866873605,270.32142761775424,2765.8,-240.9285866873605,270.32142761775424,2871.2,-240.9285866873605,270.32142761775424,2971.2,-240.9285866873605,270.32142761775424,3075.6,-240.9285866873605,270.32142761775424,3176.4,-240.9285866873605,270.32142761775424,3281,-240.9285866873605,270.32142761775424,3386.1,-240.9285866873605,270.32142761775424,3491,-240.9285866873605,270.32142761775424,3597.7,-240.9285866873605,270.32142761775424,3700.9,-240.9285866873605,270.32142761775424,3801.1,-240.9285866873605,270.32142761775424,3901.2,-240.9285866873605,270.32142761775424,4006,-240.9285866873605,270.32142761775424,4107.1,-240.9285866873605,270.32142761775424,4210.6,-240.9285866873605,270.32142761775424,4310.8,-240.9285866873605,270.32142761775424,4411,-240.9285866873605,270.32142761775424,4515.7,-240.9285866873605,270.32142761775424,4616,-240.9285866873605,270.32142761775424,4723.3,-240.9285866873605,270.32142761775424,4826.3,-240.9285866873605,270.32142761775424,4930.7]","[1392,1392,1000,0.1,392,""smooth"",""up"",""up"",""good_move"",4104.4,2711.4,2378,1393.2,333.3,""smooth"",""left"",""left"",""good_move"",6457.3,2351.6,2042.4,4105.7,309.2,""smooth"",""up"",""up"",""good_move"",9504.5,3046.5,2707.8,6458.1,338.7,""smooth"",""left"",""left"",""good_move"",11996,2490.9,2185.8,9505.2,305.1,""smooth"",""up"",""up"",""good_move"",15434.5,3437.6,3152.6,11996.9,285,""smooth"",""left"",""left"",""good_move""]","",""
"2938","","<div style=""width:500px;"">
  <p>What determined the result of this run?</p>
  </div>","90","html-slider-response","10","102739","0.0-5.0-1.0","24","1","2025-07-09 09:33:04","01610cd0009c79a99da7d0a3353eb402","94.3.17.192","Mozilla/5.0 (X11; CrOS x86_64 14541.0.0) AppleWebKit/537.36 (KHTML, like Gecko) Chrome/137.0.0.0 Safari/537.36","WebKit","Chrome","137.0.0.0","ChromeOS","14541.0.0","https://app.prolific.com/","en-GB,en-US;q=0.9,en;q=0.8","5b5f23420085cb0001872849","683db7602f5db6a34d12d064","686e37418fd303357d7803f4","1","5b5f23420085cb0001872849","1","2025-07-09T09:34:47.290Z","","","","","","","","","","","AttribQ","","50","","","","","","","","","","","","","","","","","","","","","","","","","","","","",""
"2332","","<div style=""width:500px;"">
  <p>How much control did you have over the ball?</p>
  </div>","85","html-slider-response","11","105074","0.0-5.0-2.0","24","1","2025-07-09 09:33:04","01610cd0009c79a99da7d0a3353eb402","94.3.17.192","Mozilla/5.0 (X11; CrOS x86_64 14541.0.0) AppleWebKit/537.36 (KHTML, like Gecko) Chrome/137.0.0.0 Safari/537.36","WebKit","Chrome","137.0.0.0","ChromeOS","14541.0.0","https://app.prolific.com/","en-GB,en-US;q=0.9,en;q=0.8","5b5f23420085cb0001872849","683db7602f5db6a34d12d064","686e37418fd303357d7803f4","1","5b5f23420085cb0001872849","1","2025-07-09T09:34:49.625Z","","","","","","","","","","","ControlQ","","50","","","","","","","","","","","","","","","","","","","","","","","","","","","","",""
"2803","","<div style=""width:500px;"">
  <p>How would you describe your current emotional state?</p>
  </div>","41","html-slider-response","12","107880","0.0-5.0-3.0","24","1","2025-07-09 09:33:04","01610cd0009c79a99da7d0a3353eb402","94.3.17.192","Mozilla/5.0 (X11; CrOS x86_64 14541.0.0) AppleWebKit/537.36 (KHTML, like Gecko) Chrome/137.0.0.0 Safari/537.36","WebKit","Chrome","137.0.0.0","ChromeOS","14541.0.0","https://app.prolific.com/","en-GB,en-US;q=0.9,en;q=0.8","5b5f23420085cb0001872849","683db7602f5db6a34d12d064","686e37418fd303357d7803f4","1","5b5f23420085cb0001872849","1","2025-07-09T09:34:52.431Z","","","","","","","","","","","StressQ","","50","","","","","","","","","","","","","","","","","","","","","","","","","","","","",""
"2522","","<div style=""width:500px;"">
  <p>What best describes how you currently feel?</p>
  </div>","44","html-slider-response","13","110406","0.0-5.0-4.0","24","1","2025-07-09 09:33:04","01610cd0009c79a99da7d0a3353eb402","94.3.17.192","Mozilla/5.0 (X11; CrOS x86_64 14541.0.0) AppleWebKit/537.36 (KHTML, like Gecko) Chrome/137.0.0.0 Safari/537.36","WebKit","Chrome","137.0.0.0","ChromeOS","14541.0.0","https://app.prolific.com/","en-GB,en-US;q=0.9,en;q=0.8","5b5f23420085cb0001872849","683db7602f5db6a34d12d064","686e37418fd303357d7803f4","1","5b5f23420085cb0001872849","1","2025-07-09T09:34:54.957Z","","","","","","","","","","","MotivationQ","","50","","","","","","","","","","","","","","","","","","","","","","","","","","","","",""
"","","","","ctl-task-cpt","14","144614","0.0-5.0-0.1","24","1","2025-07-09 09:33:04","01610cd0009c79a99da7d0a3353eb402","94.3.17.192","Mozilla/5.0 (X11; CrOS x86_64 14541.0.0) AppleWebKit/537.36 (KHTML, like Gecko) Chrome/137.0.0.0 Safari/537.36","WebKit","Chrome","137.0.0.0","ChromeOS","14541.0.0","https://app.prolific.com/","en-GB,en-US;q=0.9,en;q=0.8","5b5f23420085cb0001872849","683db7602f5db6a34d12d064","686e37418fd303357d7803f4","1","5b5f23420085cb0001872849","1","2025-07-09T09:35:29.166Z","","","","","","","","","","","","","","win-only","3","g1:SW,g2:NE","0.9","2","0","111459.5","1322.3","6326.4","31191.2","1","4","4","6","2","4","2","10","8","0.07575757575757576","1207.4","3000","690","[""up"",""right""]","{""num_key_presses"":9,""num_perfect"":6,""num_errors"":2,""num_randdir"":1,""num_randdir_good_moves"":0,""num_whilered"":0,""num_whileblue"":1,""num_blue"":2,""num_good_moves"":7}","[417.8214133126395,417.82142761775424,1.1,417.8214133126395,417.82142761775424,103.8,417.8214133126395,417.82142761775424,203.8,417.8214133126395,417.82142761775424,303.8,417.8214133126395,417.82142761775424,408.7,417.8214133126395,417.82142761775424,518.1,417.8214133126395,417.82142761775424,618.7,660.3214133126395,171.57142761775424,723.2,802.8214133126395,45.32142761775425,824.8,805.3214133126395,52.82142761775425,934.7,776.5714133126395,79.07142761775425,1035.6,776.5714133126395,79.07142761775425,1139.8,776.5714133126395,79.07142761775425,1248.8,776.5714133126395,79.07142761775425,1353.2,776.5714133126395,79.07142761775425,1454.3,1030.3214133126396,186.57142761775424,1556.8,1191.5714133126396,406.57142761775424,1658.8,1191.5714133126396,406.57142761775424,1763.9,1191.5714133126396,406.57142761775424,1864.7,1191.5714133126396,406.57142761775424,1969.7,1191.5714133126396,406.57142761775424,2069.9,1191.5714133126396,406.57142761775424,2174,1191.5714133126396,406.57142761775424,2279,1191.5714133126396,406.57142761775424,2380.5,1191.5714133126396,406.57142761775424,2483.6,1191.5714133126396,406.57142761775424,2588.4,1191.5714133126396,406.57142761775424,2693.1,1191.5714133126396,406.57142761775424,2794,1191.5714133126396,406.57142761775424,2897.7,1191.5714133126396,406.57142761775424,2999.7,1191.5714133126396,406.57142761775424,3100.8,1191.5714133126396,406.57142761775424,3200.9,1191.5714133126396,406.57142761775424,3303.6,1191.5714133126396,406.57142761775424,3405.2,1191.5714133126396,406.57142761775424,3509,1191.5714133126396,406.57142761775424,3609,1191.5714133126396,406.57142761775424,3713.9,1191.5714133126396,406.57142761775424,3813.9,1191.5714133126396,406.57142761775424,3919.6,1191.5714133126396,406.57142761775424,4023.8,1191.5714133126396,406.57142761775424,4129.1,1191.5714133126396,406.57142761775424,4231.9,1191.5714133126396,406.57142761775424,4333.9,1191.5714133126396,406.57142761775424,4433.9,1191.5714133126396,406.57142761775424,4538.6,1191.5714133126396,406.57142761775424,4638.7,1191.5714133126396,406.57142761775424,4738.7,1191.5714133126396,406.57142761775424,4846.9,1191.5714133126396,406.57142761775424,4948.8]","[1331.7,1331.7,1000,0,331.7,""smooth"",""up"",""up"",""good_move"",3500.5,2168.2,1916.3,1332.4,251.8,""smooth"",""right"",""right"",""good_move"",6774.2,3273,2998,3501.2,275,""while_blue"",""up"",""right"",""good_move"",9003,2228,1883.6,6775.1,344.3,""oops"",""up"",""down"",""bad_move"",13124.8,4120.2,3800.8,9004.6,319.5,""smooth"",""up"",""up"",""good_move"",16046.7,2918.8,2599.1,13128,319.6,""smooth"",""up"",""up"",""good_move"",17918.5,1871,1376.5,16047.5,494.5,""smooth"",""up"",""up"",""good_move"",21473,3554.1,2263.5,21159.2,-1949.7,""error"",""-"",""-"",""no_move"",24772.5,3297.5,1986.9,22479.3,306.3,""smooth"",""right"",""right"",""good_move""]","",""
"3253","","<div style=""width:500px;"">
  <p>What determined the result of this run?</p>
  </div>","61","html-slider-response","15","147871","0.0-5.0-1.1","24","1","2025-07-09 09:33:04","01610cd0009c79a99da7d0a3353eb402","94.3.17.192","Mozilla/5.0 (X11; CrOS x86_64 14541.0.0) AppleWebKit/537.36 (KHTML, like Gecko) Chrome/137.0.0.0 Safari/537.36","WebKit","Chrome","137.0.0.0","ChromeOS","14541.0.0","https://app.prolific.com/","en-GB,en-US;q=0.9,en;q=0.8","5b5f23420085cb0001872849","683db7602f5db6a34d12d064","686e37418fd303357d7803f4","1","5b5f23420085cb0001872849","1","2025-07-09T09:35:32.422Z","","","","","","","","","","","AttribQ","","50","","","","","","","","","","","","","","","","","","","","","","","","","","","","",""
"2088","","<div style=""width:500px;"">
  <p>How much control did you have over the ball?</p>
  </div>","73","html-slider-response","16","149961","0.0-5.0-2.1","24","1","2025-07-09 09:33:04","01610cd0009c79a99da7d0a3353eb402","94.3.17.192","Mozilla/5.0 (X11; CrOS x86_64 14541.0.0) AppleWebKit/537.36 (KHTML, like Gecko) Chrome/137.0.0.0 Safari/537.36","WebKit","Chrome","137.0.0.0","ChromeOS","14541.0.0","https://app.prolific.com/","en-GB,en-US;q=0.9,en;q=0.8","5b5f23420085cb0001872849","683db7602f5db6a34d12d064","686e37418fd303357d7803f4","1","5b5f23420085cb0001872849","1","2025-07-09T09:35:34.512Z","","","","","","","","","","","ControlQ","","50","","","","","","","","","","","","","","","","","","","","","","","","","","","","",""
"2361","","<div style=""width:500px;"">
  <p>How would you describe your current emotional state?</p>
  </div>","62","html-slider-response","17","152324","0.0-5.0-3.1","24","1","2025-07-09 09:33:04","01610cd0009c79a99da7d0a3353eb402","94.3.17.192","Mozilla/5.0 (X11; CrOS x86_64 14541.0.0) AppleWebKit/537.36 (KHTML, like Gecko) Chrome/137.0.0.0 Safari/537.36","WebKit","Chrome","137.0.0.0","ChromeOS","14541.0.0","https://app.prolific.com/","en-GB,en-US;q=0.9,en;q=0.8","5b5f23420085cb0001872849","683db7602f5db6a34d12d064","686e37418fd303357d7803f4","1","5b5f23420085cb0001872849","1","2025-07-09T09:35:36.875Z","","","","","","","","","","","StressQ","","50","","","","","","","","","","","","","","","","","","","","","","","","","","","","",""
"1750","","<div style=""width:500px;"">
  <p>What best describes how you currently feel?</p>
  </div>","69","html-slider-response","18","154077","0.0-5.0-4.1","24","1","2025-07-09 09:33:04","01610cd0009c79a99da7d0a3353eb402","94.3.17.192","Mozilla/5.0 (X11; CrOS x86_64 14541.0.0) AppleWebKit/537.36 (KHTML, like Gecko) Chrome/137.0.0.0 Safari/537.36","WebKit","Chrome","137.0.0.0","ChromeOS","14541.0.0","https://app.prolific.com/","en-GB,en-US;q=0.9,en;q=0.8","5b5f23420085cb0001872849","683db7602f5db6a34d12d064","686e37418fd303357d7803f4","1","5b5f23420085cb0001872849","1","2025-07-09T09:35:38.628Z","","","","","","","","","","","MotivationQ","","50","","","","","","","","","","","","","","","","","","","","","","","","","","","","",""
"","","","","ctl-task-cpt","19","188918","0.0-5.0-0.2","24","1","2025-07-09 09:33:04","01610cd0009c79a99da7d0a3353eb402","94.3.17.192","Mozilla/5.0 (X11; CrOS x86_64 14541.0.0) AppleWebKit/537.36 (KHTML, like Gecko) Chrome/137.0.0.0 Safari/537.36","WebKit","Chrome","137.0.0.0","ChromeOS","14541.0.0","https://app.prolific.com/","en-GB,en-US;q=0.9,en;q=0.8","5b5f23420085cb0001872849","683db7602f5db6a34d12d064","686e37418fd303357d7803f4","1","5b5f23420085cb0001872849","1","2025-07-09T09:36:13.469Z","","","","","","","","","","","","","","win-only","1","g1:NE,g2:SW","0.8","3","0","155129.3","1297.6","6301.6","31830.5","1","4","4","6","2","4","4","14","10","0.10606060606060606","1363.2","3000","560","[""down"",""left""]","{""num_key_presses"":8,""num_perfect"":7,""num_errors"":0,""num_randdir"":1,""num_randdir_good_moves"":0,""num_whilered"":0,""num_whileblue"":0,""num_blue"":1,""num_good_moves"":7}","[409.0714133126395,407.82142761775424,0.9,409.0714133126395,407.82142761775424,103.7,409.0714133126395,407.82142761775424,204.5,409.0714133126395,407.82142761775424,308.1,409.0714133126395,407.82142761775424,408.1,409.0714133126395,407.82142761775424,512.9,409.0714133126395,407.82142761775424,619.5,409.0714133126395,407.82142761775424,723,409.0714133126395,407.82142761775424,825.2,186.5714133126395,670.3214276177542,928,81.5714133126395,772.8214276177542,1033.4,75.3214133126395,777.8214276177542,1137.9,74.0714133126395,777.8214276177542,1238.5,74.0714133126395,777.8214276177542,1341.6,74.0714133126395,777.8214276177542,1443.4,74.0714133126395,777.8214276177542,1544.3,74.0714133126395,777.8214276177542,1655.4,717.8214133126395,521.5714276177542,1758.1,1010.3214133126395,687.8214276177542,1859.1,1010.3214133126395,687.8214276177542,1972.1,1010.3214133126395,687.8214276177542,2073.6,1010.3214133126395,687.8214276177542,2174.2,1010.3214133126395,687.8214276177542,2276,1010.3214133126395,687.8214276177542,2380.2,1010.3214133126395,687.8214276177542,2484.9,1010.3214133126395,687.8214276177542,2588.3,1010.3214133126395,687.8214276177542,2688.9,1010.3214133126395,687.8214276177542,2796.5,1010.3214133126395,687.8214276177542,2898.5,1010.3214133126395,687.8214276177542,3002.9,1010.3214133126395,687.8214276177542,3103.1,1010.3214133126395,687.8214276177542,3207.9,1010.3214133126395,687.8214276177542,3308,1010.3214133126395,687.8214276177542,3408,1010.3214133126395,687.8214276177542,3508,1010.3214133126395,687.8214276177542,3608,1010.3214133126395,687.8214276177542,3712.1,1010.3214133126395,687.8214276177542,3812,1010.3214133126395,687.8214276177542,3913.7,1010.3214133126395,687.8214276177542,4018.8,1010.3214133126395,687.8214276177542,4123.3,1010.3214133126395,687.8214276177542,4223.3,1010.3214133126395,687.8214276177542,4323.7,1010.3214133126395,687.8214276177542,4433.3,1010.3214133126395,687.8214276177542,4535.3,1010.3214133126395,687.8214276177542,4637.7,1010.3214133126395,687.8214276177542,4738.6,1010.3214133126395,687.8214276177542,4838.8,1010.3214133126395,687.8214276177542,4942.4]","[1380.8,1380.8,1000,0,380.8,""oops"",""down"",""right"",""bad_move"",4363.6,2981.4,2654.5,1382.2,326.9,""smooth"",""down"",""down"",""good_move"",7422.2,3057.5,2775.2,4364.7,282.4,""smooth"",""down"",""down"",""good_move"",10418.3,2995.7,2664.1,7422.6,331.6,""smooth"",""left"",""left"",""good_move"",13239.7,2820.4,2516.9,10419.4,303.5,""smooth"",""left"",""left"",""good_move"",15768.4,2526.8,2221.9,13241.6,304.9,""smooth"",""left"",""left"",""good_move"",18591,2821.8,2487.6,15769.2,334.2,""smooth"",""left"",""left"",""good_move"",25434.2,6842.7,2482.1,22624.5,327.6,""smooth"",""down"",""down"",""good_move""]","",""
"4032","","<div style=""width:500px;"">
  <p>What determined the result of this run?</p>
  </div>","80","html-slider-response","20","192954","0.0-5.0-1.2","24","1","2025-07-09 09:33:04","01610cd0009c79a99da7d0a3353eb402","94.3.17.192","Mozilla/5.0 (X11; CrOS x86_64 14541.0.0) AppleWebKit/537.36 (KHTML, like Gecko) Chrome/137.0.0.0 Safari/537.36","WebKit","Chrome","137.0.0.0","ChromeOS","14541.0.0","https://app.prolific.com/","en-GB,en-US;q=0.9,en;q=0.8","5b5f23420085cb0001872849","683db7602f5db6a34d12d064","686e37418fd303357d7803f4","1","5b5f23420085cb0001872849","1","2025-07-09T09:36:17.506Z","","","","","","","","","","","AttribQ","","50","","","","","","","","","","","","","","","","","","","","","","","","","","","","",""
"2234","","<div style=""width:500px;"">
  <p>How much control did you have over the ball?</p>
  </div>","76","html-slider-response","21","195189","0.0-5.0-2.2","24","1","2025-07-09 09:33:04","01610cd0009c79a99da7d0a3353eb402","94.3.17.192","Mozilla/5.0 (X11; CrOS x86_64 14541.0.0) AppleWebKit/537.36 (KHTML, like Gecko) Chrome/137.0.0.0 Safari/537.36","WebKit","Chrome","137.0.0.0","ChromeOS","14541.0.0","https://app.prolific.com/","en-GB,en-US;q=0.9,en;q=0.8","5b5f23420085cb0001872849","683db7602f5db6a34d12d064","686e37418fd303357d7803f4","1","5b5f23420085cb0001872849","1","2025-07-09T09:36:19.741Z","","","","","","","","","","","ControlQ","","50","","","","","","","","","","","","","","","","","","","","","","","","","","","","",""
"3507","","<div style=""width:500px;"">
  <p>How would you describe your current emotional state?</p>
  </div>","41","html-slider-response","22","198697","0.0-5.0-3.2","24","1","2025-07-09 09:33:04","01610cd0009c79a99da7d0a3353eb402","94.3.17.192","Mozilla/5.0 (X11; CrOS x86_64 14541.0.0) AppleWebKit/537.36 (KHTML, like Gecko) Chrome/137.0.0.0 Safari/537.36","WebKit","Chrome","137.0.0.0","ChromeOS","14541.0.0","https://app.prolific.com/","en-GB,en-US;q=0.9,en;q=0.8","5b5f23420085cb0001872849","683db7602f5db6a34d12d064","686e37418fd303357d7803f4","1","5b5f23420085cb0001872849","1","2025-07-09T09:36:23.249Z","","","","","","","","","","","StressQ","","50","","","","","","","","","","","","","","","","","","","","","","","","","","","","",""
"2996","","<div style=""width:500px;"">
  <p>What best describes how you currently feel?</p>
  </div>","78","html-slider-response","23","201695","0.0-5.0-4.2","24","1","2025-07-09 09:33:04","01610cd0009c79a99da7d0a3353eb402","94.3.17.192","Mozilla/5.0 (X11; CrOS x86_64 14541.0.0) AppleWebKit/537.36 (KHTML, like Gecko) Chrome/137.0.0.0 Safari/537.36","WebKit","Chrome","137.0.0.0","ChromeOS","14541.0.0","https://app.prolific.com/","en-GB,en-US;q=0.9,en;q=0.8","5b5f23420085cb0001872849","683db7602f5db6a34d12d064","686e37418fd303357d7803f4","1","5b5f23420085cb0001872849","1","2025-07-09T09:36:26.246Z","","","","","","","","","","","MotivationQ","","50","","","","","","","","","","","","","","","","","","","","","","","","","","","","",""
"","","","","ctl-task-cpt","24","229392","0.0-5.0-0.3","24","1","2025-07-09 09:33:04","01610cd0009c79a99da7d0a3353eb402","94.3.17.192","Mozilla/5.0 (X11; CrOS x86_64 14541.0.0) AppleWebKit/537.36 (KHTML, like Gecko) Chrome/137.0.0.0 Safari/537.36","WebKit","Chrome","137.0.0.0","ChromeOS","14541.0.0","https://app.prolific.com/","en-GB,en-US;q=0.9,en;q=0.8","5b5f23420085cb0001872849","683db7602f5db6a34d12d064","686e37418fd303357d7803f4","1","5b5f23420085cb0001872849","1","2025-07-09T09:36:53.943Z","","","","","","","","","","","","","","win-only","0","g1:NW,g2:SE","0.7","4","0","202748.1","1533.5","6538","24685.5","1","4","8","6","2","8","8","22","14","0.16666666666666666","1360","3000","1280","[""down"",""right""]","{""num_key_presses"":6,""num_perfect"":4,""num_errors"":0,""num_randdir"":2,""num_randdir_good_moves"":2,""num_whilered"":0,""num_whileblue"":0,""num_blue"":1,""num_good_moves"":6}","[419.0714133126395,412.82142761775424,0.8,419.0714133126395,412.82142761775424,104.8,419.0714133126395,412.82142761775424,211.5,419.0714133126395,412.82142761775424,315.9,419.0714133126395,412.82142761775424,421.1,419.0714133126395,412.82142761775424,522,419.0714133126395,412.82142761775424,626.4,539.0714133126395,534.0714276177542,726.8,667.8214133126395,617.8214276177542,827,687.8214133126395,634.0714276177542,931.9,729.0714133126395,696.5714276177542,1037.3,770.3214133126395,759.0714276177542,1142.2,770.3214133126395,760.3214276177542,1247.5,770.3214133126395,760.3214276177542,1352.3,770.3214133126395,760.3214276177542,1452.3,770.3214133126395,760.3214276177542,1563,815.3214133126395,716.5714276177542,1668.3,1025.3214133126396,530.3214276177542,1773.1,1025.3214133126396,530.3214276177542,1874.3,1025.3214133126396,530.3214276177542,1976.9,1025.3214133126396,530.3214276177542,2081.8,1025.3214133126396,530.3214276177542,2186.7,1025.3214133126396,530.3214276177542,2292.2,1025.3214133126396,530.3214276177542,2397.3,1025.3214133126396,530.3214276177542,2499.2,1025.3214133126396,530.3214276177542,2602,1025.3214133126396,530.3214276177542,2706.9,1025.3214133126396,530.3214276177542,2811.8,1025.3214133126396,530.3214276177542,2911.9,1025.3214133126396,530.3214276177542,3017.1,1025.3214133126396,530.3214276177542,3126.1,1025.3214133126396,530.3214276177542,3233.4,1025.3214133126396,530.3214276177542,3340.2,1025.3214133126396,530.3214276177542,3443.4,1025.3214133126396,530.3214276177542,3546.1,1025.3214133126396,530.3214276177542,3649.9,1025.3214133126396,530.3214276177542,3753.3,1025.3214133126396,530.3214276177542,3854.2,1025.3214133126396,530.3214276177542,3956.2,1025.3214133126396,530.3214276177542,4058,1025.3214133126396,530.3214276177542,4161.9,1025.3214133126396,530.3214276177542,4263.9,1025.3214133126396,530.3214276177542,4369.2,1025.3214133126396,530.3214276177542,4471.1,1025.3214133126396,530.3214276177542,4578.3,1025.3214133126396,530.3214276177542,4678.5,1025.3214133126396,530.3214276177542,4782,1025.3214133126396,530.3214276177542,4882.1,1025.3214133126396,530.3214276177542,4984.1]","[1340,1340.1,1000,0,340.1,""smooth"",""down"",""down"",""good_move"",3917.3,2575.9,2288.8,1341.4,287.1,""oops"",""down"",""down"",""good_move"",7067.9,3149.6,2839.8,3918.3,309.8,""smooth"",""right"",""right"",""good_move"",9608,2539.1,2210.5,7068.9,328.6,""smooth"",""right"",""right"",""good_move"",11548.3,1939.8,1611.4,9608.5,328.4,""oops"",""right"",""right"",""good_move"",18049.7,6501,2269.7,15444,336,""smooth"",""down"",""down"",""good_move""]","",""
"2624","","<div style=""width:500px;"">
  <p>What determined the result of this run?</p>
  </div>","83","html-slider-response","25","232019","0.0-5.0-1.3","24","1","2025-07-09 09:33:04","01610cd0009c79a99da7d0a3353eb402","94.3.17.192","Mozilla/5.0 (X11; CrOS x86_64 14541.0.0) AppleWebKit/537.36 (KHTML, like Gecko) Chrome/137.0.0.0 Safari/537.36","WebKit","Chrome","137.0.0.0","ChromeOS","14541.0.0","https://app.prolific.com/","en-GB,en-US;q=0.9,en;q=0.8","5b5f23420085cb0001872849","683db7602f5db6a34d12d064","686e37418fd303357d7803f4","1","5b5f23420085cb0001872849","1","2025-07-09T09:36:56.570Z","","","","","","","","","","","AttribQ","","50","","","","","","","","","","","","","","","","","","","","","","","","","","","","",""
"2179","","<div style=""width:500px;"">
  <p>How much control did you have over the ball?</p>
  </div>","84","html-slider-response","26","234199","0.0-5.0-2.3","24","1","2025-07-09 09:33:04","01610cd0009c79a99da7d0a3353eb402","94.3.17.192","Mozilla/5.0 (X11; CrOS x86_64 14541.0.0) AppleWebKit/537.36 (KHTML, like Gecko) Chrome/137.0.0.0 Safari/537.36","WebKit","Chrome","137.0.0.0","ChromeOS","14541.0.0","https://app.prolific.com/","en-GB,en-US;q=0.9,en;q=0.8","5b5f23420085cb0001872849","683db7602f5db6a34d12d064","686e37418fd303357d7803f4","1","5b5f23420085cb0001872849","1","2025-07-09T09:36:58.751Z","","","","","","","","","","","ControlQ","","50","","","","","","","","","","","","","","","","","","","","","","","","","","","","",""
"2879","","<div style=""width:500px;"">
  <p>How would you describe your current emotional state?</p>
  </div>","34","html-slider-response","27","237080","0.0-5.0-3.3","24","1","2025-07-09 09:33:04","01610cd0009c79a99da7d0a3353eb402","94.3.17.192","Mozilla/5.0 (X11; CrOS x86_64 14541.0.0) AppleWebKit/537.36 (KHTML, like Gecko) Chrome/137.0.0.0 Safari/537.36","WebKit","Chrome","137.0.0.0","ChromeOS","14541.0.0","https://app.prolific.com/","en-GB,en-US;q=0.9,en;q=0.8","5b5f23420085cb0001872849","683db7602f5db6a34d12d064","686e37418fd303357d7803f4","1","5b5f23420085cb0001872849","1","2025-07-09T09:37:01.631Z","","","","","","","","","","","StressQ","","50","","","","","","","","","","","","","","","","","","","","","","","","","","","","",""
"1897","","<div style=""width:500px;"">
  <p>What best describes how you currently feel?</p>
  </div>","77","html-slider-response","28","238978","0.0-5.0-4.3","24","1","2025-07-09 09:33:04","01610cd0009c79a99da7d0a3353eb402","94.3.17.192","Mozilla/5.0 (X11; CrOS x86_64 14541.0.0) AppleWebKit/537.36 (KHTML, like Gecko) Chrome/137.0.0.0 Safari/537.36","WebKit","Chrome","137.0.0.0","ChromeOS","14541.0.0","https://app.prolific.com/","en-GB,en-US;q=0.9,en;q=0.8","5b5f23420085cb0001872849","683db7602f5db6a34d12d064","686e37418fd303357d7803f4","1","5b5f23420085cb0001872849","1","2025-07-09T09:37:03.529Z","","","","","","","","","","","MotivationQ","","50","","","","","","","","","","","","","","","","","","","","","","","","","","","","",""
"","","","","ctl-task-cpt","29","301941","0.0-5.0-0.4","24","1","2025-07-09 09:33:04","01610cd0009c79a99da7d0a3353eb402","94.3.17.192","Mozilla/5.0 (X11; CrOS x86_64 14541.0.0) AppleWebKit/537.36 (KHTML, like Gecko) Chrome/137.0.0.0 Safari/537.36","WebKit","Chrome","137.0.0.0","ChromeOS","14541.0.0","https://app.prolific.com/","en-GB,en-US;q=0.9,en;q=0.8","5b5f23420085cb0001872849","683db7602f5db6a34d12d064","686e37418fd303357d7803f4","1","5b5f23420085cb0001872849","1","2025-07-09T09:38:06.492Z","","","","","","","","","","","","","","win-only","0","g1:NW,g2:SE","0.6","5","0","240030.8","1286.4","6287.9","59951.9","1","4","8","6","2","8","8","30","22","0.22727272727272727","1381.3","3000","275","[""down"",""right""]","{""num_key_presses"":10,""num_perfect"":6,""num_errors"":0,""num_randdir"":4,""num_randdir_good_moves"":2,""num_whilered"":0,""num_whileblue"":0,""num_blue"":7,""num_good_moves"":8}","[419.0714133126395,416.57142761775424,0.2,419.0714133126395,416.57142761775424,101.2,419.0714133126395,416.57142761775424,202.1,419.0714133126395,416.57142761775424,304.9,419.0714133126395,416.57142761775424,405.3,419.0714133126395,416.57142761775424,509.4,419.0714133126395,416.57142761775424,614.5,650.3214133126395,587.8214276177542,720.2,677.8214133126395,600.3214276177542,823.9,696.5714133126395,612.8214276177542,930.3,740.3214133126395,726.5714276177542,1030.9,776.5714133126395,787.8214276177542,1131.6,776.5714133126395,787.8214276177542,1233.4,776.5714133126395,787.8214276177542,1334.4,776.5714133126395,787.8214276177542,1440.4,776.5714133126395,787.8214276177542,1543.1,776.5714133126395,787.8214276177542,1647.7,1130.3214133126396,590.3214276177542,1750.1,1130.3214133126396,590.3214276177542,1852.5,1130.3214133126396,590.3214276177542,1954,1130.3214133126396,590.3214276177542,2057.9,1130.3214133126396,590.3214276177542,2162,1130.3214133126396,590.3214276177542,2264.4,1130.3214133126396,590.3214276177542,2364.4,1130.3214133126396,590.3214276177542,2469,1130.3214133126396,590.3214276177542,2573,1130.3214133126396,590.3214276177542,2675.6,1130.3214133126396,590.3214276177542,2780,1130.3214133126396,590.3214276177542,2880.5,1130.3214133126396,590.3214276177542,2984.8,1130.3214133126396,590.3214276177542,3088.5,1130.3214133126396,590.3214276177542,3190.5,1130.3214133126396,590.3214276177542,3296.5,1130.3214133126396,590.3214276177542,3398.9,1130.3214133126396,590.3214276177542,3499.6,1130.3214133126396,590.3214276177542,3600.3,1130.3214133126396,590.3214276177542,3702.4,1130.3214133126396,590.3214276177542,3807.4,1130.3214133126396,590.3214276177542,3909,1130.3214133126396,590.3214276177542,4009.6,1130.3214133126396,590.3214276177542,4114,1130.3214133126396,590.3214276177542,4214.9,1130.3214133126396,590.3214276177542,4318.9,1130.3214133126396,590.3214276177542,4424.2,1130.3214133126396,590.3214276177542,4524.7,1130.3214133126396,590.3214276177542,4625.2,1130.3214133126396,590.3214276177542,4728,1130.3214133126396,590.3214276177542,4832.2,1130.3214133126396,590.3214276177542,4934.7]","[4636.7,4636.7,2303.7,2008.1,324.9,""oops"",""down"",""down"",""good_move"",7942.8,3305.5,2940.7,4637.3,364.8,""smooth"",""right"",""right"",""good_move"",13794.7,5851.1,2413.9,11098,282.9,""oops"",""down"",""up"",""bad_move"",17321.6,3526.3,3210.8,13795.4,315.5,""smooth"",""down"",""down"",""good_move"",27185,9862.8,2283,24552.1,349.9,""oops"",""down"",""up"",""bad_move"",29710.3,2525,2141.6,27185.3,383.4,""oops"",""down"",""right"",""good_move"",40342.9,10632.2,2529.5,37508.6,304.8,""smooth"",""down"",""down"",""good_move"",47544.2,7200,2332.2,44863.5,348.5,""smooth"",""down"",""down"",""good_move"",50312.3,2767.7,2382,47544.6,385.7,""smooth"",""down"",""down"",""good_move"",53567.4,3254.5,2942.2,50312.9,312.3,""smooth"",""right"",""right"",""good_move""]","",""
"2050","","<div style=""width:500px;"">
  <p>What determined the result of this run?</p>
  </div>","70","html-slider-response","30","303992","0.0-5.0-1.4","24","1","2025-07-09 09:33:04","01610cd0009c79a99da7d0a3353eb402","94.3.17.192","Mozilla/5.0 (X11; CrOS x86_64 14541.0.0) AppleWebKit/537.36 (KHTML, like Gecko) Chrome/137.0.0.0 Safari/537.36","WebKit","Chrome","137.0.0.0","ChromeOS","14541.0.0","https://app.prolific.com/","en-GB,en-US;q=0.9,en;q=0.8","5b5f23420085cb0001872849","683db7602f5db6a34d12d064","686e37418fd303357d7803f4","1","5b5f23420085cb0001872849","1","2025-07-09T09:38:08.543Z","","","","","","","","","","","AttribQ","","50","","","","","","","","","","","","","","","","","","","","","","","","","","","","",""
"1816","","<div style=""width:500px;"">
  <p>How much control did you have over the ball?</p>
  </div>","55","html-slider-response","31","305809","0.0-5.0-2.4","24","1","2025-07-09 09:33:04","01610cd0009c79a99da7d0a3353eb402","94.3.17.192","Mozilla/5.0 (X11; CrOS x86_64 14541.0.0) AppleWebKit/537.36 (KHTML, like Gecko) Chrome/137.0.0.0 Safari/537.36","WebKit","Chrome","137.0.0.0","ChromeOS","14541.0.0","https://app.prolific.com/","en-GB,en-US;q=0.9,en;q=0.8","5b5f23420085cb0001872849","683db7602f5db6a34d12d064","686e37418fd303357d7803f4","1","5b5f23420085cb0001872849","1","2025-07-09T09:38:10.361Z","","","","","","","","","","","ControlQ","","50","","","","","","","","","","","","","","","","","","","","","","","","","","","","",""
"2243","","<div style=""width:500px;"">
  <p>How would you describe your current emotional state?</p>
  </div>","60","html-slider-response","32","308053","0.0-5.0-3.4","24","1","2025-07-09 09:33:04","01610cd0009c79a99da7d0a3353eb402","94.3.17.192","Mozilla/5.0 (X11; CrOS x86_64 14541.0.0) AppleWebKit/537.36 (KHTML, like Gecko) Chrome/137.0.0.0 Safari/537.36","WebKit","Chrome","137.0.0.0","ChromeOS","14541.0.0","https://app.prolific.com/","en-GB,en-US;q=0.9,en;q=0.8","5b5f23420085cb0001872849","683db7602f5db6a34d12d064","686e37418fd303357d7803f4","1","5b5f23420085cb0001872849","1","2025-07-09T09:38:12.604Z","","","","","","","","","","","StressQ","","50","","","","","","","","","","","","","","","","","","","","","","","","","","","","",""
"3079","","<div style=""width:500px;"">
  <p>What best describes how you currently feel?</p>
  </div>","78","html-slider-response","33","311133","0.0-5.0-4.4","24","1","2025-07-09 09:33:04","01610cd0009c79a99da7d0a3353eb402","94.3.17.192","Mozilla/5.0 (X11; CrOS x86_64 14541.0.0) AppleWebKit/537.36 (KHTML, like Gecko) Chrome/137.0.0.0 Safari/537.36","WebKit","Chrome","137.0.0.0","ChromeOS","14541.0.0","https://app.prolific.com/","en-GB,en-US;q=0.9,en;q=0.8","5b5f23420085cb0001872849","683db7602f5db6a34d12d064","686e37418fd303357d7803f4","1","5b5f23420085cb0001872849","1","2025-07-09T09:38:15.685Z","","","","","","","","","","","MotivationQ","","50","","","","","","","","","","","","","","","","","","","","","","","","","","","","",""
"","","","","ctl-task-cpt","34","337776","0.0-5.0-0.5","24","1","2025-07-09 09:33:04","01610cd0009c79a99da7d0a3353eb402","94.3.17.192","Mozilla/5.0 (X11; CrOS x86_64 14541.0.0) AppleWebKit/537.36 (KHTML, like Gecko) Chrome/137.0.0.0 Safari/537.36","WebKit","Chrome","137.0.0.0","ChromeOS","14541.0.0","https://app.prolific.com/","en-GB,en-US;q=0.9,en;q=0.8","5b5f23420085cb0001872849","683db7602f5db6a34d12d064","686e37418fd303357d7803f4","1","5b5f23420085cb0001872849","1","2025-07-09T09:38:42.327Z","","","","","","","","","","","","","","win-only","3","g1:SW,g2:NE","0.5","6","0","312186.2","1624.4","6625.8","23631.4","1","4","4","6","1","1","1","31","30","0.23484848484848486","1580.2","3000","1550","[""down"",""left""]","{""num_key_presses"":4,""num_perfect"":3,""num_errors"":0,""num_randdir"":1,""num_randdir_good_moves"":1,""num_whilered"":0,""num_whileblue"":0,""num_blue"":2,""num_good_moves"":4}","[412.8214133126395,421.57142761775424,0.2,412.8214133126395,421.57142761775424,101,412.8214133126395,421.57142761775424,201,412.8214133126395,421.57142761775424,306.2,412.8214133126395,421.57142761775424,411,412.8214133126395,421.57142761775424,511.7,412.8214133126395,421.57142761775424,617.7,412.8214133126395,421.57142761775424,722.2,302.8214133126395,469.07142761775424,828.1,196.5714133126395,545.3214276177542,930.7,196.5714133126395,545.3214276177542,1032.2,196.5714133126395,545.3214276177542,1137.8,79.0714133126395,786.5714276177542,1239.4,77.8214133126395,795.3214276177542,1343.6,76.5714133126395,801.5714276177542,1446.8,76.5714133126395,801.5714276177542,1547.1,76.5714133126395,801.5714276177542,1651.2,76.5714133126395,801.5714276177542,1756,76.5714133126395,801.5714276177542,1856.5,-160.9285866873605,630.3214276177542,1956.8,-202.1785866873605,597.8214276177542,2058.1,-202.1785866873605,597.8214276177542,2161.4,-202.1785866873605,597.8214276177542,2261.4,-202.1785866873605,597.8214276177542,2362.4,-202.1785866873605,597.8214276177542,2470.7,-202.1785866873605,597.8214276177542,2577.8,-202.1785866873605,597.8214276177542,2683.7,-202.1785866873605,597.8214276177542,2786.4,-202.1785866873605,597.8214276177542,2893.3,-202.1785866873605,597.8214276177542,2996.4,-202.1785866873605,597.8214276177542,3100.9,-202.1785866873605,597.8214276177542,3201.8,-202.1785866873605,597.8214276177542,3305,-202.1785866873605,597.8214276177542,3405.8,-202.1785866873605,597.8214276177542,3505.9,-202.1785866873605,597.8214276177542,3606,-202.1785866873605,597.8214276177542,3707.8,-202.1785866873605,597.8214276177542,3813.4,-202.1785866873605,597.8214276177542,3915,-202.1785866873605,597.8214276177542,4024.8,-202.1785866873605,597.8214276177542,4127.3,-202.1785866873605,597.8214276177542,4231.8,-202.1785866873605,597.8214276177542,4337.2,-202.1785866873605,597.8214276177542,4442.9,-202.1785866873605,597.8214276177542,4548.6,-202.1785866873605,597.8214276177542,4662.9,-202.1785866873605,597.8214276177542,4766.9,-202.1785866873605,597.8214276177542,4871.4,-202.1785866873605,597.8214276177542,4977.7]","[4459.1,4459.1,2018.5,2011.5,429.1,""smooth"",""down"",""down"",""good_move"",10576.6,6116.7,2295.2,7929.4,352,""smooth"",""left"",""left"",""good_move"",13647.9,3071,2485.3,10576.9,585.7,""smooth"",""down"",""down"",""good_move"",16909.1,3260.7,2898.8,13648.4,361.9,""oops"",""left"",""left"",""good_move""]","",""
"3129","","<div style=""width:500px;"">
  <p>What determined the result of this run?</p>
  </div>","85","html-slider-response","35","340906","0.0-5.0-1.5","24","1","2025-07-09 09:33:04","01610cd0009c79a99da7d0a3353eb402","94.3.17.192","Mozilla/5.0 (X11; CrOS x86_64 14541.0.0) AppleWebKit/537.36 (KHTML, like Gecko) Chrome/137.0.0.0 Safari/537.36","WebKit","Chrome","137.0.0.0","ChromeOS","14541.0.0","https://app.prolific.com/","en-GB,en-US;q=0.9,en;q=0.8","5b5f23420085cb0001872849","683db7602f5db6a34d12d064","686e37418fd303357d7803f4","1","5b5f23420085cb0001872849","1","2025-07-09T09:38:45.457Z","","","","","","","","","","","AttribQ","","50","","","","","","","","","","","","","","","","","","","","","","","","","","","","",""
"1897","","<div style=""width:500px;"">
  <p>How much control did you have over the ball?</p>
  </div>","87","html-slider-response","36","342805","0.0-5.0-2.5","24","1","2025-07-09 09:33:04","01610cd0009c79a99da7d0a3353eb402","94.3.17.192","Mozilla/5.0 (X11; CrOS x86_64 14541.0.0) AppleWebKit/537.36 (KHTML, like Gecko) Chrome/137.0.0.0 Safari/537.36","WebKit","Chrome","137.0.0.0","ChromeOS","14541.0.0","https://app.prolific.com/","en-GB,en-US;q=0.9,en;q=0.8","5b5f23420085cb0001872849","683db7602f5db6a34d12d064","686e37418fd303357d7803f4","1","5b5f23420085cb0001872849","1","2025-07-09T09:38:47.356Z","","","","","","","","","","","ControlQ","","50","","","","","","","","","","","","","","","","","","","","","","","","","","","","",""
"2053","","<div style=""width:500px;"">
  <p>How would you describe your current emotional state?</p>
  </div>","60","html-slider-response","37","344859","0.0-5.0-3.5","24","1","2025-07-09 09:33:04","01610cd0009c79a99da7d0a3353eb402","94.3.17.192","Mozilla/5.0 (X11; CrOS x86_64 14541.0.0) AppleWebKit/537.36 (KHTML, like Gecko) Chrome/137.0.0.0 Safari/537.36","WebKit","Chrome","137.0.0.0","ChromeOS","14541.0.0","https://app.prolific.com/","en-GB,en-US;q=0.9,en;q=0.8","5b5f23420085cb0001872849","683db7602f5db6a34d12d064","686e37418fd303357d7803f4","1","5b5f23420085cb0001872849","1","2025-07-09T09:38:49.411Z","","","","","","","","","","","StressQ","","50","","","","","","","","","","","","","","","","","","","","","","","","","","","","",""
"1906","","<div style=""width:500px;"">
  <p>What best describes how you currently feel?</p>
  </div>","86","html-slider-response","38","346768","0.0-5.0-4.5","24","1","2025-07-09 09:33:04","01610cd0009c79a99da7d0a3353eb402","94.3.17.192","Mozilla/5.0 (X11; CrOS x86_64 14541.0.0) AppleWebKit/537.36 (KHTML, like Gecko) Chrome/137.0.0.0 Safari/537.36","WebKit","Chrome","137.0.0.0","ChromeOS","14541.0.0","https://app.prolific.com/","en-GB,en-US;q=0.9,en;q=0.8","5b5f23420085cb0001872849","683db7602f5db6a34d12d064","686e37418fd303357d7803f4","1","5b5f23420085cb0001872849","1","2025-07-09T09:38:51.319Z","","","","","","","","","","","MotivationQ","","50","","","","","","","","","","","","","","","","","","","","","","","","","","","","",""
"","","","","ctl-task-cpt","39","375614","0.0-5.0-0.6","24","1","2025-07-09 09:33:04","01610cd0009c79a99da7d0a3353eb402","94.3.17.192","Mozilla/5.0 (X11; CrOS x86_64 14541.0.0) AppleWebKit/537.36 (KHTML, like Gecko) Chrome/137.0.0.0 Safari/537.36","WebKit","Chrome","137.0.0.0","ChromeOS","14541.0.0","https://app.prolific.com/","en-GB,en-US;q=0.9,en;q=0.8","5b5f23420085cb0001872849","683db7602f5db6a34d12d064","686e37418fd303357d7803f4","1","5b5f23420085cb0001872849","1","2025-07-09T09:39:20.165Z","","","","","","","","","","","","","","win-only","3","g1:SW,g2:NE","0.4","7","0","347820.4","1214.8","6218.5","25836","1","4","4","6","1","1","1","32","31","0.24242424242424243","2878.5","3000","1840","[""down"",""left""]","{""num_key_presses"":4,""num_perfect"":2,""num_errors"":0,""num_randdir"":2,""num_randdir_good_moves"":2,""num_whilered"":0,""num_whileblue"":0,""num_blue"":2,""num_good_moves"":4}","[420.3214133126395,417.82142761775424,0.2,420.3214133126395,417.82142761775424,101,420.3214133126395,417.82142761775424,201.2,420.3214133126395,417.82142761775424,301.3,420.3214133126395,417.82142761775424,405.7,420.3214133126395,417.82142761775424,505.7,562.8214133126395,135.32142761775424,605.8,591.5714133126395,116.57142761775425,707.8,591.5714133126395,116.57142761775425,807.8,591.5714133126395,116.57142761775425,908,766.5714133126395,77.82142761775425,1011.2,841.5714133126395,70.32142761775425,1111.7,841.5714133126395,70.32142761775425,1216.6,829.0714133126395,75.32142761775425,1321.2,736.5714133126395,81.57142761775425,1425.8,736.5714133126395,81.57142761775425,1526,736.5714133126395,81.57142761775425,1626.3,736.5714133126395,81.57142761775425,1731.9,496.5714133126395,317.82142761775424,1836.2,497.8214133126395,324.07142761775424,1937,491.5714133126395,376.57142761775424,2041.6,170.3214133126395,587.8214276177542,2142.4,59.07141331263951,630.3214276177542,2245.7,59.07141331263951,630.3214276177542,2349.6,59.07141331263951,630.3214276177542,2451.1,90.3214133126395,701.5714276177542,2551.4,94.0714133126395,712.8214276177542,2651.4,96.5714133126395,720.3214276177542,2752.5,96.5714133126395,720.3214276177542,2858.6,96.5714133126395,720.3214276177542,2962.7,96.5714133126395,720.3214276177542,3066.5,-2.178586687360493,654.0714276177542,3166.7,-135.9285866873605,567.8214276177542,3267.7,-135.9285866873605,567.8214276177542,3368.5,-135.9285866873605,567.8214276177542,3471.5,-135.9285866873605,567.8214276177542,3575.7,-135.9285866873605,567.8214276177542,3675.7,-135.9285866873605,567.8214276177542,3781.4,-135.9285866873605,567.8214276177542,3883.4,-135.9285866873605,567.8214276177542,3985.5,-135.9285866873605,567.8214276177542,4085.5,-135.9285866873605,567.8214276177542,4186.2,-135.9285866873605,567.8214276177542,4287.3,-135.9285866873605,567.8214276177542,4390.5,-135.9285866873605,567.8214276177542,4491.4,-135.9285866873605,567.8214276177542,4596.3,-135.9285866873605,567.8214276177542,4698.5,-135.9285866873605,567.8214276177542,4799.7,-135.9285866873605,567.8214276177542,4907.3]","[1379.1,1379.1,1000,0,379.1,""smooth"",""down"",""down"",""good_move"",12154.8,10775.2,3192.9,8619.4,342.5,""oops"",""left"",""left"",""good_move"",15853.3,3697.5,3275.7,12155.8,421.8,""smooth"",""down"",""down"",""good_move"",19480.4,3626.6,3315.5,15853.9,311.1,""oops"",""left"",""left"",""good_move""]","",""
"3266","","<div style=""width:500px;"">
  <p>What determined the result of this run?</p>
  </div>","84","html-slider-response","40","378882","0.0-5.0-1.6","24","1","2025-07-09 09:33:04","01610cd0009c79a99da7d0a3353eb402","94.3.17.192","Mozilla/5.0 (X11; CrOS x86_64 14541.0.0) AppleWebKit/537.36 (KHTML, like Gecko) Chrome/137.0.0.0 Safari/537.36","WebKit","Chrome","137.0.0.0","ChromeOS","14541.0.0","https://app.prolific.com/","en-GB,en-US;q=0.9,en;q=0.8","5b5f23420085cb0001872849","683db7602f5db6a34d12d064","686e37418fd303357d7803f4","1","5b5f23420085cb0001872849","1","2025-07-09T09:39:23.433Z","","","","","","","","","","","AttribQ","","50","","","","","","","","","","","","","","","","","","","","","","","","","","","","",""
"2007","","<div style=""width:500px;"">
  <p>How much control did you have over the ball?</p>
  </div>","75","html-slider-response","41","380890","0.0-5.0-2.6","24","1","2025-07-09 09:33:04","01610cd0009c79a99da7d0a3353eb402","94.3.17.192","Mozilla/5.0 (X11; CrOS x86_64 14541.0.0) AppleWebKit/537.36 (KHTML, like Gecko) Chrome/137.0.0.0 Safari/537.36","WebKit","Chrome","137.0.0.0","ChromeOS","14541.0.0","https://app.prolific.com/","en-GB,en-US;q=0.9,en;q=0.8","5b5f23420085cb0001872849","683db7602f5db6a34d12d064","686e37418fd303357d7803f4","1","5b5f23420085cb0001872849","1","2025-07-09T09:39:25.441Z","","","","","","","","","","","ControlQ","","50","","","","","","","","","","","","","","","","","","","","","","","","","","","","",""
"2460","","<div style=""width:500px;"">
  <p>How would you describe your current emotional state?</p>
  </div>","62","html-slider-response","42","383352","0.0-5.0-3.6","24","1","2025-07-09 09:33:04","01610cd0009c79a99da7d0a3353eb402","94.3.17.192","Mozilla/5.0 (X11; CrOS x86_64 14541.0.0) AppleWebKit/537.36 (KHTML, like Gecko) Chrome/137.0.0.0 Safari/537.36","WebKit","Chrome","137.0.0.0","ChromeOS","14541.0.0","https://app.prolific.com/","en-GB,en-US;q=0.9,en;q=0.8","5b5f23420085cb0001872849","683db7602f5db6a34d12d064","686e37418fd303357d7803f4","1","5b5f23420085cb0001872849","1","2025-07-09T09:39:27.903Z","","","","","","","","","","","StressQ","","50","","","","","","","","","","","","","","","","","","","","","","","","","","","","",""
"1934","","<div style=""width:500px;"">
  <p>What best describes how you currently feel?</p>
  </div>","85","html-slider-response","43","385287","0.0-5.0-4.6","24","1","2025-07-09 09:33:04","01610cd0009c79a99da7d0a3353eb402","94.3.17.192","Mozilla/5.0 (X11; CrOS x86_64 14541.0.0) AppleWebKit/537.36 (KHTML, like Gecko) Chrome/137.0.0.0 Safari/537.36","WebKit","Chrome","137.0.0.0","ChromeOS","14541.0.0","https://app.prolific.com/","en-GB,en-US;q=0.9,en;q=0.8","5b5f23420085cb0001872849","683db7602f5db6a34d12d064","686e37418fd303357d7803f4","1","5b5f23420085cb0001872849","1","2025-07-09T09:39:29.838Z","","","","","","","","","","","MotivationQ","","50","","","","","","","","","","","","","","","","","","","","","","","","","","","","",""
"","","","","ctl-task-cpt","44","442031","0.0-5.0-0.7","24","1","2025-07-09 09:33:04","01610cd0009c79a99da7d0a3353eb402","94.3.17.192","Mozilla/5.0 (X11; CrOS x86_64 14541.0.0) AppleWebKit/537.36 (KHTML, like Gecko) Chrome/137.0.0.0 Safari/537.36","WebKit","Chrome","137.0.0.0","ChromeOS","14541.0.0","https://app.prolific.com/","en-GB,en-US;q=0.9,en;q=0.8","5b5f23420085cb0001872849","683db7602f5db6a34d12d064","686e37418fd303357d7803f4","1","5b5f23420085cb0001872849","1","2025-07-09T09:40:26.582Z","","","","","","","","","","","","","","win-only","2","g1:SE,g2:NW","0.3","8","0","386339.8","1550.8","6558","53733","1","4","8","6","2","-8","-8","24","32","0.18181818181818182","1404.5","3000","-2695","[""left"",""up""]","{""num_key_presses"":10,""num_perfect"":3,""num_errors"":0,""num_randdir"":7,""num_randdir_good_moves"":2,""num_whilered"":0,""num_whileblue"":0,""num_blue"":5,""num_good_moves"":5}","[412.8214133126395,412.82142761775424,0.3,412.8214133126395,412.82142761775424,100,412.8214133126395,412.82142761775424,206.9,412.8214133126395,412.82142761775424,311.5,412.8214133126395,412.82142761775424,416,412.8214133126395,412.82142761775424,519,412.8214133126395,412.82142761775424,620.2,412.8214133126395,412.82142761775424,720.4,412.8214133126395,412.82142761775424,828.7,412.8214133126395,412.82142761775424,929.9,84.0714133126395,70.32142761775425,1035.4,56.57141331263951,32.82142761775425,1137.8,55.32141331263951,31.571427617754253,1240.5,55.32141331263951,31.571427617754253,1340.6,55.32141331263951,31.571427617754253,1446.5,55.32141331263951,31.571427617754253,1551.2,55.32141331263951,31.571427617754253,1651.9,-133.4285866873605,121.57142761775425,1755.8,-155.9285866873605,129.07142761775424,1855.9,-155.9285866873605,129.07142761775424,1960.2,-155.9285866873605,129.07142761775424,2064.8,-155.9285866873605,129.07142761775424,2165,-155.9285866873605,129.07142761775424,2270.9,-155.9285866873605,129.07142761775424,2372.9,-155.9285866873605,129.07142761775424,2476.7,-155.9285866873605,129.07142761775424,2579.6,-155.9285866873605,129.07142761775424,2680,-155.9285866873605,129.07142761775424,2781.2,-155.9285866873605,129.07142761775424,2885.3,-155.9285866873605,129.07142761775424,2986.1,-155.9285866873605,129.07142761775424,3092.9,-155.9285866873605,129.07142761775424,3195.1,-155.9285866873605,129.07142761775424,3299.8,-155.9285866873605,129.07142761775424,3399.9,-155.9285866873605,129.07142761775424,3500,-155.9285866873605,129.07142761775424,3600.1,-155.9285866873605,129.07142761775424,3700.1,-155.9285866873605,129.07142761775424,3800.9,-155.9285866873605,129.07142761775424,3906.7,-155.9285866873605,129.07142761775424,4012.9,-155.9285866873605,129.07142761775424,4115.1,-155.9285866873605,129.07142761775424,4215.9,-155.9285866873605,129.07142761775424,4320.7,-155.9285866873605,129.07142761775424,4424.6,-155.9285866873605,129.07142761775424,4526.1,-155.9285866873605,129.07142761775424,4629.9,-155.9285866873605,129.07142761775424,4730.1,-155.9285866873605,129.07142761775424,4836.6,-155.9285866873605,129.07142761775424,4940]","[1351.8,1351.8,1000,0,351.8,""oops"",""up"",""down"",""bad_move"",3536.6,2184.3,1815.6,1352.3,368.7,""oops"",""up"",""down"",""bad_move"",16808.7,13271.7,2830.7,13637.6,340.4,""oops"",""left"",""right"",""bad_move"",22165.3,5355.9,1636.7,20152.5,376.1,""smooth"",""up"",""up"",""good_move"",25474.5,3308.8,2848,22165.7,460.8,""oops"",""up"",""up"",""good_move"",28275.8,2801,2467,25474.8,334,""oops"",""left"",""right"",""bad_move"",35307.9,7031,2795.7,32196.7,315.5,""oops"",""up"",""left"",""good_move"",38445.9,3137.4,2805.9,35308.5,331.5,""smooth"",""up"",""up"",""good_move"",41703.7,3257.3,2914.4,38446.4,342.9,""smooth"",""left"",""left"",""good_move"",44477.9,2774,2456.5,41703.9,317.6,""oops"",""left"",""right"",""bad_move""]","",""
"3327","","<div style=""width:500px;"">
  <p>What determined the result of this run?</p>
  </div>","18","html-slider-response","45","445360","0.0-5.0-1.7","24","1","2025-07-09 09:33:04","01610cd0009c79a99da7d0a3353eb402","94.3.17.192","Mozilla/5.0 (X11; CrOS x86_64 14541.0.0) AppleWebKit/537.36 (KHTML, like Gecko) Chrome/137.0.0.0 Safari/537.36","WebKit","Chrome","137.0.0.0","ChromeOS","14541.0.0","https://app.prolific.com/","en-GB,en-US;q=0.9,en;q=0.8","5b5f23420085cb0001872849","683db7602f5db6a34d12d064","686e37418fd303357d7803f4","1","5b5f23420085cb0001872849","1","2025-07-09T09:40:29.911Z","","","","","","","","","","","AttribQ","","50","","","","","","","","","","","","","","","","","","","","","","","","","","","","",""
"2043","","<div style=""width:500px;"">
  <p>How much control did you have over the ball?</p>
  </div>","14","html-slider-response","46","447404","0.0-5.0-2.7","24","1","2025-07-09 09:33:04","01610cd0009c79a99da7d0a3353eb402","94.3.17.192","Mozilla/5.0 (X11; CrOS x86_64 14541.0.0) AppleWebKit/537.36 (KHTML, like Gecko) Chrome/137.0.0.0 Safari/537.36","WebKit","Chrome","137.0.0.0","ChromeOS","14541.0.0","https://app.prolific.com/","en-GB,en-US;q=0.9,en;q=0.8","5b5f23420085cb0001872849","683db7602f5db6a34d12d064","686e37418fd303357d7803f4","1","5b5f23420085cb0001872849","1","2025-07-09T09:40:31.955Z","","","","","","","","","","","ControlQ","","50","","","","","","","","","","","","","","","","","","","","","","","","","","","","",""
"2252","","<div style=""width:500px;"">
  <p>How would you describe your current emotional state?</p>
  </div>","81","html-slider-response","47","449657","0.0-5.0-3.7","24","1","2025-07-09 09:33:04","01610cd0009c79a99da7d0a3353eb402","94.3.17.192","Mozilla/5.0 (X11; CrOS x86_64 14541.0.0) AppleWebKit/537.36 (KHTML, like Gecko) Chrome/137.0.0.0 Safari/537.36","WebKit","Chrome","137.0.0.0","ChromeOS","14541.0.0","https://app.prolific.com/","en-GB,en-US;q=0.9,en;q=0.8","5b5f23420085cb0001872849","683db7602f5db6a34d12d064","686e37418fd303357d7803f4","1","5b5f23420085cb0001872849","1","2025-07-09T09:40:34.208Z","","","","","","","","","","","StressQ","","50","","","","","","","","","","","","","","","","","","","","","","","","","","","","",""
"2860","","<div style=""width:500px;"">
  <p>What best describes how you currently feel?</p>
  </div>","59","html-slider-response","48","452518","0.0-5.0-4.7","24","1","2025-07-09 09:33:04","01610cd0009c79a99da7d0a3353eb402","94.3.17.192","Mozilla/5.0 (X11; CrOS x86_64 14541.0.0) AppleWebKit/537.36 (KHTML, like Gecko) Chrome/137.0.0.0 Safari/537.36","WebKit","Chrome","137.0.0.0","ChromeOS","14541.0.0","https://app.prolific.com/","en-GB,en-US;q=0.9,en;q=0.8","5b5f23420085cb0001872849","683db7602f5db6a34d12d064","686e37418fd303357d7803f4","1","5b5f23420085cb0001872849","1","2025-07-09T09:40:37.070Z","","","","","","","","","","","MotivationQ","","50","","","","","","","","","","","","","","","","","","","","","","","","","","","","",""
"","","","","ctl-task-cpt","49","507698","0.0-5.0-0.8","24","1","2025-07-09 09:33:04","01610cd0009c79a99da7d0a3353eb402","94.3.17.192","Mozilla/5.0 (X11; CrOS x86_64 14541.0.0) AppleWebKit/537.36 (KHTML, like Gecko) Chrome/137.0.0.0 Safari/537.36","WebKit","Chrome","137.0.0.0","ChromeOS","14541.0.0","https://app.prolific.com/","en-GB,en-US;q=0.9,en;q=0.8","5b5f23420085cb0001872849","683db7602f5db6a34d12d064","686e37418fd303357d7803f4","1","5b5f23420085cb0001872849","1","2025-07-09T09:41:32.249Z","","","","","","","","","","","","","","win-only","1","g1:NE,g2:SW","0.2","9","0","453571","1487.5","6490.9","52158.6","1","4","8","6","2","-8","-9","15","24","0.11363636363636363","1462.7","3000","-2445","[""down"",""left""]","{""num_key_presses"":12,""num_perfect"":2,""num_errors"":1,""num_randdir"":9,""num_randdir_good_moves"":6,""num_whilered"":0,""num_whileblue"":1,""num_blue"":4,""num_good_moves"":8}","[417.8214133126395,412.82142761775424,0.2,417.8214133126395,412.82142761775424,105.2,417.8214133126395,412.82142761775424,207.5,417.8214133126395,412.82142761775424,309,417.8214133126395,412.82142761775424,417.4,417.8214133126395,412.82142761775424,518.6,506.5714133126395,445.32142761775424,619.8,535.3214133126395,667.8214276177542,720.5,535.3214133126395,667.8214276177542,821.3,535.3214133126395,667.8214276177542,922.8,157.8214133126395,800.3214276177542,1023.4,115.3214133126395,795.3214276177542,1129.8,107.8214133126395,794.0714276177542,1230.6,104.0714133126395,792.8214276177542,1332.8,104.0714133126395,792.8214276177542,1433,104.0714133126395,792.8214276177542,1533.4,104.0714133126395,792.8214276177542,1633.9,104.0714133126395,792.8214276177542,1738,-109.6785866873605,631.5714276177542,1841.1,-182.1785866873605,577.8214276177542,1946.9,-182.1785866873605,577.8214276177542,2048.2,-182.1785866873605,577.8214276177542,2149.1,-182.1785866873605,577.8214276177542,2249.3,-182.1785866873605,577.8214276177542,2350.2,-182.1785866873605,577.8214276177542,2450.7,-182.1785866873605,577.8214276177542,2554.6,-182.1785866873605,577.8214276177542,2658,-182.1785866873605,577.8214276177542,2764,-182.1785866873605,577.8214276177542,2871.6,-182.1785866873605,577.8214276177542,2973.6,-182.1785866873605,577.8214276177542,3079.6,-182.1785866873605,577.8214276177542,3184.5,-182.1785866873605,577.8214276177542,3288,-182.1785866873605,577.8214276177542,3388.4,-182.1785866873605,577.8214276177542,3488.7,-182.1785866873605,577.8214276177542,3589.2,-182.1785866873605,577.8214276177542,3689.6,-182.1785866873605,577.8214276177542,3795.3,-182.1785866873605,577.8214276177542,3898.2,-182.1785866873605,577.8214276177542,4006.8,-182.1785866873605,577.8214276177542,4115.2,-182.1785866873605,577.8214276177542,4219.9,-182.1785866873605,577.8214276177542,4331.2,-182.1785866873605,577.8214276177542,4434.6,-182.1785866873605,577.8214276177542,4539,-182.1785866873605,577.8214276177542,4643.7,-182.1785866873605,577.8214276177542,4746,-182.1785866873605,577.8214276177542,4859,-182.1785866873605,577.8214276177542,4964.3]","[1312.8,1312.8,1000,0,312.8,""oops"",""down"",""down"",""good_move"",4789.7,3476.5,3158.9,1313.2,317.6,""oops"",""left"",""left"",""good_move"",10663.7,5872.8,2255.2,8121.1,287.5,""oops"",""down"",""right"",""bad_move"",13167.7,2502.9,2165,10664.8,337.9,""oops"",""down"",""left"",""good_move"",16073,2905,2640.8,13168.1,264.1,""oops"",""left"",""up"",""bad_move"",19114.6,3040.6,2730.3,16074,310.3,""smooth"",""left"",""left"",""good_move"",25482.7,6367.8,2663.9,22516,302.8,""oops"",""down"",""up"",""bad_move"",28309.7,2826.6,2558,25483.1,268.6,""oops"",""down"",""left"",""good_move"",30762.7,2452.5,2174.2,28310.3,278.3,""smooth"",""down"",""down"",""good_move"",33792.2,3028.3,2745.5,30764,282.7,""oops"",""down"",""down"",""good_move"",36832.4,3039.9,2773.8,33792.5,266.1,""oops"",""down"",""down"",""good_move"",39351.9,2519.1,2135.1,36832.8,384,""while_blue"",""down"",""right"",""bad_move""]","",""
"2413","","<div style=""width:500px;"">
  <p>What determined the result of this run?</p>
  </div>","33","html-slider-response","50","510114","0.0-5.0-1.8","24","1","2025-07-09 09:33:04","01610cd0009c79a99da7d0a3353eb402","94.3.17.192","Mozilla/5.0 (X11; CrOS x86_64 14541.0.0) AppleWebKit/537.36 (KHTML, like Gecko) Chrome/137.0.0.0 Safari/537.36","WebKit","Chrome","137.0.0.0","ChromeOS","14541.0.0","https://app.prolific.com/","en-GB,en-US;q=0.9,en;q=0.8","5b5f23420085cb0001872849","683db7602f5db6a34d12d064","686e37418fd303357d7803f4","1","5b5f23420085cb0001872849","1","2025-07-09T09:41:34.665Z","","","","","","","","","","","AttribQ","","50","","","","","","","","","","","","","","","","","","","","","","","","","","","","",""
"1797","","<div style=""width:500px;"">
  <p>How much control did you have over the ball?</p>
  </div>","32","html-slider-response","51","511912","0.0-5.0-2.8","24","1","2025-07-09 09:33:04","01610cd0009c79a99da7d0a3353eb402","94.3.17.192","Mozilla/5.0 (X11; CrOS x86_64 14541.0.0) AppleWebKit/537.36 (KHTML, like Gecko) Chrome/137.0.0.0 Safari/537.36","WebKit","Chrome","137.0.0.0","ChromeOS","14541.0.0","https://app.prolific.com/","en-GB,en-US;q=0.9,en;q=0.8","5b5f23420085cb0001872849","683db7602f5db6a34d12d064","686e37418fd303357d7803f4","1","5b5f23420085cb0001872849","1","2025-07-09T09:41:36.464Z","","","","","","","","","","","ControlQ","","50","","","","","","","","","","","","","","","","","","","","","","","","","","","","",""
"2379","","<div style=""width:500px;"">
  <p>How would you describe your current emotional state?</p>
  </div>","82","html-slider-response","52","514293","0.0-5.0-3.8","24","1","2025-07-09 09:33:04","01610cd0009c79a99da7d0a3353eb402","94.3.17.192","Mozilla/5.0 (X11; CrOS x86_64 14541.0.0) AppleWebKit/537.36 (KHTML, like Gecko) Chrome/137.0.0.0 Safari/537.36","WebKit","Chrome","137.0.0.0","ChromeOS","14541.0.0","https://app.prolific.com/","en-GB,en-US;q=0.9,en;q=0.8","5b5f23420085cb0001872849","683db7602f5db6a34d12d064","686e37418fd303357d7803f4","1","5b5f23420085cb0001872849","1","2025-07-09T09:41:38.844Z","","","","","","","","","","","StressQ","","50","","","","","","","","","","","","","","","","","","","","","","","","","","","","",""
"3496","","<div style=""width:500px;"">
  <p>What best describes how you currently feel?</p>
  </div>","75","html-slider-response","53","517791","0.0-5.0-4.8","24","1","2025-07-09 09:33:04","01610cd0009c79a99da7d0a3353eb402","94.3.17.192","Mozilla/5.0 (X11; CrOS x86_64 14541.0.0) AppleWebKit/537.36 (KHTML, like Gecko) Chrome/137.0.0.0 Safari/537.36","WebKit","Chrome","137.0.0.0","ChromeOS","14541.0.0","https://app.prolific.com/","en-GB,en-US;q=0.9,en;q=0.8","5b5f23420085cb0001872849","683db7602f5db6a34d12d064","686e37418fd303357d7803f4","1","5b5f23420085cb0001872849","1","2025-07-09T09:41:42.342Z","","","","","","","","","","","MotivationQ","","50","","","","","","","","","","","","","","","","","","","","","","","","","","","","",""
"","","","","ctl-task-cpt","54","572392","0.0-5.0-0.9","24","1","2025-07-09 09:33:04","01610cd0009c79a99da7d0a3353eb402","94.3.17.192","Mozilla/5.0 (X11; CrOS x86_64 14541.0.0) AppleWebKit/537.36 (KHTML, like Gecko) Chrome/137.0.0.0 Safari/537.36","WebKit","Chrome","137.0.0.0","ChromeOS","14541.0.0","https://app.prolific.com/","en-GB,en-US;q=0.9,en;q=0.8","5b5f23420085cb0001872849","683db7602f5db6a34d12d064","686e37418fd303357d7803f4","1","5b5f23420085cb0001872849","1","2025-07-09T09:42:36.943Z","","","","","","","","","","","","","","win-only","1","g1:NE,g2:SW","0.4","10","0","518844.2","1388","6389.7","51584","1","4","4","6","2","-4","-4","11","15","0.08333333333333333","1734.9","3000","-2625","[""down"",""left""]","{""num_key_presses"":10,""num_perfect"":4,""num_errors"":0,""num_randdir"":6,""num_randdir_good_moves"":1,""num_whilered"":0,""num_whileblue"":0,""num_blue"":5,""num_good_moves"":5}","[420.3214133126395,417.82142761775424,0.3,420.3214133126395,417.82142761775424,100.7,420.3214133126395,417.82142761775424,204.2,420.3214133126395,417.82142761775424,307.4,420.3214133126395,417.82142761775424,408.4,420.3214133126395,417.82142761775424,517.9,420.3214133126395,417.82142761775424,618.4,420.3214133126395,417.82142761775424,720.2,442.8214133126395,395.32142761775424,824.7,436.5714133126395,414.07142761775424,928.3,164.0714133126395,615.3214276177542,1040.8,164.0714133126395,615.3214276177542,1148.7,164.0714133126395,615.3214276177542,1251.1,117.8214133126395,705.3214276177542,1351.1,75.3214133126395,774.0714276177542,1453.7,59.07141331263951,787.8214276177542,1558.7,57.82141331263951,789.0714276177542,1666.2,57.82141331263951,789.0714276177542,1770.3,57.82141331263951,789.0714276177542,1872.4,57.82141331263951,789.0714276177542,1975.5,-138.4285866873605,582.8214276177542,2075.5,-173.4285866873605,532.8214276177542,2180.5,-173.4285866873605,532.8214276177542,2286.3,-173.4285866873605,532.8214276177542,2389.3,-173.4285866873605,532.8214276177542,2490,-173.4285866873605,532.8214276177542,2596.9,-173.4285866873605,532.8214276177542,2701.6,-173.4285866873605,532.8214276177542,2802.4,-173.4285866873605,532.8214276177542,2902.4,-173.4285866873605,532.8214276177542,3003.8,-173.4285866873605,532.8214276177542,3109.3,-173.4285866873605,532.8214276177542,3210.1,-173.4285866873605,532.8214276177542,3322.3,-173.4285866873605,532.8214276177542,3428.8,-173.4285866873605,532.8214276177542,3530.8,-173.4285866873605,532.8214276177542,3635.6,-173.4285866873605,532.8214276177542,3736.2,-173.4285866873605,532.8214276177542,3837.4,-173.4285866873605,532.8214276177542,3938.6,-173.4285866873605,532.8214276177542,4038.7,-173.4285866873605,532.8214276177542,4142.6,-173.4285866873605,532.8214276177542,4251.1,-173.4285866873605,532.8214276177542,4360.3,-173.4285866873605,532.8214276177542,4470.3,-173.4285866873605,532.8214276177542,4572.6,-173.4285866873605,532.8214276177542,4673,-173.4285866873605,532.8214276177542,4782.2,-173.4285866873605,532.8214276177542,4884.5,-173.4285866873605,532.8214276177542,4984.5]","[1336.6,1336.6,1000,0,336.6,""oops"",""left"",""up"",""bad_move"",7583.8,6246.7,2414.6,4844.2,325,""oops"",""left"",""left"",""good_move"",10571.8,2987.4,2674.2,7584.4,313.2,""oops"",""down"",""right"",""bad_move"",13132.8,2560.4,2194.3,10572.4,366.1,""oops"",""down"",""up"",""bad_move"",16254.2,3120.6,2449.1,13133.6,671.5,""smooth"",""left"",""left"",""good_move"",18642.7,2387.4,2090.6,16255.4,296.7,""smooth"",""down"",""down"",""good_move"",24160.4,5516.6,1929.7,21892.7,338,""smooth"",""left"",""left"",""good_move"",26695.1,2534.4,2168.4,24160.7,366,""smooth"",""down"",""down"",""good_move"",29628.8,2933.2,2649.3,26695.6,283.9,""oops"",""down"",""up"",""bad_move"",41490.3,11860.8,1964.6,39207.1,318.6,""oops"",""down"",""right"",""bad_move""]","",""
"3069","","<div style=""width:500px;"">
  <p>What determined the result of this run?</p>
  </div>","7","html-slider-response","55","575463","0.0-5.0-1.9","24","1","2025-07-09 09:33:04","01610cd0009c79a99da7d0a3353eb402","94.3.17.192","Mozilla/5.0 (X11; CrOS x86_64 14541.0.0) AppleWebKit/537.36 (KHTML, like Gecko) Chrome/137.0.0.0 Safari/537.36","WebKit","Chrome","137.0.0.0","ChromeOS","14541.0.0","https://app.prolific.com/","en-GB,en-US;q=0.9,en;q=0.8","5b5f23420085cb0001872849","683db7602f5db6a34d12d064","686e37418fd303357d7803f4","1","5b5f23420085cb0001872849","1","2025-07-09T09:42:40.014Z","","","","","","","","","","","AttribQ","","50","","","","","","","","","","","","","","","","","","","","","","","","","","","","",""
"2343","","<div style=""width:500px;"">
  <p>How much control did you have over the ball?</p>
  </div>","10","html-slider-response","56","577807","0.0-5.0-2.9","24","1","2025-07-09 09:33:04","01610cd0009c79a99da7d0a3353eb402","94.3.17.192","Mozilla/5.0 (X11; CrOS x86_64 14541.0.0) AppleWebKit/537.36 (KHTML, like Gecko) Chrome/137.0.0.0 Safari/537.36","WebKit","Chrome","137.0.0.0","ChromeOS","14541.0.0","https://app.prolific.com/","en-GB,en-US;q=0.9,en;q=0.8","5b5f23420085cb0001872849","683db7602f5db6a34d12d064","686e37418fd303357d7803f4","1","5b5f23420085cb0001872849","1","2025-07-09T09:42:42.358Z","","","","","","","","","","","ControlQ","","50","","","","","","","","","","","","","","","","","","","","","","","","","","","","",""
"2225","","<div style=""width:500px;"">
  <p>How would you describe your current emotional state?</p>
  </div>","85","html-slider-response","57","580033","0.0-5.0-3.9","24","1","2025-07-09 09:33:04","01610cd0009c79a99da7d0a3353eb402","94.3.17.192","Mozilla/5.0 (X11; CrOS x86_64 14541.0.0) AppleWebKit/537.36 (KHTML, like Gecko) Chrome/137.0.0.0 Safari/537.36","WebKit","Chrome","137.0.0.0","ChromeOS","14541.0.0","https://app.prolific.com/","en-GB,en-US;q=0.9,en;q=0.8","5b5f23420085cb0001872849","683db7602f5db6a34d12d064","686e37418fd303357d7803f4","1","5b5f23420085cb0001872849","1","2025-07-09T09:42:44.585Z","","","","","","","","","","","StressQ","","50","","","","","","","","","","","","","","","","","","","","","","","","","","","","",""
"2234","","<div style=""width:500px;"">
  <p>What best describes how you currently feel?</p>
  </div>","65","html-slider-response","58","582269","0.0-5.0-4.9","24","1","2025-07-09 09:33:04","01610cd0009c79a99da7d0a3353eb402","94.3.17.192","Mozilla/5.0 (X11; CrOS x86_64 14541.0.0) AppleWebKit/537.36 (KHTML, like Gecko) Chrome/137.0.0.0 Safari/537.36","WebKit","Chrome","137.0.0.0","ChromeOS","14541.0.0","https://app.prolific.com/","en-GB,en-US;q=0.9,en;q=0.8","5b5f23420085cb0001872849","683db7602f5db6a34d12d064","686e37418fd303357d7803f4","1","5b5f23420085cb0001872849","1","2025-07-09T09:42:46.820Z","","","","","","","","","","","MotivationQ","","50","","","","","","","","","","","","","","","","","","","","","","","","","","","","",""
"","","","","ctl-task-cpt","59","613288","0.0-5.0-0.10","24","1","2025-07-09 09:33:04","01610cd0009c79a99da7d0a3353eb402","94.3.17.192","Mozilla/5.0 (X11; CrOS x86_64 14541.0.0) AppleWebKit/537.36 (KHTML, like Gecko) Chrome/137.0.0.0 Safari/537.36","WebKit","Chrome","137.0.0.0","ChromeOS","14541.0.0","https://app.prolific.com/","en-GB,en-US;q=0.9,en;q=0.8","5b5f23420085cb0001872849","683db7602f5db6a34d12d064","686e37418fd303357d7803f4","1","5b5f23420085cb0001872849","1","2025-07-09T09:43:17.839Z","","","","","","","","","","","","","","win-only","1","g1:NE,g2:SW","0.5","11","0","583321.6","1697.1","6706.3","28003.2","1","4","4","6","2","4","4","15","11","0.11363636363636363","1316.4","3000","1265","[""down"",""left""]","{""num_key_presses"":8,""num_perfect"":5,""num_errors"":0,""num_randdir"":3,""num_randdir_good_moves"":2,""num_whilered"":0,""num_whileblue"":0,""num_blue"":0,""num_good_moves"":7}","[421.5714133126395,414.07142761775424,0.6,421.5714133126395,414.07142761775424,105,421.5714133126395,414.07142761775424,212,421.5714133126395,414.07142761775424,312.9,421.5714133126395,414.07142761775424,417.6,667.8214133126395,200.32142761775424,523.1,775.3214133126395,152.82142761775424,628.6,469.0714133126395,336.57142761775424,739.5,-4.678586687360493,577.8214276177542,840,-4.678586687360493,616.5714276177542,946.4,30.321413312639507,677.8214276177542,1056.4,47.82141331263951,700.3214276177542,1158.7,47.82141331263951,700.3214276177542,1266.3,47.82141331263951,700.3214276177542,1370.6,47.82141331263951,700.3214276177542,1473.6,47.82141331263951,700.3214276177542,1575.7,47.82141331263951,700.3214276177542,1680.3,-202.1785866873605,472.82142761775424,1785.7,-202.1785866873605,472.82142761775424,1889.9,-202.1785866873605,472.82142761775424,1990.7,-202.1785866873605,472.82142761775424,2092,-202.1785866873605,472.82142761775424,2196.4,-202.1785866873605,472.82142761775424,2300,-202.1785866873605,472.82142761775424,2402.8,-202.1785866873605,472.82142761775424,2503.1,-202.1785866873605,472.82142761775424,2606,-202.1785866873605,472.82142761775424,2708,-202.1785866873605,472.82142761775424,2810.8,-202.1785866873605,472.82142761775424,2911.3,-202.1785866873605,472.82142761775424,3019.2,-202.1785866873605,472.82142761775424,3126.8,-202.1785866873605,472.82142761775424,3233.3,-202.1785866873605,472.82142761775424,3333.7,-202.1785866873605,472.82142761775424,3436.3,-202.1785866873605,472.82142761775424,3545.2,-202.1785866873605,472.82142761775424,3649.1,-202.1785866873605,472.82142761775424,3753.2,-202.1785866873605,472.82142761775424,3855.2,-202.1785866873605,472.82142761775424,3961.1,-202.1785866873605,472.82142761775424,4062.4,-202.1785866873605,472.82142761775424,4170.4,-202.1785866873605,472.82142761775424,4272.4,-202.1785866873605,472.82142761775424,4375.5,-202.1785866873605,472.82142761775424,4479,-202.1785866873605,472.82142761775424,4589.1,-202.1785866873605,472.82142761775424,4690,-202.1785866873605,472.82142761775424,4796,-202.1785866873605,472.82142761775424,4897.2,-202.1785866873605,472.82142761775424,4998.5]","[1351.9,1351.9,1000,0,351.9,""oops"",""left"",""left"",""good_move"",4244.4,2892,2588.2,1352.4,303.8,""oops"",""down"",""left"",""good_move"",7345.4,3100.7,2788.6,4244.7,312.1,""smooth"",""down"",""down"",""good_move"",9744,2397.8,2112.5,7346.2,285.3,""smooth"",""down"",""down"",""good_move"",12747.4,3003,2674.3,9744.4,328.7,""smooth"",""left"",""left"",""good_move"",15779,3031.1,2743.9,12747.9,287.2,""oops"",""down"",""up"",""bad_move"",18436.7,2657.3,2350.6,15779.4,306.7,""smooth"",""down"",""down"",""good_move"",21100.6,2662.8,2360.1,18437.8,302.7,""smooth"",""down"",""down"",""good_move""]","",""
"3038","","<div style=""width:500px;"">
  <p>What determined the result of this run?</p>
  </div>","44","html-slider-response","60","616327","0.0-5.0-1.10","24","1","2025-07-09 09:33:04","01610cd0009c79a99da7d0a3353eb402","94.3.17.192","Mozilla/5.0 (X11; CrOS x86_64 14541.0.0) AppleWebKit/537.36 (KHTML, like Gecko) Chrome/137.0.0.0 Safari/537.36","WebKit","Chrome","137.0.0.0","ChromeOS","14541.0.0","https://app.prolific.com/","en-GB,en-US;q=0.9,en;q=0.8","5b5f23420085cb0001872849","683db7602f5db6a34d12d064","686e37418fd303357d7803f4","1","5b5f23420085cb0001872849","1","2025-07-09T09:43:20.878Z","","","","","","","","","","","AttribQ","","50","","","","","","","","","","","","","","","","","","","","","","","","","","","","",""
"2141","","<div style=""width:500px;"">
  <p>How much control did you have over the ball?</p>
  </div>","61","html-slider-response","61","618470","0.0-5.0-2.10","24","1","2025-07-09 09:33:04","01610cd0009c79a99da7d0a3353eb402","94.3.17.192","Mozilla/5.0 (X11; CrOS x86_64 14541.0.0) AppleWebKit/537.36 (KHTML, like Gecko) Chrome/137.0.0.0 Safari/537.36","WebKit","Chrome","137.0.0.0","ChromeOS","14541.0.0","https://app.prolific.com/","en-GB,en-US;q=0.9,en;q=0.8","5b5f23420085cb0001872849","683db7602f5db6a34d12d064","686e37418fd303357d7803f4","1","5b5f23420085cb0001872849","1","2025-07-09T09:43:23.021Z","","","","","","","","","","","ControlQ","","50","","","","","","","","","","","","","","","","","","","","","","","","","","","","",""
"2078","","<div style=""width:500px;"">
  <p>How would you describe your current emotional state?</p>
  </div>","75","html-slider-response","62","620550","0.0-5.0-3.10","24","1","2025-07-09 09:33:04","01610cd0009c79a99da7d0a3353eb402","94.3.17.192","Mozilla/5.0 (X11; CrOS x86_64 14541.0.0) AppleWebKit/537.36 (KHTML, like Gecko) Chrome/137.0.0.0 Safari/537.36","WebKit","Chrome","137.0.0.0","ChromeOS","14541.0.0","https://app.prolific.com/","en-GB,en-US;q=0.9,en;q=0.8","5b5f23420085cb0001872849","683db7602f5db6a34d12d064","686e37418fd303357d7803f4","1","5b5f23420085cb0001872849","1","2025-07-09T09:43:25.101Z","","","","","","","","","","","StressQ","","50","","","","","","","","","","","","","","","","","","","","","","","","","","","","",""
"1925","","<div style=""width:500px;"">
  <p>What best describes how you currently feel?</p>
  </div>","59","html-slider-response","63","622476","0.0-5.0-4.10","24","1","2025-07-09 09:33:04","01610cd0009c79a99da7d0a3353eb402","94.3.17.192","Mozilla/5.0 (X11; CrOS x86_64 14541.0.0) AppleWebKit/537.36 (KHTML, like Gecko) Chrome/137.0.0.0 Safari/537.36","WebKit","Chrome","137.0.0.0","ChromeOS","14541.0.0","https://app.prolific.com/","en-GB,en-US;q=0.9,en;q=0.8","5b5f23420085cb0001872849","683db7602f5db6a34d12d064","686e37418fd303357d7803f4","1","5b5f23420085cb0001872849","1","2025-07-09T09:43:27.027Z","","","","","","","","","","","MotivationQ","","50","","","","","","","","","","","","","","","","","","","","","","","","","","","","",""
"","","","","ctl-task-cpt","64","651966","0.0-5.0-0.11","24","1","2025-07-09 09:33:04","01610cd0009c79a99da7d0a3353eb402","94.3.17.192","Mozilla/5.0 (X11; CrOS x86_64 14541.0.0) AppleWebKit/537.36 (KHTML, like Gecko) Chrome/137.0.0.0 Safari/537.36","WebKit","Chrome","137.0.0.0","ChromeOS","14541.0.0","https://app.prolific.com/","en-GB,en-US;q=0.9,en;q=0.8","5b5f23420085cb0001872849","683db7602f5db6a34d12d064","686e37418fd303357d7803f4","1","5b5f23420085cb0001872849","1","2025-07-09T09:43:56.517Z","","","","","","","","","","","","","","win-only","0","g1:NW,g2:SE","0.6","12","0","623528.4","1141.6","6142.3","26471","1","4","8","6","2","8","8","23","15","0.17424242424242425","1289.4","3000","1685","[""down"",""right""]","{""num_key_presses"":6,""num_perfect"":5,""num_errors"":0,""num_randdir"":1,""num_randdir_good_moves"":1,""num_whilered"":0,""num_whileblue"":0,""num_blue"":1,""num_good_moves"":6}","[416.5714133126395,412.82142761775424,0.3,416.5714133126395,412.82142761775424,103.5,416.5714133126395,412.82142761775424,204.4,416.5714133126395,412.82142761775424,308.5,416.5714133126395,412.82142761775424,414.9,416.5714133126395,412.82142761775424,518.9,416.5714133126395,412.82142761775424,624.7,667.8214133126395,607.8214276177542,728.6,695.3214133126395,630.3214276177542,828.6,729.0714133126395,665.3214276177542,936.1,764.0714133126395,715.3214276177542,1040.2,764.0714133126395,727.8214276177542,1145.8,764.0714133126395,727.8214276177542,1254.2,764.0714133126395,727.8214276177542,1362,764.0714133126395,727.8214276177542,1466,764.0714133126395,727.8214276177542,1568.6,1001.5714133126395,542.8214276177542,1669.2,1005.3214133126395,539.0714276177542,1772.9,1005.3214133126395,539.0714276177542,1881.6,1005.3214133126395,539.0714276177542,1990.5,1005.3214133126395,539.0714276177542,2094.2,1005.3214133126395,539.0714276177542,2197.9,1005.3214133126395,539.0714276177542,2299.9,1005.3214133126395,539.0714276177542,2403.8,1005.3214133126395,539.0714276177542,2505.8,1005.3214133126395,539.0714276177542,2613.8,1005.3214133126395,539.0714276177542,2715.1,1005.3214133126395,539.0714276177542,2816.5,1005.3214133126395,539.0714276177542,2919.6,1005.3214133126395,539.0714276177542,3021.6,1005.3214133126395,539.0714276177542,3128.8,1005.3214133126395,539.0714276177542,3234.8,1005.3214133126395,539.0714276177542,3339.7,1005.3214133126395,539.0714276177542,3449.4,1005.3214133126395,539.0714276177542,3553,1005.3214133126395,539.0714276177542,3655.4,1005.3214133126395,539.0714276177542,3755.8,1005.3214133126395,539.0714276177542,3857.9,1005.3214133126395,539.0714276177542,3963.3,1005.3214133126395,539.0714276177542,4070.7,1005.3214133126395,539.0714276177542,4179.4,1005.3214133126395,539.0714276177542,4280.1,1005.3214133126395,539.0714276177542,4382,1005.3214133126395,539.0714276177542,4489.7,1005.3214133126395,539.0714276177542,4593,1005.3214133126395,539.0714276177542,4694.1,1005.3214133126395,539.0714276177542,4800.9,1005.3214133126395,539.0714276177542,4902.9]","[1335.7,1335.7,1000,0,335.7,""oops"",""down"",""right"",""good_move"",4035.3,2699.1,2396.9,1336.2,302.2,""smooth"",""down"",""down"",""good_move"",6768.2,2732.5,2444.6,4035.8,287.8,""smooth"",""down"",""down"",""good_move"",13553.8,6785.3,3166.4,10069.6,317.8,""smooth"",""down"",""down"",""good_move"",16666.8,3112.8,2761.1,13554,351.7,""smooth"",""right"",""right"",""good_move"",20221.3,3554.1,3209.2,16667.2,344.9,""smooth"",""right"",""right"",""good_move""]","",""
"2398","","<div style=""width:500px;"">
  <p>What determined the result of this run?</p>
  </div>","61","html-slider-response","65","654366","0.0-5.0-1.11","24","1","2025-07-09 09:33:04","01610cd0009c79a99da7d0a3353eb402","94.3.17.192","Mozilla/5.0 (X11; CrOS x86_64 14541.0.0) AppleWebKit/537.36 (KHTML, like Gecko) Chrome/137.0.0.0 Safari/537.36","WebKit","Chrome","137.0.0.0","ChromeOS","14541.0.0","https://app.prolific.com/","en-GB,en-US;q=0.9,en;q=0.8","5b5f23420085cb0001872849","683db7602f5db6a34d12d064","686e37418fd303357d7803f4","1","5b5f23420085cb0001872849","1","2025-07-09T09:43:58.917Z","","","","","","","","","","","AttribQ","","50","","","","","","","","","","","","","","","","","","","","","","","","","","","","",""
"1852","","<div style=""width:500px;"">
  <p>How much control did you have over the ball?</p>
  </div>","76","html-slider-response","66","656219","0.0-5.0-2.11","24","1","2025-07-09 09:33:04","01610cd0009c79a99da7d0a3353eb402","94.3.17.192","Mozilla/5.0 (X11; CrOS x86_64 14541.0.0) AppleWebKit/537.36 (KHTML, like Gecko) Chrome/137.0.0.0 Safari/537.36","WebKit","Chrome","137.0.0.0","ChromeOS","14541.0.0","https://app.prolific.com/","en-GB,en-US;q=0.9,en;q=0.8","5b5f23420085cb0001872849","683db7602f5db6a34d12d064","686e37418fd303357d7803f4","1","5b5f23420085cb0001872849","1","2025-07-09T09:44:00.770Z","","","","","","","","","","","ControlQ","","50","","","","","","","","","","","","","","","","","","","","","","","","","","","","",""
"1815","","<div style=""width:500px;"">
  <p>How would you describe your current emotional state?</p>
  </div>","67","html-slider-response","67","658036","0.0-5.0-3.11","24","1","2025-07-09 09:33:04","01610cd0009c79a99da7d0a3353eb402","94.3.17.192","Mozilla/5.0 (X11; CrOS x86_64 14541.0.0) AppleWebKit/537.36 (KHTML, like Gecko) Chrome/137.0.0.0 Safari/537.36","WebKit","Chrome","137.0.0.0","ChromeOS","14541.0.0","https://app.prolific.com/","en-GB,en-US;q=0.9,en;q=0.8","5b5f23420085cb0001872849","683db7602f5db6a34d12d064","686e37418fd303357d7803f4","1","5b5f23420085cb0001872849","1","2025-07-09T09:44:02.587Z","","","","","","","","","","","StressQ","","50","","","","","","","","","","","","","","","","","","","","","","","","","","","","",""
"1906","","<div style=""width:500px;"">
  <p>What best describes how you currently feel?</p>
  </div>","78","html-slider-response","68","659943","0.0-5.0-4.11","24","1","2025-07-09 09:33:04","01610cd0009c79a99da7d0a3353eb402","94.3.17.192","Mozilla/5.0 (X11; CrOS x86_64 14541.0.0) AppleWebKit/537.36 (KHTML, like Gecko) Chrome/137.0.0.0 Safari/537.36","WebKit","Chrome","137.0.0.0","ChromeOS","14541.0.0","https://app.prolific.com/","en-GB,en-US;q=0.9,en;q=0.8","5b5f23420085cb0001872849","683db7602f5db6a34d12d064","686e37418fd303357d7803f4","1","5b5f23420085cb0001872849","1","2025-07-09T09:44:04.494Z","","","","","","","","","","","MotivationQ","","50","","","","","","","","","","","","","","","","","","","","","","","","","","","","",""
"","","","","ctl-task-cpt","69","685506","0.0-5.0-0.12","24","1","2025-07-09 09:33:04","01610cd0009c79a99da7d0a3353eb402","94.3.17.192","Mozilla/5.0 (X11; CrOS x86_64 14541.0.0) AppleWebKit/537.36 (KHTML, like Gecko) Chrome/137.0.0.0 Safari/537.36","WebKit","Chrome","137.0.0.0","ChromeOS","14541.0.0","https://app.prolific.com/","en-GB,en-US;q=0.9,en;q=0.8","5b5f23420085cb0001872849","683db7602f5db6a34d12d064","686e37418fd303357d7803f4","1","5b5f23420085cb0001872849","1","2025-07-09T09:44:30.057Z","","","","","","","","","","","","","","win-only","3","g1:SW,g2:NE","0.7","13","0","660996.2","1186.8","6196.1","22542.5","1","4","4","6","2","4","3","26","23","0.19696969696969696","1199.1","3000","2125","[""up"",""right""]","{""num_key_presses"":6,""num_perfect"":5,""num_errors"":1,""num_randdir"":0,""num_randdir_good_moves"":0,""num_whilered"":0,""num_whileblue"":1,""num_blue"":1,""num_good_moves"":6}","[414.0714133126395,424.07142761775424,0.4,414.0714133126395,424.07142761775424,101.4,414.0714133126395,424.07142761775424,203.3,414.0714133126395,424.07142761775424,309.5,414.0714133126395,424.07142761775424,412,414.0714133126395,424.07142761775424,516.9,414.0714133126395,424.07142761775424,618.5,414.0714133126395,424.07142761775424,719.9,730.3214133126395,104.07142761775425,827.8,765.3214133126395,89.07142761775425,932.1,775.3214133126395,89.07142761775425,1032.3,775.3214133126395,89.07142761775425,1133.5,775.3214133126395,89.07142761775425,1238.3,775.3214133126395,89.07142761775425,1340.1,775.3214133126395,89.07142761775425,1451.3,1176.5714133126396,382.82142761775424,1551.7,1194.0714133126396,416.57142761775424,1657.4,1194.0714133126396,416.57142761775424,1759.3,1194.0714133126396,416.57142761775424,1866.9,1194.0714133126396,416.57142761775424,1971.4,1194.0714133126396,416.57142761775424,2071.4,1194.0714133126396,416.57142761775424,2174.6,1194.0714133126396,416.57142761775424,2282.2,1194.0714133126396,416.57142761775424,2389.5,1194.0714133126396,416.57142761775424,2489.6,1194.0714133126396,416.57142761775424,2590.7,1194.0714133126396,416.57142761775424,2704.8,1194.0714133126396,416.57142761775424,2808.1,1194.0714133126396,416.57142761775424,2908.6,1194.0714133126396,416.57142761775424,3012.2,1194.0714133126396,416.57142761775424,3114.9,1194.0714133126396,416.57142761775424,3218.8,1194.0714133126396,416.57142761775424,3324.7,1194.0714133126396,416.57142761775424,3431.2,1194.0714133126396,416.57142761775424,3536.9,1194.0714133126396,416.57142761775424,3644.1,1194.0714133126396,416.57142761775424,3749.4,1194.0714133126396,416.57142761775424,3854.6,1194.0714133126396,416.57142761775424,3959,1194.0714133126396,416.57142761775424,4067.7,1194.0714133126396,416.57142761775424,4171.7,1194.0714133126396,416.57142761775424,4272.9,1194.0714133126396,416.57142761775424,4382.2,1194.0714133126396,416.57142761775424,4482.6,1194.0714133126396,416.57142761775424,4588.6,1194.0714133126396,416.57142761775424,4691.6,1194.0714133126396,416.57142761775424,4797.9,1194.0714133126396,416.57142761775424,4899.7]","[1350.1,1350.1,1000,0,350.1,""smooth"",""up"",""up"",""good_move"",4843.6,3492.9,3192.5,1350.7,300.4,""smooth"",""right"",""right"",""good_move"",8425.6,3581.5,3257.5,4844.2,323.9,""smooth"",""right"",""right"",""good_move"",11370.8,2944.9,2659.6,8425.9,285.3,""smooth"",""up"",""up"",""good_move"",13579.7,2207.7,1869.2,11372,338.5,""while_blue"",""right"",""up"",""good_move"",16165.8,2585.7,2241.4,13580.1,344.3,""smooth"",""right"",""right"",""good_move""]","",""
"5298","","<div style=""width:500px;"">
  <p>What determined the result of this run?</p>
  </div>","89","html-slider-response","70","690806","0.0-5.0-1.12","24","1","2025-07-09 09:33:04","01610cd0009c79a99da7d0a3353eb402","94.3.17.192","Mozilla/5.0 (X11; CrOS x86_64 14541.0.0) AppleWebKit/537.36 (KHTML, like Gecko) Chrome/137.0.0.0 Safari/537.36","WebKit","Chrome","137.0.0.0","ChromeOS","14541.0.0","https://app.prolific.com/","en-GB,en-US;q=0.9,en;q=0.8","5b5f23420085cb0001872849","683db7602f5db6a34d12d064","686e37418fd303357d7803f4","1","5b5f23420085cb0001872849","1","2025-07-09T09:44:35.357Z","","","","","","","","","","","AttribQ","","50","","","","","","","","","","","","","","","","","","","","","","","","","","","","",""
"2087","","<div style=""width:500px;"">
  <p>How much control did you have over the ball?</p>
  </div>","66","html-slider-response","71","692894","0.0-5.0-2.12","24","1","2025-07-09 09:33:04","01610cd0009c79a99da7d0a3353eb402","94.3.17.192","Mozilla/5.0 (X11; CrOS x86_64 14541.0.0) AppleWebKit/537.36 (KHTML, like Gecko) Chrome/137.0.0.0 Safari/537.36","WebKit","Chrome","137.0.0.0","ChromeOS","14541.0.0","https://app.prolific.com/","en-GB,en-US;q=0.9,en;q=0.8","5b5f23420085cb0001872849","683db7602f5db6a34d12d064","686e37418fd303357d7803f4","1","5b5f23420085cb0001872849","1","2025-07-09T09:44:37.446Z","","","","","","","","","","","ControlQ","","50","","","","","","","","","","","","","","","","","","","","","","","","","","","","",""
"2242","","<div style=""width:500px;"">
  <p>How would you describe your current emotional state?</p>
  </div>","75","html-slider-response","72","695138","0.0-5.0-3.12","24","1","2025-07-09 09:33:04","01610cd0009c79a99da7d0a3353eb402","94.3.17.192","Mozilla/5.0 (X11; CrOS x86_64 14541.0.0) AppleWebKit/537.36 (KHTML, like Gecko) Chrome/137.0.0.0 Safari/537.36","WebKit","Chrome","137.0.0.0","ChromeOS","14541.0.0","https://app.prolific.com/","en-GB,en-US;q=0.9,en;q=0.8","5b5f23420085cb0001872849","683db7602f5db6a34d12d064","686e37418fd303357d7803f4","1","5b5f23420085cb0001872849","1","2025-07-09T09:44:39.690Z","","","","","","","","","","","StressQ","","50","","","","","","","","","","","","","","","","","","","","","","","","","","","","",""
"2143","","<div style=""width:500px;"">
  <p>What best describes how you currently feel?</p>
  </div>","72","html-slider-response","73","697283","0.0-5.0-4.12","24","1","2025-07-09 09:33:04","01610cd0009c79a99da7d0a3353eb402","94.3.17.192","Mozilla/5.0 (X11; CrOS x86_64 14541.0.0) AppleWebKit/537.36 (KHTML, like Gecko) Chrome/137.0.0.0 Safari/537.36","WebKit","Chrome","137.0.0.0","ChromeOS","14541.0.0","https://app.prolific.com/","en-GB,en-US;q=0.9,en;q=0.8","5b5f23420085cb0001872849","683db7602f5db6a34d12d064","686e37418fd303357d7803f4","1","5b5f23420085cb0001872849","1","2025-07-09T09:44:41.834Z","","","","","","","","","","","MotivationQ","","50","","","","","","","","","","","","","","","","","","","","","","","","","","","","",""
"","","","","ctl-task-cpt","74","736587","0.0-5.0-0.13","24","1","2025-07-09 09:33:04","01610cd0009c79a99da7d0a3353eb402","94.3.17.192","Mozilla/5.0 (X11; CrOS x86_64 14541.0.0) AppleWebKit/537.36 (KHTML, like Gecko) Chrome/137.0.0.0 Safari/537.36","WebKit","Chrome","137.0.0.0","ChromeOS","14541.0.0","https://app.prolific.com/","en-GB,en-US;q=0.9,en;q=0.8","5b5f23420085cb0001872849","683db7602f5db6a34d12d064","686e37418fd303357d7803f4","1","5b5f23420085cb0001872849","1","2025-07-09T09:45:21.138Z","","","","","","","","","","","","","","win-only","1","g1:NE,g2:SW","0.8","14","0","698335.4","4948.3","9951.2","36286.3","1","4","8","6","2","8","8","34","26","0.25757575757575757","1099.6","3000","1395","[""down"",""left""]","{""num_key_presses"":8,""num_perfect"":7,""num_errors"":0,""num_randdir"":1,""num_randdir_good_moves"":0,""num_whilered"":0,""num_whileblue"":0,""num_blue"":1,""num_good_moves"":7}","[421.5714133126395,421.57142761775424,0.3,421.5714133126395,421.57142761775424,105.2,421.5714133126395,421.57142761775424,209.2,421.5714133126395,421.57142761775424,312.3,421.5714133126395,421.57142761775424,419.6,421.5714133126395,421.57142761775424,522,162.8214133126395,756.5714276177542,633.4,119.0714133126395,825.3214276177542,745.9,117.8214133126395,824.0714276177542,853.9,97.8214133126395,805.3214276177542,964.1,97.8214133126395,805.3214276177542,1064.2,97.8214133126395,805.3214276177542,1172.3,97.8214133126395,805.3214276177542,1275.6,97.8214133126395,805.3214276177542,1379,97.8214133126395,805.3214276177542,1483.1,97.8214133126395,805.3214276177542,1583.3,97.8214133126395,805.3214276177542,1686.4,97.8214133126395,805.3214276177542,1796.9,97.8214133126395,805.3214276177542,1900.6,97.8214133126395,805.3214276177542,2001.5,97.8214133126395,805.3214276177542,2111.3,97.8214133126395,805.3214276177542,2221.9,97.8214133126395,805.3214276177542,2326.3,97.8214133126395,805.3214276177542,2431.5,97.8214133126395,805.3214276177542,2533.2,97.8214133126395,805.3214276177542,2633.9,97.8214133126395,805.3214276177542,2736.5,97.8214133126395,805.3214276177542,2840.7,97.8214133126395,805.3214276177542,2943.6,97.8214133126395,805.3214276177542,3047.7,97.8214133126395,805.3214276177542,3154.9,97.8214133126395,805.3214276177542,3259.9,97.8214133126395,805.3214276177542,3361.1,97.8214133126395,805.3214276177542,3465.3,97.8214133126395,805.3214276177542,3574,97.8214133126395,805.3214276177542,3684.8,97.8214133126395,805.3214276177542,3795.8,97.8214133126395,805.3214276177542,3903,97.8214133126395,805.3214276177542,4013.3,97.8214133126395,805.3214276177542,4120.7,97.8214133126395,805.3214276177542,4222,97.8214133126395,805.3214276177542,4330.4,97.8214133126395,805.3214276177542,4439.1,97.8214133126395,805.3214276177542,4540.1,97.8214133126395,805.3214276177542,4645.5,97.8214133126395,805.3214276177542,4750.2,97.8214133126395,805.3214276177542,4859.7,97.8214133126395,805.3214276177542,4964.7]","[1455.6,1455.6,1000,0,455.6,""smooth"",""down"",""down"",""good_move"",4551.5,3095.3,2763.4,1456.2,331.9,""smooth"",""left"",""left"",""good_move"",8011.7,3459.8,3104.6,4551.9,355.2,""smooth"",""down"",""down"",""good_move"",10699.3,2687.4,2290.7,8011.9,396.7,""oops"",""left"",""right"",""bad_move"",13770.5,3070.6,2756.2,10700,314.4,""smooth"",""left"",""left"",""good_move"",16591.9,2821.1,2487,13770.8,334.1,""smooth"",""left"",""left"",""good_move"",22908.4,6316,2266.9,20288.6,352.9,""smooth"",""left"",""left"",""good_move"",26194.1,3285.2,2916.8,22908.9,368.4,""smooth"",""down"",""down"",""good_move""]","",""
"3483","","<div style=""width:500px;"">
  <p>What determined the result of this run?</p>
  </div>","88","html-slider-response","75","740072","0.0-5.0-1.13","24","1","2025-07-09 09:33:04","01610cd0009c79a99da7d0a3353eb402","94.3.17.192","Mozilla/5.0 (X11; CrOS x86_64 14541.0.0) AppleWebKit/537.36 (KHTML, like Gecko) Chrome/137.0.0.0 Safari/537.36","WebKit","Chrome","137.0.0.0","ChromeOS","14541.0.0","https://app.prolific.com/","en-GB,en-US;q=0.9,en;q=0.8","5b5f23420085cb0001872849","683db7602f5db6a34d12d064","686e37418fd303357d7803f4","1","5b5f23420085cb0001872849","1","2025-07-09T09:45:24.623Z","","","","","","","","","","","AttribQ","","50","","","","","","","","","","","","","","","","","","","","","","","","","","","","",""
"2506","","<div style=""width:500px;"">
  <p>How much control did you have over the ball?</p>
