"rt","response_timestamp","stimulus","response","trial_type","trial_index","time_elapsed","internal_node_id","run_id","condition","recorded_at","source_code_version","ip","user_agent","device","browser","browser_version","platform","platform_version","referer","accept_language","PROLIFIC_PID","STUDY_ID","SESSION_ID","WEEK","BATCH","prolific_id","week","batch","realtime","success","responses","item_order","radio_event_ids","radio_event_times","key_event_times","mouse_event_times","straightlining","zigzagging","honeypot","eventType","view_history","slider_start","which_type","canvas_config","goals_layout","control_level","trial_number","tutorial_trial_number","trial_start_time","phase1_start_time","phase2_start_time","phase3_start_time","goal_1_value","goal_1_distance","goal_2_value","goal_2_distance","goal_selected","outcome","outcome_total","participant_final_score","participant_initial_score","participant_final_score_prop","goal_choice_rt","allocated_time","allocated_time_remaining","goal_direction","counts","mouse_movements","key_presses","question_order","question_id"
"72797","1752681768829","<p style='font-size:40px;line-height:1.25'><strong>Welcome to the experiment!</strong></p><p style='font-size:1.1em;line-height:1.25'>Thank you for participanting in our experiment again! You will be asked to play the Dysfunctional Ball Game again. We will briefly recap the rules before we start.</p><p style='font-size:1.1em;line-height:1.25'>Press <strong>Next</strong> to continue.</p>","0","custom-html-button-response","0","72803","0.0-0.0","118","1","2025-07-16 16:01:21","1f75c3e559b7213887762d5229550c2b","194.152.129.18","Mozilla/5.0 (Windows NT 10.0; Win64; x64) AppleWebKit/537.36 (KHTML, like Gecko) Chrome/131.0.0.0 Safari/537.36","WebKit","Chrome","131.0.0.0","Windows","10.0","https://app.prolific.com/","en-GB,en;q=0.9","677fb45dee7e90f416b55aea","686e379bc37a29ffa5cdc956","6877ccb1553ba6ee5cf3e226","1","1","677fb45dee7e90f416b55aea","1","1","2025-07-16T16:02:48.831Z","","","","","","","","","","","","","","","","","","","","","","","","","","","","","","","","","","","","","","","","","",""
"18582","","","","fullscreen","1","92395","0.0-1.0","118","1","2025-07-16 16:01:21","1f75c3e559b7213887762d5229550c2b","194.152.129.18","Mozilla/5.0 (Windows NT 10.0; Win64; x64) AppleWebKit/537.36 (KHTML, like Gecko) Chrome/131.0.0.0 Safari/537.36","WebKit","Chrome","131.0.0.0","Windows","10.0","https://app.prolific.com/","en-GB,en;q=0.9","677fb45dee7e90f416b55aea","686e379bc37a29ffa5cdc956","6877ccb1553ba6ee5cf3e226","1","1","677fb45dee7e90f416b55aea","1","1","","true","","","","","","","","","","","","","","","","","","","","","","","","","","","","","","","","","","","","","","","","",""
"16075","1752681804500","<p style='font-size:1.1em;line-height:1.25'>In the following, we will ask you a few questions relating to your feelings in the last 24 hours.<br></p><p style='font-size:1.1em;line-height:1.25'>Press the <strong>Next</strong> button to continue.</p>","0","custom-html-button-response","2","108473","0.0-2.0-0.0","118","1","2025-07-16 16:01:21","1f75c3e559b7213887762d5229550c2b","194.152.129.18","Mozilla/5.0 (Windows NT 10.0; Win64; x64) AppleWebKit/537.36 (KHTML, like Gecko) Chrome/131.0.0.0 Safari/537.36","WebKit","Chrome","131.0.0.0","Windows","10.0","https://app.prolific.com/","en-GB,en;q=0.9","677fb45dee7e90f416b55aea","686e379bc37a29ffa5cdc956","6877ccb1553ba6ee5cf3e226","1","1","677fb45dee7e90f416b55aea","1","1","2025-07-16T16:03:24.502Z","","","","","","","","","","","","","","","","","","","","","","","","","","","","","","","","","","","","","","","","","",""
"79005.80000000075","","","","survey-template","3","187488","0.0-2.0-1.0","118","1","2025-07-16 16:01:21","1f75c3e559b7213887762d5229550c2b","194.152.129.18","Mozilla/5.0 (Windows NT 10.0; Win64; x64) AppleWebKit/537.36 (KHTML, like Gecko) Chrome/131.0.0.0 Safari/537.36","WebKit","Chrome","131.0.0.0","Windows","10.0","https://app.prolific.com/","en-GB,en;q=0.9","677fb45dee7e90f416b55aea","686e379bc37a29ffa5cdc956","6877ccb1553ba6ee5cf3e226","1","1","677fb45dee7e90f416b55aea","1","1","2025-07-16T16:04:43.516Z","","{""Q01"":""3"",""Q02"":""3"",""Q03"":""3"",""Q04"":""3"",""Q05"":""3"",""Q06"":""3"",""Q07"":""3"",""Q08"":""3"",""Q09"":""3"",""Q10"":""3"",""Q11"":""3"",""Q12"":""3"",""Q13"":""5"",""Q14"":""3"",""Q15"":""3"",""Q16"":""3"",""Q17"":""3"",""Q18"":""3"",""Q19"":""3"",""Q20"":""3"",""Q21"":""3"",""Q22"":""3""}","[0,1,2,3,4,5,6,7,8,9,10,11,12,13,14,15,16,17,18,19,20,21]","[""Q01"",""Q02"",""Q03"",""Q04"",""Q05"",""Q06"",""Q07"",""Q08"",""Q09"",""Q10"",""Q11"",""Q12"",""Q13"",""Q14"",""Q14"",""Q14"",""Q15"",""Q16"",""Q17"",""Q18"",""Q19"",""Q20"",""Q21"",""Q22""]","[6681.60000000149,8771.699999999255,11981.300000000745,14711,17746.89999999851,22331.10000000149,24629.800000000745,26800.39999999851,28484.199999999255,30165.800000000745,31987.699999999255,33425.699999999255,36771.10000000149,43561.699999999255,49336.39999999851,50268.60000000149,51643.5,57055.60000000149,58301.5,59482.300000000745,71359.10000000149,72060.60000000149,75287.60000000149,76894.69999999925]","[]","[0.19999999925494194,6681.60000000149,8771.699999999255,11981.300000000745,14711,17746.89999999851,21588.800000000745,22331.10000000149,24629.800000000745,26800.39999999851,28484.199999999255,30165.800000000745,31987.699999999255,33425.699999999255,36771.10000000149,43561.699999999255,49336.39999999851,50268.60000000149,51643.5,57055.60000000149,58301.5,59482.300000000745,70398.69999999925,71359.10000000149,72060.60000000149,75287.60000000149,76894.69999999925,78999.89999999851]","0.9545454545454546","0","0","drsp","","","","","","","","","","","","","","","","","","","","","","","","","","","","","","",""
"9419.5","","","","survey-template","4","196910","0.0-2.0-2.0","118","1","2025-07-16 16:01:21","1f75c3e559b7213887762d5229550c2b","194.152.129.18","Mozilla/5.0 (Windows NT 10.0; Win64; x64) AppleWebKit/537.36 (KHTML, like Gecko) Chrome/131.0.0.0 Safari/537.36","WebKit","Chrome","131.0.0.0","Windows","10.0","https://app.prolific.com/","en-GB,en;q=0.9","677fb45dee7e90f416b55aea","686e379bc37a29ffa5cdc956","6877ccb1553ba6ee5cf3e226","1","1","677fb45dee7e90f416b55aea","1","1","2025-07-16T16:04:52.939Z","","{""Q01"":""3"",""Q02"":""2"",""Q03"":""3""}","[0,1,2]","[""Q01"",""Q02"",""Q03""]","[2750.5,4762.199999999255,8751.60000000149]","[]","[2750.5,4762.199999999255,8751.60000000149,9418.60000000149]","1","0","0","stress","","","","","","","","","","","","","","","","","","","","","","","","","","","","","","",""
"61378","","","","instructions","5","258290","0.0-3.0-0.0","118","1","2025-07-16 16:01:21","1f75c3e559b7213887762d5229550c2b","194.152.129.18","Mozilla/5.0 (Windows NT 10.0; Win64; x64) AppleWebKit/537.36 (KHTML, like Gecko) Chrome/131.0.0.0 Safari/537.36","WebKit","Chrome","131.0.0.0","Windows","10.0","https://app.prolific.com/","en-GB,en;q=0.9","677fb45dee7e90f416b55aea","686e379bc37a29ffa5cdc956","6877ccb1553ba6ee5cf3e226","1","1","677fb45dee7e90f416b55aea","1","1","","","","","","","","","","","","","[{""page_index"":0,""viewing_time"":61377}]","","","","","","","","","","","","","","","","","","","","","","","","","","","","","",""
"6966","","<p>Before you start with this game please answer the following three questions yourself. </p>
  <p>Through this game, we measure several aspects of your cognitive performance, such as reaction times, multi-tasking capabilities </p>
  <p>and the ability to assess the situation you are in.</p>
  <p></p>
  <p><b>How good do you usually are in such tasks?</b></p>","68","html-slider-response","6","265259","0.0-4.0-0.0","118","1","2025-07-16 16:01:21","1f75c3e559b7213887762d5229550c2b","194.152.129.18","Mozilla/5.0 (Windows NT 10.0; Win64; x64) AppleWebKit/537.36 (KHTML, like Gecko) Chrome/131.0.0.0 Safari/537.36","WebKit","Chrome","131.0.0.0","Windows","10.0","https://app.prolific.com/","en-GB,en;q=0.9","677fb45dee7e90f416b55aea","686e379bc37a29ffa5cdc956","6877ccb1553ba6ee5cf3e226","1","1","677fb45dee7e90f416b55aea","1","1","2025-07-16T16:06:01.287Z","","","","","","","","","","","PreSkillQ","","50","","","","","","","","","","","","","","","","","","","","","","","","","","","","",""
"4783","","<div style=""width:500px;"">
  <p>How well do you think you will perform in this task compared to other participants?</p>
  </div>","68","html-slider-response","7","270044","0.0-4.0-1.0","118","1","2025-07-16 16:01:21","1f75c3e559b7213887762d5229550c2b","194.152.129.18","Mozilla/5.0 (Windows NT 10.0; Win64; x64) AppleWebKit/537.36 (KHTML, like Gecko) Chrome/131.0.0.0 Safari/537.36","WebKit","Chrome","131.0.0.0","Windows","10.0","https://app.prolific.com/","en-GB,en;q=0.9","677fb45dee7e90f416b55aea","686e379bc37a29ffa5cdc956","6877ccb1553ba6ee5cf3e226","1","1","677fb45dee7e90f416b55aea","1","1","2025-07-16T16:06:06.072Z","","","","","","","","","","","PrePerfQ","","50","","","","","","","","","","","","","","","","","","","","","","","","","","","","",""
"7257","","<div style=""width:500px;"">
  <p>What best describes how you currently feel?</p>
  </div>","50","html-slider-response","8","277303","0.0-4.0-2.0","118","1","2025-07-16 16:01:21","1f75c3e559b7213887762d5229550c2b","194.152.129.18","Mozilla/5.0 (Windows NT 10.0; Win64; x64) AppleWebKit/537.36 (KHTML, like Gecko) Chrome/131.0.0.0 Safari/537.36","WebKit","Chrome","131.0.0.0","Windows","10.0","https://app.prolific.com/","en-GB,en;q=0.9","677fb45dee7e90f416b55aea","686e379bc37a29ffa5cdc956","6877ccb1553ba6ee5cf3e226","1","1","677fb45dee7e90f416b55aea","1","1","2025-07-16T16:06:13.331Z","","","","","","","","","","","PreMotivationQ","","50","","","","","","","","","","","","","","","","","","","","","","","","","","","","",""
"","","","","ctl-task-cpt","9","295297","0.0-5.0-0.0","118","1","2025-07-16 16:01:21","1f75c3e559b7213887762d5229550c2b","194.152.129.18","Mozilla/5.0 (Windows NT 10.0; Win64; x64) AppleWebKit/537.36 (KHTML, like Gecko) Chrome/131.0.0.0 Safari/537.36","WebKit","Chrome","131.0.0.0","Windows","10.0","https://app.prolific.com/","en-GB,en;q=0.9","677fb45dee7e90f416b55aea","686e379bc37a29ffa5cdc956","6877ccb1553ba6ee5cf3e226","1","1","677fb45dee7e90f416b55aea","1","1","2025-07-16T16:06:31.325Z","","","","","","","","","","","","","","win-only","0","g1:NW,g2:SE","1","1","0","294454","4963.3","9971.3","14985.6","1","4","8","6","1","-1","-1","0","0","0","5007.9","3000","-2445","[""left"",""up""]","{""num_key_presses"":0,""num_perfect"":0,""num_errors"":0,""num_randdir"":0,""num_randdir_good_moves"":0,""num_whilered"":0,""num_whileblue"":0,""num_blue"":0,""num_good_moves"":0}","[404.57142857142856,420.47767857142856,0.4,404.57142857142856,420.47767857142856,103.9,404.57142857142856,420.47767857142856,207.9,404.57142857142856,420.47767857142856,308,404.57142857142856,420.47767857142856,408.5,404.57142857142856,420.47767857142856,516.7,404.57142857142856,420.47767857142856,619.3,404.57142857142856,420.47767857142856,720.1,404.57142857142856,420.47767857142856,830.9,404.57142857142856,420.47767857142856,932.6,404.57142857142856,420.47767857142856,1034.5,404.57142857142856,420.47767857142856,1135.4,404.57142857142856,420.47767857142856,1243,404.57142857142856,420.47767857142856,1344.4,404.57142857142856,421.47767857142856,1453.7,431.57142857142856,473.47767857142856,1564,434.57142857142856,520.4776785714286,1668.8,426.57142857142856,531.4776785714286,1773.5,426.57142857142856,531.4776785714286,1875.2,426.57142857142856,531.4776785714286,1984.5,426.57142857142856,531.4776785714286,2090,426.57142857142856,531.4776785714286,2197.5,426.57142857142856,531.4776785714286,2301.4,426.57142857142856,531.4776785714286,2407.2,426.57142857142856,531.4776785714286,2508.5,426.57142857142856,531.4776785714286,2608.7,426.57142857142856,531.4776785714286,2715.8,426.57142857142856,531.4776785714286,2818.2,426.57142857142856,531.4776785714286,2921.7,426.57142857142856,531.4776785714286,3023.6,426.57142857142856,531.4776785714286,3126.2,426.57142857142856,531.4776785714286,3228.6,426.57142857142856,531.4776785714286,3334.8,426.57142857142856,531.4776785714286,3435.2,426.57142857142856,531.4776785714286,3541.3,426.57142857142856,531.4776785714286,3643,426.57142857142856,531.4776785714286,3744.5,426.57142857142856,531.4776785714286,3847,426.57142857142856,531.4776785714286,3952.9,426.57142857142856,531.4776785714286,4059.9,426.57142857142856,531.4776785714286,4160.3,426.57142857142856,531.4776785714286,4265.9,426.57142857142856,531.4776785714286,4371.2,426.57142857142856,531.4776785714286,4471.8,426.57142857142856,531.4776785714286,4573,426.57142857142856,531.4776785714286,4678.9,426.57142857142856,531.4776785714286,4789.6,426.57142857142856,531.4776785714286,4890.7,426.57142857142856,531.4776785714286,4992.2]","[]","",""
"7536","","<div style=""width:500px;"">
  <p>What determined the result of this run?</p>
  </div>","76","html-slider-response","10","302837","0.0-5.0-1.0","118","1","2025-07-16 16:01:21","1f75c3e559b7213887762d5229550c2b","194.152.129.18","Mozilla/5.0 (Windows NT 10.0; Win64; x64) AppleWebKit/537.36 (KHTML, like Gecko) Chrome/131.0.0.0 Safari/537.36","WebKit","Chrome","131.0.0.0","Windows","10.0","https://app.prolific.com/","en-GB,en;q=0.9","677fb45dee7e90f416b55aea","686e379bc37a29ffa5cdc956","6877ccb1553ba6ee5cf3e226","1","1","677fb45dee7e90f416b55aea","1","1","2025-07-16T16:06:38.865Z","","","","","","","","","","","AttribQ","","50","","","","","","","","","","","","","","","","","","","","","","","","","","","","",""
"6318","","<div style=""width:500px;"">
  <p>How much control did you have over the ball?</p>
  </div>","72","html-slider-response","11","309161","0.0-5.0-2.0","118","1","2025-07-16 16:01:21","1f75c3e559b7213887762d5229550c2b","194.152.129.18","Mozilla/5.0 (Windows NT 10.0; Win64; x64) AppleWebKit/537.36 (KHTML, like Gecko) Chrome/131.0.0.0 Safari/537.36","WebKit","Chrome","131.0.0.0","Windows","10.0","https://app.prolific.com/","en-GB,en;q=0.9","677fb45dee7e90f416b55aea","686e379bc37a29ffa5cdc956","6877ccb1553ba6ee5cf3e226","1","1","677fb45dee7e90f416b55aea","1","1","2025-07-16T16:06:45.189Z","","","","","","","","","","","ControlQ","","50","","","","","","","","","","","","","","","","","","","","","","","","","","","","",""
"3400","","<div style=""width:500px;"">
  <p>How would you describe your current emotional state?</p>
  </div>","68","html-slider-response","12","312565","0.0-5.0-3.0","118","1","2025-07-16 16:01:21","1f75c3e559b7213887762d5229550c2b","194.152.129.18","Mozilla/5.0 (Windows NT 10.0; Win64; x64) AppleWebKit/537.36 (KHTML, like Gecko) Chrome/131.0.0.0 Safari/537.36","WebKit","Chrome","131.0.0.0","Windows","10.0","https://app.prolific.com/","en-GB,en;q=0.9","677fb45dee7e90f416b55aea","686e379bc37a29ffa5cdc956","6877ccb1553ba6ee5cf3e226","1","1","677fb45dee7e90f416b55aea","1","1","2025-07-16T16:06:48.593Z","","","","","","","","","","","StressQ","","50","","","","","","","","","","","","","","","","","","","","","","","","","","","","",""
"7021","","<div style=""width:500px;"">
  <p>What best describes how you currently feel?</p>
  </div>","69","html-slider-response","13","319590","0.0-5.0-4.0","118","1","2025-07-16 16:01:21","1f75c3e559b7213887762d5229550c2b","194.152.129.18","Mozilla/5.0 (Windows NT 10.0; Win64; x64) AppleWebKit/537.36 (KHTML, like Gecko) Chrome/131.0.0.0 Safari/537.36","WebKit","Chrome","131.0.0.0","Windows","10.0","https://app.prolific.com/","en-GB,en;q=0.9","677fb45dee7e90f416b55aea","686e379bc37a29ffa5cdc956","6877ccb1553ba6ee5cf3e226","1","1","677fb45dee7e90f416b55aea","1","1","2025-07-16T16:06:55.619Z","","","","","","","","","","","MotivationQ","","50","","","","","","","","","","","","","","","","","","","","","","","","","","","","",""
"","","","","ctl-task-cpt","14","337030","0.0-5.0-0.1","118","1","2025-07-16 16:01:21","1f75c3e559b7213887762d5229550c2b","194.152.129.18","Mozilla/5.0 (Windows NT 10.0; Win64; x64) AppleWebKit/537.36 (KHTML, like Gecko) Chrome/131.0.0.0 Safari/537.36","WebKit","Chrome","131.0.0.0","Windows","10.0","https://app.prolific.com/","en-GB,en;q=0.9","677fb45dee7e90f416b55aea","686e379bc37a29ffa5cdc956","6877ccb1553ba6ee5cf3e226","1","1","677fb45dee7e90f416b55aea","1","1","2025-07-16T16:07:13.059Z","","","","","","","","","","","","","","win-only","0","g1:NW,g2:SE","0.9","2","0","336742.1","4518.9","9523.4","14424.7","1","4","4","6","1","-1","-1","0","0","0","5004.4","3000","-2310","[""left"",""up""]","{""num_key_presses"":0,""num_perfect"":0,""num_errors"":0,""num_randdir"":0,""num_randdir_good_moves"":0,""num_whilered"":0,""num_whileblue"":0,""num_blue"":0,""num_good_moves"":0}","[414.57142857142856,417.47767857142856,1.2,414.57142857142856,417.47767857142856,106.8,414.57142857142856,417.47767857142856,207.7,414.57142857142856,417.47767857142856,315.5,414.57142857142856,417.47767857142856,417.2,414.57142857142856,417.47767857142856,517.2,414.57142857142856,417.47767857142856,624.6,414.57142857142856,417.47767857142856,730.8,382.57142857142856,427.47767857142856,831.7,339.57142857142856,421.47767857142856,942.2,333.57142857142856,416.47767857142856,1043.2,328.57142857142856,409.47767857142856,1145.6,324.57142857142856,396.47767857142856,1245.8,325.57142857142856,386.47767857142856,1352.6,328.57142857142856,381.47767857142856,1458.4,343.57142857142856,367.47767857142856,1563.5,347.57142857142856,360.47767857142856,1666.5,348.57142857142856,359.47767857142856,1770.2,348.57142857142856,359.47767857142856,1875,348.57142857142856,359.47767857142856,1981.1,348.57142857142856,359.47767857142856,2086.7,348.57142857142856,359.47767857142856,2190.9,348.57142857142856,359.47767857142856,2297.8,348.57142857142856,359.47767857142856,2402.1,348.57142857142856,359.47767857142856,2505,348.57142857142856,359.47767857142856,2605.7,348.57142857142856,359.47767857142856,2706.9,348.57142857142856,359.47767857142856,2813.5,348.57142857142856,359.47767857142856,2916.3,348.57142857142856,359.47767857142856,3016.8,348.57142857142856,359.47767857142856,3117,348.57142857142856,359.47767857142856,3223.3,348.57142857142856,359.47767857142856,3327.9,348.57142857142856,359.47767857142856,3433.1,348.57142857142856,359.47767857142856,3541,348.57142857142856,359.47767857142856,3648.1,348.57142857142856,359.47767857142856,3749.1,348.57142857142856,359.47767857142856,3849.1,348.57142857142856,359.47767857142856,3950,348.57142857142856,359.47767857142856,4050.7,348.57142857142856,359.47767857142856,4153.6,348.57142857142856,359.47767857142856,4255.3,348.57142857142856,359.47767857142856,4364.2,348.57142857142856,359.47767857142856,4464.6,348.57142857142856,359.47767857142856,4565.1,348.57142857142856,359.47767857142856,4665.1,348.57142857142856,359.47767857142856,4771.9,348.57142857142856,359.47767857142856,4875.7,348.57142857142856,359.47767857142856,4978.5]","[]","",""
"60129","","<div style=""width:500px;"">
  <p>What determined the result of this run?</p>
  </div>","50","html-slider-response","15","397164","0.0-5.0-1.1","118","1","2025-07-16 16:01:21","1f75c3e559b7213887762d5229550c2b","194.152.129.18","Mozilla/5.0 (Windows NT 10.0; Win64; x64) AppleWebKit/537.36 (KHTML, like Gecko) Chrome/131.0.0.0 Safari/537.36","WebKit","Chrome","131.0.0.0","Windows","10.0","https://app.prolific.com/","en-GB,en;q=0.9","677fb45dee7e90f416b55aea","686e379bc37a29ffa5cdc956","6877ccb1553ba6ee5cf3e226","1","1","677fb45dee7e90f416b55aea","1","1","2025-07-16T16:08:13.193Z","","","","","","","","","","","AttribQ","","50","","","","","","","","","","","","","","","","","","","","","","","","","","","","",""
"5777","","<div style=""width:500px;"">
  <p>How much control did you have over the ball?</p>
  </div>","65","html-slider-response","16","402947","0.0-5.0-2.1","118","1","2025-07-16 16:01:21","1f75c3e559b7213887762d5229550c2b","194.152.129.18","Mozilla/5.0 (Windows NT 10.0; Win64; x64) AppleWebKit/537.36 (KHTML, like Gecko) Chrome/131.0.0.0 Safari/537.36","WebKit","Chrome","131.0.0.0","Windows","10.0","https://app.prolific.com/","en-GB,en;q=0.9","677fb45dee7e90f416b55aea","686e379bc37a29ffa5cdc956","6877ccb1553ba6ee5cf3e226","1","1","677fb45dee7e90f416b55aea","1","1","2025-07-16T16:08:18.976Z","","","","","","","","","","","ControlQ","","50","","","","","","","","","","","","","","","","","","","","","","","","","","","","",""
"3159","","<div style=""width:500px;"">
  <p>How would you describe your current emotional state?</p>
  </div>","67","html-slider-response","17","406112","0.0-5.0-3.1","118","1","2025-07-16 16:01:21","1f75c3e559b7213887762d5229550c2b","194.152.129.18","Mozilla/5.0 (Windows NT 10.0; Win64; x64) AppleWebKit/537.36 (KHTML, like Gecko) Chrome/131.0.0.0 Safari/537.36","WebKit","Chrome","131.0.0.0","Windows","10.0","https://app.prolific.com/","en-GB,en;q=0.9","677fb45dee7e90f416b55aea","686e379bc37a29ffa5cdc956","6877ccb1553ba6ee5cf3e226","1","1","677fb45dee7e90f416b55aea","1","1","2025-07-16T16:08:22.140Z","","","","","","","","","","","StressQ","","50","","","","","","","","","","","","","","","","","","","","","","","","","","","","",""
"2885","","<div style=""width:500px;"">
  <p>What best describes how you currently feel?</p>
  </div>","59","html-slider-response","18","409000","0.0-5.0-4.1","118","1","2025-07-16 16:01:21","1f75c3e559b7213887762d5229550c2b","194.152.129.18","Mozilla/5.0 (Windows NT 10.0; Win64; x64) AppleWebKit/537.36 (KHTML, like Gecko) Chrome/131.0.0.0 Safari/537.36","WebKit","Chrome","131.0.0.0","Windows","10.0","https://app.prolific.com/","en-GB,en;q=0.9","677fb45dee7e90f416b55aea","686e379bc37a29ffa5cdc956","6877ccb1553ba6ee5cf3e226","1","1","677fb45dee7e90f416b55aea","1","1","2025-07-16T16:08:25.028Z","","","","","","","","","","","MotivationQ","","50","","","","","","","","","","","","","","","","","","","","","","","","","","","","",""
"","","","","ctl-task-cpt","19","436153","0.0-5.0-0.2","118","1","2025-07-16 16:01:21","1f75c3e559b7213887762d5229550c2b","194.152.129.18","Mozilla/5.0 (Windows NT 10.0; Win64; x64) AppleWebKit/537.36 (KHTML, like Gecko) Chrome/131.0.0.0 Safari/537.36","WebKit","Chrome","131.0.0.0","Windows","10.0","https://app.prolific.com/","en-GB,en;q=0.9","677fb45dee7e90f416b55aea","686e379bc37a29ffa5cdc956","6877ccb1553ba6ee5cf3e226","1","1","677fb45dee7e90f416b55aea","1","1","2025-07-16T16:08:52.181Z","","","","","","","","","","","","","","win-only","1","g1:NE,g2:SW","0.8","3","0","426150.5","2864.2","7867.2","24142.6","1","4","4","6","1","-1","-1","0","0","0","5003","3000","-2175","[""up"",""right""]","{""num_key_presses"":2,""num_perfect"":1,""num_errors"":0,""num_randdir"":1,""num_randdir_good_moves"":1,""num_whilered"":0,""num_whileblue"":0,""num_blue"":2,""num_good_moves"":2}","[417.57142857142856,417.47767857142856,3.7,417.57142857142856,417.47767857142856,107.2,417.57142857142856,417.47767857142856,207.3,417.57142857142856,417.47767857142856,313.8,417.57142857142856,417.47767857142856,419.9,417.57142857142856,417.47767857142856,522.5,417.57142857142856,417.47767857142856,634.9,417.57142857142856,417.47767857142856,738.2,417.57142857142856,417.47767857142856,849.7,417.57142857142856,417.47767857142856,954.8,417.57142857142856,417.47767857142856,1059.4,417.57142857142856,417.47767857142856,1163.6,435.57142857142856,395.47767857142856,1264.8,470.57142857142856,360.47767857142856,1368.1,503.57142857142856,338.47767857142856,1489.5,512.5714285714286,334.47767857142856,1593.6,484.57142857142856,351.47767857142856,1694,478.57142857142856,354.47767857142856,1797.9,477.57142857142856,354.47767857142856,1903,477.57142857142856,354.47767857142856,2007.7,477.57142857142856,354.47767857142856,2111.8,477.57142857142856,354.47767857142856,2218.3,477.57142857142856,354.47767857142856,2321.7,477.57142857142856,354.47767857142856,2422.7,477.57142857142856,354.47767857142856,2526.4,477.57142857142856,354.47767857142856,2627.8,477.57142857142856,354.47767857142856,2731.9,477.57142857142856,354.47767857142856,2835.3,477.57142857142856,354.47767857142856,2936.5,477.57142857142856,354.47767857142856,3045,477.57142857142856,354.47767857142856,3153.6,477.57142857142856,354.47767857142856,3265.9,477.57142857142856,354.47767857142856,3367.2,477.57142857142856,354.47767857142856,3469.2,477.57142857142856,354.47767857142856,3569.4,477.57142857142856,354.47767857142856,3670.2,477.57142857142856,354.47767857142856,3771.7,477.57142857142856,354.47767857142856,3872.2,477.57142857142856,354.47767857142856,3980.2,477.57142857142856,354.47767857142856,4081.1,477.57142857142856,354.47767857142856,4183.4,477.57142857142856,354.47767857142856,4293.3,477.57142857142856,354.47767857142856,4398.3,477.57142857142856,354.47767857142856,4501.3,477.57142857142856,354.47767857142856,4604.4,477.57142857142856,354.47767857142856,4707,477.57142857142856,354.47767857142856,4811.9,477.57142857142856,354.47767857142856,4913.4]","[4021.7,4021.7,1000,0,3021.7,""oops"",""up"",""up"",""good_move"",7199,3176.2,2474.8,4022.8,701.4,""smooth"",""up"",""up"",""good_move""]","",""
"6301","","<div style=""width:500px;"">
  <p>What determined the result of this run?</p>
  </div>","34","html-slider-response","20","442458","0.0-5.0-1.2","118","1","2025-07-16 16:01:21","1f75c3e559b7213887762d5229550c2b","194.152.129.18","Mozilla/5.0 (Windows NT 10.0; Win64; x64) AppleWebKit/537.36 (KHTML, like Gecko) Chrome/131.0.0.0 Safari/537.36","WebKit","Chrome","131.0.0.0","Windows","10.0","https://app.prolific.com/","en-GB,en;q=0.9","677fb45dee7e90f416b55aea","686e379bc37a29ffa5cdc956","6877ccb1553ba6ee5cf3e226","1","1","677fb45dee7e90f416b55aea","1","1","2025-07-16T16:08:58.486Z","","","","","","","","","","","AttribQ","","50","","","","","","","","","","","","","","","","","","","","","","","","","","","","",""
"8952","","<div style=""width:500px;"">
  <p>How much control did you have over the ball?</p>
  </div>","64","html-slider-response","21","451415","0.0-5.0-2.2","118","1","2025-07-16 16:01:21","1f75c3e559b7213887762d5229550c2b","194.152.129.18","Mozilla/5.0 (Windows NT 10.0; Win64; x64) AppleWebKit/537.36 (KHTML, like Gecko) Chrome/131.0.0.0 Safari/537.36","WebKit","Chrome","131.0.0.0","Windows","10.0","https://app.prolific.com/","en-GB,en;q=0.9","677fb45dee7e90f416b55aea","686e379bc37a29ffa5cdc956","6877ccb1553ba6ee5cf3e226","1","1","677fb45dee7e90f416b55aea","1","1","2025-07-16T16:09:07.444Z","","","","","","","","","","","ControlQ","","50","","","","","","","","","","","","","","","","","","","","","","","","","","","","",""
"3432","","<div style=""width:500px;"">
  <p>How would you describe your current emotional state?</p>
  </div>","66","html-slider-response","22","454855","0.0-5.0-3.2","118","1","2025-07-16 16:01:21","1f75c3e559b7213887762d5229550c2b","194.152.129.18","Mozilla/5.0 (Windows NT 10.0; Win64; x64) AppleWebKit/537.36 (KHTML, like Gecko) Chrome/131.0.0.0 Safari/537.36","WebKit","Chrome","131.0.0.0","Windows","10.0","https://app.prolific.com/","en-GB,en;q=0.9","677fb45dee7e90f416b55aea","686e379bc37a29ffa5cdc956","6877ccb1553ba6ee5cf3e226","1","1","677fb45dee7e90f416b55aea","1","1","2025-07-16T16:09:10.884Z","","","","","","","","","","","StressQ","","50","","","","","","","","","","","","","","","","","","","","","","","","","","","","",""
"3325","","<div style=""width:500px;"">
  <p>What best describes how you currently feel?</p>
  </div>","58","html-slider-response","23","458184","0.0-5.0-4.2","118","1","2025-07-16 16:01:21","1f75c3e559b7213887762d5229550c2b","194.152.129.18","Mozilla/5.0 (Windows NT 10.0; Win64; x64) AppleWebKit/537.36 (KHTML, like Gecko) Chrome/131.0.0.0 Safari/537.36","WebKit","Chrome","131.0.0.0","Windows","10.0","https://app.prolific.com/","en-GB,en;q=0.9","677fb45dee7e90f416b55aea","686e379bc37a29ffa5cdc956","6877ccb1553ba6ee5cf3e226","1","1","677fb45dee7e90f416b55aea","1","1","2025-07-16T16:09:14.213Z","","","","","","","","","","","MotivationQ","","50","","","","","","","","","","","","","","","","","","","","","","","","","","","","",""
"","","","","ctl-task-cpt","24","473741","0.0-5.0-0.3","118","1","2025-07-16 16:01:21","1f75c3e559b7213887762d5229550c2b","194.152.129.18","Mozilla/5.0 (Windows NT 10.0; Win64; x64) AppleWebKit/537.36 (KHTML, like Gecko) Chrome/131.0.0.0 Safari/537.36","WebKit","Chrome","131.0.0.0","Windows","10.0","https://app.prolific.com/","en-GB,en;q=0.9","677fb45dee7e90f416b55aea","686e379bc37a29ffa5cdc956","6877ccb1553ba6ee5cf3e226","1","1","677fb45dee7e90f416b55aea","1","1","2025-07-16T16:09:29.769Z","","","","","","","","","","","","","","win-only","2","g1:SE,g2:NW","0.7","4","0","475339","1808.1","6814.2","12525.4","1","4","8","6","2","-8","-8","0","0","0","5006","3000","-1975","[""left"",""up""]","{""num_key_presses"":0,""num_perfect"":0,""num_errors"":0,""num_randdir"":0,""num_randdir_good_moves"":0,""num_whilered"":0,""num_whileblue"":0,""num_blue"":0,""num_good_moves"":0}","[413.57142857142856,412.47767857142856,1.1,413.57142857142856,412.47767857142856,101.8,413.57142857142856,412.47767857142856,205.2,413.57142857142856,412.47767857142856,306.6,413.57142857142856,412.47767857142856,411.5,413.57142857142856,412.47767857142856,515.7,413.57142857142856,412.47767857142856,632.3,413.57142857142856,412.47767857142856,737.9,413.57142857142856,412.47767857142856,856.8,413.57142857142856,412.47767857142856,957.8,413.57142857142856,412.47767857142856,1060.1,413.57142857142856,412.47767857142856,1161,450.57142857142856,405.47767857142856,1271.4,488.57142857142856,401.47767857142856,1372.2,492.57142857142856,405.47767857142856,1474,492.57142857142856,405.47767857142856,1583.5,492.57142857142856,405.47767857142856,1691.2,492.57142857142856,405.47767857142856,1796.6,492.57142857142856,405.47767857142856,1899.3,492.57142857142856,405.47767857142856,2004,492.57142857142856,405.47767857142856,2110.8,492.57142857142856,405.47767857142856,2213.1,492.57142857142856,405.47767857142856,2328.1,492.57142857142856,405.47767857142856,2434.4,492.57142857142856,405.47767857142856,2536.4,492.57142857142856,405.47767857142856,2637.7,492.57142857142856,405.47767857142856,2738.3,492.57142857142856,405.47767857142856,2838.5,492.57142857142856,405.47767857142856,2953.3,492.57142857142856,405.47767857142856,3058.2,492.57142857142856,405.47767857142856,3171.5,492.57142857142856,405.47767857142856,3275.6,492.57142857142856,405.47767857142856,3378.2,492.57142857142856,405.47767857142856,3483.8,492.57142857142856,405.47767857142856,3587.8,492.57142857142856,405.47767857142856,3701.4,492.57142857142856,405.47767857142856,3804.1,492.57142857142856,405.47767857142856,3906.2,492.57142857142856,405.47767857142856,4009.2,492.57142857142856,405.47767857142856,4113.6,492.57142857142856,405.47767857142856,4214.9,492.57142857142856,405.47767857142856,4320.5,492.57142857142856,405.47767857142856,4420.5,492.57142857142856,405.47767857142856,4534.7,492.57142857142856,405.47767857142856,4649.5,492.57142857142856,405.47767857142856,4755.3,492.57142857142856,405.47767857142856,4860.1,492.57142857142856,405.47767857142856,4962.2]","[]","",""
"4119","","<div style=""width:500px;"">
  <p>What determined the result of this run?</p>
  </div>","50","html-slider-response","25","477864","0.0-5.0-1.3","118","1","2025-07-16 16:01:21","1f75c3e559b7213887762d5229550c2b","194.152.129.18","Mozilla/5.0 (Windows NT 10.0; Win64; x64) AppleWebKit/537.36 (KHTML, like Gecko) Chrome/131.0.0.0 Safari/537.36","WebKit","Chrome","131.0.0.0","Windows","10.0","https://app.prolific.com/","en-GB,en;q=0.9","677fb45dee7e90f416b55aea","686e379bc37a29ffa5cdc956","6877ccb1553ba6ee5cf3e226","1","1","677fb45dee7e90f416b55aea","1","1","2025-07-16T16:09:33.892Z","","","","","","","","","","","AttribQ","","50","","","","","","","","","","","","","","","","","","","","","","","","","","","","",""
"3008","","<div style=""width:500px;"">
  <p>How much control did you have over the ball?</p>
  </div>","61","html-slider-response","26","480878","0.0-5.0-2.3","118","1","2025-07-16 16:01:21","1f75c3e559b7213887762d5229550c2b","194.152.129.18","Mozilla/5.0 (Windows NT 10.0; Win64; x64) AppleWebKit/537.36 (KHTML, like Gecko) Chrome/131.0.0.0 Safari/537.36","WebKit","Chrome","131.0.0.0","Windows","10.0","https://app.prolific.com/","en-GB,en;q=0.9","677fb45dee7e90f416b55aea","686e379bc37a29ffa5cdc956","6877ccb1553ba6ee5cf3e226","1","1","677fb45dee7e90f416b55aea","1","1","2025-07-16T16:09:36.906Z","","","","","","","","","","","ControlQ","","50","","","","","","","","","","","","","","","","","","","","","","","","","","","","",""
"2902","","<div style=""width:500px;"">
  <p>How would you describe your current emotional state?</p>
  </div>","63","html-slider-response","27","483783","0.0-5.0-3.3","118","1","2025-07-16 16:01:21","1f75c3e559b7213887762d5229550c2b","194.152.129.18","Mozilla/5.0 (Windows NT 10.0; Win64; x64) AppleWebKit/537.36 (KHTML, like Gecko) Chrome/131.0.0.0 Safari/537.36","WebKit","Chrome","131.0.0.0","Windows","10.0","https://app.prolific.com/","en-GB,en;q=0.9","677fb45dee7e90f416b55aea","686e379bc37a29ffa5cdc956","6877ccb1553ba6ee5cf3e226","1","1","677fb45dee7e90f416b55aea","1","1","2025-07-16T16:09:39.811Z","","","","","","","","","","","StressQ","","50","","","","","","","","","","","","","","","","","","","","","","","","","","","","",""
"2816","","<div style=""width:500px;"">
  <p>What best describes how you currently feel?</p>
  </div>","60","html-slider-response","28","486603","0.0-5.0-4.3","118","1","2025-07-16 16:01:21","1f75c3e559b7213887762d5229550c2b","194.152.129.18","Mozilla/5.0 (Windows NT 10.0; Win64; x64) AppleWebKit/537.36 (KHTML, like Gecko) Chrome/131.0.0.0 Safari/537.36","WebKit","Chrome","131.0.0.0","Windows","10.0","https://app.prolific.com/","en-GB,en;q=0.9","677fb45dee7e90f416b55aea","686e379bc37a29ffa5cdc956","6877ccb1553ba6ee5cf3e226","1","1","677fb45dee7e90f416b55aea","1","1","2025-07-16T16:09:42.632Z","","","","","","","","","","","MotivationQ","","50","","","","","","","","","","","","","","","","","","","","","","","","","","","","",""
"","","","","ctl-task-cpt","29","522070","0.0-5.0-0.4","118","1","2025-07-16 16:01:21","1f75c3e559b7213887762d5229550c2b","194.152.129.18","Mozilla/5.0 (Windows NT 10.0; Win64; x64) AppleWebKit/537.36 (KHTML, like Gecko) Chrome/131.0.0.0 Safari/537.36","WebKit","Chrome","131.0.0.0","Windows","10.0","https://app.prolific.com/","en-GB,en;q=0.9","677fb45dee7e90f416b55aea","686e379bc37a29ffa5cdc956","6877ccb1553ba6ee5cf3e226","1","1","677fb45dee7e90f416b55aea","1","1","2025-07-16T16:10:18.099Z","","","","","","","","","","","","","","win-only","1","g1:NE,g2:SW","0.6","5","0","503754.6","1612.8","6616.3","32453.4","1","4","4","6","1","-1","-1","0","0","0","5003.5","3000","-1860","[""up"",""right""]","{""num_key_presses"":5,""num_perfect"":3,""num_errors"":0,""num_randdir"":2,""num_randdir_good_moves"":0,""num_whilered"":0,""num_whileblue"":0,""num_blue"":2,""num_good_moves"":3}","[413.57142857142856,423.47767857142856,2.8,413.57142857142856,423.47767857142856,109.9,413.57142857142856,423.47767857142856,213.1,413.57142857142856,423.47767857142856,316.4,413.57142857142856,423.47767857142856,423.8,413.57142857142856,423.47767857142856,529.3,413.57142857142856,423.47767857142856,632.8,413.57142857142856,423.47767857142856,736.5,413.57142857142856,423.47767857142856,841.4,413.57142857142856,423.47767857142856,944.6,413.57142857142856,423.47767857142856,1046.4,413.57142857142856,423.47767857142856,1149.4,413.57142857142856,423.47767857142856,1252,413.57142857142856,423.47767857142856,1360.1,413.57142857142856,423.47767857142856,1462.3,413.57142857142856,423.47767857142856,1564,413.57142857142856,423.47767857142856,1675.4,413.57142857142856,423.47767857142856,1779.7,413.57142857142856,423.47767857142856,1882,413.57142857142856,423.47767857142856,1987.6,413.57142857142856,423.47767857142856,2108.5,413.57142857142856,423.47767857142856,2227,413.57142857142856,423.47767857142856,2328.1,413.57142857142856,423.47767857142856,2431.8,413.57142857142856,423.47767857142856,2536.6,413.57142857142856,423.47767857142856,2639.9,413.57142857142856,423.47767857142856,2748.4,413.57142857142856,423.47767857142856,2853.8,413.57142857142856,423.47767857142856,2967.8,413.57142857142856,423.47767857142856,3071.9,413.57142857142856,423.47767857142856,3177.1,413.57142857142856,423.47767857142856,3286.9,413.57142857142856,423.47767857142856,3392.6,413.57142857142856,423.47767857142856,3500.4,413.57142857142856,423.47767857142856,3613.3,413.57142857142856,423.47767857142856,3722.1,413.57142857142856,423.47767857142856,3826.6,413.57142857142856,423.47767857142856,3937.9,413.57142857142856,423.47767857142856,4046.9,413.57142857142856,423.47767857142856,4151.5,413.57142857142856,423.47767857142856,4252.5,413.57142857142856,423.47767857142856,4360.2,413.57142857142856,423.47767857142856,4464.5,413.57142857142856,423.47767857142856,4577.6,413.57142857142856,423.47767857142856,4689.1,413.57142857142856,423.47767857142856,4789.8,413.57142857142856,423.47767857142856,4895.3,413.57142857142856,423.47767857142856,4997.1]","[1756,1756,1000,0,756,""smooth"",""right"",""right"",""good_move"",6840.1,5082,3285.6,1758.3,1796.3,""oops"",""right"",""left"",""bad_move"",13150.4,6308.4,2303.9,10247,599.5,""oops"",""up"",""down"",""bad_move"",17126.3,3974.8,3334.1,13151.5,640.7,""smooth"",""right"",""right"",""good_move"",23401.2,6274.4,2416,20403.5,581.7,""smooth"",""right"",""right"",""good_move""]","",""
"5102","","<div style=""width:500px;"">
  <p>What determined the result of this run?</p>
  </div>","50","html-slider-response","30","527174","0.0-5.0-1.4","118","1","2025-07-16 16:01:21","1f75c3e559b7213887762d5229550c2b","194.152.129.18","Mozilla/5.0 (Windows NT 10.0; Win64; x64) AppleWebKit/537.36 (KHTML, like Gecko) Chrome/131.0.0.0 Safari/537.36","WebKit","Chrome","131.0.0.0","Windows","10.0","https://app.prolific.com/","en-GB,en;q=0.9","677fb45dee7e90f416b55aea","686e379bc37a29ffa5cdc956","6877ccb1553ba6ee5cf3e226","1","1","677fb45dee7e90f416b55aea","1","1","2025-07-16T16:10:23.202Z","","","","","","","","","","","AttribQ","","50","","","","","","","","","","","","","","","","","","","","","","","","","","","","",""
"6469","","<div style=""width:500px;"">
  <p>How much control did you have over the ball?</p>
  </div>","65","html-slider-response","31","533645","0.0-5.0-2.4","118","1","2025-07-16 16:01:21","1f75c3e559b7213887762d5229550c2b","194.152.129.18","Mozilla/5.0 (Windows NT 10.0; Win64; x64) AppleWebKit/537.36 (KHTML, like Gecko) Chrome/131.0.0.0 Safari/537.36","WebKit","Chrome","131.0.0.0","Windows","10.0","https://app.prolific.com/","en-GB,en;q=0.9","677fb45dee7e90f416b55aea","686e379bc37a29ffa5cdc956","6877ccb1553ba6ee5cf3e226","1","1","677fb45dee7e90f416b55aea","1","1","2025-07-16T16:10:29.673Z","","","","","","","","","","","ControlQ","","50","","","","","","","","","","","","","","","","","","","","","","","","","","","","",""
"3471","","<div style=""width:500px;"">
  <p>How would you describe your current emotional state?</p>
  </div>","50","html-slider-response","32","537121","0.0-5.0-3.4","118","1","2025-07-16 16:01:21","1f75c3e559b7213887762d5229550c2b","194.152.129.18","Mozilla/5.0 (Windows NT 10.0; Win64; x64) AppleWebKit/537.36 (KHTML, like Gecko) Chrome/131.0.0.0 Safari/537.36","WebKit","Chrome","131.0.0.0","Windows","10.0","https://app.prolific.com/","en-GB,en;q=0.9","677fb45dee7e90f416b55aea","686e379bc37a29ffa5cdc956","6877ccb1553ba6ee5cf3e226","1","1","677fb45dee7e90f416b55aea","1","1","2025-07-16T16:10:33.149Z","","","","","","","","","","","StressQ","","50","","","","","","","","","","","","","","","","","","","","","","","","","","","","",""
"4597","","<div style=""width:500px;"">
  <p>What best describes how you currently feel?</p>
  </div>","65","html-slider-response","33","541720","0.0-5.0-4.4","118","1","2025-07-16 16:01:21","1f75c3e559b7213887762d5229550c2b","194.152.129.18","Mozilla/5.0 (Windows NT 10.0; Win64; x64) AppleWebKit/537.36 (KHTML, like Gecko) Chrome/131.0.0.0 Safari/537.36","WebKit","Chrome","131.0.0.0","Windows","10.0","https://app.prolific.com/","en-GB,en;q=0.9","677fb45dee7e90f416b55aea","686e379bc37a29ffa5cdc956","6877ccb1553ba6ee5cf3e226","1","1","677fb45dee7e90f416b55aea","1","1","2025-07-16T16:10:37.748Z","","","","","","","","","","","MotivationQ","","50","","","","","","","","","","","","","","","","","","","","","","","","","","","","",""
"","","","","ctl-task-cpt","34","579591","0.0-5.0-0.5","118","1","2025-07-16 16:01:21","1f75c3e559b7213887762d5229550c2b","194.152.129.18","Mozilla/5.0 (Windows NT 10.0; Win64; x64) AppleWebKit/537.36 (KHTML, like Gecko) Chrome/131.0.0.0 Safari/537.36","WebKit","Chrome","131.0.0.0","Windows","10.0","https://app.prolific.com/","en-GB,en;q=0.9","677fb45dee7e90f416b55aea","686e379bc37a29ffa5cdc956","6877ccb1553ba6ee5cf3e226","1","1","677fb45dee7e90f416b55aea","1","1","2025-07-16T16:11:15.619Z","","","","","","","","","","","","","","win-only","0","g1:NW,g2:SE","0.5","6","0","558870.4","1653.5","6659.5","34846.5","1","4","8","6","1","-1","-2","0","0","0","5005.9","3000","-2020","[""left"",""up""]","{""num_key_presses"":4,""num_perfect"":1,""num_errors"":1,""num_randdir"":2,""num_randdir_good_moves"":1,""num_whilered"":0,""num_whileblue"":1,""num_blue"":4,""num_good_moves"":3}","[412.57142857142856,419.47767857142856,1.1,412.57142857142856,419.47767857142856,110.6,412.57142857142856,419.47767857142856,215.3,412.57142857142856,419.47767857142856,328.1,412.57142857142856,419.47767857142856,431.8,412.57142857142856,419.47767857142856,534.9,412.57142857142856,419.47767857142856,648.5,412.57142857142856,419.47767857142856,754,412.57142857142856,419.47767857142856,863,412.57142857142856,419.47767857142856,973.5,412.57142857142856,419.47767857142856,1075.7,412.57142857142856,419.47767857142856,1180.8,412.57142857142856,419.47767857142856,1286,412.57142857142856,419.47767857142856,1387.7,412.57142857142856,419.47767857142856,1488.7,412.57142857142856,419.47767857142856,1588.9,412.57142857142856,419.47767857142856,1698.1,412.57142857142856,419.47767857142856,1801.2,412.57142857142856,419.47767857142856,1916.3,412.57142857142856,419.47767857142856,2021.1,412.57142857142856,419.47767857142856,2124.2,412.57142857142856,419.47767857142856,2227,412.57142857142856,419.47767857142856,2329.8,412.57142857142856,419.47767857142856,2436.2,412.57142857142856,419.47767857142856,2547.2,412.57142857142856,419.47767857142856,2651.2,412.57142857142856,419.47767857142856,2752.5,412.57142857142856,419.47767857142856,2857.1,412.57142857142856,419.47767857142856,2957.9,412.57142857142856,419.47767857142856,3062.4,412.57142857142856,419.47767857142856,3164.1,412.57142857142856,419.47767857142856,3268,412.57142857142856,419.47767857142856,3373.9,412.57142857142856,419.47767857142856,3478.7,412.57142857142856,419.47767857142856,3578.8,412.57142857142856,419.47767857142856,3682.5,412.57142857142856,419.47767857142856,3784.5,412.57142857142856,419.47767857142856,3885,412.57142857142856,419.47767857142856,3989.1,412.57142857142856,419.47767857142856,4094.9,412.57142857142856,419.47767857142856,4197.2,412.57142857142856,419.47767857142856,4311.3,412.57142857142856,419.47767857142856,4414,412.57142857142856,419.47767857142856,4516.2,412.57142857142856,419.47767857142856,4617.6,412.57142857142856,419.47767857142856,4722.4,412.57142857142856,419.47767857142856,4825.9,412.57142857142856,419.47767857142856,4929.3]","[4685.8,4685.8,2218.8,2011.3,455.7,""while_blue"",""up"",""left"",""good_move"",12798.5,8111.1,3382.9,8327.4,1088.2,""smooth"",""up"",""up"",""good_move"",15896.8,3096.3,2050.6,12800.5,1045.7,""oops"",""up"",""left"",""good_move"",22781.5,6883.3,2533.5,19689.2,558.8,""oops"",""up"",""down"",""bad_move""]","",""
"37491","","<div style=""width:500px;"">
  <p>What determined the result of this run?</p>
  </div>","63","html-slider-response","35","617084","0.0-5.0-1.5","118","1","2025-07-16 16:01:21","1f75c3e559b7213887762d5229550c2b","194.152.129.18","Mozilla/5.0 (Windows NT 10.0; Win64; x64) AppleWebKit/537.36 (KHTML, like Gecko) Chrome/131.0.0.0 Safari/537.36","WebKit","Chrome","131.0.0.0","Windows","10.0","https://app.prolific.com/","en-GB,en;q=0.9","677fb45dee7e90f416b55aea","686e379bc37a29ffa5cdc956","6877ccb1553ba6ee5cf3e226","1","1","677fb45dee7e90f416b55aea","1","1","2025-07-16T16:11:53.112Z","","","","","","","","","","","AttribQ","","50","","","","","","","","","","","","","","","","","","","","","","","","","","","","",""
"4230","","<div style=""width:500px;"">
  <p>How much control did you have over the ball?</p>
  </div>","50","html-slider-response","36","621316","0.0-5.0-2.5","118","1","2025-07-16 16:01:21","1f75c3e559b7213887762d5229550c2b","194.152.129.18","Mozilla/5.0 (Windows NT 10.0; Win64; x64) AppleWebKit/537.36 (KHTML, like Gecko) Chrome/131.0.0.0 Safari/537.36","WebKit","Chrome","131.0.0.0","Windows","10.0","https://app.prolific.com/","en-GB,en;q=0.9","677fb45dee7e90f416b55aea","686e379bc37a29ffa5cdc956","6877ccb1553ba6ee5cf3e226","1","1","677fb45dee7e90f416b55aea","1","1","2025-07-16T16:11:57.344Z","","","","","","","","","","","ControlQ","","50","","","","","","","","","","","","","","","","","","","","","","","","","","","","",""
"5841","","<div style=""width:500px;"">
  <p>How would you describe your current emotional state?</p>
  </div>","67","html-slider-response","37","627160","0.0-5.0-3.5","118","1","2025-07-16 16:01:21","1f75c3e559b7213887762d5229550c2b","194.152.129.18","Mozilla/5.0 (Windows NT 10.0; Win64; x64) AppleWebKit/537.36 (KHTML, like Gecko) Chrome/131.0.0.0 Safari/537.36","WebKit","Chrome","131.0.0.0","Windows","10.0","https://app.prolific.com/","en-GB,en;q=0.9","677fb45dee7e90f416b55aea","686e379bc37a29ffa5cdc956","6877ccb1553ba6ee5cf3e226","1","1","677fb45dee7e90f416b55aea","1","1","2025-07-16T16:12:03.188Z","","","","","","","","","","","StressQ","","50","","","","","","","","","","","","","","","","","","","","","","","","","","","","",""
"3537","","<div style=""width:500px;"">
  <p>What best describes how you currently feel?</p>
  </div>","60","html-slider-response","38","630699","0.0-5.0-4.5","118","1","2025-07-16 16:01:21","1f75c3e559b7213887762d5229550c2b","194.152.129.18","Mozilla/5.0 (Windows NT 10.0; Win64; x64) AppleWebKit/537.36 (KHTML, like Gecko) Chrome/131.0.0.0 Safari/537.36","WebKit","Chrome","131.0.0.0","Windows","10.0","https://app.prolific.com/","en-GB,en;q=0.9","677fb45dee7e90f416b55aea","686e379bc37a29ffa5cdc956","6877ccb1553ba6ee5cf3e226","1","1","677fb45dee7e90f416b55aea","1","1","2025-07-16T16:12:06.727Z","","","","","","","","","","","MotivationQ","","50","","","","","","","","","","","","","","","","","","","","","","","","","","","","",""
"","","","","ctl-task-cpt","39","658761","0.0-5.0-0.6","118","1","2025-07-16 16:01:21","1f75c3e559b7213887762d5229550c2b","194.152.129.18","Mozilla/5.0 (Windows NT 10.0; Win64; x64) AppleWebKit/537.36 (KHTML, like Gecko) Chrome/131.0.0.0 Safari/537.36","WebKit","Chrome","131.0.0.0","Windows","10.0","https://app.prolific.com/","en-GB,en;q=0.9","677fb45dee7e90f416b55aea","686e379bc37a29ffa5cdc956","6877ccb1553ba6ee5cf3e226","1","1","677fb45dee7e90f416b55aea","1","1","2025-07-16T16:12:34.789Z","","","","","","","","","","","","","","win-only","1","g1:NE,g2:SW","0.4","7","0","647848.2","2146.3","7149","25038","1","4","8","6","2","8","8","8","0","0.06060606060606061","5002.7","3000","1070","[""down"",""left""]","{""num_key_presses"":6,""num_perfect"":2,""num_errors"":0,""num_randdir"":4,""num_randdir_good_moves"":4,""num_whilered"":0,""num_whileblue"":0,""num_blue"":0,""num_good_moves"":6}","[414.57142857142856,406.47767857142856,3,414.57142857142856,406.47767857142856,106.7,414.57142857142856,406.47767857142856,207.4,414.57142857142856,406.47767857142856,315.4,414.57142857142856,406.47767857142856,417.1,414.57142857142856,406.47767857142856,528.8,414.57142857142856,406.47767857142856,630.3,414.57142857142856,406.47767857142856,744.1,414.57142857142856,406.47767857142856,845.3,414.57142857142856,406.47767857142856,945.6,414.57142857142856,406.47767857142856,1052.4,414.57142857142856,406.47767857142856,1157,414.57142857142856,406.47767857142856,1266.3,414.57142857142856,406.47767857142856,1367.3,414.57142857142856,406.47767857142856,1481.6,414.57142857142856,406.47767857142856,1593.4,414.57142857142856,406.47767857142856,1697.1,414.57142857142856,406.47767857142856,1801.3,414.57142857142856,406.47767857142856,1907,414.57142857142856,406.47767857142856,2010.7,414.57142857142856,406.47767857142856,2110.9,414.57142857142856,406.47767857142856,2215.3,414.57142857142856,406.47767857142856,2321.7,414.57142857142856,406.47767857142856,2423.5,414.57142857142856,406.47767857142856,2525.5,414.57142857142856,406.47767857142856,2627.7,414.57142857142856,406.47767857142856,2734.2,414.57142857142856,406.47767857142856,2836.8,414.57142857142856,406.47767857142856,2954,414.57142857142856,406.47767857142856,3058.3,414.57142857142856,406.47767857142856,3161.8,414.57142857142856,406.47767857142856,3262.8,414.57142857142856,406.47767857142856,3372.5,414.57142857142856,406.47767857142856,3489.5,414.57142857142856,406.47767857142856,3593,414.57142857142856,406.47767857142856,3697.6,414.57142857142856,406.47767857142856,3799.3,414.57142857142856,406.47767857142856,3918.5,414.57142857142856,406.47767857142856,4028.4,414.57142857142856,406.47767857142856,4138.3,414.57142857142856,406.47767857142856,4240.9,414.57142857142856,406.47767857142856,4350,414.57142857142856,406.47767857142856,4471.9,414.57142857142856,406.47767857142856,4574.5,414.57142857142856,406.47767857142856,4679.1,414.57142857142856,406.47767857142856,4786.4,414.57142857142856,406.47767857142856,4890.5]","[1846.5,1846.6,1000,0,846.6,""oops"",""right"",""down"",""good_move"",5114.5,3267.2,2670.2,1847.6,596.8,""oops"",""down"",""left"",""good_move"",7993.1,2877.6,2384,5115.5,493.6,""smooth"",""down"",""down"",""good_move"",10924.9,2930.5,2439.1,7994.4,491.4,""oops"",""down"",""left"",""good_move"",13896.6,2970.1,2494,10926.5,476.1,""oops"",""left"",""left"",""good_move"",17760.8,3863.5,3519.7,13897.3,343.9,""smooth"",""down"",""down"",""good_move""]","",""
"10764","","<div style=""width:500px;"">
  <p>What determined the result of this run?</p>
  </div>","76","html-slider-response","40","669527","0.0-5.0-1.6","118","1","2025-07-16 16:01:21","1f75c3e559b7213887762d5229550c2b","194.152.129.18","Mozilla/5.0 (Windows NT 10.0; Win64; x64) AppleWebKit/537.36 (KHTML, like Gecko) Chrome/131.0.0.0 Safari/537.36","WebKit","Chrome","131.0.0.0","Windows","10.0","https://app.prolific.com/","en-GB,en;q=0.9","677fb45dee7e90f416b55aea","686e379bc37a29ffa5cdc956","6877ccb1553ba6ee5cf3e226","1","1","677fb45dee7e90f416b55aea","1","1","2025-07-16T16:12:45.555Z","","","","","","","","","","","AttribQ","","50","","","","","","","","","","","","","","","","","","","","","","","","","","","","",""
"8967","","<div style=""width:500px;"">
  <p>How much control did you have over the ball?</p>
  </div>","67","html-slider-response","41","678498","0.0-5.0-2.6","118","1","2025-07-16 16:01:21","1f75c3e559b7213887762d5229550c2b","194.152.129.18","Mozilla/5.0 (Windows NT 10.0; Win64; x64) AppleWebKit/537.36 (KHTML, like Gecko) Chrome/131.0.0.0 Safari/537.36","WebKit","Chrome","131.0.0.0","Windows","10.0","https://app.prolific.com/","en-GB,en;q=0.9","677fb45dee7e90f416b55aea","686e379bc37a29ffa5cdc956","6877ccb1553ba6ee5cf3e226","1","1","677fb45dee7e90f416b55aea","1","1","2025-07-16T16:12:54.526Z","","","","","","","","","","","ControlQ","","50","","","","","","","","","","","","","","","","","","","","","","","","","","","","",""
"3497","","<div style=""width:500px;"">
  <p>How would you describe your current emotional state?</p>
  </div>","67","html-slider-response","42","681997","0.0-5.0-3.6","118","1","2025-07-16 16:01:21","1f75c3e559b7213887762d5229550c2b","194.152.129.18","Mozilla/5.0 (Windows NT 10.0; Win64; x64) AppleWebKit/537.36 (KHTML, like Gecko) Chrome/131.0.0.0 Safari/537.36","WebKit","Chrome","131.0.0.0","Windows","10.0","https://app.prolific.com/","en-GB,en;q=0.9","677fb45dee7e90f416b55aea","686e379bc37a29ffa5cdc956","6877ccb1553ba6ee5cf3e226","1","1","677fb45dee7e90f416b55aea","1","1","2025-07-16T16:12:58.026Z","","","","","","","","","","","StressQ","","50","","","","","","","","","","","","","","","","","","","","","","","","","","","","",""
"7057","","<div style=""width:500px;"">
  <p>What best describes how you currently feel?</p>
  </div>","63","html-slider-response","43","689057","0.0-5.0-4.6","118","1","2025-07-16 16:01:21","1f75c3e559b7213887762d5229550c2b","194.152.129.18","Mozilla/5.0 (Windows NT 10.0; Win64; x64) AppleWebKit/537.36 (KHTML, like Gecko) Chrome/131.0.0.0 Safari/537.36","WebKit","Chrome","131.0.0.0","Windows","10.0","https://app.prolific.com/","en-GB,en;q=0.9","677fb45dee7e90f416b55aea","686e379bc37a29ffa5cdc956","6877ccb1553ba6ee5cf3e226","1","1","677fb45dee7e90f416b55aea","1","1","2025-07-16T16:13:05.085Z","","","","","","","","","","","MotivationQ","","50","","","","","","","","","","","","","","","","","","","","","","","","","","","","",""
"","","","","ctl-task-cpt","44","735265","0.0-5.0-0.7","118","1","2025-07-16 16:01:21","1f75c3e559b7213887762d5229550c2b","194.152.129.18","Mozilla/5.0 (Windows NT 10.0; Win64; x64) AppleWebKit/537.36 (KHTML, like Gecko) Chrome/131.0.0.0 Safari/537.36","WebKit","Chrome","131.0.0.0","Windows","10.0","https://app.prolific.com/","en-GB,en;q=0.9","677fb45dee7e90f416b55aea","686e379bc37a29ffa5cdc956","6877ccb1553ba6ee5cf3e226","1","1","677fb45dee7e90f416b55aea","1","1","2025-07-16T16:13:51.293Z","","","","","","","","","","","","","","win-only","3","g1:SW,g2:NE","0.3","8","0","706209.3","6384.3","11387.2","43187.4","1","4","4","6","1","-1","-2","6","8","0.045454545454545456","5002.9","3000","-1275","[""down"",""left""]","{""num_key_presses"":9,""num_perfect"":3,""num_errors"":1,""num_randdir"":5,""num_randdir_good_moves"":3,""num_whilered"":0,""num_whileblue"":1,""num_blue"":2,""num_good_moves"":6}","[419.57142857142856,417.47767857142856,0.8,419.57142857142856,417.47767857142856,106.3,419.57142857142856,417.47767857142856,225.3,419.57142857142856,417.47767857142856,334.3,419.57142857142856,417.47767857142856,440.4,419.57142857142856,417.47767857142856,543.7,419.57142857142856,417.47767857142856,648.6,419.57142857142856,417.47767857142856,757.5,419.57142857142856,417.47767857142856,863.3,419.57142857142856,417.47767857142856,969.8,419.57142857142856,417.47767857142856,1070.1,419.57142857142856,417.47767857142856,1172.6,419.57142857142856,417.47767857142856,1277.3,419.57142857142856,417.47767857142856,1381.7,419.57142857142856,417.47767857142856,1486.5,419.57142857142856,417.47767857142856,1588.9,419.57142857142856,417.47767857142856,1692,419.57142857142856,417.47767857142856,1808.1,419.57142857142856,417.47767857142856,1917.2,419.57142857142856,417.47767857142856,2034.1,419.57142857142856,417.47767857142856,2135,419.57142857142856,417.47767857142856,2237.8,419.57142857142856,417.47767857142856,2347.4,419.57142857142856,417.47767857142856,2449.6,419.57142857142856,417.47767857142856,2551.1,419.57142857142856,417.47767857142856,2654.1,419.57142857142856,417.47767857142856,2756.5,419.57142857142856,417.47767857142856,2875.3,419.57142857142856,417.47767857142856,2978.3,419.57142857142856,417.47767857142856,3080.7,419.57142857142856,417.47767857142856,3183,419.57142857142856,417.47767857142856,3282.9,419.57142857142856,417.47767857142856,3387.9,419.57142857142856,417.47767857142856,3487.9,419.57142857142856,417.47767857142856,3592.7,419.57142857142856,417.47767857142856,3696.9,419.57142857142856,417.47767857142856,3804.8,419.57142857142856,417.47767857142856,3904.8,419.57142857142856,417.47767857142856,4005.1,419.57142857142856,417.47767857142856,4108.7,419.57142857142856,417.47767857142856,4211.3,419.57142857142856,417.47767857142856,4312.4,419.57142857142856,417.47767857142856,4415.8,419.57142857142856,417.47767857142856,4519.3,419.57142857142856,417.47767857142856,4624.5,419.57142857142856,417.47767857142856,4724.9,419.57142857142856,417.47767857142856,4827.8,419.57142857142856,417.47767857142856,4928.7]","[1685,1685,1000,0,685,""smooth"",""down"",""down"",""good_move"",4517.9,2830.7,2152,1687.5,678.4,""oops"",""left"",""up"",""bad_move"",7177.7,2658.5,2100,4519.2,558.5,""oops"",""down"",""down"",""good_move"",9578.7,2400.3,1746.9,7178.4,653.4,""while_blue"",""down"",""right"",""bad_move"",13991,4410.1,2453.7,9580.9,1956.4,""oops"",""left"",""right"",""bad_move"",17148.4,3156.4,2699.3,13992,457.1,""oops"",""down"",""left"",""good_move"",23968.7,6819.5,2702,20812.2,454.5,""oops"",""left"",""left"",""good_move"",27352.9,3383.4,2909.8,23969.5,473.7,""smooth"",""left"",""left"",""good_move"",29569.3,2214.5,1663.7,27354.8,550.8,""smooth"",""left"",""left"",""good_move""]","",""
"6194","","<div style=""width:500px;"">
  <p>What determined the result of this run?</p>
  </div>","61","html-slider-response","45","741462","0.0-5.0-1.7","118","1","2025-07-16 16:01:21","1f75c3e559b7213887762d5229550c2b","194.152.129.18","Mozilla/5.0 (Windows NT 10.0; Win64; x64) AppleWebKit/537.36 (KHTML, like Gecko) Chrome/131.0.0.0 Safari/537.36","WebKit","Chrome","131.0.0.0","Windows","10.0","https://app.prolific.com/","en-GB,en;q=0.9","677fb45dee7e90f416b55aea","686e379bc37a29ffa5cdc956","6877ccb1553ba6ee5cf3e226","1","1","677fb45dee7e90f416b55aea","1","1","2025-07-16T16:13:57.490Z","","","","","","","","","","","AttribQ","","50","","","","","","","","","","","","","","","","","","","","","","","","","","","","",""
"3915","","<div style=""width:500px;"">
  <p>How much control did you have over the ball?</p>
  </div>","67","html-slider-response","46","745379","0.0-5.0-2.7","118","1","2025-07-16 16:01:21","1f75c3e559b7213887762d5229550c2b","194.152.129.18","Mozilla/5.0 (Windows NT 10.0; Win64; x64) AppleWebKit/537.36 (KHTML, like Gecko) Chrome/131.0.0.0 Safari/537.36","WebKit","Chrome","131.0.0.0","Windows","10.0","https://app.prolific.com/","en-GB,en;q=0.9","677fb45dee7e90f416b55aea","686e379bc37a29ffa5cdc956","6877ccb1553ba6ee5cf3e226","1","1","677fb45dee7e90f416b55aea","1","1","2025-07-16T16:14:01.407Z","","","","","","","","","","","ControlQ","","50","","","","","","","","","","","","","","","","","","","","","","","","","","","","",""
"3104","","<div style=""width:500px;"">
  <p>How would you describe your current emotional state?</p>
  </div>","64","html-slider-response","47","748485","0.0-5.0-3.7","118","1","2025-07-16 16:01:21","1f75c3e559b7213887762d5229550c2b","194.152.129.18","Mozilla/5.0 (Windows NT 10.0; Win64; x64) AppleWebKit/537.36 (KHTML, like Gecko) Chrome/131.0.0.0 Safari/537.36","WebKit","Chrome","131.0.0.0","Windows","10.0","https://app.prolific.com/","en-GB,en;q=0.9","677fb45dee7e90f416b55aea","686e379bc37a29ffa5cdc956","6877ccb1553ba6ee5cf3e226","1","1","677fb45dee7e90f416b55aea","1","1","2025-07-16T16:14:04.514Z","","","","","","","","","","","StressQ","","50","","","","","","","","","","","","","","","","","","","","","","","","","","","","",""
"3092","","<div style=""width:500px;"">
  <p>What best describes how you currently feel?</p>
  </div>","69","html-slider-response","48","751581","0.0-5.0-4.7","118","1","2025-07-16 16:01:21","1f75c3e559b7213887762d5229550c2b","194.152.129.18","Mozilla/5.0 (Windows NT 10.0; Win64; x64) AppleWebKit/537.36 (KHTML, like Gecko) Chrome/131.0.0.0 Safari/537.36","WebKit","Chrome","131.0.0.0","Windows","10.0","https://app.prolific.com/","en-GB,en;q=0.9","677fb45dee7e90f416b55aea","686e379bc37a29ffa5cdc956","6877ccb1553ba6ee5cf3e226","1","1","677fb45dee7e90f416b55aea","1","1","2025-07-16T16:14:07.609Z","","","","","","","","","","","MotivationQ","","50","","","","","","","","","","","","","","","","","","","","","","","","","","","","",""
"","","","","ctl-task-cpt","49","791816","0.0-5.0-0.8","118","1","2025-07-16 16:01:21","1f75c3e559b7213887762d5229550c2b","194.152.129.18","Mozilla/5.0 (Windows NT 10.0; Win64; x64) AppleWebKit/537.36 (KHTML, like Gecko) Chrome/131.0.0.0 Safari/537.36","WebKit","Chrome","131.0.0.0","Windows","10.0","https://app.prolific.com/","en-GB,en;q=0.9","677fb45dee7e90f416b55aea","686e379bc37a29ffa5cdc956","6877ccb1553ba6ee5cf3e226","1","1","677fb45dee7e90f416b55aea","1","1","2025-07-16T16:14:47.845Z","","","","","","","","","","","","","","win-only","3","g1:SW,g2:NE","0.2","9","0","768733.2","2606.3","7612.9","37207.4","1","4","4","6","1","-1","-1","5","6","0.03787878787878788","5006.6","3000","-1625","[""down"",""left""]","{""num_key_presses"":7,""num_perfect"":1,""num_errors"":0,""num_randdir"":6,""num_randdir_good_moves"":4,""num_whilered"":0,""num_whileblue"":0,""num_blue"":1,""num_good_moves"":5}","[410.57142857142856,412.47767857142856,1.1,410.57142857142856,412.47767857142856,106.4,410.57142857142856,412.47767857142856,213.6,410.57142857142856,412.47767857142856,320.6,410.57142857142856,412.47767857142856,431.1,410.57142857142856,412.47767857142856,539.5,410.57142857142856,412.47767857142856,641.4,410.57142857142856,412.47767857142856,742.7,410.57142857142856,412.47767857142856,845.4,410.57142857142856,412.47767857142856,949,410.57142857142856,412.47767857142856,1052.6,410.57142857142856,412.47767857142856,1160.3,410.57142857142856,412.47767857142856,1264.1,410.57142857142856,412.47767857142856,1368,410.57142857142856,412.47767857142856,1474.6,410.57142857142856,412.47767857142856,1581.1,410.57142857142856,412.47767857142856,1683.6,410.57142857142856,412.47767857142856,1788,410.57142857142856,412.47767857142856,1891.5,410.57142857142856,412.47767857142856,1993.2,410.57142857142856,412.47767857142856,2095.7,410.57142857142856,412.47767857142856,2212,410.57142857142856,412.47767857142856,2314.9,410.57142857142856,412.47767857142856,2418.6,410.57142857142856,412.47767857142856,2523.2,410.57142857142856,412.47767857142856,2629.1,410.57142857142856,412.47767857142856,2731.9,410.57142857142856,412.47767857142856,2835.7,410.57142857142856,412.47767857142856,2949.4,410.57142857142856,412.47767857142856,3053.3,410.57142857142856,412.47767857142856,3155.8,410.57142857142856,412.47767857142856,3258.6,410.57142857142856,412.47767857142856,3362.8,410.57142857142856,412.47767857142856,3466.8,410.57142857142856,412.47767857142856,3583,410.57142857142856,412.47767857142856,3684.7,410.57142857142856,412.47767857142856,3794.1,410.57142857142856,412.47767857142856,3900.5,410.57142857142856,412.47767857142856,4002.7,410.57142857142856,412.47767857142856,4105,410.57142857142856,412.47767857142856,4206.2,410.57142857142856,412.47767857142856,4306.2,410.57142857142856,412.47767857142856,4417.7,410.57142857142856,412.47767857142856,4522.2,410.57142857142856,412.47767857142856,4623.2,410.57142857142856,412.47767857142856,4728.9,410.57142857142856,412.47767857142856,4831.2,410.57142857142856,412.47767857142856,4934]","[6687.3,6687.4,2969,2009.4,1709,""oops"",""left"",""up"",""bad_move"",11269.5,4581,2561.9,6688.5,2019.1,""oops"",""down"",""down"",""good_move"",14267.1,2996.6,2287.6,11270.6,709,""oops"",""down"",""down"",""good_move"",17322.3,3053,2569.8,14269.3,483.2,""oops"",""down"",""left"",""good_move"",20228.6,2905.7,2343.3,17322.9,562.4,""oops"",""down"",""up"",""bad_move"",22883.8,2654.1,2202.4,20229.7,451.7,""oops"",""left"",""left"",""good_move"",26834.5,3950,3394.7,22884.5,555.3,""smooth"",""down"",""down"",""good_move""]","",""
"5945","","<div style=""width:500px;"">
  <p>What determined the result of this run?</p>
  </div>","50","html-slider-response","50","797764","0.0-5.0-1.8","118","1","2025-07-16 16:01:21","1f75c3e559b7213887762d5229550c2b","194.152.129.18","Mozilla/5.0 (Windows NT 10.0; Win64; x64) AppleWebKit/537.36 (KHTML, like Gecko) Chrome/131.0.0.0 Safari/537.36","WebKit","Chrome","131.0.0.0","Windows","10.0","https://app.prolific.com/","en-GB,en;q=0.9","677fb45dee7e90f416b55aea","686e379bc37a29ffa5cdc956","6877ccb1553ba6ee5cf3e226","1","1","677fb45dee7e90f416b55aea","1","1","2025-07-16T16:14:53.792Z","","","","","","","","","","","AttribQ","","50","","","","","","","","","","","","","","","","","","","","","","","","","","","","",""
"6965","","<div style=""width:500px;"">
  <p>How much control did you have over the ball?</p>
  </div>","61","html-slider-response","51","804731","0.0-5.0-2.8","118","1","2025-07-16 16:01:21","1f75c3e559b7213887762d5229550c2b","194.152.129.18","Mozilla/5.0 (Windows NT 10.0; Win64; x64) AppleWebKit/537.36 (KHTML, like Gecko) Chrome/131.0.0.0 Safari/537.36","WebKit","Chrome","131.0.0.0","Windows","10.0","https://app.prolific.com/","en-GB,en;q=0.9","677fb45dee7e90f416b55aea","686e379bc37a29ffa5cdc956","6877ccb1553ba6ee5cf3e226","1","1","677fb45dee7e90f416b55aea","1","1","2025-07-16T16:15:00.759Z","","","","","","","","","","","ControlQ","","50","","","","","","","","","","","","","","","","","","","","","","","","","","","","",""
"3531","","<div style=""width:500px;"">
  <p>How would you describe your current emotional state?</p>
  </div>","63","html-slider-response","52","808263","0.0-5.0-3.8","118","1","2025-07-16 16:01:21","1f75c3e559b7213887762d5229550c2b","194.152.129.18","Mozilla/5.0 (Windows NT 10.0; Win64; x64) AppleWebKit/537.36 (KHTML, like Gecko) Chrome/131.0.0.0 Safari/537.36","WebKit","Chrome","131.0.0.0","Windows","10.0","https://app.prolific.com/","en-GB,en;q=0.9","677fb45dee7e90f416b55aea","686e379bc37a29ffa5cdc956","6877ccb1553ba6ee5cf3e226","1","1","677fb45dee7e90f416b55aea","1","1","2025-07-16T16:15:04.292Z","","","","","","","","","","","StressQ","","50","","","","","","","","","","","","","","","","","","","","","","","","","","","","",""
"2963","","<div style=""width:500px;"">
  <p>What best describes how you currently feel?</p>
  </div>","60","html-slider-response","53","811230","0.0-5.0-4.8","118","1","2025-07-16 16:01:21","1f75c3e559b7213887762d5229550c2b","194.152.129.18","Mozilla/5.0 (Windows NT 10.0; Win64; x64) AppleWebKit/537.36 (KHTML, like Gecko) Chrome/131.0.0.0 Safari/537.36","WebKit","Chrome","131.0.0.0","Windows","10.0","https://app.prolific.com/","en-GB,en;q=0.9","677fb45dee7e90f416b55aea","686e379bc37a29ffa5cdc956","6877ccb1553ba6ee5cf3e226","1","1","677fb45dee7e90f416b55aea","1","1","2025-07-16T16:15:07.258Z","","","","","","","","","","","MotivationQ","","50","","","","","","","","","","","","","","","","","","","","","","","","","","","","",""
"","","","","ctl-task-cpt","54","835511","0.0-5.0-0.9","118","1","2025-07-16 16:01:21","1f75c3e559b7213887762d5229550c2b","194.152.129.18","Mozilla/5.0 (Windows NT 10.0; Win64; x64) AppleWebKit/537.36 (KHTML, like Gecko) Chrome/131.0.0.0 Safari/537.36","WebKit","Chrome","131.0.0.0","Windows","10.0","https://app.prolific.com/","en-GB,en;q=0.9","677fb45dee7e90f416b55aea","686e379bc37a29ffa5cdc956","6877ccb1553ba6ee5cf3e226","1","1","677fb45dee7e90f416b55aea","1","1","2025-07-16T16:15:31.539Z","","","","","","","","","","","","","","win-only","0","g1:NW,g2:SE","0.4","10","0","828380.8","1753.4","6764.3","21256.6","1","4","8","6","1","1","1","6","5","0.045454545454545456","5010.9","3000","1780","[""left"",""up""]","{""num_key_presses"":4,""num_perfect"":2,""num_errors"":0,""num_randdir"":2,""num_randdir_good_moves"":2,""num_whilered"":0,""num_whileblue"":0,""num_blue"":1,""num_good_moves"":4}","[418.57142857142856,418.47767857142856,1.4,418.57142857142856,418.47767857142856,100.5,418.57142857142856,418.47767857142856,211.7,418.57142857142856,418.47767857142856,323.9,418.57142857142856,418.47767857142856,425.5,418.57142857142856,418.47767857142856,532.4,418.57142857142856,418.47767857142856,635,418.57142857142856,418.47767857142856,741.9,418.57142857142856,418.47767857142856,843.3,418.57142857142856,418.47767857142856,952.8,418.57142857142856,418.47767857142856,1065.6,418.57142857142856,418.47767857142856,1172,418.57142857142856,418.47767857142856,1282.7,418.57142857142856,418.47767857142856,1386.1,418.57142857142856,418.47767857142856,1492.9,418.57142857142856,418.47767857142856,1603.5,418.57142857142856,418.47767857142856,1707.3,418.57142857142856,418.47767857142856,1812.1,418.57142857142856,418.47767857142856,1920,418.57142857142856,418.47767857142856,2029.9,418.57142857142856,418.47767857142856,2141.5,418.57142857142856,418.47767857142856,2243.4,418.57142857142856,418.47767857142856,2343.6,418.57142857142856,418.47767857142856,2444.9,418.57142857142856,418.47767857142856,2547.4,418.57142857142856,418.47767857142856,2657.4,418.57142857142856,418.47767857142856,2770.7,418.57142857142856,418.47767857142856,2877.3,418.57142857142856,418.47767857142856,2986.9,418.57142857142856,418.47767857142856,3090.5,418.57142857142856,418.47767857142856,3196.4,418.57142857142856,418.47767857142856,3307.6,418.57142857142856,418.47767857142856,3415.9,418.57142857142856,418.47767857142856,3540.2,418.57142857142856,418.47767857142856,3644.8,418.57142857142856,418.47767857142856,3751.3,418.57142857142856,418.47767857142856,3853.2,418.57142857142856,418.47767857142856,3963.8,418.57142857142856,418.47767857142856,4073.8,418.57142857142856,418.47767857142856,4188.5,418.57142857142856,418.47767857142856,4299,418.57142857142856,418.47767857142856,4411.2,418.57142857142856,418.47767857142856,4520.5,418.57142857142856,418.47767857142856,4632.7,418.57142857142856,418.47767857142856,4748.7,418.57142857142856,418.47767857142856,4859.5,418.57142857142856,418.47767857142856,4971.6]","[1769.2,1769.2,1000,0,769.2,""smooth"",""up"",""up"",""good_move"",5261.2,3490.6,2368.4,1770.6,1122.3,""oops"",""left"",""left"",""good_move"",7776.4,2513.2,2107.9,5263.2,405.3,""oops"",""left"",""left"",""good_move"",14308.5,6531.2,2488,11345.1,475.5,""smooth"",""up"",""up"",""good_move""]","",""
"8394","","<div style=""width:500px;"">
  <p>What determined the result of this run?</p>
  </div>","81","html-slider-response","55","843907","0.0-5.0-1.9","118","1","2025-07-16 16:01:21","1f75c3e559b7213887762d5229550c2b","194.152.129.18","Mozilla/5.0 (Windows NT 10.0; Win64; x64) AppleWebKit/537.36 (KHTML, like Gecko) Chrome/131.0.0.0 Safari/537.36","WebKit","Chrome","131.0.0.0","Windows","10.0","https://app.prolific.com/","en-GB,en;q=0.9","677fb45dee7e90f416b55aea","686e379bc37a29ffa5cdc956","6877ccb1553ba6ee5cf3e226","1","1","677fb45dee7e90f416b55aea","1","1","2025-07-16T16:15:39.935Z","","","","","","","","","","","AttribQ","","50","","","","","","","","","","","","","","","","","","","","","","","","","","","","",""
"3969","","<div style=""width:500px;"">
  <p>How much control did you have over the ball?</p>
  </div>","81","html-slider-response","56","847878","0.0-5.0-2.9","118","1","2025-07-16 16:01:21","1f75c3e559b7213887762d5229550c2b","194.152.129.18","Mozilla/5.0 (Windows NT 10.0; Win64; x64) AppleWebKit/537.36 (KHTML, like Gecko) Chrome/131.0.0.0 Safari/537.36","WebKit","Chrome","131.0.0.0","Windows","10.0","https://app.prolific.com/","en-GB,en;q=0.9","677fb45dee7e90f416b55aea","686e379bc37a29ffa5cdc956","6877ccb1553ba6ee5cf3e226","1","1","677fb45dee7e90f416b55aea","1","1","2025-07-16T16:15:43.906Z","","","","","","","","","","","ControlQ","","50","","","","","","","","","","","","","","","","","","","","","","","","","","","","",""
"6712","","<div style=""width:500px;"">
  <p>How would you describe your current emotional state?</p>
  </div>","74","html-slider-response","57","854594","0.0-5.0-3.9","118","1","2025-07-16 16:01:21","1f75c3e559b7213887762d5229550c2b","194.152.129.18","Mozilla/5.0 (Windows NT 10.0; Win64; x64) AppleWebKit/537.36 (KHTML, like Gecko) Chrome/131.0.0.0 Safari/537.36","WebKit","Chrome","131.0.0.0","Windows","10.0","https://app.prolific.com/","en-GB,en;q=0.9","677fb45dee7e90f416b55aea","686e379bc37a29ffa5cdc956","6877ccb1553ba6ee5cf3e226","1","1","677fb45dee7e90f416b55aea","1","1","2025-07-16T16:15:50.622Z","","","","","","","","","","","StressQ","","50","","","","","","","","","","","","","","","","","","","","","","","","","","","","",""
"4675","","<div style=""width:500px;"">
  <p>What best describes how you currently feel?</p>
  </div>","72","html-slider-response","58","859271","0.0-5.0-4.9","118","1","2025-07-16 16:01:21","1f75c3e559b7213887762d5229550c2b","194.152.129.18","Mozilla/5.0 (Windows NT 10.0; Win64; x64) AppleWebKit/537.36 (KHTML, like Gecko) Chrome/131.0.0.0 Safari/537.36","WebKit","Chrome","131.0.0.0","Windows","10.0","https://app.prolific.com/","en-GB,en;q=0.9","677fb45dee7e90f416b55aea","686e379bc37a29ffa5cdc956","6877ccb1553ba6ee5cf3e226","1","1","677fb45dee7e90f416b55aea","1","1","2025-07-16T16:15:55.299Z","","","","","","","","","","","MotivationQ","","50","","","","","","","","","","","","","","","","","","","","","","","","","","","","",""
"","","","","ctl-task-cpt","59","914965","0.0-5.0-0.10","118","1","2025-07-16 16:01:21","1f75c3e559b7213887762d5229550c2b","194.152.129.18","Mozilla/5.0 (Windows NT 10.0; Win64; x64) AppleWebKit/537.36 (KHTML, like Gecko) Chrome/131.0.0.0 Safari/537.36","WebKit","Chrome","131.0.0.0","Windows","10.0","https://app.prolific.com/","en-GB,en;q=0.9","677fb45dee7e90f416b55aea","686e379bc37a29ffa5cdc956","6877ccb1553ba6ee5cf3e226","1","1","677fb45dee7e90f416b55aea","1","1","2025-07-16T16:16:50.993Z","","","","","","","","","","","","","","win-only","1","g1:NE,g2:SW","0.5","11","0","876423.1","2222.2","7226.4","52669.1","1","4","4","6","1","1","-2","4","6","0.030303030303030304","5004.2","3000","545","[""up"",""right""]","{""num_key_presses"":16,""num_perfect"":6,""num_errors"":3,""num_randdir"":7,""num_randdir_good_moves"":3,""num_whilered"":0,""num_whileblue"":3,""num_blue"":3,""num_good_moves"":10}","[415.57142857142856,412.47767857142856,3.4,415.57142857142856,412.47767857142856,106.5,415.57142857142856,412.47767857142856,216.7,415.57142857142856,412.47767857142856,330.1,415.57142857142856,412.47767857142856,439,415.57142857142856,412.47767857142856,548.9,415.57142857142856,412.47767857142856,660.8,415.57142857142856,412.47767857142856,769.7,415.57142857142856,412.47767857142856,871.6,415.57142857142856,412.47767857142856,972.5,415.57142857142856,412.47767857142856,1073.5,415.57142857142856,412.47767857142856,1177.7,415.57142857142856,412.47767857142856,1278.8,415.57142857142856,412.47767857142856,1381.3,415.57142857142856,412.47767857142856,1489.2,415.57142857142856,412.47767857142856,1599.7,415.57142857142856,412.47767857142856,1710,415.57142857142856,412.47767857142856,1819.1,415.57142857142856,412.47767857142856,1923.7,415.57142857142856,412.47767857142856,2030.2,415.57142857142856,412.47767857142856,2133.2,415.57142857142856,412.47767857142856,2238,415.57142857142856,412.47767857142856,2344.8,415.57142857142856,412.47767857142856,2453.5,415.57142857142856,412.47767857142856,2554.6,415.57142857142856,412.47767857142856,2661.3,415.57142857142856,412.47767857142856,2767.7,415.57142857142856,412.47767857142856,2876.5,415.57142857142856,412.47767857142856,2976.8,415.57142857142856,412.47767857142856,3078.2,415.57142857142856,412.47767857142856,3180.6,415.57142857142856,412.47767857142856,3281.1,415.57142857142856,412.47767857142856,3385.7,415.57142857142856,412.47767857142856,3492.9,415.57142857142856,412.47767857142856,3604.5,415.57142857142856,412.47767857142856,3718.6,415.57142857142856,412.47767857142856,3821.2,415.57142857142856,412.47767857142856,3921.3,415.57142857142856,412.47767857142856,4024.2,415.57142857142856,412.47767857142856,4125.7,415.57142857142856,412.47767857142856,4227.6,415.57142857142856,412.47767857142856,4334.1,415.57142857142856,412.47767857142856,4447,415.57142857142856,412.47767857142856,4548.4,415.57142857142856,412.47767857142856,4654.1,415.57142857142856,412.47767857142856,4756.3,415.57142857142856,412.47767857142856,4858.6,415.57142857142856,412.47767857142856,4959.8]","[1840,1840,1000,0,840.1,""oops"",""up"",""left"",""bad_move"",5085,3243.3,2742.9,1841.7,500.4,""smooth"",""up"",""up"",""good_move"",8425.5,3338.9,2860.6,5086.6,478.3,""smooth"",""up"",""up"",""good_move"",11657.2,3231,2827.6,8426.2,403.5,""oops"",""right"",""left"",""bad_move"",14849.9,3191.3,2790.6,11658.6,400.8,""smooth"",""right"",""right"",""good_move"",17966.5,3115.2,2737.3,14851.3,377.9,""smooth"",""right"",""right"",""good_move"",20359.3,2391.8,2071.3,17967.5,320.5,""oops"",""right"",""down"",""bad_move"",22747.7,2387,2026.2,20360.7,360.8,""while_blue"",""right"",""left"",""bad_move"",25341.6,2591.4,2113.8,22750.2,477.6,""while_blue"",""right"",""up"",""good_move"",28385.3,3040.1,1543,25345.2,1497.1,""smooth"",""right"",""right"",""good_move"",30690.3,2303.9,1880.7,28386.4,423.2,""oops"",""right"",""down"",""bad_move"",33142.5,2450.9,2051.2,30691.6,399.7,""oops"",""right"",""up"",""good_move"",36327.2,3183.7,2753.7,33143.5,430,""while_blue"",""right"",""left"",""bad_move"",39580,3251.6,2818.5,36328.4,433.1,""oops"",""right"",""right"",""good_move"",42322.9,2742.2,2162.6,39580.7,579.6,""smooth"",""right"",""right"",""good_move"",45167.5,2843.7,2441.1,42323.8,402.6,""oops"",""right"",""right"",""good_move""]","",""
"6650","","<div style=""width:500px;"">
  <p>What determined the result of this run?</p>
  </div>","50","html-slider-response","60","921618","0.0-5.0-1.10","118","1","2025-07-16 16:01:21","1f75c3e559b7213887762d5229550c2b","194.152.129.18","Mozilla/5.0 (Windows NT 10.0; Win64; x64) AppleWebKit/537.36 (KHTML, like Gecko) Chrome/131.0.0.0 Safari/537.36","WebKit","Chrome","131.0.0.0","Windows","10.0","https://app.prolific.com/","en-GB,en;q=0.9","677fb45dee7e90f416b55aea","686e379bc37a29ffa5cdc956","6877ccb1553ba6ee5cf3e226","1","1","677fb45dee7e90f416b55aea","1","1","2025-07-16T16:16:57.646Z","","","","","","","","","","","AttribQ","","50","","","","","","","","","","","","","","","","","","","","","","","","","","","","",""
"3714","","<div style=""width:500px;"">
  <p>How much control did you have over the ball?</p>
  </div>","69","html-slider-response","61","925334","0.0-5.0-2.10","118","1","2025-07-16 16:01:21","1f75c3e559b7213887762d5229550c2b","194.152.129.18","Mozilla/5.0 (Windows NT 10.0; Win64; x64) AppleWebKit/537.36 (KHTML, like Gecko) Chrome/131.0.0.0 Safari/537.36","WebKit","Chrome","131.0.0.0","Windows","10.0","https://app.prolific.com/","en-GB,en;q=0.9","677fb45dee7e90f416b55aea","686e379bc37a29ffa5cdc956","6877ccb1553ba6ee5cf3e226","1","1","677fb45dee7e90f416b55aea","1","1","2025-07-16T16:17:01.363Z","","","","","","","","","","","ControlQ","","50","","","","","","","","","","","","","","","","","","","","","","","","","","","","",""
"4946","","<div style=""width:500px;"">
  <p>How would you describe your current emotional state?</p>
  </div>","71","html-slider-response","62","930282","0.0-5.0-3.10","118","1","2025-07-16 16:01:21","1f75c3e559b7213887762d5229550c2b","194.152.129.18","Mozilla/5.0 (Windows NT 10.0; Win64; x64) AppleWebKit/537.36 (KHTML, like Gecko) Chrome/131.0.0.0 Safari/537.36","WebKit","Chrome","131.0.0.0","Windows","10.0","https://app.prolific.com/","en-GB,en;q=0.9","677fb45dee7e90f416b55aea","686e379bc37a29ffa5cdc956","6877ccb1553ba6ee5cf3e226","1","1","677fb45dee7e90f416b55aea","1","1","2025-07-16T16:17:06.310Z","","","","","","","","","","","StressQ","","50","","","","","","","","","","","","","","","","","","","","","","","","","","","","",""
"3036","","<div style=""width:500px;"">
  <p>What best describes how you currently feel?</p>
  </div>","72","html-slider-response","63","933321","0.0-5.0-4.10","118","1","2025-07-16 16:01:21","1f75c3e559b7213887762d5229550c2b","194.152.129.18","Mozilla/5.0 (Windows NT 10.0; Win64; x64) AppleWebKit/537.36 (KHTML, like Gecko) Chrome/131.0.0.0 Safari/537.36","WebKit","Chrome","131.0.0.0","Windows","10.0","https://app.prolific.com/","en-GB,en;q=0.9","677fb45dee7e90f416b55aea","686e379bc37a29ffa5cdc956","6877ccb1553ba6ee5cf3e226","1","1","677fb45dee7e90f416b55aea","1","1","2025-07-16T16:17:09.349Z","","","","","","","","","","","MotivationQ","","50","","","","","","","","","","","","","","","","","","","","","","","","","","","","",""
"","","","","ctl-task-cpt","64","980724","0.0-5.0-0.11","118","1","2025-07-16 16:01:21","1f75c3e559b7213887762d5229550c2b","194.152.129.18","Mozilla/5.0 (Windows NT 10.0; Win64; x64) AppleWebKit/537.36 (KHTML, like Gecko) Chrome/131.0.0.0 Safari/537.36","WebKit","Chrome","131.0.0.0","Windows","10.0","https://app.prolific.com/","en-GB,en;q=0.9","677fb45dee7e90f416b55aea","686e379bc37a29ffa5cdc956","6877ccb1553ba6ee5cf3e226","1","1","677fb45dee7e90f416b55aea","1","1","2025-07-16T16:17:56.753Z","","","","","","","","","","","","","","win-only","0","g1:NW,g2:SE","0.6","12","0","950473.4","1810.1","6813.7","44368","1","4","8","6","1","1","1","5","4","0.03787878787878788","5003.5","3000","620","[""left"",""up""]","{""num_key_presses"":10,""num_perfect"":6,""num_errors"":0,""num_randdir"":4,""num_randdir_good_moves"":1,""num_whilered"":0,""num_whileblue"":0,""num_blue"":2,""num_good_moves"":7}","[417.57142857142856,423.47767857142856,2.1,417.57142857142856,423.47767857142856,105.2,417.57142857142856,423.47767857142856,215.7,417.57142857142856,423.47767857142856,320.9,417.57142857142856,423.47767857142856,424.2,417.57142857142856,423.47767857142856,525.2,417.57142857142856,423.47767857142856,628.1,417.57142857142856,423.47767857142856,734,417.57142857142856,423.47767857142856,842.6,417.57142857142856,423.47767857142856,946.2,417.57142857142856,423.47767857142856,1071.3,417.57142857142856,423.47767857142856,1178.7,417.57142857142856,423.47767857142856,1282.4,417.57142857142856,423.47767857142856,1393.6,417.57142857142856,423.47767857142856,1498.1,417.57142857142856,423.47767857142856,1610,417.57142857142856,423.47767857142856,1718.8,417.57142857142856,423.47767857142856,1820.9,417.57142857142856,423.47767857142856,1930.3,417.57142857142856,423.47767857142856,2034,417.57142857142856,423.47767857142856,2134.2,417.57142857142856,423.47767857142856,2242.9,417.57142857142856,423.47767857142856,2353.1,417.57142857142856,423.47767857142856,2458.5,417.57142857142856,423.47767857142856,2572.1,417.57142857142856,423.47767857142856,2687,417.57142857142856,423.47767857142856,2794.7,417.57142857142856,423.47767857142856,2911.1,417.57142857142856,423.47767857142856,3013.8,417.57142857142856,423.47767857142856,3125.8,417.57142857142856,423.47767857142856,3233.5,417.57142857142856,423.47767857142856,3341.8,417.57142857142856,423.47767857142856,3447.4,417.57142857142856,423.47767857142856,3556.9,417.57142857142856,423.47767857142856,3657.1,417.57142857142856,423.47767857142856,3763.9,417.57142857142856,423.47767857142856,3866.1,417.57142857142856,423.47767857142856,3969.7,417.57142857142856,423.47767857142856,4070.4,417.57142857142856,423.47767857142856,4173.9,417.57142857142856,423.47767857142856,4282,417.57142857142856,423.47767857142856,4389.7,417.57142857142856,423.47767857142856,4491.5,417.57142857142856,423.47767857142856,4593.9,417.57142857142856,423.47767857142856,4704.3,417.57142857142856,423.47767857142856,4812.5,417.57142857142856,423.47767857142856,4912.6]","[1740.5,1740.5,1000,0,740.6,""oops"",""up"",""right"",""bad_move"",8485.5,6743.1,2274.9,5741.4,469.2,""smooth"",""up"",""up"",""good_move"",12142.3,3656.3,2138.3,8486,1518,""oops"",""left"",""right"",""bad_move"",15372.4,3229.5,2749.1,12142.9,480.4,""smooth"",""left"",""left"",""good_move"",17838.5,2465.1,1898.1,15373.4,567,""oops"",""up"",""right"",""bad_move"",21171.5,3332.4,2894.2,17839.1,438.2,""smooth"",""up"",""up"",""good_move"",24052,2878.3,2323.2,21173.7,555.1,""oops"",""left"",""left"",""good_move"",26833,2778.9,2260.3,24054.1,518.6,""smooth"",""left"",""left"",""good_move"",30024.2,3190.5,2702.6,26833.7,487.9,""smooth"",""left"",""left"",""good_move"",37226.3,7201.1,2592,34142.6,491.7,""smooth"",""left"",""left"",""good_move""]","",""
"6326","","<div style=""width:500px;"">
  <p>What determined the result of this run?</p>
  </div>","59","html-slider-response","65","987057","0.0-5.0-1.11","118","1","2025-07-16 16:01:21","1f75c3e559b7213887762d5229550c2b","194.152.129.18","Mozilla/5.0 (Windows NT 10.0; Win64; x64) AppleWebKit/537.36 (KHTML, like Gecko) Chrome/131.0.0.0 Safari/537.36","WebKit","Chrome","131.0.0.0","Windows","10.0","https://app.prolific.com/","en-GB,en;q=0.9","677fb45dee7e90f416b55aea","686e379bc37a29ffa5cdc956","6877ccb1553ba6ee5cf3e226","1","1","677fb45dee7e90f416b55aea","1","1","2025-07-16T16:18:03.085Z","","","","","","","","","","","AttribQ","","50","","","","","","","","","","","","","","","","","","","","","","","","","","","","",""
"5666","","<div style=""width:500px;"">
  <p>How much control did you have over the ball?</p>
  </div>","59","html-slider-response","66","992726","0.0-5.0-2.11","118","1","2025-07-16 16:01:21","1f75c3e559b7213887762d5229550c2b","194.152.129.18","Mozilla/5.0 (Windows NT 10.0; Win64; x64) AppleWebKit/537.36 (KHTML, like Gecko) Chrome/131.0.0.0 Safari/537.36","WebKit","Chrome","131.0.0.0","Windows","10.0","https://app.prolific.com/","en-GB,en;q=0.9","677fb45dee7e90f416b55aea","686e379bc37a29ffa5cdc956","6877ccb1553ba6ee5cf3e226","1","1","677fb45dee7e90f416b55aea","1","1","2025-07-16T16:18:08.754Z","","","","","","","","","","","ControlQ","","50","","","","","","","","","","","","","","","","","","","","","","","","","","","","",""
"6981","","<div style=""width:500px;"">
  <p>How would you describe your current emotional state?</p>
  </div>","68","html-slider-response","67","999709","0.0-5.0-3.11","118","1","2025-07-16 16:01:21","1f75c3e559b7213887762d5229550c2b","194.152.129.18","Mozilla/5.0 (Windows NT 10.0; Win64; x64) AppleWebKit/537.36 (KHTML, like Gecko) Chrome/131.0.0.0 Safari/537.36","WebKit","Chrome","131.0.0.0","Windows","10.0","https://app.prolific.com/","en-GB,en;q=0.9","677fb45dee7e90f416b55aea","686e379bc37a29ffa5cdc956","6877ccb1553ba6ee5cf3e226","1","1","677fb45dee7e90f416b55aea","1","1","2025-07-16T16:18:15.737Z","","","","","","","","","","","StressQ","","50","","","","","","","","","","","","","","","","","","","","","","","","","","","","",""
"2942","","<div style=""width:500px;"">
  <p>What best describes how you currently feel?</p>
  </div>","69","html-slider-response","68","1002652","0.0-5.0-4.11","118","1","2025-07-16 16:01:21","1f75c3e559b7213887762d5229550c2b","194.152.129.18","Mozilla/5.0 (Windows NT 10.0; Win64; x64) AppleWebKit/537.36 (KHTML, like Gecko) Chrome/131.0.0.0 Safari/537.36","WebKit","Chrome","131.0.0.0","Windows","10.0","https://app.prolific.com/","en-GB,en;q=0.9","677fb45dee7e90f416b55aea","686e379bc37a29ffa5cdc956","6877ccb1553ba6ee5cf3e226","1","1","677fb45dee7e90f416b55aea","1","1","2025-07-16T16:18:18.681Z","","","","","","","","","","","MotivationQ","","50","","","","","","","","","","","","","","","","","","","","","","","","","","","","",""
"","","","","ctl-task-cpt","69","1032069","0.0-5.0-0.12","118","1","2025-07-16 16:01:21","1f75c3e559b7213887762d5229550c2b","194.152.129.18","Mozilla/5.0 (Windows NT 10.0; Win64; x64) AppleWebKit/537.36 (KHTML, like Gecko) Chrome/131.0.0.0 Safari/537.36","WebKit","Chrome","131.0.0.0","Windows","10.0","https://app.prolific.com/","en-GB,en;q=0.9","677fb45dee7e90f416b55aea","686e379bc37a29ffa5cdc956","6877ccb1553ba6ee5cf3e226","1","1","677fb45dee7e90f416b55aea","1","1","2025-07-16T16:18:48.097Z","","","","","","","","","","","","","","win-only","0","g1:NW,g2:SE","0.7","13","0","1019805.4","2923.8","7937.6","26389.4","1","4","8","6","1","1","0","5","5","0.03787878787878788","5013.8","3000","1350","[""left"",""up""]","{""num_key_presses"":6,""num_perfect"":2,""num_errors"":1,""num_randdir"":3,""num_randdir_good_moves"":2,""num_whilered"":0,""num_whileblue"":1,""num_blue"":1,""num_good_moves"":5}","[418.57142857142856,403.47767857142856,1.8,418.57142857142856,403.47767857142856,108,418.57142857142856,403.47767857142856,214.1,418.57142857142856,403.47767857142856,315.9,418.57142857142856,403.47767857142856,416.1,418.57142857142856,403.47767857142856,521.4,418.57142857142856,403.47767857142856,630.8,418.57142857142856,403.47767857142856,733.8,418.57142857142856,403.47767857142856,840,418.57142857142856,403.47767857142856,944,418.57142857142856,403.47767857142856,1059.4,418.57142857142856,403.47767857142856,1166.7,418.57142857142856,403.47767857142856,1272.9,418.57142857142856,403.47767857142856,1375,418.57142857142856,403.47767857142856,1477.8,418.57142857142856,403.47767857142856,1579.1,418.57142857142856,403.47767857142856,1683.7,418.57142857142856,403.47767857142856,1789.5,418.57142857142856,403.47767857142856,1898.8,418.57142857142856,403.47767857142856,1999.2,418.57142857142856,403.47767857142856,2106.6,418.57142857142856,403.47767857142856,2213.7,418.57142857142856,403.47767857142856,2330.2,418.57142857142856,403.47767857142856,2439.9,418.57142857142856,403.47767857142856,2541.5,418.57142857142856,403.47767857142856,2643,418.57142857142856,403.47767857142856,2747.3,418.57142857142856,403.47767857142856,2857.8,418.57142857142856,403.47767857142856,2965.5,418.57142857142856,403.47767857142856,3066.4,418.57142857142856,403.47767857142856,3167.3,418.57142857142856,403.47767857142856,3278.8,418.57142857142856,403.47767857142856,3380.2,418.57142857142856,403.47767857142856,3486.2,418.57142857142856,403.47767857142856,3590.3,418.57142857142856,403.47767857142856,3698.8,418.57142857142856,403.47767857142856,3808.8,418.57142857142856,403.47767857142856,3915.9,418.57142857142856,403.47767857142856,4026.5,418.57142857142856,403.47767857142856,4141.1,418.57142857142856,403.47767857142856,4245.3,418.57142857142856,403.47767857142856,4352.8,418.57142857142856,403.47767857142856,4462.4,418.57142857142856,403.47767857142856,4563,418.57142857142856,403.47767857142856,4672.5,418.57142857142856,403.47767857142856,4773.3,418.57142857142856,403.47767857142856,4874.6,418.57142857142856,403.47767857142856,4977.4]","[1786.8,1786.9,1000,0,786.9,""smooth"",""up"",""up"",""good_move"",4877.2,3088.5,2437.7,1788.7,650.8,""oops"",""up"",""left"",""good_move"",8169.7,3291.1,2440.1,4878.6,851,""oops"",""left"",""down"",""bad_move"",11234.9,3062.8,2512.7,8172.1,550.1,""while_blue"",""up"",""left"",""good_move"",15315.3,4079,2322.2,11236.3,1756.8,""smooth"",""up"",""up"",""good_move"",18221.2,2905.3,2288,15315.9,617.3,""oops"",""up"",""up"",""good_move""]","",""
"4373","","<div style=""width:500px;"">
  <p>What determined the result of this run?</p>
  </div>","60","html-slider-response","70","1036444","0.0-5.0-1.12","118","1","2025-07-16 16:01:21","1f75c3e559b7213887762d5229550c2b","194.152.129.18","Mozilla/5.0 (Windows NT 10.0; Win64; x64) AppleWebKit/537.36 (KHTML, like Gecko) Chrome/131.0.0.0 Safari/537.36","WebKit","Chrome","131.0.0.0","Windows","10.0","https://app.prolific.com/","en-GB,en;q=0.9","677fb45dee7e90f416b55aea","686e379bc37a29ffa5cdc956","6877ccb1553ba6ee5cf3e226","1","1","677fb45dee7e90f416b55aea","1","1","2025-07-16T16:18:52.472Z","","","","","","","","","","","AttribQ","","50","","","","","","","","","","","","","","","","","","","","","","","","","","","","",""
"4738","","<div style=""width:500px;"">
  <p>How much control did you have over the ball?</p>
  </div>","64","html-slider-response","71","1041184","0.0-5.0-2.12","118","1","2025-07-16 16:01:21","1f75c3e559b7213887762d5229550c2b","194.152.129.18","Mozilla/5.0 (Windows NT 10.0; Win64; x64) AppleWebKit/537.36 (KHTML, like Gecko) Chrome/131.0.0.0 Safari/537.36","WebKit","Chrome","131.0.0.0","Windows","10.0","https://app.prolific.com/","en-GB,en;q=0.9","677fb45dee7e90f416b55aea","686e379bc37a29ffa5cdc956","6877ccb1553ba6ee5cf3e226","1","1","677fb45dee7e90f416b55aea","1","1","2025-07-16T16:18:57.212Z","","","","","","","","","","","ControlQ","","50","","","","","","","","","","","","","","","","","","","","","","","","","","","","",""
"3281","","<div style=""width:500px;"">
  <p>How would you describe your current emotional state?</p>
  </div>","64","html-slider-response","72","1044467","0.0-5.0-3.12","118","1","2025-07-16 16:01:21","1f75c3e559b7213887762d5229550c2b","194.152.129.18","Mozilla/5.0 (Windows NT 10.0; Win64; x64) AppleWebKit/537.36 (KHTML, like Gecko) Chrome/131.0.0.0 Safari/537.36","WebKit","Chrome","131.0.0.0","Windows","10.0","https://app.prolific.com/","en-GB,en;q=0.9","677fb45dee7e90f416b55aea","686e379bc37a29ffa5cdc956","6877ccb1553ba6ee5cf3e226","1","1","677fb45dee7e90f416b55aea","1","1","2025-07-16T16:19:00.495Z","","","","","","","","","","","StressQ","","50","","","","","","","","","","","","","","","","","","","","","","","","","","","","",""
"6049","","<div style=""width:500px;"">
  <p>What best describes how you currently feel?</p>
  </div>","64","html-slider-response","73","1050518","0.0-5.0-4.12","118","1","2025-07-16 16:01:21","1f75c3e559b7213887762d5229550c2b","194.152.129.18","Mozilla/5.0 (Windows NT 10.0; Win64; x64) AppleWebKit/537.36 (KHTML, like Gecko) Chrome/131.0.0.0 Safari/537.36","WebKit","Chrome","131.0.0.0","Windows","10.0","https://app.prolific.com/","en-GB,en;q=0.9","677fb45dee7e90f416b55aea","686e379bc37a29ffa5cdc956","6877ccb1553ba6ee5cf3e226","1","1","677fb45dee7e90f416b55aea","1","1","2025-07-16T16:19:06.546Z","","","","","","","","","","","MotivationQ","","50","","","","","","","","","","","","","","","","","","","","","","","","","","","","",""
"","","","","ctl-task-cpt","74","1081922","0.0-5.0-0.13","118","1","2025-07-16 16:01:21","1f75c3e559b7213887762d5229550c2b","194.152.129.18","Mozilla/5.0 (Windows NT 10.0; Win64; x64) AppleWebKit/537.36 (KHTML, like Gecko) Chrome/131.0.0.0 Safari/537.36","WebKit","Chrome","131.0.0.0","Windows","10.0","https://app.prolific.com/","en-GB,en;q=0.9","677fb45dee7e90f416b55aea","686e379bc37a29ffa5cdc956","6877ccb1553ba6ee5cf3e226","1","1","677fb45dee7e90f416b55aea","1","1","2025-07-16T16:19:37.950Z","","","","","","","","","","","","","","win-only","1","g1:NE,g2:SW","0.8","14","0","1067668.8","1826.4","6843.5","28374.5","1","4","4","6","1","1","1","6","5","0.045454545454545456","5016.9","3000","1755","[""up"",""right""]","{""num_key_presses"":6,""num_perfect"":4,""num_errors"":0,""num_randdir"":2,""num_randdir_good_moves"":1,""num_whilered"":0,""num_whileblue"":0,""num_blue"":1,""num_good_moves"":5}","[411.57142857142856,412.47767857142856,2.2,411.57142857142856,412.47767857142856,108.9,411.57142857142856,412.47767857142856,228.1,411.57142857142856,412.47767857142856,337.1,411.57142857142856,412.47767857142856,446.6,411.57142857142856,412.47767857142856,556.4,411.57142857142856,412.47767857142856,679.8,411.57142857142856,412.47767857142856,791.1,411.57142857142856,412.47767857142856,896.4,411.57142857142856,412.47767857142856,1008.9,411.57142857142856,412.47767857142856,1118,411.57142857142856,412.47767857142856,1231.1,411.57142857142856,412.47767857142856,1334.7,411.57142857142856,412.47767857142856,1434.7,411.57142857142856,412.47767857142856,1536.6,411.57142857142856,412.47767857142856,1642.3,411.57142857142856,412.47767857142856,1745.9,411.57142857142856,412.47767857142856,1847.2,411.57142857142856,412.47767857142856,1953,411.57142857142856,412.47767857142856,2066.9,411.57142857142856,412.47767857142856,2172.1,411.57142857142856,412.47767857142856,2275,411.57142857142856,412.47767857142856,2377.1,411.57142857142856,412.47767857142856,2489,411.57142857142856,412.47767857142856,2599.8,411.57142857142856,412.47767857142856,2704.6,411.57142857142856,412.47767857142856,2817.7,411.57142857142856,412.47767857142856,2931.4,411.57142857142856,412.47767857142856,3040.4,411.57142857142856,412.47767857142856,3141.7,411.57142857142856,412.47767857142856,3242.3,411.57142857142856,412.47767857142856,3356.2,411.57142857142856,412.47767857142856,3458,411.57142857142856,412.47767857142856,3559.5,411.57142857142856,412.47767857142856,3667.7,411.57142857142856,412.47767857142856,3783.3,411.57142857142856,412.47767857142856,3896.2,411.57142857142856,412.47767857142856,4002.7,411.57142857142856,412.47767857142856,4111.4,411.57142857142856,412.47767857142856,4213.1,411.57142857142856,412.47767857142856,4325.7,411.57142857142856,412.47767857142856,4434.7,411.57142857142856,412.47767857142856,4541.1,411.57142857142856,412.47767857142856,4649.9,411.57142857142856,412.47767857142856,4759.2,411.57142857142856,412.47767857142856,4868.4,411.57142857142856,412.47767857142856,4980.1]","[5066,5066,1924.9,2035.2,1105.9,""oops"",""up"",""right"",""good_move"",8505.5,3437.4,2896.1,5068.1,541.3,""oops"",""up"",""down"",""bad_move"",11273.9,2767.2,2209.6,8506.7,557.6,""smooth"",""up"",""up"",""good_move"",14026,2751.1,2130,11274.9,621.1,""smooth"",""up"",""up"",""good_move"",17356.9,3329.9,1784.8,14027,1545.1,""smooth"",""up"",""up"",""good_move"",21247.4,3889.8,1826.2,17357.6,2063.6,""smooth"",""right"",""right"",""good_move""]","",""
"26348","","<div style=""width:500px;"">
  <p>What determined the result of this run?</p>
  </div>","64","html-slider-response","75","1108273","0.0-5.0-1.13","118","1","2025-07-16 16:01:21","1f75c3e559b7213887762d5229550c2b","194.152.129.18","Mozilla/5.0 (Windows NT 10.0; Win64; x64) AppleWebKit/537.36 (KHTML, like Gecko) Chrome/131.0.0.0 Safari/537.36","WebKit","Chrome","131.0.0.0","Windows","10.0","https://app.prolific.com/","en-GB,en;q=0.9","677fb45dee7e90f416b55aea","686e379bc37a29ffa5cdc956","6877ccb1553ba6ee5cf3e226","1","1","677fb45dee7e90f416b55aea","1","1","2025-07-16T16:20:04.301Z","","","","","","","","","","","AttribQ","","50","","","","","","","","","","","","","","","","","","","","","","","","","","","","",""
"5079","","<div style=""width:500px;"">
  <p>How much control did you have over the ball?</p>
  </div>","63","html-slider-response","76","1113355","0.0-5.0-2.13","118","1","2025-07-16 16:01:21","1f75c3e559b7213887762d5229550c2b","194.152.129.18","Mozilla/5.0 (Windows NT 10.0; Win64; x64) AppleWebKit/537.36 (KHTML, like Gecko) Chrome/131.0.0.0 Safari/537.36","WebKit","Chrome","131.0.0.0","Windows","10.0","https://app.prolific.com/","en-GB,en;q=0.9","677fb45dee7e90f416b55aea","686e379bc37a29ffa5cdc956","6877ccb1553ba6ee5cf3e226","1","1","677fb45dee7e90f416b55aea","1","1","2025-07-16T16:20:09.383Z","","","","","","","","","","","ControlQ","","50","","","","","","","","","","","","","","","","","","","","","","","","","","","","",""
"4930","","<div style=""width:500px;"">
  <p>How would you describe your current emotional state?</p>
  </div>","70","html-slider-response","77","1118288","0.0-5.0-3.13","118","1","2025-07-16 16:01:21","1f75c3e559b7213887762d5229550c2b","194.152.129.18","Mozilla/5.0 (Windows NT 10.0; Win64; x64) AppleWebKit/537.36 (KHTML, like Gecko) Chrome/131.0.0.0 Safari/537.36","WebKit","Chrome","131.0.0.0","Windows","10.0","https://app.prolific.com/","en-GB,en;q=0.9","677fb45dee7e90f416b55aea","686e379bc37a29ffa5cdc956","6877ccb1553ba6ee5cf3e226","1","1","677fb45dee7e90f416b55aea","1","1","2025-07-16T16:20:14.317Z","","","","","","","","","","","StressQ","","50","","","","","","","","","","","","","","","","","","","","","","","","","","","","",""
"15107","","<div style=""width:500px;"">
  <p>What best describes how you currently feel?</p>
  </div>","70","html-slider-response","78","1133398","0.0-5.0-4.13","118","1","2025-07-16 16:01:21","1f75c3e559b7213887762d5229550c2b","194.152.129.18","Mozilla/5.0 (Windows NT 10.0; Win64; x64) AppleWebKit/537.36 (KHTML, like Gecko) Chrome/131.0.0.0 Safari/537.36","WebKit","Chrome","131.0.0.0","Windows","10.0","https://app.prolific.com/","en-GB,en;q=0.9","677fb45dee7e90f416b55aea","686e379bc37a29ffa5cdc956","6877ccb1553ba6ee5cf3e226","1","1","677fb45dee7e90f416b55aea","1","1","2025-07-16T16:20:29.426Z","","","","","","","","","","","MotivationQ","","50","","","","","","","","","","","","","","","","","","","","","","","","","","","","",""
