"rt","response_timestamp","stimulus","response","trial_type","trial_index","time_elapsed","internal_node_id","run_id","condition","recorded_at","source_code_version","ip","user_agent","device","browser","browser_version","platform","platform_version","referer","accept_language","PROLIFIC_PID","STUDY_ID","SESSION_ID","WEEK","BATCH","prolific_id","week","batch","realtime","success","responses","item_order","radio_event_ids","radio_event_times","key_event_times","mouse_event_times","straightlining","zigzagging","honeypot","eventType","view_history","slider_start","which_type","canvas_config","goals_layout","control_level","trial_number","tutorial_trial_number","trial_start_time","phase1_start_time","phase2_start_time","phase3_start_time","goal_1_value","goal_1_distance","goal_2_value","goal_2_distance","goal_selected","outcome","outcome_total","participant_final_score","participant_initial_score","participant_final_score_prop","goal_choice_rt","allocated_time","allocated_time_remaining","goal_direction","counts","mouse_movements","key_presses","question_order","question_id"
"3910","1753260307923","<p style='font-size:40px;line-height:1.25'><strong>Welcome to the experiment!</strong></p><p style='font-size:1.1em;line-height:1.25'>Thank you for participanting in our experiment again! You will be asked to play the Dysfunctional Ball Game again. We will briefly recap the rules before we start.</p><p style='font-size:1.1em;line-height:1.25'>Press <strong>Next</strong> to continue.</p>","0","custom-html-button-response","0","3915","0.0-0.0","198","1","2025-07-23 08:45:03","1f75c3e559b7213887762d5229550c2b","216.205.168.23","Mozilla/5.0 (X11; CrOS x86_64 14541.0.0) AppleWebKit/537.36 (KHTML, like Gecko) Chrome/137.0.0.0 Safari/537.36","WebKit","Chrome","137.0.0.0","ChromeOS","14541.0.0","https://app.prolific.com/","en-GB,en-US;q=0.9,en;q=0.8","5a1dda5480acd8000104a12b","683dba2a8a9dda3513610c04","6880a03cc4e351e2ea80b828","3","0","5a1dda5480acd8000104a12b","3","0","2025-07-23T08:45:07.926Z","","","","","","","","","","","","","","","","","","","","","","","","","","","","","","","","","","","","","","","","","",""
"1373","","","","fullscreen","1","6296","0.0-1.0","198","1","2025-07-23 08:45:03","1f75c3e559b7213887762d5229550c2b","216.205.168.23","Mozilla/5.0 (X11; CrOS x86_64 14541.0.0) AppleWebKit/537.36 (KHTML, like Gecko) Chrome/137.0.0.0 Safari/537.36","WebKit","Chrome","137.0.0.0","ChromeOS","14541.0.0","https://app.prolific.com/","en-GB,en-US;q=0.9,en;q=0.8","5a1dda5480acd8000104a12b","683dba2a8a9dda3513610c04","6880a03cc4e351e2ea80b828","3","0","5a1dda5480acd8000104a12b","3","0","","true","","","","","","","","","","","","","","","","","","","","","","","","","","","","","","","","","","","","","","","","",""
"1574","1753260311883","<p style='font-size:1.1em;line-height:1.25'>In the following, we will ask you a few questions relating to your feelings in the last 24 hours.<br></p><p style='font-size:1.1em;line-height:1.25'>Press the <strong>Next</strong> button to continue.</p>","0","custom-html-button-response","2","7874","0.0-2.0-0.0","198","1","2025-07-23 08:45:03","1f75c3e559b7213887762d5229550c2b","216.205.168.23","Mozilla/5.0 (X11; CrOS x86_64 14541.0.0) AppleWebKit/537.36 (KHTML, like Gecko) Chrome/137.0.0.0 Safari/537.36","WebKit","Chrome","137.0.0.0","ChromeOS","14541.0.0","https://app.prolific.com/","en-GB,en-US;q=0.9,en;q=0.8","5a1dda5480acd8000104a12b","683dba2a8a9dda3513610c04","6880a03cc4e351e2ea80b828","3","0","5a1dda5480acd8000104a12b","3","0","2025-07-23T08:45:11.885Z","","","","","","","","","","","","","","","","","","","","","","","","","","","","","","","","","","","","","","","","","",""
"108422.90000000001","","","","survey-template","3","116319","0.0-2.0-1.0","198","1","2025-07-23 08:45:03","1f75c3e559b7213887762d5229550c2b","216.205.168.23","Mozilla/5.0 (X11; CrOS x86_64 14541.0.0) AppleWebKit/537.36 (KHTML, like Gecko) Chrome/137.0.0.0 Safari/537.36","WebKit","Chrome","137.0.0.0","ChromeOS","14541.0.0","https://app.prolific.com/","en-GB,en-US;q=0.9,en;q=0.8","5a1dda5480acd8000104a12b","683dba2a8a9dda3513610c04","6880a03cc4e351e2ea80b828","3","0","5a1dda5480acd8000104a12b","3","0","2025-07-23T08:47:00.330Z","","{""Q01"":""0"",""Q02"":""2"",""Q03"":""0"",""Q04"":""0"",""Q05"":""0"",""Q06"":""0"",""Q07"":""1"",""Q08"":""0"",""Q09"":""0"",""Q10"":""0"",""Q11"":""0"",""Q12"":""0"",""Q13"":""5"",""Q14"":""0"",""Q15"":""0"",""Q16"":""0"",""Q17"":""1"",""Q18"":""0"",""Q19"":""0"",""Q20"":""0"",""Q21"":""0"",""Q22"":""0""}","[0,1,2,3,4,5,6,7,8,9,10,11,12,13,14,15,16,17,18,19,20,21]","[""Q01"",""Q02"",""Q03"",""Q04"",""Q05"",""Q06"",""Q07"",""Q08"",""Q09"",""Q10"",""Q11"",""Q12"",""Q13"",""Q14"",""Q15"",""Q16"",""Q17"",""Q17"",""Q18"",""Q19"",""Q20"",""Q21"",""Q22"",""Q02"",""Q07""]","[5973.700000000004,12858.700000000004,19937.100000000006,21243.100000000006,32210.40000000001,33590,34459.40000000001,38580.3,39605.100000000006,47671.8,52272.100000000006,53344.3,57389.40000000001,63650.90000000001,66397.7,70015.90000000001,72928,75462.3,76682,78596.5,80896.3,83147.50000000001,85399.3,90783.90000000001,101619.40000000001]","[]","[0.4000000000014552,5973.700000000004,12858.700000000004,19086.90000000001,19937.100000000006,21243.100000000006,32210.40000000001,33590,34459.40000000001,35396.5,38580.3,39605.100000000006,47671.8,49492.40000000001,52272.100000000006,53344.3,57389.40000000001,63650.90000000001,66397.7,70015.90000000001,72928,75462.3,76682,78596.5,80896.3,83147.50000000001,85399.3,90783.90000000001,101619.40000000001,108396.8]","0.8181818181818182","0.2857142857142857","0","drsp","","","","","","","","","","","","","","","","","","","","","","","","","","","","","","",""
"15265.000000000015","","","","survey-template","4","131594","0.0-2.0-2.0","198","1","2025-07-23 08:45:03","1f75c3e559b7213887762d5229550c2b","216.205.168.23","Mozilla/5.0 (X11; CrOS x86_64 14541.0.0) AppleWebKit/537.36 (KHTML, like Gecko) Chrome/137.0.0.0 Safari/537.36","WebKit","Chrome","137.0.0.0","ChromeOS","14541.0.0","https://app.prolific.com/","en-GB,en-US;q=0.9,en;q=0.8","5a1dda5480acd8000104a12b","683dba2a8a9dda3513610c04","6880a03cc4e351e2ea80b828","3","0","5a1dda5480acd8000104a12b","3","0","2025-07-23T08:47:15.606Z","","{""Q01"":""1"",""Q02"":""5"",""Q03"":""0""}","[0,1,2]","[""Q01"",""Q02"",""Q03""]","[6611.600000000006,8030.700000000012,9990.5]","[]","[6611.600000000006,8030.700000000012,9990.5,15260.800000000003]","0.6666666666666666","0.5","0","stress","","","","","","","","","","","","","","","","","","","","","","","","","","","","","","",""
"24767","","","","instructions","5","156365","0.0-3.0-0.0","198","1","2025-07-23 08:45:03","1f75c3e559b7213887762d5229550c2b","216.205.168.23","Mozilla/5.0 (X11; CrOS x86_64 14541.0.0) AppleWebKit/537.36 (KHTML, like Gecko) Chrome/137.0.0.0 Safari/537.36","WebKit","Chrome","137.0.0.0","ChromeOS","14541.0.0","https://app.prolific.com/","en-GB,en-US;q=0.9,en;q=0.8","5a1dda5480acd8000104a12b","683dba2a8a9dda3513610c04","6880a03cc4e351e2ea80b828","3","0","5a1dda5480acd8000104a12b","3","0","","","","","","","","","","","","","[{""page_index"":0,""viewing_time"":24766}]","","","","","","","","","","","","","","","","","","","","","","","","","","","","","",""
"2978","","<p>Before you start with this game please answer the following three questions yourself. </p>
  <p>Through this game, we measure several aspects of your cognitive performance, such as reaction times, multi-tasking capabilities </p>
  <p>and the ability to assess the situation you are in.</p>
  <p></p>
  <p><b>How good do you usually are in such tasks?</b></p>","50","html-slider-response","6","159350","0.0-4.0-0.0","198","1","2025-07-23 08:45:03","1f75c3e559b7213887762d5229550c2b","216.205.168.23","Mozilla/5.0 (X11; CrOS x86_64 14541.0.0) AppleWebKit/537.36 (KHTML, like Gecko) Chrome/137.0.0.0 Safari/537.36","WebKit","Chrome","137.0.0.0","ChromeOS","14541.0.0","https://app.prolific.com/","en-GB,en-US;q=0.9,en;q=0.8","5a1dda5480acd8000104a12b","683dba2a8a9dda3513610c04","6880a03cc4e351e2ea80b828","3","0","5a1dda5480acd8000104a12b","3","0","2025-07-23T08:47:43.362Z","","","","","","","","","","","PreSkillQ","","50","","","","","","","","","","","","","","","","","","","","","","","","","","","","",""
"3242","","<div style=""width:500px;"">
  <p>How well do you think you will perform in this task compared to other participants?</p>
  </div>","50","html-slider-response","7","162597","0.0-4.0-1.0","198","1","2025-07-23 08:45:03","1f75c3e559b7213887762d5229550c2b","216.205.168.23","Mozilla/5.0 (X11; CrOS x86_64 14541.0.0) AppleWebKit/537.36 (KHTML, like Gecko) Chrome/137.0.0.0 Safari/537.36","WebKit","Chrome","137.0.0.0","ChromeOS","14541.0.0","https://app.prolific.com/","en-GB,en-US;q=0.9,en;q=0.8","5a1dda5480acd8000104a12b","683dba2a8a9dda3513610c04","6880a03cc4e351e2ea80b828","3","0","5a1dda5480acd8000104a12b","3","0","2025-07-23T08:47:46.608Z","","","","","","","","","","","PrePerfQ","","50","","","","","","","","","","","","","","","","","","","","","","","","","","","","",""
"4156","","<div style=""width:500px;"">
  <p>What best describes how you currently feel?</p>
  </div>","38","html-slider-response","8","166757","0.0-4.0-2.0","198","1","2025-07-23 08:45:03","1f75c3e559b7213887762d5229550c2b","216.205.168.23","Mozilla/5.0 (X11; CrOS x86_64 14541.0.0) AppleWebKit/537.36 (KHTML, like Gecko) Chrome/137.0.0.0 Safari/537.36","WebKit","Chrome","137.0.0.0","ChromeOS","14541.0.0","https://app.prolific.com/","en-GB,en-US;q=0.9,en;q=0.8","5a1dda5480acd8000104a12b","683dba2a8a9dda3513610c04","6880a03cc4e351e2ea80b828","3","0","5a1dda5480acd8000104a12b","3","0","2025-07-23T08:47:50.768Z","","","","","","","","","","","PreMotivationQ","","50","","","","","","","","","","","","","","","","","","","","","","","","","","","","",""
"","","","","ctl-task-cpt","9","202360","0.0-5.0-0.0","198","1","2025-07-23 08:45:03","1f75c3e559b7213887762d5229550c2b","216.205.168.23","Mozilla/5.0 (X11; CrOS x86_64 14541.0.0) AppleWebKit/537.36 (KHTML, like Gecko) Chrome/137.0.0.0 Safari/537.36","WebKit","Chrome","137.0.0.0","ChromeOS","14541.0.0","https://app.prolific.com/","en-GB,en-US;q=0.9,en;q=0.8","5a1dda5480acd8000104a12b","683dba2a8a9dda3513610c04","6880a03cc4e351e2ea80b828","3","0","5a1dda5480acd8000104a12b","3","0","2025-07-23T08:48:26.372Z","","","","","","","","","","","","","","win-only","3","g1:SW,g2:NE","1","1","0","168235.1","1619.5","6623.4","32578.5","1","4","8","6","2","8","8","8","0","0.06060606060606061","1872.8","3000","1145","[""up"",""right""]","{""num_key_presses"":6,""num_perfect"":6,""num_errors"":0,""num_randdir"":0,""num_randdir_good_moves"":0,""num_whilered"":0,""num_whileblue"":0,""num_blue"":3,""num_good_moves"":6}","[292.22232142857143,293.12857142857143,3.4,292.22232142857143,293.12857142857143,105.1,292.22232142857143,293.12857142857143,207.5,292.22232142857143,293.12857142857143,317.7,292.22232142857143,293.12857142857143,421.6,292.22232142857143,293.12857142857143,526.8,292.22232142857143,293.12857142857143,626.8,292.22232142857143,293.12857142857143,727.5,413.22232142857143,198.12857142857143,828.8,453.22232142857143,172.12857142857143,929.2,453.22232142857143,171.12857142857143,1031.6,471.22232142857143,160.12857142857143,1132,471.22232142857143,160.12857142857143,1241.1,471.22232142857143,160.12857142857143,1341.7,471.22232142857143,160.12857142857143,1446.4,520.2223214285714,76.12857142857143,1547.3,525.2223214285714,61.128571428571426,1647.6,527.2223214285714,58.128571428571426,1761.7,527.2223214285714,58.128571428571426,1865.9,527.2223214285714,58.128571428571426,1967.4,527.2223214285714,58.128571428571426,2068.7,527.2223214285714,58.128571428571426,2185.1,527.2223214285714,58.128571428571426,2287.6,527.2223214285714,58.128571428571426,2392.5,527.2223214285714,58.128571428571426,2492.5,527.2223214285714,58.128571428571426,2596.9,527.2223214285714,58.128571428571426,2697.6,527.2223214285714,58.128571428571426,2801.9,527.2223214285714,58.128571428571426,2905.9,527.2223214285714,58.128571428571426,3007.1,527.2223214285714,58.128571428571426,3116.3,527.2223214285714,58.128571428571426,3217.4,527.2223214285714,58.128571428571426,3319,527.2223214285714,58.128571428571426,3421.9,527.2223214285714,58.128571428571426,3522,527.2223214285714,58.128571428571426,3622.3,527.2223214285714,58.128571428571426,3722.3,527.2223214285714,58.128571428571426,3822.4,527.2223214285714,58.128571428571426,3922.5,527.2223214285714,58.128571428571426,4023.6,527.2223214285714,58.128571428571426,4129.4,527.2223214285714,58.128571428571426,4233.7,527.2223214285714,58.128571428571426,4339.1,527.2223214285714,58.128571428571426,4442.9,527.2223214285714,58.128571428571426,4543,527.2223214285714,58.128571428571426,4654.3,527.2223214285714,58.128571428571426,4756.9,527.2223214285714,58.128571428571426,4864.1,527.2223214285714,58.128571428571426,4966.3]","[1497.5,1497.5,1000,0.1,497.5,""smooth"",""right"",""right"",""good_move"",4511,3012.2,2613.2,1498.9,398.9,""smooth"",""right"",""right"",""good_move"",7560.7,3046,2644.3,4514.7,401.7,""smooth"",""right"",""right"",""good_move"",14047.5,6486.1,2565.8,11115.5,366.3,""smooth"",""up"",""up"",""good_move"",20458,6409.6,2558.2,17592.6,307.2,""smooth"",""up"",""up"",""good_move"",25835.6,5376.9,2087.5,23391.3,356.8,""smooth"",""up"",""up"",""good_move""]","",""
"4091","","<div style=""width:500px;"">
  <p>What determined the result of this run?</p>
  </div>","94","html-slider-response","10","206456","0.0-5.0-1.0","198","1","2025-07-23 08:45:03","1f75c3e559b7213887762d5229550c2b","216.205.168.23","Mozilla/5.0 (X11; CrOS x86_64 14541.0.0) AppleWebKit/537.36 (KHTML, like Gecko) Chrome/137.0.0.0 Safari/537.36","WebKit","Chrome","137.0.0.0","ChromeOS","14541.0.0","https://app.prolific.com/","en-GB,en-US;q=0.9,en;q=0.8","5a1dda5480acd8000104a12b","683dba2a8a9dda3513610c04","6880a03cc4e351e2ea80b828","3","0","5a1dda5480acd8000104a12b","3","0","2025-07-23T08:48:30.467Z","","","","","","","","","","","AttribQ","","50","","","","","","","","","","","","","","","","","","","","","","","","","","","","",""
"3293","","<div style=""width:500px;"">
  <p>How much control did you have over the ball?</p>
  </div>","94","html-slider-response","11","209755","0.0-5.0-2.0","198","1","2025-07-23 08:45:03","1f75c3e559b7213887762d5229550c2b","216.205.168.23","Mozilla/5.0 (X11; CrOS x86_64 14541.0.0) AppleWebKit/537.36 (KHTML, like Gecko) Chrome/137.0.0.0 Safari/537.36","WebKit","Chrome","137.0.0.0","ChromeOS","14541.0.0","https://app.prolific.com/","en-GB,en-US;q=0.9,en;q=0.8","5a1dda5480acd8000104a12b","683dba2a8a9dda3513610c04","6880a03cc4e351e2ea80b828","3","0","5a1dda5480acd8000104a12b","3","0","2025-07-23T08:48:33.767Z","","","","","","","","","","","ControlQ","","50","","","","","","","","","","","","","","","","","","","","","","","","","","","","",""
"2419","","<div style=""width:500px;"">
  <p>How would you describe your current emotional state?</p>
  </div>","33","html-slider-response","12","212180","0.0-5.0-3.0","198","1","2025-07-23 08:45:03","1f75c3e559b7213887762d5229550c2b","216.205.168.23","Mozilla/5.0 (X11; CrOS x86_64 14541.0.0) AppleWebKit/537.36 (KHTML, like Gecko) Chrome/137.0.0.0 Safari/537.36","WebKit","Chrome","137.0.0.0","ChromeOS","14541.0.0","https://app.prolific.com/","en-GB,en-US;q=0.9,en;q=0.8","5a1dda5480acd8000104a12b","683dba2a8a9dda3513610c04","6880a03cc4e351e2ea80b828","3","0","5a1dda5480acd8000104a12b","3","0","2025-07-23T08:48:36.191Z","","","","","","","","","","","StressQ","","50","","","","","","","","","","","","","","","","","","","","","","","","","","","","",""
"2962","","<div style=""width:500px;"">
  <p>What best describes how you currently feel?</p>
  </div>","48","html-slider-response","13","215147","0.0-5.0-4.0","198","1","2025-07-23 08:45:03","1f75c3e559b7213887762d5229550c2b","216.205.168.23","Mozilla/5.0 (X11; CrOS x86_64 14541.0.0) AppleWebKit/537.36 (KHTML, like Gecko) Chrome/137.0.0.0 Safari/537.36","WebKit","Chrome","137.0.0.0","ChromeOS","14541.0.0","https://app.prolific.com/","en-GB,en-US;q=0.9,en;q=0.8","5a1dda5480acd8000104a12b","683dba2a8a9dda3513610c04","6880a03cc4e351e2ea80b828","3","0","5a1dda5480acd8000104a12b","3","0","2025-07-23T08:48:39.158Z","","","","","","","","","","","MotivationQ","","50","","","","","","","","","","","","","","","","","","","","","","","","","","","","",""
"","","","","ctl-task-cpt","14","251544","0.0-5.0-0.1","198","1","2025-07-23 08:45:03","1f75c3e559b7213887762d5229550c2b","216.205.168.23","Mozilla/5.0 (X11; CrOS x86_64 14541.0.0) AppleWebKit/537.36 (KHTML, like Gecko) Chrome/137.0.0.0 Safari/537.36","WebKit","Chrome","137.0.0.0","ChromeOS","14541.0.0","https://app.prolific.com/","en-GB,en-US;q=0.9,en;q=0.8","5a1dda5480acd8000104a12b","683dba2a8a9dda3513610c04","6880a03cc4e351e2ea80b828","3","0","5a1dda5480acd8000104a12b","3","0","2025-07-23T08:49:15.555Z","","","","","","","","","","","","","","win-only","1","g1:NE,g2:SW","0.9","2","0","216614.6","1306.7","6315.7","33377.7","1","4","4","6","2","4","3","11","8","0.08333333333333333","1176.8","3000","330","[""down"",""left""]","{""num_key_presses"":7,""num_perfect"":5,""num_errors"":1,""num_randdir"":1,""num_randdir_good_moves"":1,""num_whilered"":0,""num_whileblue"":0,""num_blue"":2,""num_good_moves"":6}","[294.22232142857143,297.12857142857143,0.9,294.22232142857143,297.12857142857143,108.5,294.22232142857143,297.12857142857143,211.1,294.22232142857143,297.12857142857143,315.4,223.22232142857143,280.12857142857143,415.9,50.222321428571426,489.12857142857143,517,4.222321428571426,594.1285714285714,620.6,4.222321428571426,594.1285714285714,723.2,4.222321428571426,594.1285714285714,823.8,25.222321428571426,572.1285714285714,928.8,28.222321428571426,565.1285714285714,1042.5,28.222321428571426,565.1285714285714,1149.7,28.222321428571426,565.1285714285714,1251.6,28.222321428571426,565.1285714285714,1354.6,28.222321428571426,565.1285714285714,1455.3,28.222321428571426,565.1285714285714,1558,28.222321428571426,565.1285714285714,1662.6,28.222321428571426,565.1285714285714,1778.1,28.222321428571426,565.1285714285714,1886.4,28.222321428571426,565.1285714285714,1989.8,28.222321428571426,565.1285714285714,2090.1,28.222321428571426,565.1285714285714,2194.2,28.222321428571426,565.1285714285714,2295.8,28.222321428571426,565.1285714285714,2400.1,28.222321428571426,565.1285714285714,2502.8,28.222321428571426,565.1285714285714,2621.3,28.222321428571426,565.1285714285714,2732.3,28.222321428571426,565.1285714285714,2834.4,28.222321428571426,565.1285714285714,2934.7,28.222321428571426,565.1285714285714,3037.7,28.222321428571426,565.1285714285714,3141.8,28.222321428571426,565.1285714285714,3253.2,28.222321428571426,565.1285714285714,3355.7,28.222321428571426,565.1285714285714,3469.4,28.222321428571426,565.1285714285714,3569.8,28.222321428571426,565.1285714285714,3669.9,28.222321428571426,565.1285714285714,3781.3,28.222321428571426,565.1285714285714,3884.8,28.222321428571426,565.1285714285714,3984.8,28.222321428571426,565.1285714285714,4086.3,28.222321428571426,565.1285714285714,4194.5,28.222321428571426,565.1285714285714,4298.9,28.222321428571426,565.1285714285714,4399.5,28.222321428571426,565.1285714285714,4504.6,28.222321428571426,565.1285714285714,4604.8,28.222321428571426,565.1285714285714,4704.8,28.222321428571426,565.1285714285714,4816.4,28.222321428571426,565.1285714285714,4922.3]","[1391.4,1391.5,1000,0,391.5,""smooth"",""left"",""left"",""good_move"",4283.8,2891,2517.5,1392.8,373.5,""oops"",""left"",""down"",""good_move"",8176.1,3891,3492.6,4285.2,398.3,""smooth"",""left"",""left"",""good_move"",10848.8,2671.9,2201.5,8176.9,470.4,""smooth"",""left"",""left"",""good_move"",15300.7,4451.1,2642.4,10849.7,1808.6,""smooth"",""down"",""down"",""good_move"",15382.9,81.5,2863.6,15301.4,-2782.1,""error"",""-"",""-"",""no_move"",26890.6,11506.8,2978.8,23489.7,422.2,""smooth"",""down"",""down"",""good_move""]","",""
"4794","","<div style=""width:500px;"">
  <p>What determined the result of this run?</p>
  </div>","68","html-slider-response","15","256342","0.0-5.0-1.1","198","1","2025-07-23 08:45:03","1f75c3e559b7213887762d5229550c2b","216.205.168.23","Mozilla/5.0 (X11; CrOS x86_64 14541.0.0) AppleWebKit/537.36 (KHTML, like Gecko) Chrome/137.0.0.0 Safari/537.36","WebKit","Chrome","137.0.0.0","ChromeOS","14541.0.0","https://app.prolific.com/","en-GB,en-US;q=0.9,en;q=0.8","5a1dda5480acd8000104a12b","683dba2a8a9dda3513610c04","6880a03cc4e351e2ea80b828","3","0","5a1dda5480acd8000104a12b","3","0","2025-07-23T08:49:20.353Z","","","","","","","","","","","AttribQ","","50","","","","","","","","","","","","","","","","","","","","","","","","","","","","",""
"2635","","<div style=""width:500px;"">
  <p>How much control did you have over the ball?</p>
  </div>","69","html-slider-response","16","258981","0.0-5.0-2.1","198","1","2025-07-23 08:45:03","1f75c3e559b7213887762d5229550c2b","216.205.168.23","Mozilla/5.0 (X11; CrOS x86_64 14541.0.0) AppleWebKit/537.36 (KHTML, like Gecko) Chrome/137.0.0.0 Safari/537.36","WebKit","Chrome","137.0.0.0","ChromeOS","14541.0.0","https://app.prolific.com/","en-GB,en-US;q=0.9,en;q=0.8","5a1dda5480acd8000104a12b","683dba2a8a9dda3513610c04","6880a03cc4e351e2ea80b828","3","0","5a1dda5480acd8000104a12b","3","0","2025-07-23T08:49:22.993Z","","","","","","","","","","","ControlQ","","50","","","","","","","","","","","","","","","","","","","","","","","","","","","","",""
"3885","","<div style=""width:500px;"">
  <p>How would you describe your current emotional state?</p>
  </div>","69","html-slider-response","17","262871","0.0-5.0-3.1","198","1","2025-07-23 08:45:03","1f75c3e559b7213887762d5229550c2b","216.205.168.23","Mozilla/5.0 (X11; CrOS x86_64 14541.0.0) AppleWebKit/537.36 (KHTML, like Gecko) Chrome/137.0.0.0 Safari/537.36","WebKit","Chrome","137.0.0.0","ChromeOS","14541.0.0","https://app.prolific.com/","en-GB,en-US;q=0.9,en;q=0.8","5a1dda5480acd8000104a12b","683dba2a8a9dda3513610c04","6880a03cc4e351e2ea80b828","3","0","5a1dda5480acd8000104a12b","3","0","2025-07-23T08:49:26.882Z","","","","","","","","","","","StressQ","","50","","","","","","","","","","","","","","","","","","","","","","","","","","","","",""
"2305","","<div style=""width:500px;"">
  <p>What best describes how you currently feel?</p>
  </div>","50","html-slider-response","18","265181","0.0-5.0-4.1","198","1","2025-07-23 08:45:03","1f75c3e559b7213887762d5229550c2b","216.205.168.23","Mozilla/5.0 (X11; CrOS x86_64 14541.0.0) AppleWebKit/537.36 (KHTML, like Gecko) Chrome/137.0.0.0 Safari/537.36","WebKit","Chrome","137.0.0.0","ChromeOS","14541.0.0","https://app.prolific.com/","en-GB,en-US;q=0.9,en;q=0.8","5a1dda5480acd8000104a12b","683dba2a8a9dda3513610c04","6880a03cc4e351e2ea80b828","3","0","5a1dda5480acd8000104a12b","3","0","2025-07-23T08:49:29.192Z","","","","","","","","","","","MotivationQ","","50","","","","","","","","","","","","","","","","","","","","","","","","","","","","",""
"","","","","ctl-task-cpt","19","310044","0.0-5.0-0.2","198","1","2025-07-23 08:45:03","1f75c3e559b7213887762d5229550c2b","216.205.168.23","Mozilla/5.0 (X11; CrOS x86_64 14541.0.0) AppleWebKit/537.36 (KHTML, like Gecko) Chrome/137.0.0.0 Safari/537.36","WebKit","Chrome","137.0.0.0","ChromeOS","14541.0.0","https://app.prolific.com/","en-GB,en-US;q=0.9,en;q=0.8","5a1dda5480acd8000104a12b","683dba2a8a9dda3513610c04","6880a03cc4e351e2ea80b828","3","0","5a1dda5480acd8000104a12b","3","0","2025-07-23T08:50:14.055Z","","","","","","","","","","","","","","win-only","3","g1:SW,g2:NE","0.8","3","0","266649.7","1661.1","6664","41832.8","1","4","8","6","2","8","8","19","11","0.14393939393939395","1596.1","3000","950","[""up"",""right""]","{""num_key_presses"":10,""num_perfect"":8,""num_errors"":0,""num_randdir"":2,""num_randdir_good_moves"":0,""num_whilered"":0,""num_whileblue"":0,""num_blue"":2,""num_good_moves"":8}","[293.22232142857143,296.12857142857143,0.7,293.22232142857143,296.12857142857143,113,293.22232142857143,296.12857142857143,218.1,293.22232142857143,296.12857142857143,326.4,293.22232142857143,296.12857142857143,427.8,362.22232142857143,161.12857142857143,533.8,395.22232142857143,93.12857142857143,645.4,413.22232142857143,83.12857142857143,745.4,413.22232142857143,83.12857142857143,863.7,413.22232142857143,83.12857142857143,964.8,445.22232142857143,67.12857142857143,1068.6,455.22232142857143,62.128571428571426,1171,478.22232142857143,62.128571428571426,1275.2,519.2223214285714,47.128571428571426,1397.1,520.2223214285714,46.128571428571426,1499.7,520.2223214285714,46.128571428571426,1616.5,520.2223214285714,46.128571428571426,1717.8,520.2223214285714,46.128571428571426,1820.6,520.2223214285714,46.128571428571426,1923.8,520.2223214285714,46.128571428571426,2030.8,520.2223214285714,46.128571428571426,2136.3,520.2223214285714,46.128571428571426,2236.6,520.2223214285714,46.128571428571426,2341,520.2223214285714,46.128571428571426,2451.5,520.2223214285714,46.128571428571426,2556.2,520.2223214285714,46.128571428571426,2661.1,520.2223214285714,46.128571428571426,2761.9,520.2223214285714,46.128571428571426,2869.6,520.2223214285714,46.128571428571426,2982.2,520.2223214285714,46.128571428571426,3086.9,520.2223214285714,46.128571428571426,3189.7,520.2223214285714,46.128571428571426,3293.6,520.2223214285714,46.128571428571426,3398,520.2223214285714,46.128571428571426,3515.3,520.2223214285714,46.128571428571426,3630,520.2223214285714,46.128571428571426,3731.2,520.2223214285714,46.128571428571426,3851.3,520.2223214285714,46.128571428571426,3952.3,520.2223214285714,46.128571428571426,4059.9,520.2223214285714,46.128571428571426,4160.1,520.2223214285714,46.128571428571426,4260.5,520.2223214285714,46.128571428571426,4362,520.2223214285714,46.128571428571426,4477.5,520.2223214285714,46.128571428571426,4593.3,520.2223214285714,46.128571428571426,4721.6,520.2223214285714,46.128571428571426,4823.1,520.2223214285714,46.128571428571426,4943.9]","[4625.2,4625.3,2151.5,2012,461.8,""smooth"",""right"",""right"",""good_move"",8287,3660.3,3162.6,4626.8,497.6,""smooth"",""right"",""right"",""good_move"",15168.4,6880.5,2220.4,12473.9,474.1,""smooth"",""right"",""right"",""good_move"",18095.9,2926.9,2550.4,15169.1,376.5,""smooth"",""up"",""up"",""good_move"",20899.7,2802.3,2450.7,18097.5,351.5,""smooth"",""up"",""up"",""good_move"",23905.5,3004.8,2684.8,20900.7,320,""oops"",""up"",""down"",""bad_move"",27076.4,3169.8,2788.8,23906.6,381.1,""oops"",""up"",""down"",""bad_move"",29375.2,2297.1,1892.3,27078.1,404.9,""smooth"",""up"",""up"",""good_move"",32453.3,3077.4,2687.6,29375.9,389.8,""smooth"",""up"",""up"",""good_move"",34972.3,2517.7,2153.5,32454.6,364.2,""smooth"",""up"",""up"",""good_move""]","",""
"2667","","<div style=""width:500px;"">
  <p>What determined the result of this run?</p>
  </div>","68","html-slider-response","20","312715","0.0-5.0-1.2","198","1","2025-07-23 08:45:03","1f75c3e559b7213887762d5229550c2b","216.205.168.23","Mozilla/5.0 (X11; CrOS x86_64 14541.0.0) AppleWebKit/537.36 (KHTML, like Gecko) Chrome/137.0.0.0 Safari/537.36","WebKit","Chrome","137.0.0.0","ChromeOS","14541.0.0","https://app.prolific.com/","en-GB,en-US;q=0.9,en;q=0.8","5a1dda5480acd8000104a12b","683dba2a8a9dda3513610c04","6880a03cc4e351e2ea80b828","3","0","5a1dda5480acd8000104a12b","3","0","2025-07-23T08:50:16.727Z","","","","","","","","","","","AttribQ","","50","","","","","","","","","","","","","","","","","","","","","","","","","","","","",""
"2496","","<div style=""width:500px;"">
  <p>How much control did you have over the ball?</p>
  </div>","75","html-slider-response","21","315215","0.0-5.0-2.2","198","1","2025-07-23 08:45:03","1f75c3e559b7213887762d5229550c2b","216.205.168.23","Mozilla/5.0 (X11; CrOS x86_64 14541.0.0) AppleWebKit/537.36 (KHTML, like Gecko) Chrome/137.0.0.0 Safari/537.36","WebKit","Chrome","137.0.0.0","ChromeOS","14541.0.0","https://app.prolific.com/","en-GB,en-US;q=0.9,en;q=0.8","5a1dda5480acd8000104a12b","683dba2a8a9dda3513610c04","6880a03cc4e351e2ea80b828","3","0","5a1dda5480acd8000104a12b","3","0","2025-07-23T08:50:19.226Z","","","","","","","","","","","ControlQ","","50","","","","","","","","","","","","","","","","","","","","","","","","","","","","",""
"3727","","<div style=""width:500px;"">
  <p>How would you describe your current emotional state?</p>
  </div>","29","html-slider-response","22","318945","0.0-5.0-3.2","198","1","2025-07-23 08:45:03","1f75c3e559b7213887762d5229550c2b","216.205.168.23","Mozilla/5.0 (X11; CrOS x86_64 14541.0.0) AppleWebKit/537.36 (KHTML, like Gecko) Chrome/137.0.0.0 Safari/537.36","WebKit","Chrome","137.0.0.0","ChromeOS","14541.0.0","https://app.prolific.com/","en-GB,en-US;q=0.9,en;q=0.8","5a1dda5480acd8000104a12b","683dba2a8a9dda3513610c04","6880a03cc4e351e2ea80b828","3","0","5a1dda5480acd8000104a12b","3","0","2025-07-23T08:50:22.956Z","","","","","","","","","","","StressQ","","50","","","","","","","","","","","","","","","","","","","","","","","","","","","","",""
"2325","","<div style=""width:500px;"">
  <p>What best describes how you currently feel?</p>
  </div>","50","html-slider-response","23","321274","0.0-5.0-4.2","198","1","2025-07-23 08:45:03","1f75c3e559b7213887762d5229550c2b","216.205.168.23","Mozilla/5.0 (X11; CrOS x86_64 14541.0.0) AppleWebKit/537.36 (KHTML, like Gecko) Chrome/137.0.0.0 Safari/537.36","WebKit","Chrome","137.0.0.0","ChromeOS","14541.0.0","https://app.prolific.com/","en-GB,en-US;q=0.9,en;q=0.8","5a1dda5480acd8000104a12b","683dba2a8a9dda3513610c04","6880a03cc4e351e2ea80b828","3","0","5a1dda5480acd8000104a12b","3","0","2025-07-23T08:50:25.285Z","","","","","","","","","","","MotivationQ","","50","","","","","","","","","","","","","","","","","","","","","","","","","","","","",""
"","","","","ctl-task-cpt","24","379775","0.0-5.0-0.3","198","1","2025-07-23 08:45:03","1f75c3e559b7213887762d5229550c2b","216.205.168.23","Mozilla/5.0 (X11; CrOS x86_64 14541.0.0) AppleWebKit/537.36 (KHTML, like Gecko) Chrome/137.0.0.0 Safari/537.36","WebKit","Chrome","137.0.0.0","ChromeOS","14541.0.0","https://app.prolific.com/","en-GB,en-US;q=0.9,en;q=0.8","5a1dda5480acd8000104a12b","683dba2a8a9dda3513610c04","6880a03cc4e351e2ea80b828","3","0","5a1dda5480acd8000104a12b","3","0","2025-07-23T08:51:23.787Z","","","","","","","","","","","","","","win-only","0","g1:NW,g2:SE","0.7","4","0","322742.1","1282.1","6284.1","55474.2","1","4","4","6","2","-4","-5","14","19","0.10606060606060606","1094.8","3000","-1335","[""down"",""right""]","{""num_key_presses"":13,""num_perfect"":9,""num_errors"":1,""num_randdir"":3,""num_randdir_good_moves"":1,""num_whilered"":0,""num_whileblue"":1,""num_blue"":3,""num_good_moves"":8}","[294.22232142857143,294.12857142857143,0.9,294.22232142857143,294.12857142857143,109.4,294.22232142857143,294.12857142857143,222.1,295.22232142857143,296.12857142857143,333.5,217.22232142857143,342.12857142857143,433.8,465.22232142857143,393.12857142857143,534,652.2223214285714,504.12857142857143,645.7,623.2223214285714,531.1285714285714,747.5,568.2223214285714,543.1285714285714,864.9,565.2223214285714,542.1285714285714,977.2,565.2223214285714,542.1285714285714,1083.7,565.2223214285714,542.1285714285714,1186.4,565.2223214285714,542.1285714285714,1305.4,565.2223214285714,542.1285714285714,1414.2,565.2223214285714,542.1285714285714,1522.2,565.2223214285714,542.1285714285714,1624.6,565.2223214285714,542.1285714285714,1743.8,565.2223214285714,542.1285714285714,1848.9,565.2223214285714,542.1285714285714,1951.4,565.2223214285714,542.1285714285714,2054.8,565.2223214285714,542.1285714285714,2158,565.2223214285714,542.1285714285714,2266.3,565.2223214285714,542.1285714285714,2373.3,565.2223214285714,542.1285714285714,2475.7,565.2223214285714,542.1285714285714,2578.5,565.2223214285714,542.1285714285714,2695,565.2223214285714,542.1285714285714,2801.9,565.2223214285714,542.1285714285714,2911.9,565.2223214285714,542.1285714285714,3018.1,565.2223214285714,542.1285714285714,3120.3,565.2223214285714,542.1285714285714,3241.5,565.2223214285714,542.1285714285714,3343,565.2223214285714,542.1285714285714,3447.3,565.2223214285714,542.1285714285714,3553.2,565.2223214285714,542.1285714285714,3655.5,565.2223214285714,542.1285714285714,3755.7,565.2223214285714,542.1285714285714,3879,565.2223214285714,542.1285714285714,3996.6,565.2223214285714,542.1285714285714,4108.9,565.2223214285714,542.1285714285714,4230.2,565.2223214285714,542.1285714285714,4331.8,565.2223214285714,542.1285714285714,4437.8,565.2223214285714,542.1285714285714,4538.4,565.2223214285714,542.1285714285714,4657.3,565.2223214285714,542.1285714285714,4760.9,565.2223214285714,542.1285714285714,4868.6,565.2223214285714,542.1285714285714,4973.9]","[5717.8,5717.8,3195.5,2023,499.3,""smooth"",""right"",""right"",""good_move"",9177.2,3458,2863.2,5719.3,594.7,""oops"",""right"",""up"",""bad_move"",11698.7,2520.1,1994.4,9178.8,525.6,""smooth"",""right"",""right"",""good_move"",14542.2,2842.7,1778.3,11699.6,1064.4,""oops"",""right"",""down"",""good_move"",17086,2542.1,2027.8,14544,514.3,""smooth"",""right"",""right"",""good_move"",20204.1,3116.7,2306.1,17087.4,810.6,""smooth"",""down"",""down"",""good_move"",23979.5,3774.8,3344.2,20204.8,430.6,""smooth"",""up"",""up"",""bad_move"",27477.3,3497.1,2973.2,23980.3,523.9,""while_blue"",""down"",""up"",""bad_move"",31018.7,3540.4,3050.5,27478.4,489.8,""smooth"",""up"",""up"",""bad_move"",34306.3,3286.8,2545.6,31019.5,741.2,""oops"",""down"",""left"",""bad_move"",40831.3,6523.2,2708.9,37609.3,513.1,""smooth"",""down"",""down"",""good_move"",43989,3157,2719.3,40832,437.7,""smooth"",""down"",""down"",""good_move"",46805.1,2814.9,2281.9,43990.4,532.9,""smooth"",""down"",""down"",""good_move""]","",""
"2562","","<div style=""width:500px;"">
  <p>What determined the result of this run?</p>
  </div>","36","html-slider-response","25","382343","0.0-5.0-1.3","198","1","2025-07-23 08:45:03","1f75c3e559b7213887762d5229550c2b","216.205.168.23","Mozilla/5.0 (X11; CrOS x86_64 14541.0.0) AppleWebKit/537.36 (KHTML, like Gecko) Chrome/137.0.0.0 Safari/537.36","WebKit","Chrome","137.0.0.0","ChromeOS","14541.0.0","https://app.prolific.com/","en-GB,en-US;q=0.9,en;q=0.8","5a1dda5480acd8000104a12b","683dba2a8a9dda3513610c04","6880a03cc4e351e2ea80b828","3","0","5a1dda5480acd8000104a12b","3","0","2025-07-23T08:51:26.354Z","","","","","","","","","","","AttribQ","","50","","","","","","","","","","","","","","","","","","","","","","","","","","","","",""
"3854","","<div style=""width:500px;"">
  <p>How much control did you have over the ball?</p>
  </div>","30","html-slider-response","26","386200","0.0-5.0-2.3","198","1","2025-07-23 08:45:03","1f75c3e559b7213887762d5229550c2b","216.205.168.23","Mozilla/5.0 (X11; CrOS x86_64 14541.0.0) AppleWebKit/537.36 (KHTML, like Gecko) Chrome/137.0.0.0 Safari/537.36","WebKit","Chrome","137.0.0.0","ChromeOS","14541.0.0","https://app.prolific.com/","en-GB,en-US;q=0.9,en;q=0.8","5a1dda5480acd8000104a12b","683dba2a8a9dda3513610c04","6880a03cc4e351e2ea80b828","3","0","5a1dda5480acd8000104a12b","3","0","2025-07-23T08:51:30.212Z","","","","","","","","","","","ControlQ","","50","","","","","","","","","","","","","","","","","","","","","","","","","","","","",""
"2354","","<div style=""width:500px;"">
  <p>How would you describe your current emotional state?</p>
  </div>","50","html-slider-response","27","388558","0.0-5.0-3.3","198","1","2025-07-23 08:45:03","1f75c3e559b7213887762d5229550c2b","216.205.168.23","Mozilla/5.0 (X11; CrOS x86_64 14541.0.0) AppleWebKit/537.36 (KHTML, like Gecko) Chrome/137.0.0.0 Safari/537.36","WebKit","Chrome","137.0.0.0","ChromeOS","14541.0.0","https://app.prolific.com/","en-GB,en-US;q=0.9,en;q=0.8","5a1dda5480acd8000104a12b","683dba2a8a9dda3513610c04","6880a03cc4e351e2ea80b828","3","0","5a1dda5480acd8000104a12b","3","0","2025-07-23T08:51:32.570Z","","","","","","","","","","","StressQ","","50","","","","","","","","","","","","","","","","","","","","","","","","","","","","",""
"2001","","<div style=""width:500px;"">
  <p>What best describes how you currently feel?</p>
  </div>","50","html-slider-response","28","390563","0.0-5.0-4.3","198","1","2025-07-23 08:45:03","1f75c3e559b7213887762d5229550c2b","216.205.168.23","Mozilla/5.0 (X11; CrOS x86_64 14541.0.0) AppleWebKit/537.36 (KHTML, like Gecko) Chrome/137.0.0.0 Safari/537.36","WebKit","Chrome","137.0.0.0","ChromeOS","14541.0.0","https://app.prolific.com/","en-GB,en-US;q=0.9,en;q=0.8","5a1dda5480acd8000104a12b","683dba2a8a9dda3513610c04","6880a03cc4e351e2ea80b828","3","0","5a1dda5480acd8000104a12b","3","0","2025-07-23T08:51:34.575Z","","","","","","","","","","","MotivationQ","","50","","","","","","","","","","","","","","","","","","","","","","","","","","","","",""
"","","","","ctl-task-cpt","29","433519","0.0-5.0-0.4","198","1","2025-07-23 08:45:03","1f75c3e559b7213887762d5229550c2b","216.205.168.23","Mozilla/5.0 (X11; CrOS x86_64 14541.0.0) AppleWebKit/537.36 (KHTML, like Gecko) Chrome/137.0.0.0 Safari/537.36","WebKit","Chrome","137.0.0.0","ChromeOS","14541.0.0","https://app.prolific.com/","en-GB,en-US;q=0.9,en;q=0.8","5a1dda5480acd8000104a12b","683dba2a8a9dda3513610c04","6880a03cc4e351e2ea80b828","3","0","5a1dda5480acd8000104a12b","3","0","2025-07-23T08:52:17.530Z","","","","","","","","","","","","","","win-only","1","g1:NE,g2:SW","0.6","5","0","392031.6","962.1","5968.8","39928.2","1","4","4","6","2","4","4","18","14","0.13636363636363635","1429.1","3000","985","[""down"",""left""]","{""num_key_presses"":10,""num_perfect"":6,""num_errors"":0,""num_randdir"":4,""num_randdir_good_moves"":2,""num_whilered"":0,""num_whileblue"":0,""num_blue"":1,""num_good_moves"":8}","[296.22232142857143,293.12857142857143,0.6,296.22232142857143,293.12857142857143,101.2,296.22232142857143,293.12857142857143,202.6,296.22232142857143,293.12857142857143,309.7,296.22232142857143,293.12857142857143,411.4,296.22232142857143,293.12857142857143,519.6,176.22232142857143,441.12857142857143,623.2,147.22232142857143,482.12857142857143,728.4,103.22232142857143,484.12857142857143,839.9,7.222321428571426,512.1285714285714,947.7,1.2223214285714263,523.1285714285714,1048.6,23.222321428571426,529.1285714285714,1160.1,31.222321428571426,531.1285714285714,1265.9,31.222321428571426,531.1285714285714,1366.3,31.222321428571426,531.1285714285714,1469.1,31.222321428571426,531.1285714285714,1571.6,31.222321428571426,531.1285714285714,1672.2,31.222321428571426,531.1285714285714,1774.9,31.222321428571426,531.1285714285714,1886.3,31.222321428571426,531.1285714285714,1989.9,31.222321428571426,531.1285714285714,2099.9,31.222321428571426,531.1285714285714,2204.9,31.222321428571426,531.1285714285714,2318.6,31.222321428571426,531.1285714285714,2428,31.222321428571426,531.1285714285714,2528.7,31.222321428571426,531.1285714285714,2634.2,31.222321428571426,531.1285714285714,2741.8,31.222321428571426,531.1285714285714,2862.5,31.222321428571426,531.1285714285714,2969.4,31.222321428571426,531.1285714285714,3080.5,31.222321428571426,531.1285714285714,3195.4,31.222321428571426,531.1285714285714,3305.1,31.222321428571426,531.1285714285714,3413.7,31.222321428571426,531.1285714285714,3526.4,31.222321428571426,531.1285714285714,3626.8,31.222321428571426,531.1285714285714,3729.4,31.222321428571426,531.1285714285714,3829.8,31.222321428571426,531.1285714285714,3935.2,31.222321428571426,531.1285714285714,4044.1,31.222321428571426,531.1285714285714,4148.8,31.222321428571426,531.1285714285714,4264.3,31.222321428571426,531.1285714285714,4367,31.222321428571426,531.1285714285714,4479.4,31.222321428571426,531.1285714285714,4588.8,31.222321428571426,531.1285714285714,4697.7,31.222321428571426,531.1285714285714,4798.5,31.222321428571426,531.1285714285714,4903.3]","[1405,1405,1000,0,405.1,""smooth"",""left"",""left"",""good_move"",4998.3,3592.3,3161.5,1406.1,430.7,""smooth"",""left"",""left"",""good_move"",7607.2,2608.2,2245.3,4999.2,362.7,""oops"",""left"",""up"",""bad_move"",10330.3,2721.3,2334.7,7609.1,386.5,""smooth"",""left"",""left"",""good_move"",13841.8,3510.6,3035.3,10331.2,475.3,""smooth"",""down"",""down"",""good_move"",17639.7,3796.8,2806.1,13842.9,990.7,""smooth"",""down"",""down"",""good_move"",20964.1,3323.9,2848.4,17640.4,475.4,""oops"",""down"",""up"",""bad_move"",24309.5,3344.4,1974.1,20965.1,1370.3,""oops"",""down"",""down"",""good_move"",30951.9,6641.6,2574.2,27878.4,499.3,""oops"",""down"",""down"",""good_move"",33658.2,2705.6,2168.2,30952.7,537.3,""smooth"",""down"",""down"",""good_move""]","",""
"3811","","<div style=""width:500px;"">
  <p>What determined the result of this run?</p>
  </div>","63","html-slider-response","30","437336","0.0-5.0-1.4","198","1","2025-07-23 08:45:03","1f75c3e559b7213887762d5229550c2b","216.205.168.23","Mozilla/5.0 (X11; CrOS x86_64 14541.0.0) AppleWebKit/537.36 (KHTML, like Gecko) Chrome/137.0.0.0 Safari/537.36","WebKit","Chrome","137.0.0.0","ChromeOS","14541.0.0","https://app.prolific.com/","en-GB,en-US;q=0.9,en;q=0.8","5a1dda5480acd8000104a12b","683dba2a8a9dda3513610c04","6880a03cc4e351e2ea80b828","3","0","5a1dda5480acd8000104a12b","3","0","2025-07-23T08:52:21.347Z","","","","","","","","","","","AttribQ","","50","","","","","","","","","","","","","","","","","","","","","","","","","","","","",""
"1815","","<div style=""width:500px;"">
  <p>How much control did you have over the ball?</p>
  </div>","66","html-slider-response","31","439156","0.0-5.0-2.4","198","1","2025-07-23 08:45:03","1f75c3e559b7213887762d5229550c2b","216.205.168.23","Mozilla/5.0 (X11; CrOS x86_64 14541.0.0) AppleWebKit/537.36 (KHTML, like Gecko) Chrome/137.0.0.0 Safari/537.36","WebKit","Chrome","137.0.0.0","ChromeOS","14541.0.0","https://app.prolific.com/","en-GB,en-US;q=0.9,en;q=0.8","5a1dda5480acd8000104a12b","683dba2a8a9dda3513610c04","6880a03cc4e351e2ea80b828","3","0","5a1dda5480acd8000104a12b","3","0","2025-07-23T08:52:23.168Z","","","","","","","","","","","ControlQ","","50","","","","","","","","","","","","","","","","","","","","","","","","","","","","",""
"3038","","<div style=""width:500px;"">
  <p>How would you describe your current emotional state?</p>
  </div>","43","html-slider-response","32","442200","0.0-5.0-3.4","198","1","2025-07-23 08:45:03","1f75c3e559b7213887762d5229550c2b","216.205.168.23","Mozilla/5.0 (X11; CrOS x86_64 14541.0.0) AppleWebKit/537.36 (KHTML, like Gecko) Chrome/137.0.0.0 Safari/537.36","WebKit","Chrome","137.0.0.0","ChromeOS","14541.0.0","https://app.prolific.com/","en-GB,en-US;q=0.9,en;q=0.8","5a1dda5480acd8000104a12b","683dba2a8a9dda3513610c04","6880a03cc4e351e2ea80b828","3","0","5a1dda5480acd8000104a12b","3","0","2025-07-23T08:52:26.211Z","","","","","","","","","","","StressQ","","50","","","","","","","","","","","","","","","","","","","","","","","","","","","","",""
"2157","","<div style=""width:500px;"">
  <p>What best describes how you currently feel?</p>
  </div>","39","html-slider-response","33","444363","0.0-5.0-4.4","198","1","2025-07-23 08:45:03","1f75c3e559b7213887762d5229550c2b","216.205.168.23","Mozilla/5.0 (X11; CrOS x86_64 14541.0.0) AppleWebKit/537.36 (KHTML, like Gecko) Chrome/137.0.0.0 Safari/537.36","WebKit","Chrome","137.0.0.0","ChromeOS","14541.0.0","https://app.prolific.com/","en-GB,en-US;q=0.9,en;q=0.8","5a1dda5480acd8000104a12b","683dba2a8a9dda3513610c04","6880a03cc4e351e2ea80b828","3","0","5a1dda5480acd8000104a12b","3","0","2025-07-23T08:52:28.374Z","","","","","","","","","","","MotivationQ","","50","","","","","","","","","","","","","","","","","","","","","","","","","","","","",""
"","","","","ctl-task-cpt","34","475980","0.0-5.0-0.5","198","1","2025-07-23 08:45:03","1f75c3e559b7213887762d5229550c2b","216.205.168.23","Mozilla/5.0 (X11; CrOS x86_64 14541.0.0) AppleWebKit/537.36 (KHTML, like Gecko) Chrome/137.0.0.0 Safari/537.36","WebKit","Chrome","137.0.0.0","ChromeOS","14541.0.0","https://app.prolific.com/","en-GB,en-US;q=0.9,en;q=0.8","5a1dda5480acd8000104a12b","683dba2a8a9dda3513610c04","6880a03cc4e351e2ea80b828","3","0","5a1dda5480acd8000104a12b","3","0","2025-07-23T08:52:59.991Z","","","","","","","","","","","","","","win-only","1","g1:NE,g2:SW","0.5","6","0","445832.8","1345.8","6353.4","28568.9","1","4","8","6","2","8","8","26","18","0.19696969696969696","1283.2","3000","2400","[""down"",""left""]","{""num_key_presses"":6,""num_perfect"":4,""num_errors"":0,""num_randdir"":2,""num_randdir_good_moves"":2,""num_whilered"":0,""num_whileblue"":0,""num_blue"":0,""num_good_moves"":6}","[288.22232142857143,300.12857142857143,0.7,288.22232142857143,300.12857142857143,109.2,288.22232142857143,300.12857142857143,218.8,288.22232142857143,300.12857142857143,330.8,246.22232142857143,309.12857142857143,447.7,157.22232142857143,534.1285714285714,561.1,157.22232142857143,534.1285714285714,676.7,157.22232142857143,534.1285714285714,793.3,75.22232142857143,569.1285714285714,913.4,70.22232142857143,570.1285714285714,1013.5,58.222321428571426,572.1285714285714,1131.9,58.222321428571426,572.1285714285714,1250.6,58.222321428571426,572.1285714285714,1356.5,58.222321428571426,572.1285714285714,1471,58.222321428571426,572.1285714285714,1589.6,58.222321428571426,572.1285714285714,1708.8,58.222321428571426,572.1285714285714,1823.7,58.222321428571426,572.1285714285714,1943.9,58.222321428571426,572.1285714285714,2064.6,58.222321428571426,572.1285714285714,2184.4,58.222321428571426,572.1285714285714,2304.6,58.222321428571426,572.1285714285714,2421,58.222321428571426,572.1285714285714,2541.3,58.222321428571426,572.1285714285714,2659.9,58.222321428571426,572.1285714285714,2775,58.222321428571426,572.1285714285714,2896.6,58.222321428571426,572.1285714285714,3013.9,58.222321428571426,572.1285714285714,3133.8,58.222321428571426,572.1285714285714,3253.1,58.222321428571426,572.1285714285714,3366.2,58.222321428571426,572.1285714285714,3484.7,58.222321428571426,572.1285714285714,3605.2,58.222321428571426,572.1285714285714,3719.1,58.222321428571426,572.1285714285714,3837.7,58.222321428571426,572.1285714285714,3951.5,58.222321428571426,572.1285714285714,4071.9,58.222321428571426,572.1285714285714,4190.1,58.222321428571426,572.1285714285714,4303.6,58.222321428571426,572.1285714285714,4422.3,58.222321428571426,572.1285714285714,4540.1,58.222321428571426,572.1285714285714,4654.7,58.222321428571426,572.1285714285714,4773.2,58.222321428571426,572.1285714285714,4891.1]","[1478.7,1478.7,1000,0,478.7,""oops"",""left"",""left"",""good_move"",5912.6,4432.8,1986.2,1479.8,2446.6,""smooth"",""left"",""left"",""good_move"",10379.1,4465.9,2652.5,5913.2,1813.5,""smooth"",""left"",""left"",""good_move"",15545.6,5165.8,2732.3,10379.9,2433.5,""smooth"",""down"",""down"",""good_move"",18827,3280.6,2691,15546.5,589.6,""oops"",""down"",""down"",""good_move"",21569.7,2741.9,2193.3,18827.8,548.7,""smooth"",""down"",""down"",""good_move""]","",""
"2944","","<div style=""width:500px;"">
  <p>What determined the result of this run?</p>
  </div>","81","html-slider-response","35","478931","0.0-5.0-1.5","198","1","2025-07-23 08:45:03","1f75c3e559b7213887762d5229550c2b","216.205.168.23","Mozilla/5.0 (X11; CrOS x86_64 14541.0.0) AppleWebKit/537.36 (KHTML, like Gecko) Chrome/137.0.0.0 Safari/537.36","WebKit","Chrome","137.0.0.0","ChromeOS","14541.0.0","https://app.prolific.com/","en-GB,en-US;q=0.9,en;q=0.8","5a1dda5480acd8000104a12b","683dba2a8a9dda3513610c04","6880a03cc4e351e2ea80b828","3","0","5a1dda5480acd8000104a12b","3","0","2025-07-23T08:53:02.942Z","","","","","","","","","","","AttribQ","","50","","","","","","","","","","","","","","","","","","","","","","","","","","","","",""
"2793","","<div style=""width:500px;"">
  <p>How much control did you have over the ball?</p>
  </div>","82","html-slider-response","36","481732","0.0-5.0-2.5","198","1","2025-07-23 08:45:03","1f75c3e559b7213887762d5229550c2b","216.205.168.23","Mozilla/5.0 (X11; CrOS x86_64 14541.0.0) AppleWebKit/537.36 (KHTML, like Gecko) Chrome/137.0.0.0 Safari/537.36","WebKit","Chrome","137.0.0.0","ChromeOS","14541.0.0","https://app.prolific.com/","en-GB,en-US;q=0.9,en;q=0.8","5a1dda5480acd8000104a12b","683dba2a8a9dda3513610c04","6880a03cc4e351e2ea80b828","3","0","5a1dda5480acd8000104a12b","3","0","2025-07-23T08:53:05.743Z","","","","","","","","","","","ControlQ","","50","","","","","","","","","","","","","","","","","","","","","","","","","","","","",""
"2174","","<div style=""width:500px;"">
  <p>How would you describe your current emotional state?</p>
  </div>","24","html-slider-response","37","483913","0.0-5.0-3.5","198","1","2025-07-23 08:45:03","1f75c3e559b7213887762d5229550c2b","216.205.168.23","Mozilla/5.0 (X11; CrOS x86_64 14541.0.0) AppleWebKit/537.36 (KHTML, like Gecko) Chrome/137.0.0.0 Safari/537.36","WebKit","Chrome","137.0.0.0","ChromeOS","14541.0.0","https://app.prolific.com/","en-GB,en-US;q=0.9,en;q=0.8","5a1dda5480acd8000104a12b","683dba2a8a9dda3513610c04","6880a03cc4e351e2ea80b828","3","0","5a1dda5480acd8000104a12b","3","0","2025-07-23T08:53:07.924Z","","","","","","","","","","","StressQ","","50","","","","","","","","","","","","","","","","","","","","","","","","","","","","",""
"2685","","<div style=""width:500px;"">
  <p>What best describes how you currently feel?</p>
  </div>","36","html-slider-response","38","486606","0.0-5.0-4.5","198","1","2025-07-23 08:45:03","1f75c3e559b7213887762d5229550c2b","216.205.168.23","Mozilla/5.0 (X11; CrOS x86_64 14541.0.0) AppleWebKit/537.36 (KHTML, like Gecko) Chrome/137.0.0.0 Safari/537.36","WebKit","Chrome","137.0.0.0","ChromeOS","14541.0.0","https://app.prolific.com/","en-GB,en-US;q=0.9,en;q=0.8","5a1dda5480acd8000104a12b","683dba2a8a9dda3513610c04","6880a03cc4e351e2ea80b828","3","0","5a1dda5480acd8000104a12b","3","0","2025-07-23T08:53:10.617Z","","","","","","","","","","","MotivationQ","","50","","","","","","","","","","","","","","","","","","","","","","","","","","","","",""
"","","","","ctl-task-cpt","39","629538","0.0-5.0-0.6","198","1","2025-07-23 08:45:03","1f75c3e559b7213887762d5229550c2b","216.205.168.23","Mozilla/5.0 (X11; CrOS x86_64 14541.0.0) AppleWebKit/537.36 (KHTML, like Gecko) Chrome/137.0.0.0 Safari/537.36","WebKit","Chrome","137.0.0.0","ChromeOS","14541.0.0","https://app.prolific.com/","en-GB,en-US;q=0.9,en;q=0.8","5a1dda5480acd8000104a12b","683dba2a8a9dda3513610c04","6880a03cc4e351e2ea80b828","3","0","5a1dda5480acd8000104a12b","3","0","2025-07-23T08:55:33.550Z","","","","","","","","","","","","","","win-only","3","g1:SW,g2:NE","0.4","7","0","488075.3","1768.1","6773.7","139847.4","1","4","8","6","2","8","8","34","26","0.25757575757575757","1122.6","3000","1940","[""up"",""right""]","{""num_key_presses"":21,""num_perfect"":9,""num_errors"":0,""num_randdir"":12,""num_randdir_good_moves"":4,""num_whilered"":0,""num_whileblue"":0,""num_blue"":2,""num_good_moves"":13}","[296.22232142857143,294.12857142857143,0.5,296.22232142857143,294.12857142857143,121.2,296.22232142857143,294.12857142857143,240.2,296.22232142857143,294.12857142857143,358.1,270.22232142857143,299.12857142857143,478.5,629.2223214285714,148.12857142857143,601.1,631.2223214285714,98.12857142857143,726.4,593.2223214285714,89.12857142857143,849.8,576.2223214285714,87.12857142857143,970.8,575.2223214285714,87.12857142857143,1092.8,575.2223214285714,87.12857142857143,1218.8,575.2223214285714,87.12857142857143,1339.1,575.2223214285714,87.12857142857143,1462.2,575.2223214285714,87.12857142857143,1581.2,575.2223214285714,87.12857142857143,1703.9,575.2223214285714,87.12857142857143,1823.9,575.2223214285714,87.12857142857143,1945.6,575.2223214285714,87.12857142857143,2068.8,575.2223214285714,87.12857142857143,2192.1,575.2223214285714,87.12857142857143,2312.6,575.2223214285714,87.12857142857143,2435,575.2223214285714,87.12857142857143,2554.7,575.2223214285714,87.12857142857143,2679.4,575.2223214285714,87.12857142857143,2796,575.2223214285714,87.12857142857143,2921,575.2223214285714,87.12857142857143,3045.3,575.2223214285714,87.12857142857143,3170.6,575.2223214285714,87.12857142857143,3293,575.2223214285714,87.12857142857143,3414.8,575.2223214285714,87.12857142857143,3536.8,575.2223214285714,87.12857142857143,3662.2,575.2223214285714,87.12857142857143,3783.2,575.2223214285714,87.12857142857143,3906.1,575.2223214285714,87.12857142857143,4028.2,575.2223214285714,87.12857142857143,4156.1,575.2223214285714,87.12857142857143,4280.3,575.2223214285714,87.12857142857143,4400,575.2223214285714,87.12857142857143,4523.1,575.2223214285714,87.12857142857143,4643.3,575.2223214285714,87.12857142857143,4762.8,575.2223214285714,87.12857142857143,4886.7]","[1921.7,1921.7,1000,0,921.7,""smooth"",""right"",""right"",""good_move"",5314.7,3391.7,2870.3,1923,521.4,""oops"",""right"",""left"",""bad_move"",13267.9,7952.4,3270.9,5315.5,4681.5,""smooth"",""right"",""right"",""good_move"",16096.4,2828,2242.6,13268.5,585.4,""oops"",""right"",""down"",""bad_move"",18816.9,2719.8,2168.3,16097.1,551.5,""oops"",""right"",""right"",""good_move"",22143,3325.5,2739,18817.5,586.6,""smooth"",""right"",""right"",""good_move"",25069.2,2925.5,2467.4,22143.7,458.1,""oops"",""up"",""down"",""bad_move"",27999.4,2929.6,2493.8,25069.9,435.8,""oops"",""up"",""up"",""good_move"",35841.5,7841.2,2039.3,28000.3,5802,""smooth"",""up"",""up"",""good_move"",43640.2,7797.8,2551.6,35842.4,5246.2,""oops"",""up"",""down"",""bad_move"",46264.2,2623.5,2084.6,43640.7,538.9,""smooth"",""up"",""up"",""good_move"",54217.4,7952.7,3052.7,46264.9,4899.9,""smooth"",""up"",""up"",""good_move"",62949.6,8731.2,1497.6,54218.4,7233.6,""smooth"",""up"",""up"",""good_move"",71453.4,8503.2,1784.6,62950.2,6718.6,""oops"",""up"",""left"",""bad_move"",79979.7,8525.6,2539.8,71454.1,5985.8,""oops"",""up"",""down"",""bad_move"",83489.8,3509.5,2976.1,79980.3,533.4,""smooth"",""up"",""up"",""good_move"",92467.1,8976.9,1623,83490.4,7353.8,""oops"",""up"",""down"",""bad_move"",95246.1,2778.4,2164.4,92467.7,614,""oops"",""up"",""up"",""good_move"",111347.9,16101.4,3385.5,107438.2,524.3,""oops"",""up"",""down"",""bad_move"",115092.6,3744,3106.1,111348.6,637.9,""oops"",""up"",""up"",""good_move"",131035.5,15942.2,3303.5,127149.5,582.5,""smooth"",""up"",""right"",""good_move""]","",""
"3233","","<div style=""width:500px;"">
  <p>What determined the result of this run?</p>
  </div>","43","html-slider-response","40","632781","0.0-5.0-1.6","198","1","2025-07-23 08:45:03","1f75c3e559b7213887762d5229550c2b","216.205.168.23","Mozilla/5.0 (X11; CrOS x86_64 14541.0.0) AppleWebKit/537.36 (KHTML, like Gecko) Chrome/137.0.0.0 Safari/537.36","WebKit","Chrome","137.0.0.0","ChromeOS","14541.0.0","https://app.prolific.com/","en-GB,en-US;q=0.9,en;q=0.8","5a1dda5480acd8000104a12b","683dba2a8a9dda3513610c04","6880a03cc4e351e2ea80b828","3","0","5a1dda5480acd8000104a12b","3","0","2025-07-23T08:55:36.793Z","","","","","","","","","","","AttribQ","","50","","","","","","","","","","","","","","","","","","","","","","","","","","","","",""
"2642","","<div style=""width:500px;"">
  <p>How much control did you have over the ball?</p>
  </div>","37","html-slider-response","41","635428","0.0-5.0-2.6","198","1","2025-07-23 08:45:03","1f75c3e559b7213887762d5229550c2b","216.205.168.23","Mozilla/5.0 (X11; CrOS x86_64 14541.0.0) AppleWebKit/537.36 (KHTML, like Gecko) Chrome/137.0.0.0 Safari/537.36","WebKit","Chrome","137.0.0.0","ChromeOS","14541.0.0","https://app.prolific.com/","en-GB,en-US;q=0.9,en;q=0.8","5a1dda5480acd8000104a12b","683dba2a8a9dda3513610c04","6880a03cc4e351e2ea80b828","3","0","5a1dda5480acd8000104a12b","3","0","2025-07-23T08:55:39.439Z","","","","","","","","","","","ControlQ","","50","","","","","","","","","","","","","","","","","","","","","","","","","","","","",""
"2833","","<div style=""width:500px;"">
  <p>How would you describe your current emotional state?</p>
  </div>","41","html-slider-response","42","638265","0.0-5.0-3.6","198","1","2025-07-23 08:45:03","1f75c3e559b7213887762d5229550c2b","216.205.168.23","Mozilla/5.0 (X11; CrOS x86_64 14541.0.0) AppleWebKit/537.36 (KHTML, like Gecko) Chrome/137.0.0.0 Safari/537.36","WebKit","Chrome","137.0.0.0","ChromeOS","14541.0.0","https://app.prolific.com/","en-GB,en-US;q=0.9,en;q=0.8","5a1dda5480acd8000104a12b","683dba2a8a9dda3513610c04","6880a03cc4e351e2ea80b828","3","0","5a1dda5480acd8000104a12b","3","0","2025-07-23T08:55:42.276Z","","","","","","","","","","","StressQ","","50","","","","","","","","","","","","","","","","","","","","","","","","","","","","",""
"2948","","<div style=""width:500px;"">
  <p>What best describes how you currently feel?</p>
  </div>","31","html-slider-response","43","641216","0.0-5.0-4.6","198","1","2025-07-23 08:45:03","1f75c3e559b7213887762d5229550c2b","216.205.168.23","Mozilla/5.0 (X11; CrOS x86_64 14541.0.0) AppleWebKit/537.36 (KHTML, like Gecko) Chrome/137.0.0.0 Safari/537.36","WebKit","Chrome","137.0.0.0","ChromeOS","14541.0.0","https://app.prolific.com/","en-GB,en-US;q=0.9,en;q=0.8","5a1dda5480acd8000104a12b","683dba2a8a9dda3513610c04","6880a03cc4e351e2ea80b828","3","0","5a1dda5480acd8000104a12b","3","0","2025-07-23T08:55:45.228Z","","","","","","","","","","","MotivationQ","","50","","","","","","","","","","","","","","","","","","","","","","","","","","","","",""
"","","","","ctl-task-cpt","44","679775","0.0-5.0-0.7","198","1","2025-07-23 08:45:03","1f75c3e559b7213887762d5229550c2b","216.205.168.23","Mozilla/5.0 (X11; CrOS x86_64 14541.0.0) AppleWebKit/537.36 (KHTML, like Gecko) Chrome/137.0.0.0 Safari/537.36","WebKit","Chrome","137.0.0.0","ChromeOS","14541.0.0","https://app.prolific.com/","en-GB,en-US;q=0.9,en;q=0.8","5a1dda5480acd8000104a12b","683dba2a8a9dda3513610c04","6880a03cc4e351e2ea80b828","3","0","5a1dda5480acd8000104a12b","3","0","2025-07-23T08:56:23.786Z","","","","","","","","","","","","","","win-only","1","g1:NE,g2:SW","0.3","8","0","642684.4","1769","6772.3","35524.6","1","4","4","6","2","4","4","38","34","0.2878787878787879","1051.3","3000","1895","[""down"",""left""]","{""num_key_presses"":8,""num_perfect"":2,""num_errors"":0,""num_randdir"":6,""num_randdir_good_moves"":5,""num_whilered"":0,""num_whileblue"":0,""num_blue"":1,""num_good_moves"":7}","[296.22232142857143,302.12857142857143,0.4,296.22232142857143,302.12857142857143,114.3,296.22232142857143,302.12857142857143,218,296.22232142857143,302.12857142857143,351.2,146.22232142857143,394.12857142857143,458.3,11.222321428571426,493.12857142857143,562.6,-16.777678571428574,567.1285714285714,671.9,-9.777678571428574,571.1285714285714,774.7,13.222321428571426,571.1285714285714,878,14.222321428571426,570.1285714285714,1017.7,14.222321428571426,570.1285714285714,1139,14.222321428571426,570.1285714285714,1253.7,14.222321428571426,570.1285714285714,1366.1,14.222321428571426,570.1285714285714,1467.4,14.222321428571426,570.1285714285714,1575.1,14.222321428571426,570.1285714285714,1676.7,14.222321428571426,570.1285714285714,1777.4,14.222321428571426,570.1285714285714,1878.9,14.222321428571426,570.1285714285714,1992.7,14.222321428571426,570.1285714285714,2099.2,14.222321428571426,570.1285714285714,2207.3,14.222321428571426,570.1285714285714,2310.9,14.222321428571426,570.1285714285714,2416.1,14.222321428571426,570.1285714285714,2534.8,14.222321428571426,570.1285714285714,2650.8,14.222321428571426,570.1285714285714,2756.1,14.222321428571426,570.1285714285714,2859.6,14.222321428571426,570.1285714285714,2959.7,14.222321428571426,570.1285714285714,3068.4,14.222321428571426,570.1285714285714,3178.4,14.222321428571426,570.1285714285714,3304.1,14.222321428571426,570.1285714285714,3410.2,14.222321428571426,570.1285714285714,3519.5,14.222321428571426,570.1285714285714,3633.3,14.222321428571426,570.1285714285714,3742.6,14.222321428571426,570.1285714285714,3847.9,14.222321428571426,570.1285714285714,3955.1,14.222321428571426,570.1285714285714,4066.8,14.222321428571426,570.1285714285714,4170.8,14.222321428571426,570.1285714285714,4281.5,14.222321428571426,570.1285714285714,4394.8,14.222321428571426,570.1285714285714,4496.9,14.222321428571426,570.1285714285714,4618.8,14.222321428571426,570.1285714285714,4722.2,14.222321428571426,570.1285714285714,4830.2,14.222321428571426,570.1285714285714,4932.9]","[4922.2,4922.2,2463.2,2030.7,428.3,""oops"",""left"",""down"",""good_move"",7769,2845.6,2345.2,4923.5,500.3,""smooth"",""left"",""left"",""good_move"",11656,3886,2106.9,7770,1779.1,""oops"",""left"",""right"",""bad_move"",14425.2,2768.2,2392.5,11657.1,375.7,""smooth"",""left"",""left"",""good_move"",18081,3655.2,3199.3,14425.9,455.9,""oops"",""left"",""down"",""good_move"",21627.9,3546.1,2748.7,18081.8,797.5,""oops"",""left"",""left"",""good_move"",24920,3291.2,2678.9,21628.8,612.3,""oops"",""left"",""left"",""good_move"",28422.8,3502.1,2927.3,24920.7,574.8,""oops"",""up"",""down"",""good_move""]","",""
"4034","","<div style=""width:500px;"">
  <p>What determined the result of this run?</p>
  </div>","64","html-slider-response","45","683812","0.0-5.0-1.7","198","1","2025-07-23 08:45:03","1f75c3e559b7213887762d5229550c2b","216.205.168.23","Mozilla/5.0 (X11; CrOS x86_64 14541.0.0) AppleWebKit/537.36 (KHTML, like Gecko) Chrome/137.0.0.0 Safari/537.36","WebKit","Chrome","137.0.0.0","ChromeOS","14541.0.0","https://app.prolific.com/","en-GB,en-US;q=0.9,en;q=0.8","5a1dda5480acd8000104a12b","683dba2a8a9dda3513610c04","6880a03cc4e351e2ea80b828","3","0","5a1dda5480acd8000104a12b","3","0","2025-07-23T08:56:27.824Z","","","","","","","","","","","AttribQ","","50","","","","","","","","","","","","","","","","","","","","","","","","","","","","",""
"2385","","<div style=""width:500px;"">
  <p>How much control did you have over the ball?</p>
  </div>","70","html-slider-response","46","686202","0.0-5.0-2.7","198","1","2025-07-23 08:45:03","1f75c3e559b7213887762d5229550c2b","216.205.168.23","Mozilla/5.0 (X11; CrOS x86_64 14541.0.0) AppleWebKit/537.36 (KHTML, like Gecko) Chrome/137.0.0.0 Safari/537.36","WebKit","Chrome","137.0.0.0","ChromeOS","14541.0.0","https://app.prolific.com/","en-GB,en-US;q=0.9,en;q=0.8","5a1dda5480acd8000104a12b","683dba2a8a9dda3513610c04","6880a03cc4e351e2ea80b828","3","0","5a1dda5480acd8000104a12b","3","0","2025-07-23T08:56:30.213Z","","","","","","","","","","","ControlQ","","50","","","","","","","","","","","","","","","","","","","","","","","","","","","","",""
"2621","","<div style=""width:500px;"">
  <p>How would you describe your current emotional state?</p>
  </div>","34","html-slider-response","47","688827","0.0-5.0-3.7","198","1","2025-07-23 08:45:03","1f75c3e559b7213887762d5229550c2b","216.205.168.23","Mozilla/5.0 (X11; CrOS x86_64 14541.0.0) AppleWebKit/537.36 (KHTML, like Gecko) Chrome/137.0.0.0 Safari/537.36","WebKit","Chrome","137.0.0.0","ChromeOS","14541.0.0","https://app.prolific.com/","en-GB,en-US;q=0.9,en;q=0.8","5a1dda5480acd8000104a12b","683dba2a8a9dda3513610c04","6880a03cc4e351e2ea80b828","3","0","5a1dda5480acd8000104a12b","3","0","2025-07-23T08:56:32.839Z","","","","","","","","","","","StressQ","","50","","","","","","","","","","","","","","","","","","","","","","","","","","","","",""
"2277","","<div style=""width:500px;"">
  <p>What best describes how you currently feel?</p>
  </div>","32","html-slider-response","48","691109","0.0-5.0-4.7","198","1","2025-07-23 08:45:03","1f75c3e559b7213887762d5229550c2b","216.205.168.23","Mozilla/5.0 (X11; CrOS x86_64 14541.0.0) AppleWebKit/537.36 (KHTML, like Gecko) Chrome/137.0.0.0 Safari/537.36","WebKit","Chrome","137.0.0.0","ChromeOS","14541.0.0","https://app.prolific.com/","en-GB,en-US;q=0.9,en;q=0.8","5a1dda5480acd8000104a12b","683dba2a8a9dda3513610c04","6880a03cc4e351e2ea80b828","3","0","5a1dda5480acd8000104a12b","3","0","2025-07-23T08:56:35.120Z","","","","","","","","","","","MotivationQ","","50","","","","","","","","","","","","","","","","","","","","","","","","","","","","",""
"","","","","ctl-task-cpt","49","772888","0.0-5.0-0.8","198","1","2025-07-23 08:45:03","1f75c3e559b7213887762d5229550c2b","216.205.168.23","Mozilla/5.0 (X11; CrOS x86_64 14541.0.0) AppleWebKit/537.36 (KHTML, like Gecko) Chrome/137.0.0.0 Safari/537.36","WebKit","Chrome","137.0.0.0","ChromeOS","14541.0.0","https://app.prolific.com/","en-GB,en-US;q=0.9,en;q=0.8","5a1dda5480acd8000104a12b","683dba2a8a9dda3513610c04","6880a03cc4e351e2ea80b828","3","0","5a1dda5480acd8000104a12b","3","0","2025-07-23T08:57:56.899Z","","","","","","","","","","","","","","win-only","1","g1:NE,g2:SW","0.2","9","0","692582.1","1915.5","6918.8","78747.2","1","4","8","6","2","-8","-8","30","38","0.22727272727272727","946.1","3000","-700","[""down"",""left""]","{""num_key_presses"":16,""num_perfect"":3,""num_errors"":0,""num_randdir"":13,""num_randdir_good_moves"":4,""num_whilered"":0,""num_whileblue"":0,""num_blue"":2,""num_good_moves"":7}","[293.22232142857143,293.12857142857143,0.8,293.22232142857143,293.12857142857143,109.1,293.22232142857143,293.12857142857143,226.3,302.22232142857143,288.12857142857143,351.6,93.22232142857143,437.12857142857143,472.7,2.2223214285714263,511.12857142857143,604.1,9.222321428571426,566.1285714285714,732.4,15.222321428571426,569.1285714285714,853.7,15.222321428571426,569.1285714285714,988.9,15.222321428571426,569.1285714285714,1112.3,15.222321428571426,569.1285714285714,1241.8,15.222321428571426,569.1285714285714,1365.5,15.222321428571426,569.1285714285714,1487.9,15.222321428571426,569.1285714285714,1614.3,15.222321428571426,569.1285714285714,1735.4,15.222321428571426,569.1285714285714,1862.3,15.222321428571426,569.1285714285714,1992.9,15.222321428571426,569.1285714285714,2120.8,15.222321428571426,569.1285714285714,2250,15.222321428571426,569.1285714285714,2372.7,15.222321428571426,569.1285714285714,2503.3,15.222321428571426,569.1285714285714,2629,15.222321428571426,569.1285714285714,2759.6,15.222321428571426,569.1285714285714,2892.3,15.222321428571426,569.1285714285714,3015.5,15.222321428571426,569.1285714285714,3117.1,15.222321428571426,569.1285714285714,3246.9,15.222321428571426,569.1285714285714,3370.5,15.222321428571426,569.1285714285714,3499.3,15.222321428571426,569.1285714285714,3622.4,15.222321428571426,569.1285714285714,3751,15.222321428571426,569.1285714285714,3876,15.222321428571426,569.1285714285714,4003,15.222321428571426,569.1285714285714,4104.5,15.222321428571426,569.1285714285714,4232.1,15.222321428571426,569.1285714285714,4363,15.222321428571426,569.1285714285714,4494.7,15.222321428571426,569.1285714285714,4620.9,15.222321428571426,569.1285714285714,4749.2,15.222321428571426,569.1285714285714,4872]","[6017.3,6017.3,2906.6,2056.1,1054.6,""oops"",""left"",""up"",""bad_move"",9857,3838.5,2829.5,6018.7,1008.9,""oops"",""left"",""left"",""good_move"",13234.2,3375.9,2723,9858.3,652.9,""oops"",""left"",""down"",""good_move"",18200.4,4965,2645.5,13235.4,2319.5,""smooth"",""left"",""left"",""good_move"",21853.6,3652.4,2240.9,18201.2,1411.6,""smooth"",""left"",""left"",""good_move"",26242.3,4388,1877.1,21854.4,2510.8,""oops"",""down"",""right"",""bad_move"",29270.1,3026.7,2249.4,26243.4,777.3,""oops"",""down"",""left"",""good_move"",34067.5,4796.7,2530.8,29271,2265.8,""oops"",""down"",""right"",""bad_move"",37286.8,3218.5,2643.7,34068.3,574.8,""oops"",""down"",""right"",""bad_move"",40819.5,3531.9,3042.4,37287.6,489.5,""oops"",""down"",""up"",""bad_move"",46615.6,5795.1,2926.7,40820.5,2868.4,""oops"",""down"",""left"",""good_move"",50505.2,3889.1,3405.4,46616.1,483.7,""oops"",""down"",""right"",""bad_move"",53639.5,3133.7,2630.5,50505.9,503.2,""oops"",""down"",""right"",""bad_move"",57313.6,3672.5,2691.3,53641.1,981.2,""oops"",""down"",""up"",""bad_move"",60515.3,3200.8,2539.3,57314.5,661.5,""oops"",""left"",""right"",""bad_move"",64339.2,3822.9,2989.3,60516.3,833.6,""smooth"",""left"",""left"",""good_move""]","",""
"3479","","<div style=""width:500px;"">
  <p>What determined the result of this run?</p>
  </div>","27","html-slider-response","50","776370","0.0-5.0-1.8","198","1","2025-07-23 08:45:03","1f75c3e559b7213887762d5229550c2b","216.205.168.23","Mozilla/5.0 (X11; CrOS x86_64 14541.0.0) AppleWebKit/537.36 (KHTML, like Gecko) Chrome/137.0.0.0 Safari/537.36","WebKit","Chrome","137.0.0.0","ChromeOS","14541.0.0","https://app.prolific.com/","en-GB,en-US;q=0.9,en;q=0.8","5a1dda5480acd8000104a12b","683dba2a8a9dda3513610c04","6880a03cc4e351e2ea80b828","3","0","5a1dda5480acd8000104a12b","3","0","2025-07-23T08:58:00.381Z","","","","","","","","","","","AttribQ","","50","","","","","","","","","","","","","","","","","","","","","","","","","","","","",""
"1860","","<div style=""width:500px;"">
  <p>How much control did you have over the ball?</p>
  </div>","17","html-slider-response","51","778233","0.0-5.0-2.8","198","1","2025-07-23 08:45:03","1f75c3e559b7213887762d5229550c2b","216.205.168.23","Mozilla/5.0 (X11; CrOS x86_64 14541.0.0) AppleWebKit/537.36 (KHTML, like Gecko) Chrome/137.0.0.0 Safari/537.36","WebKit","Chrome","137.0.0.0","ChromeOS","14541.0.0","https://app.prolific.com/","en-GB,en-US;q=0.9,en;q=0.8","5a1dda5480acd8000104a12b","683dba2a8a9dda3513610c04","6880a03cc4e351e2ea80b828","3","0","5a1dda5480acd8000104a12b","3","0","2025-07-23T08:58:02.245Z","","","","","","","","","","","ControlQ","","50","","","","","","","","","","","","","","","","","","","","","","","","","","","","",""
"3821","","<div style=""width:500px;"">
  <p>How would you describe your current emotional state?</p>
  </div>","41","html-slider-response","52","782058","0.0-5.0-3.8","198","1","2025-07-23 08:45:03","1f75c3e559b7213887762d5229550c2b","216.205.168.23","Mozilla/5.0 (X11; CrOS x86_64 14541.0.0) AppleWebKit/537.36 (KHTML, like Gecko) Chrome/137.0.0.0 Safari/537.36","WebKit","Chrome","137.0.0.0","ChromeOS","14541.0.0","https://app.prolific.com/","en-GB,en-US;q=0.9,en;q=0.8","5a1dda5480acd8000104a12b","683dba2a8a9dda3513610c04","6880a03cc4e351e2ea80b828","3","0","5a1dda5480acd8000104a12b","3","0","2025-07-23T08:58:06.069Z","","","","","","","","","","","StressQ","","50","","","","","","","","","","","","","","","","","","","","","","","","","","","","",""
"2032","","<div style=""width:500px;"">
  <p>What best describes how you currently feel?</p>
  </div>","33","html-slider-response","53","784094","0.0-5.0-4.8","198","1","2025-07-23 08:45:03","1f75c3e559b7213887762d5229550c2b","216.205.168.23","Mozilla/5.0 (X11; CrOS x86_64 14541.0.0) AppleWebKit/537.36 (KHTML, like Gecko) Chrome/137.0.0.0 Safari/537.36","WebKit","Chrome","137.0.0.0","ChromeOS","14541.0.0","https://app.prolific.com/","en-GB,en-US;q=0.9,en;q=0.8","5a1dda5480acd8000104a12b","683dba2a8a9dda3513610c04","6880a03cc4e351e2ea80b828","3","0","5a1dda5480acd8000104a12b","3","0","2025-07-23T08:58:08.105Z","","","","","","","","","","","MotivationQ","","50","","","","","","","","","","","","","","","","","","","","","","","","","","","","",""
"","","","","ctl-task-cpt","54","830721","0.0-5.0-0.9","198","1","2025-07-23 08:45:03","1f75c3e559b7213887762d5229550c2b","216.205.168.23","Mozilla/5.0 (X11; CrOS x86_64 14541.0.0) AppleWebKit/537.36 (KHTML, like Gecko) Chrome/137.0.0.0 Safari/537.36","WebKit","Chrome","137.0.0.0","ChromeOS","14541.0.0","https://app.prolific.com/","en-GB,en-US;q=0.9,en;q=0.8","5a1dda5480acd8000104a12b","683dba2a8a9dda3513610c04","6880a03cc4e351e2ea80b828","3","0","5a1dda5480acd8000104a12b","3","0","2025-07-23T08:58:54.732Z","","","","","","","","","","","","","","win-only","1","g1:NE,g2:SW","0.4","10","0","785563.1","1161.6","6172.1","43590.8","1","4","4","6","2","4","4","34","30","0.25757575757575757","916.8","3000","2305","[""down"",""left""]","{""num_key_presses"":8,""num_perfect"":4,""num_errors"":0,""num_randdir"":4,""num_randdir_good_moves"":3,""num_whilered"":0,""num_whileblue"":0,""num_blue"":3,""num_good_moves"":7}","[296.22232142857143,288.12857142857143,0.6,296.22232142857143,288.12857142857143,104.9,296.22232142857143,288.12857142857143,222,339.22232142857143,269.12857142857143,327.5,179.22232142857143,393.12857142857143,447.3,76.22232142857143,471.12857142857143,551.1,72.22232142857143,557.1285714285714,659.1,72.22232142857143,561.1285714285714,774.8,72.22232142857143,561.1285714285714,881.7,72.22232142857143,561.1285714285714,988.2,72.22232142857143,561.1285714285714,1091.2,72.22232142857143,561.1285714285714,1199.5,72.22232142857143,561.1285714285714,1312.2,72.22232142857143,561.1285714285714,1418.2,72.22232142857143,561.1285714285714,1519,72.22232142857143,561.1285714285714,1639.9,72.22232142857143,561.1285714285714,1748.1,72.22232142857143,561.1285714285714,1849.7,72.22232142857143,561.1285714285714,1953,72.22232142857143,561.1285714285714,2055.9,72.22232142857143,561.1285714285714,2163.9,72.22232142857143,561.1285714285714,2265.3,72.22232142857143,561.1285714285714,2371.1,72.22232142857143,561.1285714285714,2477.5,72.22232142857143,561.1285714285714,2580.1,72.22232142857143,561.1285714285714,2687.8,72.22232142857143,561.1285714285714,2802.6,72.22232142857143,561.1285714285714,2902.9,72.22232142857143,561.1285714285714,3017.3,72.22232142857143,561.1285714285714,3125,72.22232142857143,561.1285714285714,3243.2,72.22232142857143,561.1285714285714,3344.7,72.22232142857143,561.1285714285714,3446.5,72.22232142857143,561.1285714285714,3558.1,72.22232142857143,561.1285714285714,3663.1,72.22232142857143,561.1285714285714,3767.6,72.22232142857143,561.1285714285714,3886,72.22232142857143,561.1285714285714,3997.7,72.22232142857143,561.1285714285714,4126.6,72.22232142857143,561.1285714285714,4228.7,72.22232142857143,561.1285714285714,4339.2,72.22232142857143,561.1285714285714,4446.2,72.22232142857143,561.1285714285714,4550.3,72.22232142857143,561.1285714285714,4651.4,72.22232142857143,561.1285714285714,4757.2,72.22232142857143,561.1285714285714,4863.5,72.22232142857143,561.1285714285714,4964]","[4546.9,4547,2037.4,2021.6,488,""oops"",""left"",""left"",""good_move"",11523,6974.4,2127.1,9021.1,374.8,""smooth"",""left"",""left"",""good_move"",16258.3,4734.6,1745.5,11523.7,2989.1,""smooth"",""left"",""left"",""good_move"",21360.4,5101.2,3110,16259.2,1991.2,""oops"",""down"",""right"",""bad_move"",27488.3,6126.6,2411,24442.6,634.7,""smooth"",""down"",""down"",""good_move"",31097.6,3608.4,3035.8,27489.2,572.6,""smooth"",""down"",""down"",""good_move"",34582.4,3484,2921.6,31098.4,562.4,""oops"",""down"",""down"",""good_move"",37075.2,2492.2,2108.7,34583,383.5,""oops"",""left"",""left"",""good_move""]","",""
"3081","","<div style=""width:500px;"">
  <p>What determined the result of this run?</p>
  </div>","63","html-slider-response","55","833806","0.0-5.0-1.9","198","1","2025-07-23 08:45:03","1f75c3e559b7213887762d5229550c2b","216.205.168.23","Mozilla/5.0 (X11; CrOS x86_64 14541.0.0) AppleWebKit/537.36 (KHTML, like Gecko) Chrome/137.0.0.0 Safari/537.36","WebKit","Chrome","137.0.0.0","ChromeOS","14541.0.0","https://app.prolific.com/","en-GB,en-US;q=0.9,en;q=0.8","5a1dda5480acd8000104a12b","683dba2a8a9dda3513610c04","6880a03cc4e351e2ea80b828","3","0","5a1dda5480acd8000104a12b","3","0","2025-07-23T08:58:57.818Z","","","","","","","","","","","AttribQ","","50","","","","","","","","","","","","","","","","","","","","","","","","","","","","",""
"2101","","<div style=""width:500px;"">
  <p>How much control did you have over the ball?</p>
  </div>","69","html-slider-response","56","835912","0.0-5.0-2.9","198","1","2025-07-23 08:45:03","1f75c3e559b7213887762d5229550c2b","216.205.168.23","Mozilla/5.0 (X11; CrOS x86_64 14541.0.0) AppleWebKit/537.36 (KHTML, like Gecko) Chrome/137.0.0.0 Safari/537.36","WebKit","Chrome","137.0.0.0","ChromeOS","14541.0.0","https://app.prolific.com/","en-GB,en-US;q=0.9,en;q=0.8","5a1dda5480acd8000104a12b","683dba2a8a9dda3513610c04","6880a03cc4e351e2ea80b828","3","0","5a1dda5480acd8000104a12b","3","0","2025-07-23T08:58:59.923Z","","","","","","","","","","","ControlQ","","50","","","","","","","","","","","","","","","","","","","","","","","","","","","","",""
"2203","","<div style=""width:500px;"">
  <p>How would you describe your current emotional state?</p>
  </div>","36","html-slider-response","57","838119","0.0-5.0-3.9","198","1","2025-07-23 08:45:03","1f75c3e559b7213887762d5229550c2b","216.205.168.23","Mozilla/5.0 (X11; CrOS x86_64 14541.0.0) AppleWebKit/537.36 (KHTML, like Gecko) Chrome/137.0.0.0 Safari/537.36","WebKit","Chrome","137.0.0.0","ChromeOS","14541.0.0","https://app.prolific.com/","en-GB,en-US;q=0.9,en;q=0.8","5a1dda5480acd8000104a12b","683dba2a8a9dda3513610c04","6880a03cc4e351e2ea80b828","3","0","5a1dda5480acd8000104a12b","3","0","2025-07-23T08:59:02.130Z","","","","","","","","","","","StressQ","","50","","","","","","","","","","","","","","","","","","","","","","","","","","","","",""
"1823","","<div style=""width:500px;"">
  <p>What best describes how you currently feel?</p>
  </div>","37","html-slider-response","58","839945","0.0-5.0-4.9","198","1","2025-07-23 08:45:03","1f75c3e559b7213887762d5229550c2b","216.205.168.23","Mozilla/5.0 (X11; CrOS x86_64 14541.0.0) AppleWebKit/537.36 (KHTML, like Gecko) Chrome/137.0.0.0 Safari/537.36","WebKit","Chrome","137.0.0.0","ChromeOS","14541.0.0","https://app.prolific.com/","en-GB,en-US;q=0.9,en;q=0.8","5a1dda5480acd8000104a12b","683dba2a8a9dda3513610c04","6880a03cc4e351e2ea80b828","3","0","5a1dda5480acd8000104a12b","3","0","2025-07-23T08:59:03.957Z","","","","","","","","","","","MotivationQ","","50","","","","","","","","","","","","","","","","","","","","","","","","","","","","",""
"","","","","ctl-task-cpt","59","884209","0.0-5.0-0.10","198","1","2025-07-23 08:45:03","1f75c3e559b7213887762d5229550c2b","216.205.168.23","Mozilla/5.0 (X11; CrOS x86_64 14541.0.0) AppleWebKit/537.36 (KHTML, like Gecko) Chrome/137.0.0.0 Safari/537.36","WebKit","Chrome","137.0.0.0","ChromeOS","14541.0.0","https://app.prolific.com/","en-GB,en-US;q=0.9,en;q=0.8","5a1dda5480acd8000104a12b","683dba2a8a9dda3513610c04","6880a03cc4e351e2ea80b828","3","0","5a1dda5480acd8000104a12b","3","0","2025-07-23T08:59:48.221Z","","","","","","","","","","","","","","win-only","3","g1:SW,g2:NE","0.5","11","0","841413.4","1178.3","6182.9","41225.3","1","4","4","6","2","4","4","38","34","0.2878787878787879","1252.6","3000","2225","[""up"",""right""]","{""num_key_presses"":8,""num_perfect"":4,""num_errors"":0,""num_randdir"":4,""num_randdir_good_moves"":3,""num_whilered"":0,""num_whileblue"":0,""num_blue"":2,""num_good_moves"":7}","[295.22232142857143,289.12857142857143,0.9,295.22232142857143,289.12857142857143,117.7,295.22232142857143,289.12857142857143,226.1,295.22232142857143,289.12857142857143,341.6,295.22232142857143,289.12857142857143,444.5,622.2223214285714,30.128571428571426,557,739.2223214285714,-83.87142857142857,674.4,671.2223214285714,-55.871428571428574,787.6,618.2223214285714,-4.871428571428574,894.9,576.2223214285714,37.128571428571426,1018.5,565.2223214285714,40.128571428571426,1139.9,565.2223214285714,40.128571428571426,1240.6,565.2223214285714,40.128571428571426,1346.7,565.2223214285714,40.128571428571426,1464.3,565.2223214285714,40.128571428571426,1580.3,565.2223214285714,40.128571428571426,1697.5,565.2223214285714,40.128571428571426,1817.9,565.2223214285714,40.128571428571426,1924,565.2223214285714,40.128571428571426,2043.9,565.2223214285714,40.128571428571426,2159.3,565.2223214285714,40.128571428571426,2261.5,565.2223214285714,40.128571428571426,2382.7,565.2223214285714,40.128571428571426,2485.8,565.2223214285714,40.128571428571426,2599.4,565.2223214285714,40.128571428571426,2718.8,565.2223214285714,40.128571428571426,2829,565.2223214285714,40.128571428571426,2941.3,565.2223214285714,40.128571428571426,3058.4,565.2223214285714,40.128571428571426,3178.5,565.2223214285714,40.128571428571426,3289.9,565.2223214285714,40.128571428571426,3402.6,565.2223214285714,40.128571428571426,3516.7,565.2223214285714,40.128571428571426,3626.5,565.2223214285714,40.128571428571426,3741.1,565.2223214285714,40.128571428571426,3855,565.2223214285714,40.128571428571426,3968.2,565.2223214285714,40.128571428571426,4078,565.2223214285714,40.128571428571426,4197.8,565.2223214285714,40.128571428571426,4311.8,565.2223214285714,40.128571428571426,4423.5,565.2223214285714,40.128571428571426,4527.4,565.2223214285714,40.128571428571426,4638.8,565.2223214285714,40.128571428571426,4747.4,565.2223214285714,40.128571428571426,4858.5,565.2223214285714,40.128571428571426,4969.8]","[1594.9,1594.9,1000,0,594.9,""smooth"",""right"",""right"",""good_move"",4527.3,2931.2,2444.5,1596.2,486.6,""smooth"",""right"",""right"",""good_move"",7884.3,3356.2,2852.1,4528.1,504.1,""oops"",""right"",""up"",""good_move"",17191.9,9306.5,3058.3,13682.3,451.3,""oops"",""up"",""right"",""good_move"",20038.6,2845.9,2438.9,17192.7,407,""oops"",""up"",""down"",""bad_move"",22919.1,2879.7,2368.4,20039.5,511.3,""smooth"",""up"",""up"",""good_move"",30607.5,7687.5,2497.7,27674.2,435.6,""oops"",""up"",""up"",""good_move"",34632.1,4023.8,2650.3,30608.3,1373.5,""smooth"",""up"",""up"",""good_move""]","",""
"3328","","<div style=""width:500px;"">
  <p>What determined the result of this run?</p>
  </div>","70","html-slider-response","60","887541","0.0-5.0-1.10","198","1","2025-07-23 08:45:03","1f75c3e559b7213887762d5229550c2b","216.205.168.23","Mozilla/5.0 (X11; CrOS x86_64 14541.0.0) AppleWebKit/537.36 (KHTML, like Gecko) Chrome/137.0.0.0 Safari/537.36","WebKit","Chrome","137.0.0.0","ChromeOS","14541.0.0","https://app.prolific.com/","en-GB,en-US;q=0.9,en;q=0.8","5a1dda5480acd8000104a12b","683dba2a8a9dda3513610c04","6880a03cc4e351e2ea80b828","3","0","5a1dda5480acd8000104a12b","3","0","2025-07-23T08:59:51.553Z","","","","","","","","","","","AttribQ","","50","","","","","","","","","","","","","","","","","","","","","","","","","","","","",""
"2030","","<div style=""width:500px;"">
  <p>How much control did you have over the ball?</p>
  </div>","70","html-slider-response","61","889575","0.0-5.0-2.10","198","1","2025-07-23 08:45:03","1f75c3e559b7213887762d5229550c2b","216.205.168.23","Mozilla/5.0 (X11; CrOS x86_64 14541.0.0) AppleWebKit/537.36 (KHTML, like Gecko) Chrome/137.0.0.0 Safari/537.36","WebKit","Chrome","137.0.0.0","ChromeOS","14541.0.0","https://app.prolific.com/","en-GB,en-US;q=0.9,en;q=0.8","5a1dda5480acd8000104a12b","683dba2a8a9dda3513610c04","6880a03cc4e351e2ea80b828","3","0","5a1dda5480acd8000104a12b","3","0","2025-07-23T08:59:53.587Z","","","","","","","","","","","ControlQ","","50","","","","","","","","","","","","","","","","","","","","","","","","","","","","",""
"1817","","<div style=""width:500px;"">
  <p>How would you describe your current emotional state?</p>
  </div>","42","html-slider-response","62","891397","0.0-5.0-3.10","198","1","2025-07-23 08:45:03","1f75c3e559b7213887762d5229550c2b","216.205.168.23","Mozilla/5.0 (X11; CrOS x86_64 14541.0.0) AppleWebKit/537.36 (KHTML, like Gecko) Chrome/137.0.0.0 Safari/537.36","WebKit","Chrome","137.0.0.0","ChromeOS","14541.0.0","https://app.prolific.com/","en-GB,en-US;q=0.9,en;q=0.8","5a1dda5480acd8000104a12b","683dba2a8a9dda3513610c04","6880a03cc4e351e2ea80b828","3","0","5a1dda5480acd8000104a12b","3","0","2025-07-23T08:59:55.408Z","","","","","","","","","","","StressQ","","50","","","","","","","","","","","","","","","","","","","","","","","","","","","","",""
"2315","","<div style=""width:500px;"">
  <p>What best describes how you currently feel?</p>
  </div>","37","html-slider-response","63","893715","0.0-5.0-4.10","198","1","2025-07-23 08:45:03","1f75c3e559b7213887762d5229550c2b","216.205.168.23","Mozilla/5.0 (X11; CrOS x86_64 14541.0.0) AppleWebKit/537.36 (KHTML, like Gecko) Chrome/137.0.0.0 Safari/537.36","WebKit","Chrome","137.0.0.0","ChromeOS","14541.0.0","https://app.prolific.com/","en-GB,en-US;q=0.9,en;q=0.8","5a1dda5480acd8000104a12b","683dba2a8a9dda3513610c04","6880a03cc4e351e2ea80b828","3","0","5a1dda5480acd8000104a12b","3","0","2025-07-23T08:59:57.726Z","","","","","","","","","","","MotivationQ","","50","","","","","","","","","","","","","","","","","","","","","","","","","","","","",""
"","","","","ctl-task-cpt","64","958415","0.0-5.0-0.11","198","1","2025-07-23 08:45:03","1f75c3e559b7213887762d5229550c2b","216.205.168.23","Mozilla/5.0 (X11; CrOS x86_64 14541.0.0) AppleWebKit/537.36 (KHTML, like Gecko) Chrome/137.0.0.0 Safari/537.36","WebKit","Chrome","137.0.0.0","ChromeOS","14541.0.0","https://app.prolific.com/","en-GB,en-US;q=0.9,en;q=0.8","5a1dda5480acd8000104a12b","683dba2a8a9dda3513610c04","6880a03cc4e351e2ea80b828","3","0","5a1dda5480acd8000104a12b","3","0","2025-07-23T09:01:02.427Z","","","","","","","","","","","","","","win-only","3","g1:SW,g2:NE","0.6","12","0","895183.7","1140","6144.7","61655.9","1","4","8","6","2","8","8","46","38","0.3484848484848485","1109.6","3000","1985","[""up"",""right""]","{""num_key_presses"":12,""num_perfect"":8,""num_errors"":0,""num_randdir"":4,""num_randdir_good_moves"":1,""num_whilered"":0,""num_whileblue"":0,""num_blue"":2,""num_good_moves"":9}","[296.22232142857143,288.12857142857143,0.9,296.22232142857143,288.12857142857143,116.2,296.22232142857143,288.12857142857143,233,296.22232142857143,288.12857142857143,333.7,234.22232142857143,325.12857142857143,453.3,418.22232142857143,111.12857142857143,573.7,505.22232142857143,63.128571428571426,683.1,498.22232142857143,62.128571428571426,784.1,524.2223214285714,63.128571428571426,902.3,532.2223214285714,60.128571428571426,1002.7,532.2223214285714,60.128571428571426,1114.2,532.2223214285714,60.128571428571426,1229.9,532.2223214285714,60.128571428571426,1334.5,532.2223214285714,60.128571428571426,1458.7,532.2223214285714,60.128571428571426,1562.9,532.2223214285714,60.128571428571426,1679.1,532.2223214285714,60.128571428571426,1784.6,532.2223214285714,60.128571428571426,1903.1,532.2223214285714,60.128571428571426,2028.8,532.2223214285714,60.128571428571426,2131.4,532.2223214285714,60.128571428571426,2232.2,532.2223214285714,60.128571428571426,2355.6,532.2223214285714,60.128571428571426,2456.2,532.2223214285714,60.128571428571426,2562.2,532.2223214285714,60.128571428571426,2685.7,532.2223214285714,60.128571428571426,2786.4,532.2223214285714,60.128571428571426,2895.4,532.2223214285714,60.128571428571426,3000.3,532.2223214285714,60.128571428571426,3109.6,532.2223214285714,60.128571428571426,3231.3,532.2223214285714,60.128571428571426,3342.3,532.2223214285714,60.128571428571426,3451.3,532.2223214285714,60.128571428571426,3553.9,532.2223214285714,60.128571428571426,3661.7,532.2223214285714,60.128571428571426,3772.9,532.2223214285714,60.128571428571426,3881.7,532.2223214285714,60.128571428571426,3989.5,532.2223214285714,60.128571428571426,4103.4,532.2223214285714,60.128571428571426,4205.8,532.2223214285714,60.128571428571426,4308.3,532.2223214285714,60.128571428571426,4423.3,532.2223214285714,60.128571428571426,4533.2,532.2223214285714,60.128571428571426,4639.4,532.2223214285714,60.128571428571426,4752.3,532.2223214285714,60.128571428571426,4856.6,532.2223214285714,60.128571428571426,4960.8]","[1532.7,1532.7,1000,0,532.7,""smooth"",""right"",""right"",""good_move"",4277.1,2743.4,2198.4,1533.8,545,""oops"",""right"",""right"",""good_move"",7391.3,3113.5,2590.5,4277.8,523,""smooth"",""right"",""right"",""good_move"",13579.4,6187.4,2445.4,10723.8,410.2,""smooth"",""up"",""up"",""good_move"",20744.6,7164.6,2178.1,13580.2,4986.4,""oops"",""up"",""left"",""bad_move"",27447.8,6702.3,2677.3,20745.5,4025,""smooth"",""up"",""up"",""good_move"",31640.6,4192.2,2270,27448.5,1922.2,""smooth"",""up"",""up"",""good_move"",36062.8,4421.4,2553.3,31641.4,1868.1,""oops"",""right"",""down"",""bad_move"",42814.3,6750.8,2810.1,39467.9,536.3,""smooth"",""right"",""right"",""good_move"",45526.3,2710.9,2246.3,42815.4,464.6,""oops"",""up"",""left"",""bad_move"",50585.4,5058.4,2557.9,45527.1,2500.5,""smooth"",""up"",""up"",""good_move"",54988.3,4402.1,2923.1,50586.3,1479,""smooth"",""right"",""right"",""good_move""]","",""
"2857","","<div style=""width:500px;"">
  <p>What determined the result of this run?</p>
  </div>","67","html-slider-response","65","961276","0.0-5.0-1.11","198","1","2025-07-23 08:45:03","1f75c3e559b7213887762d5229550c2b","216.205.168.23","Mozilla/5.0 (X11; CrOS x86_64 14541.0.0) AppleWebKit/537.36 (KHTML, like Gecko) Chrome/137.0.0.0 Safari/537.36","WebKit","Chrome","137.0.0.0","ChromeOS","14541.0.0","https://app.prolific.com/","en-GB,en-US;q=0.9,en;q=0.8","5a1dda5480acd8000104a12b","683dba2a8a9dda3513610c04","6880a03cc4e351e2ea80b828","3","0","5a1dda5480acd8000104a12b","3","0","2025-07-23T09:01:05.288Z","","","","","","","","","","","AttribQ","","50","","","","","","","","","","","","","","","","","","","","","","","","","","","","",""
"3859","","<div style=""width:500px;"">
  <p>How much control did you have over the ball?</p>
  </div>","80","html-slider-response","66","965139","0.0-5.0-2.11","198","1","2025-07-23 08:45:03","1f75c3e559b7213887762d5229550c2b","216.205.168.23","Mozilla/5.0 (X11; CrOS x86_64 14541.0.0) AppleWebKit/537.36 (KHTML, like Gecko) Chrome/137.0.0.0 Safari/537.36","WebKit","Chrome","137.0.0.0","ChromeOS","14541.0.0","https://app.prolific.com/","en-GB,en-US;q=0.9,en;q=0.8","5a1dda5480acd8000104a12b","683dba2a8a9dda3513610c04","6880a03cc4e351e2ea80b828","3","0","5a1dda5480acd8000104a12b","3","0","2025-07-23T09:01:09.150Z","","","","","","","","","","","ControlQ","","50","","","","","","","","","","","","","","","","","","","","","","","","","","","","",""
"2084","","<div style=""width:500px;"">
  <p>How would you describe your current emotional state?</p>
  </div>","46","html-slider-response","67","967227","0.0-5.0-3.11","198","1","2025-07-23 08:45:03","1f75c3e559b7213887762d5229550c2b","216.205.168.23","Mozilla/5.0 (X11; CrOS x86_64 14541.0.0) AppleWebKit/537.36 (KHTML, like Gecko) Chrome/137.0.0.0 Safari/537.36","WebKit","Chrome","137.0.0.0","ChromeOS","14541.0.0","https://app.prolific.com/","en-GB,en-US;q=0.9,en;q=0.8","5a1dda5480acd8000104a12b","683dba2a8a9dda3513610c04","6880a03cc4e351e2ea80b828","3","0","5a1dda5480acd8000104a12b","3","0","2025-07-23T09:01:11.238Z","","","","","","","","","","","StressQ","","50","","","","","","","","","","","","","","","","","","","","","","","","","","","","",""
"2485","","<div style=""width:500px;"">
  <p>What best describes how you currently feel?</p>
  </div>","47","html-slider-response","68","969716","0.0-5.0-4.11","198","1","2025-07-23 08:45:03","1f75c3e559b7213887762d5229550c2b","216.205.168.23","Mozilla/5.0 (X11; CrOS x86_64 14541.0.0) AppleWebKit/537.36 (KHTML, like Gecko) Chrome/137.0.0.0 Safari/537.36","WebKit","Chrome","137.0.0.0","ChromeOS","14541.0.0","https://app.prolific.com/","en-GB,en-US;q=0.9,en;q=0.8","5a1dda5480acd8000104a12b","683dba2a8a9dda3513610c04","6880a03cc4e351e2ea80b828","3","0","5a1dda5480acd8000104a12b","3","0","2025-07-23T09:01:13.727Z","","","","","","","","","","","MotivationQ","","50","","","","","","","","","","","","","","","","","","","","","","","","","","","","",""
"","","","","ctl-task-cpt","69","1035510","0.0-5.0-0.12","198","1","2025-07-23 08:45:03","1f75c3e559b7213887762d5229550c2b","216.205.168.23","Mozilla/5.0 (X11; CrOS x86_64 14541.0.0) AppleWebKit/537.36 (KHTML, like Gecko) Chrome/137.0.0.0 Safari/537.36","WebKit","Chrome","137.0.0.0","ChromeOS","14541.0.0","https://app.prolific.com/","en-GB,en-US;q=0.9,en;q=0.8","5a1dda5480acd8000104a12b","683dba2a8a9dda3513610c04","6880a03cc4e351e2ea80b828","3","0","5a1dda5480acd8000104a12b","3","0","2025-07-23T09:02:19.522Z","","","","","","","","","","","","","","win-only","2","g1:SE,g2:NW","0.7","13","0","971185.4","5279.4","10289.2","62730.3","1","4","4","6","2","4","4","50","46","0.3787878787878788","1627.2","3000","2420","[""left"",""up""]","{""num_key_presses"":8,""num_perfect"":5,""num_errors"":0,""num_randdir"":3,""num_randdir_good_moves"":2,""num_whilered"":0,""num_whileblue"":0,""num_blue"":4,""num_good_moves"":7}","[297.22232142857143,296.12857142857143,0.9,297.22232142857143,296.12857142857143,120.8,297.22232142857143,296.12857142857143,221.4,297.22232142857143,296.12857142857143,347.1,297.22232142857143,296.12857142857143,460.2,299.22232142857143,314.12857142857143,575.4,124.22232142857143,83.12857142857143,701,123.22232142857143,79.12857142857143,805.9,120.22232142857143,79.12857142857143,911.1,106.22232142857143,79.12857142857143,1015.2,103.22232142857143,80.12857142857143,1118.6,103.22232142857143,80.12857142857143,1237.8,103.22232142857143,80.12857142857143,1341.5,87.22232142857143,72.12857142857143,1452.5,85.22232142857143,72.12857142857143,1562.5,85.22232142857143,72.12857142857143,1679,85.22232142857143,72.12857142857143,1784.8,85.22232142857143,72.12857142857143,1899.9,85.22232142857143,72.12857142857143,2021.7,85.22232142857143,72.12857142857143,2124.9,85.22232142857143,72.12857142857143,2224.8,85.22232142857143,72.12857142857143,2352.7,85.22232142857143,72.12857142857143,2455.5,85.22232142857143,72.12857142857143,2558.9,85.22232142857143,72.12857142857143,2675.3,85.22232142857143,72.12857142857143,2795.9,85.22232142857143,72.12857142857143,2911.4,85.22232142857143,72.12857142857143,3030.2,85.22232142857143,72.12857142857143,3156.6,85.22232142857143,72.12857142857143,3272.5,85.22232142857143,72.12857142857143,3380.2,85.22232142857143,72.12857142857143,3483,85.22232142857143,72.12857142857143,3602.7,85.22232142857143,72.12857142857143,3707.6,85.22232142857143,72.12857142857143,3834.9,85.22232142857143,72.12857142857143,3952,85.22232142857143,72.12857142857143,4055.2,85.22232142857143,72.12857142857143,4167.3,85.22232142857143,72.12857142857143,4286.5,85.22232142857143,72.12857142857143,4407.4,85.22232142857143,72.12857142857143,4519.2,85.22232142857143,72.12857142857143,4636.7,85.22232142857143,72.12857142857143,4764.3,85.22232142857143,72.12857142857143,4882.5,85.22232142857143,72.12857142857143,4984.6]","[4230.7,4230.7,1717.4,2043.4,469.9,""oops"",""left"",""up"",""good_move"",16104.1,11871.9,1919.3,13695,489.8,""smooth"",""left"",""left"",""good_move"",20703.9,4598.8,2850.3,16105.1,1748.5,""smooth"",""left"",""left"",""good_move"",25276.5,4572,1939.9,20704.6,2632.1,""oops"",""left"",""up"",""good_move"",30699.3,5421.9,2086.3,25277.4,3335.7,""smooth"",""up"",""up"",""good_move"",36878.7,6178.8,2128.3,30699.9,4050.5,""oops"",""left"",""right"",""bad_move"",40464.2,3584.9,3079.8,36879.4,505.1,""smooth"",""left"",""left"",""good_move"",51597,11132.1,2134.4,49027,435.6,""smooth"",""left"",""left"",""good_move""]","",""
"5487","","<div style=""width:500px;"">
  <p>What determined the result of this run?</p>
  </div>","71","html-slider-response","70","1041002","0.0-5.0-1.12","198","1","2025-07-23 08:45:03","1f75c3e559b7213887762d5229550c2b","216.205.168.23","Mozilla/5.0 (X11; CrOS x86_64 14541.0.0) AppleWebKit/537.36 (KHTML, like Gecko) Chrome/137.0.0.0 Safari/537.36","WebKit","Chrome","137.0.0.0","ChromeOS","14541.0.0","https://app.prolific.com/","en-GB,en-US;q=0.9,en;q=0.8","5a1dda5480acd8000104a12b","683dba2a8a9dda3513610c04","6880a03cc4e351e2ea80b828","3","0","5a1dda5480acd8000104a12b","3","0","2025-07-23T09:02:25.014Z","","","","","","","","","","","AttribQ","","50","","","","","","","","","","","","","","","","","","","","","","","","","","","","",""
"2485","","<div style=""width:500px;"">
  <p>How much control did you have over the ball?</p>
  </div>","72","html-slider-response","71","1043493","0.0-5.0-2.12","198","1","2025-07-23 08:45:03","1f75c3e559b7213887762d5229550c2b","216.205.168.23","Mozilla/5.0 (X11; CrOS x86_64 14541.0.0) AppleWebKit/537.36 (KHTML, like Gecko) Chrome/137.0.0.0 Safari/537.36","WebKit","Chrome","137.0.0.0","ChromeOS","14541.0.0","https://app.prolific.com/","en-GB,en-US;q=0.9,en;q=0.8","5a1dda5480acd8000104a12b","683dba2a8a9dda3513610c04","6880a03cc4e351e2ea80b828","3","0","5a1dda5480acd8000104a12b","3","0","2025-07-23T09:02:27.505Z","","","","","","","","","","","ControlQ","","50","","","","","","","","","","","","","","","","","","","","","","","","","","","","",""
"2039","","<div style=""width:500px;"">
  <p>How would you describe your current emotional state?</p>
  </div>","36","html-slider-response","72","1045536","0.0-5.0-3.12","198","1","2025-07-23 08:45:03","1f75c3e559b7213887762d5229550c2b","216.205.168.23","Mozilla/5.0 (X11; CrOS x86_64 14541.0.0) AppleWebKit/537.36 (KHTML, like Gecko) Chrome/137.0.0.0 Safari/537.36","WebKit","Chrome","137.0.0.0","ChromeOS","14541.0.0","https://app.prolific.com/","en-GB,en-US;q=0.9,en;q=0.8","5a1dda5480acd8000104a12b","683dba2a8a9dda3513610c04","6880a03cc4e351e2ea80b828","3","0","5a1dda5480acd8000104a12b","3","0","2025-07-23T09:02:29.547Z","","","","","","","","","","","StressQ","","50","","","","","","","","","","","","","","","","","","","","","","","","","","","","",""
"2130","","<div style=""width:500px;"">
  <p>What best describes how you currently feel?</p>
  </div>","37","html-slider-response","73","1047669","0.0-5.0-4.12","198","1","2025-07-23 08:45:03","1f75c3e559b7213887762d5229550c2b","216.205.168.23","Mozilla/5.0 (X11; CrOS x86_64 14541.0.0) AppleWebKit/537.36 (KHTML, like Gecko) Chrome/137.0.0.0 Safari/537.36","WebKit","Chrome","137.0.0.0","ChromeOS","14541.0.0","https://app.prolific.com/","en-GB,en-US;q=0.9,en;q=0.8","5a1dda5480acd8000104a12b","683dba2a8a9dda3513610c04","6880a03cc4e351e2ea80b828","3","0","5a1dda5480acd8000104a12b","3","0","2025-07-23T09:02:31.681Z","","","","","","","","","","","MotivationQ","","50","","","","","","","","","","","","","","","","","","","","","","","","","","","","",""
