"rt","response_timestamp","stimulus","response","trial_type","trial_index","time_elapsed","internal_node_id","run_id","condition","recorded_at","source_code_version","ip","user_agent","device","browser","browser_version","platform","platform_version","referer","accept_language","PROLIFIC_PID","STUDY_ID","SESSION_ID","WEEK","prolific_id","week","realtime","success","responses","item_order","radio_event_ids","radio_event_times","key_event_times","mouse_event_times","straightlining","zigzagging","honeypot","eventType","view_history","slider_start","which_type","canvas_config","goals_layout","control_level","trial_number","tutorial_trial_number","trial_start_time","phase1_start_time","phase2_start_time","phase3_start_time","goal_1_value","goal_1_distance","goal_2_value","goal_2_distance","goal_selected","outcome","outcome_total","participant_final_score","participant_initial_score","participant_final_score_prop","goal_choice_rt","allocated_time","allocated_time_remaining","goal_direction","counts","mouse_movements","key_presses","question_order","question_id"
"21022","1752065934878","<p style='font-size:40px;line-height:1.25'><strong>Welcome to the experiment!</strong></p><p style='font-size:1.1em;line-height:1.25'>Thank you for participanting in our experiment again! You will be asked to play the Dysfunctional Ball Game again. We will briefly recap the rules before we start.</p><p style='font-size:1.1em;line-height:1.25'>Press <strong>Next</strong> to continue.</p>","0","custom-html-button-response","0","21028","0.0-0.0","31","1","2025-07-09 12:58:30","01610cd0009c79a99da7d0a3353eb402","105.1.167.152","Mozilla/5.0 (Windows NT 10.0; Win64; x64) AppleWebKit/537.36 (KHTML, like Gecko) Chrome/138.0.0.0 Safari/537.36","WebKit","Chrome","138.0.0.0","Windows","10.0","https://app.prolific.com/","en-GB,en;q=0.9,en-US;q=0.8,zu;q=0.7,es;q=0.6","6129dca465e41b5ae1b262da","683db7602f5db6a34d12d064","686e6757ac84e5f447d70362","1","6129dca465e41b5ae1b262da","1","2025-07-09T12:58:54.882Z","","","","","","","","","","","","","","","","","","","","","","","","","","","","","","","","","","","","","","","","","",""
"5339","","","","fullscreen","1","27412","0.0-1.0","31","1","2025-07-09 12:58:30","01610cd0009c79a99da7d0a3353eb402","105.1.167.152","Mozilla/5.0 (Windows NT 10.0; Win64; x64) AppleWebKit/537.36 (KHTML, like Gecko) Chrome/138.0.0.0 Safari/537.36","WebKit","Chrome","138.0.0.0","Windows","10.0","https://app.prolific.com/","en-GB,en;q=0.9,en-US;q=0.8,zu;q=0.7,es;q=0.6","6129dca465e41b5ae1b262da","683db7602f5db6a34d12d064","686e6757ac84e5f447d70362","1","6129dca465e41b5ae1b262da","1","","true","","","","","","","","","","","","","","","","","","","","","","","","","","","","","","","","","","","","","","","","",""
"12388","1752065953654","<p style='font-size:1.1em;line-height:1.25'>In the following, we will ask you a few questions relating to your feelings in the last 24 hours.<br></p><p style='font-size:1.1em;line-height:1.25'>Press the <strong>Next</strong> button to continue.</p>","0","custom-html-button-response","2","39803","0.0-2.0-0.0","31","1","2025-07-09 12:58:30","01610cd0009c79a99da7d0a3353eb402","105.1.167.152","Mozilla/5.0 (Windows NT 10.0; Win64; x64) AppleWebKit/537.36 (KHTML, like Gecko) Chrome/138.0.0.0 Safari/537.36","WebKit","Chrome","138.0.0.0","Windows","10.0","https://app.prolific.com/","en-GB,en;q=0.9,en-US;q=0.8,zu;q=0.7,es;q=0.6","6129dca465e41b5ae1b262da","683db7602f5db6a34d12d064","686e6757ac84e5f447d70362","1","6129dca465e41b5ae1b262da","1","2025-07-09T12:59:13.657Z","","","","","","","","","","","","","","","","","","","","","","","","","","","","","","","","","","","","","","","","","",""
"78265","","","","survey-template","3","118110","0.0-2.0-1.0","31","1","2025-07-09 12:58:30","01610cd0009c79a99da7d0a3353eb402","105.1.167.152","Mozilla/5.0 (Windows NT 10.0; Win64; x64) AppleWebKit/537.36 (KHTML, like Gecko) Chrome/138.0.0.0 Safari/537.36","WebKit","Chrome","138.0.0.0","Windows","10.0","https://app.prolific.com/","en-GB,en;q=0.9,en-US;q=0.8,zu;q=0.7,es;q=0.6","6129dca465e41b5ae1b262da","683db7602f5db6a34d12d064","686e6757ac84e5f447d70362","1","6129dca465e41b5ae1b262da","1","2025-07-09T13:00:31.963Z","","{""Q01"":""0"",""Q02"":""0"",""Q03"":""0"",""Q04"":""0"",""Q05"":""2"",""Q06"":""1"",""Q07"":""1"",""Q08"":""0"",""Q09"":""0"",""Q10"":""0"",""Q11"":""2"",""Q12"":""0"",""Q13"":""5"",""Q14"":""3"",""Q15"":""3"",""Q16"":""2"",""Q17"":""0"",""Q18"":""0"",""Q19"":""2"",""Q20"":""0"",""Q21"":""0"",""Q22"":""0""}","[0,1,2,3,4,5,6,7,8,9,10,11,12,13,14,15,16,17,18,19,20,21]","[""Q01"",""Q02"",""Q03"",""Q04"",""Q05"",""Q06"",""Q07"",""Q08"",""Q09"",""Q10"",""Q11"",""Q12"",""Q13"",""Q14"",""Q15"",""Q16"",""Q17"",""Q18"",""Q19"",""Q20"",""Q21"",""Q22""]","[4853.699999988079,6589.599999964237,8300.899999976158,12215.699999988079,13948.5,18539.5,20714.80000001192,22194.80000001192,28838.599999964237,30363.5,33033.5,35247.30000001192,38017.30000001192,40190.69999998808,44649.69999998808,50864.69999998808,54023.59999996424,55478.30000001192,61160.09999996424,69698.39999997616,73428.09999996424,76006.59999996424]","[]","[5.199999988079071,4853.699999988079,6589.599999964237,8300.899999976158,9855.099999964237,12215.699999988079,13948.5,17431.099999964237,18539.5,20714.80000001192,22194.80000001192,28838.599999964237,30363.5,33033.5,35247.30000001192,38017.30000001192,40190.69999998808,44649.69999998808,50864.69999998808,54023.59999996424,55478.30000001192,61160.09999996424,69698.39999997616,73428.09999996424,76006.59999996424,76970,78225.09999996424]","0.5909090909090909","0.19047619047619047","0","drsp","","","","","","","","","","","","","","","","","","","","","","","","","","","","","","",""
"13676.599999964237","","","","survey-template","4","131795","0.0-2.0-2.0","31","1","2025-07-09 12:58:30","01610cd0009c79a99da7d0a3353eb402","105.1.167.152","Mozilla/5.0 (Windows NT 10.0; Win64; x64) AppleWebKit/537.36 (KHTML, like Gecko) Chrome/138.0.0.0 Safari/537.36","WebKit","Chrome","138.0.0.0","Windows","10.0","https://app.prolific.com/","en-GB,en;q=0.9,en-US;q=0.8,zu;q=0.7,es;q=0.6","6129dca465e41b5ae1b262da","683db7602f5db6a34d12d064","686e6757ac84e5f447d70362","1","6129dca465e41b5ae1b262da","1","2025-07-09T13:00:45.648Z","","{""Q01"":""0"",""Q02"":""0"",""Q03"":""0""}","[0,1,2]","[""Q01"",""Q02"",""Q03""]","[5232.799999952316,8000.799999952316,11343.399999976158]","[]","[3388.2999999523163,5232.799999952316,8000.799999952316,11343.399999976158,12512.599999964237,13672.199999988079]","0.6666666666666666","1","0","stress","","","","","","","","","","","","","","","","","","","","","","","","","","","","","","",""
"62536","","","","instructions","5","194336","0.0-3.0-0.0","31","1","2025-07-09 12:58:30","01610cd0009c79a99da7d0a3353eb402","105.1.167.152","Mozilla/5.0 (Windows NT 10.0; Win64; x64) AppleWebKit/537.36 (KHTML, like Gecko) Chrome/138.0.0.0 Safari/537.36","WebKit","Chrome","138.0.0.0","Windows","10.0","https://app.prolific.com/","en-GB,en;q=0.9,en-US;q=0.8,zu;q=0.7,es;q=0.6","6129dca465e41b5ae1b262da","683db7602f5db6a34d12d064","686e6757ac84e5f447d70362","1","6129dca465e41b5ae1b262da","1","","","","","","","","","","","","","[{""page_index"":0,""viewing_time"":62534}]","","","","","","","","","","","","","","","","","","","","","","","","","","","","","",""
"14814","","<p>Before you start with this game please answer the following three questions yourself. </p>
  <p>Through this game, we measure several aspects of your cognitive performance, such as reaction times, multi-tasking capabilities </p>
  <p>and the ability to assess the situation you are in.</p>
  <p></p>
  <p><b>How good do you usually are in such tasks?</b></p>","100","html-slider-response","6","209192","0.0-4.0-0.0","31","1","2025-07-09 12:58:30","01610cd0009c79a99da7d0a3353eb402","105.1.167.152","Mozilla/5.0 (Windows NT 10.0; Win64; x64) AppleWebKit/537.36 (KHTML, like Gecko) Chrome/138.0.0.0 Safari/537.36","WebKit","Chrome","138.0.0.0","Windows","10.0","https://app.prolific.com/","en-GB,en;q=0.9,en-US;q=0.8,zu;q=0.7,es;q=0.6","6129dca465e41b5ae1b262da","683db7602f5db6a34d12d064","686e6757ac84e5f447d70362","1","6129dca465e41b5ae1b262da","1","2025-07-09T13:02:03.045Z","","","","","","","","","","","PreSkillQ","","50","","","","","","","","","","","","","","","","","","","","","","","","","","","","",""
"4873","","<div style=""width:500px;"">
  <p>How well do you think you will perform in this task compared to other participants?</p>
  </div>","100","html-slider-response","7","214074","0.0-4.0-1.0","31","1","2025-07-09 12:58:30","01610cd0009c79a99da7d0a3353eb402","105.1.167.152","Mozilla/5.0 (Windows NT 10.0; Win64; x64) AppleWebKit/537.36 (KHTML, like Gecko) Chrome/138.0.0.0 Safari/537.36","WebKit","Chrome","138.0.0.0","Windows","10.0","https://app.prolific.com/","en-GB,en;q=0.9,en-US;q=0.8,zu;q=0.7,es;q=0.6","6129dca465e41b5ae1b262da","683db7602f5db6a34d12d064","686e6757ac84e5f447d70362","1","6129dca465e41b5ae1b262da","1","2025-07-09T13:02:07.927Z","","","","","","","","","","","PrePerfQ","","50","","","","","","","","","","","","","","","","","","","","","","","","","","","","",""
"4442","","<div style=""width:500px;"">
  <p>What best describes how you currently feel?</p>
  </div>","100","html-slider-response","8","218522","0.0-4.0-2.0","31","1","2025-07-09 12:58:30","01610cd0009c79a99da7d0a3353eb402","105.1.167.152","Mozilla/5.0 (Windows NT 10.0; Win64; x64) AppleWebKit/537.36 (KHTML, like Gecko) Chrome/138.0.0.0 Safari/537.36","WebKit","Chrome","138.0.0.0","Windows","10.0","https://app.prolific.com/","en-GB,en;q=0.9,en-US;q=0.8,zu;q=0.7,es;q=0.6","6129dca465e41b5ae1b262da","683db7602f5db6a34d12d064","686e6757ac84e5f447d70362","1","6129dca465e41b5ae1b262da","1","2025-07-09T13:02:12.375Z","","","","","","","","","","","PreMotivationQ","","50","","","","","","","","","","","","","","","","","","","","","","","","","","","","",""
"","","","","ctl-task-cpt","9","259868","0.0-5.0-0.0","31","1","2025-07-09 12:58:30","01610cd0009c79a99da7d0a3353eb402","105.1.167.152","Mozilla/5.0 (Windows NT 10.0; Win64; x64) AppleWebKit/537.36 (KHTML, like Gecko) Chrome/138.0.0.0 Safari/537.36","WebKit","Chrome","138.0.0.0","Windows","10.0","https://app.prolific.com/","en-GB,en;q=0.9,en-US;q=0.8,zu;q=0.7,es;q=0.6","6129dca465e41b5ae1b262da","683db7602f5db6a34d12d064","686e6757ac84e5f447d70362","1","6129dca465e41b5ae1b262da","1","2025-07-09T13:02:53.722Z","","","","","","","","","","","","","","win-only","1","g1:NE,g2:SW","1","1","0","221179.2","3761.8","8774.2","38298.9","1","4","8","6","2","8","7","7","0","0.05303030303030303","1892.2","3000","715","[""down"",""left""]","{""num_key_presses"":8,""num_perfect"":7,""num_errors"":1,""num_randdir"":0,""num_randdir_good_moves"":0,""num_whilered"":0,""num_whileblue"":1,""num_blue"":3,""num_good_moves"":7}","[300.22232142857143,299.12857142857143,1.8,300.22232142857143,299.12857142857143,100,300.22232142857143,299.12857142857143,205.8,300.22232142857143,299.12857142857143,309.2,300.22232142857143,299.12857142857143,412.5,300.22232142857143,299.12857142857143,522.2,300.22232142857143,299.12857142857143,623.5,300.22232142857143,299.12857142857143,724.9,300.22232142857143,299.12857142857143,826.3,300.22232142857143,299.12857142857143,928.3,300.22232142857143,299.12857142857143,1032.9,248.22232142857143,369.12857142857143,1134.3,137.22232142857143,484.12857142857143,1245.8,106.22232142857143,532.1285714285714,1350.4,94.22232142857143,545.1285714285714,1465.1,86.22232142857143,551.1285714285714,1571.1,71.22232142857143,549.1285714285714,1677.8,69.22232142857143,548.1285714285714,1784.4,69.22232142857143,548.1285714285714,1902.9,69.22232142857143,548.1285714285714,2008.3,69.22232142857143,548.1285714285714,2113.9,69.22232142857143,548.1285714285714,2221,69.22232142857143,548.1285714285714,2324.5,69.22232142857143,548.1285714285714,2432.7,69.22232142857143,548.1285714285714,2553.5,69.22232142857143,548.1285714285714,2659.2,69.22232142857143,548.1285714285714,2761.7,69.22232142857143,548.1285714285714,2867.8,69.22232142857143,548.1285714285714,2973.1,69.22232142857143,548.1285714285714,3074.7,69.22232142857143,548.1285714285714,3174.8,69.22232142857143,548.1285714285714,3275,69.22232142857143,548.1285714285714,3375.2,69.22232142857143,548.1285714285714,3475.4,69.22232142857143,548.1285714285714,3579.6,69.22232142857143,548.1285714285714,3683.6,69.22232142857143,548.1285714285714,3792.5,69.22232142857143,548.1285714285714,3892.7,69.22232142857143,548.1285714285714,4003,69.22232142857143,548.1285714285714,4105,69.22232142857143,548.1285714285714,4207.1,69.22232142857143,548.1285714285714,4307.9,69.22232142857143,548.1285714285714,4412.1,69.22232142857143,548.1285714285714,4522.2,69.22232142857143,548.1285714285714,4624.5,69.22232142857143,548.1285714285714,4724.8,69.22232142857143,548.1285714285714,4825.5,69.22232142857143,548.1285714285714,4934.2]","[1541.8,1541.7,1000,0.1,541.7,""smooth"",""left"",""left"",""good_move"",4815.6,3272,2880.3,1543.7,391.6,""smooth"",""left"",""left"",""good_move"",7842.4,3022.4,2682.2,4820.1,340.2,""while_blue"",""left"",""up"",""bad_move"",10054.8,2210.8,1707.6,7844.1,503.2,""smooth"",""left"",""left"",""good_move"",12336.6,2280,1874.8,10056.6,405.3,""smooth"",""down"",""down"",""good_move"",19498.1,7158.4,3270.6,15844,383.5,""smooth"",""down"",""down"",""good_move"",22664.2,3165.7,2641.1,19498.6,524.5,""smooth"",""down"",""down"",""good_move"",29401.7,6736.1,2967.6,25869.1,565.1,""smooth"",""down"",""down"",""good_move""]","",""
"16513","","<div style=""width:500px;"">
  <p>What determined the result of this run?</p>
  </div>","100","html-slider-response","10","276386","0.0-5.0-1.0","31","1","2025-07-09 12:58:30","01610cd0009c79a99da7d0a3353eb402","105.1.167.152","Mozilla/5.0 (Windows NT 10.0; Win64; x64) AppleWebKit/537.36 (KHTML, like Gecko) Chrome/138.0.0.0 Safari/537.36","WebKit","Chrome","138.0.0.0","Windows","10.0","https://app.prolific.com/","en-GB,en;q=0.9,en-US;q=0.8,zu;q=0.7,es;q=0.6","6129dca465e41b5ae1b262da","683db7602f5db6a34d12d064","686e6757ac84e5f447d70362","1","6129dca465e41b5ae1b262da","1","2025-07-09T13:03:10.239Z","","","","","","","","","","","AttribQ","","50","","","","","","","","","","","","","","","","","","","","","","","","","","","","",""
"3938","","<div style=""width:500px;"">
  <p>How much control did you have over the ball?</p>
  </div>","100","html-slider-response","11","280330","0.0-5.0-2.0","31","1","2025-07-09 12:58:30","01610cd0009c79a99da7d0a3353eb402","105.1.167.152","Mozilla/5.0 (Windows NT 10.0; Win64; x64) AppleWebKit/537.36 (KHTML, like Gecko) Chrome/138.0.0.0 Safari/537.36","WebKit","Chrome","138.0.0.0","Windows","10.0","https://app.prolific.com/","en-GB,en;q=0.9,en-US;q=0.8,zu;q=0.7,es;q=0.6","6129dca465e41b5ae1b262da","683db7602f5db6a34d12d064","686e6757ac84e5f447d70362","1","6129dca465e41b5ae1b262da","1","2025-07-09T13:03:14.183Z","","","","","","","","","","","ControlQ","","50","","","","","","","","","","","","","","","","","","","","","","","","","","","","",""
"5433","","<div style=""width:500px;"">
  <p>How would you describe your current emotional state?</p>
  </div>","0","html-slider-response","12","285769","0.0-5.0-3.0","31","1","2025-07-09 12:58:30","01610cd0009c79a99da7d0a3353eb402","105.1.167.152","Mozilla/5.0 (Windows NT 10.0; Win64; x64) AppleWebKit/537.36 (KHTML, like Gecko) Chrome/138.0.0.0 Safari/537.36","WebKit","Chrome","138.0.0.0","Windows","10.0","https://app.prolific.com/","en-GB,en;q=0.9,en-US;q=0.8,zu;q=0.7,es;q=0.6","6129dca465e41b5ae1b262da","683db7602f5db6a34d12d064","686e6757ac84e5f447d70362","1","6129dca465e41b5ae1b262da","1","2025-07-09T13:03:19.623Z","","","","","","","","","","","StressQ","","50","","","","","","","","","","","","","","","","","","","","","","","","","","","","",""
"5135","","<div style=""width:500px;"">
  <p>What best describes how you currently feel?</p>
  </div>","100","html-slider-response","13","290910","0.0-5.0-4.0","31","1","2025-07-09 12:58:30","01610cd0009c79a99da7d0a3353eb402","105.1.167.152","Mozilla/5.0 (Windows NT 10.0; Win64; x64) AppleWebKit/537.36 (KHTML, like Gecko) Chrome/138.0.0.0 Safari/537.36","WebKit","Chrome","138.0.0.0","Windows","10.0","https://app.prolific.com/","en-GB,en;q=0.9,en-US;q=0.8,zu;q=0.7,es;q=0.6","6129dca465e41b5ae1b262da","683db7602f5db6a34d12d064","686e6757ac84e5f447d70362","1","6129dca465e41b5ae1b262da","1","2025-07-09T13:03:24.763Z","","","","","","","","","","","MotivationQ","","50","","","","","","","","","","","","","","","","","","","","","","","","","","","","",""
"","","","","ctl-task-cpt","14","322744","0.0-5.0-0.1","31","1","2025-07-09 12:58:30","01610cd0009c79a99da7d0a3353eb402","105.1.167.152","Mozilla/5.0 (Windows NT 10.0; Win64; x64) AppleWebKit/537.36 (KHTML, like Gecko) Chrome/138.0.0.0 Safari/537.36","WebKit","Chrome","138.0.0.0","Windows","10.0","https://app.prolific.com/","en-GB,en;q=0.9,en-US;q=0.8,zu;q=0.7,es;q=0.6","6129dca465e41b5ae1b262da","683db7602f5db6a34d12d064","686e6757ac84e5f447d70362","1","6129dca465e41b5ae1b262da","1","2025-07-09T13:03:56.597Z","","","","","","","","","","","","","","win-only","2","g1:SE,g2:NW","0.9","2","0","293530.5","2942.8","7955.2","28813.8","1","4","4","6","2","4","4","11","7","0.08333333333333333","1746.7","3000","1120","[""left"",""up""]","{""num_key_presses"":6,""num_perfect"":6,""num_errors"":0,""num_randdir"":0,""num_randdir_good_moves"":0,""num_whilered"":0,""num_whileblue"":0,""num_blue"":1,""num_good_moves"":6}","[292.22232142857143,294.12857142857143,1.2,292.22232142857143,294.12857142857143,102.9,292.22232142857143,294.12857142857143,205.8,292.22232142857143,294.12857142857143,310.2,292.22232142857143,294.12857142857143,419,292.22232142857143,294.12857142857143,524.4,292.22232142857143,294.12857142857143,630.5,292.22232142857143,294.12857142857143,731.8,292.22232142857143,294.12857142857143,843.2,292.22232142857143,294.12857142857143,945.9,216.22232142857143,176.12857142857143,1046.3,187.22232142857143,118.12857142857143,1149.8,141.22232142857143,78.12857142857143,1253.1,94.22232142857143,62.128571428571426,1354.6,68.22232142857143,51.128571428571426,1459.4,66.22232142857143,51.128571428571426,1562,66.22232142857143,51.128571428571426,1663,66.22232142857143,51.128571428571426,1767.3,66.22232142857143,51.128571428571426,1874.4,66.22232142857143,51.128571428571426,1976.3,66.22232142857143,51.128571428571426,2083.3,66.22232142857143,51.128571428571426,2191.4,66.22232142857143,51.128571428571426,2294.9,66.22232142857143,51.128571428571426,2402.1,66.22232142857143,51.128571428571426,2509.4,66.22232142857143,51.128571428571426,2624.2,66.22232142857143,51.128571428571426,2724.9,66.22232142857143,51.128571428571426,2825.7,66.22232142857143,51.128571428571426,2926.1,66.22232142857143,51.128571428571426,3029.9,66.22232142857143,51.128571428571426,3132.5,66.22232142857143,51.128571428571426,3237.2,66.22232142857143,51.128571428571426,3339.2,66.22232142857143,51.128571428571426,3440.6,66.22232142857143,51.128571428571426,3540.7,66.22232142857143,51.128571428571426,3648.3,66.22232142857143,51.128571428571426,3750.4,66.22232142857143,51.128571428571426,3858,66.22232142857143,51.128571428571426,3958.7,66.22232142857143,51.128571428571426,4064.8,66.22232142857143,51.128571428571426,4170.2,66.22232142857143,51.128571428571426,4273.3,66.22232142857143,51.128571428571426,4374.6,66.22232142857143,51.128571428571426,4476.3,66.22232142857143,51.128571428571426,4576.6,66.22232142857143,51.128571428571426,4676.8,66.22232142857143,51.128571428571426,4778.8,66.22232142857143,51.128571428571426,4887.8,66.22232142857143,51.128571428571426,4994.7]","[1430.6,1430.6,1000,0,430.6,""smooth"",""left"",""left"",""good_move"",4148.9,2717,2178.5,1431.9,538.5,""smooth"",""left"",""left"",""good_move"",7762,3610.7,3087.1,4151.3,523.6,""smooth"",""left"",""left"",""good_move"",14528.5,6765.3,2510.4,11612.2,405.9,""smooth"",""up"",""up"",""good_move"",17721.8,3192.6,2752.6,14529.2,440,""smooth"",""up"",""up"",""good_move"",20733.2,3009.3,2589.2,17723.9,420.2,""smooth"",""up"",""up"",""good_move""]","",""
"4623","","<div style=""width:500px;"">
  <p>What determined the result of this run?</p>
  </div>","100","html-slider-response","15","327371","0.0-5.0-1.1","31","1","2025-07-09 12:58:30","01610cd0009c79a99da7d0a3353eb402","105.1.167.152","Mozilla/5.0 (Windows NT 10.0; Win64; x64) AppleWebKit/537.36 (KHTML, like Gecko) Chrome/138.0.0.0 Safari/537.36","WebKit","Chrome","138.0.0.0","Windows","10.0","https://app.prolific.com/","en-GB,en;q=0.9,en-US;q=0.8,zu;q=0.7,es;q=0.6","6129dca465e41b5ae1b262da","683db7602f5db6a34d12d064","686e6757ac84e5f447d70362","1","6129dca465e41b5ae1b262da","1","2025-07-09T13:04:01.224Z","","","","","","","","","","","AttribQ","","50","","","","","","","","","","","","","","","","","","","","","","","","","","","","",""
"3682","","<div style=""width:500px;"">
  <p>How much control did you have over the ball?</p>
  </div>","100","html-slider-response","16","331057","0.0-5.0-2.1","31","1","2025-07-09 12:58:30","01610cd0009c79a99da7d0a3353eb402","105.1.167.152","Mozilla/5.0 (Windows NT 10.0; Win64; x64) AppleWebKit/537.36 (KHTML, like Gecko) Chrome/138.0.0.0 Safari/537.36","WebKit","Chrome","138.0.0.0","Windows","10.0","https://app.prolific.com/","en-GB,en;q=0.9,en-US;q=0.8,zu;q=0.7,es;q=0.6","6129dca465e41b5ae1b262da","683db7602f5db6a34d12d064","686e6757ac84e5f447d70362","1","6129dca465e41b5ae1b262da","1","2025-07-09T13:04:04.910Z","","","","","","","","","","","ControlQ","","50","","","","","","","","","","","","","","","","","","","","","","","","","","","","",""
"3133","","<div style=""width:500px;"">
  <p>How would you describe your current emotional state?</p>
  </div>","0","html-slider-response","17","334200","0.0-5.0-3.1","31","1","2025-07-09 12:58:30","01610cd0009c79a99da7d0a3353eb402","105.1.167.152","Mozilla/5.0 (Windows NT 10.0; Win64; x64) AppleWebKit/537.36 (KHTML, like Gecko) Chrome/138.0.0.0 Safari/537.36","WebKit","Chrome","138.0.0.0","Windows","10.0","https://app.prolific.com/","en-GB,en;q=0.9,en-US;q=0.8,zu;q=0.7,es;q=0.6","6129dca465e41b5ae1b262da","683db7602f5db6a34d12d064","686e6757ac84e5f447d70362","1","6129dca465e41b5ae1b262da","1","2025-07-09T13:04:08.053Z","","","","","","","","","","","StressQ","","50","","","","","","","","","","","","","","","","","","","","","","","","","","","","",""
"3436","","<div style=""width:500px;"">
  <p>What best describes how you currently feel?</p>
  </div>","100","html-slider-response","18","337641","0.0-5.0-4.1","31","1","2025-07-09 12:58:30","01610cd0009c79a99da7d0a3353eb402","105.1.167.152","Mozilla/5.0 (Windows NT 10.0; Win64; x64) AppleWebKit/537.36 (KHTML, like Gecko) Chrome/138.0.0.0 Safari/537.36","WebKit","Chrome","138.0.0.0","Windows","10.0","https://app.prolific.com/","en-GB,en;q=0.9,en-US;q=0.8,zu;q=0.7,es;q=0.6","6129dca465e41b5ae1b262da","683db7602f5db6a34d12d064","686e6757ac84e5f447d70362","1","6129dca465e41b5ae1b262da","1","2025-07-09T13:04:11.494Z","","","","","","","","","","","MotivationQ","","50","","","","","","","","","","","","","","","","","","","","","","","","","","","","",""
"","","","","ctl-task-cpt","19","365500","0.0-5.0-0.2","31","1","2025-07-09 12:58:30","01610cd0009c79a99da7d0a3353eb402","105.1.167.152","Mozilla/5.0 (Windows NT 10.0; Win64; x64) AppleWebKit/537.36 (KHTML, like Gecko) Chrome/138.0.0.0 Safari/537.36","WebKit","Chrome","138.0.0.0","Windows","10.0","https://app.prolific.com/","en-GB,en;q=0.9,en-US;q=0.8,zu;q=0.7,es;q=0.6","6129dca465e41b5ae1b262da","683db7602f5db6a34d12d064","686e6757ac84e5f447d70362","1","6129dca465e41b5ae1b262da","1","2025-07-09T13:04:39.354Z","","","","","","","","","","","","","","win-only","0","g1:NW,g2:SE","0.8","3","0","340266.2","1679.6","6693.9","24838.4","1","4","8","6","2","8","8","19","11","0.14393939393939395","1440.5","3000","1155","[""down"",""right""]","{""num_key_presses"":6,""num_perfect"":5,""num_errors"":0,""num_randdir"":1,""num_randdir_good_moves"":1,""num_whilered"":0,""num_whileblue"":0,""num_blue"":0,""num_good_moves"":6}","[293.22232142857143,297.12857142857143,0.8,293.22232142857143,297.12857142857143,100.9,293.22232142857143,297.12857142857143,201.3,293.22232142857143,297.12857142857143,303.4,293.22232142857143,297.12857142857143,408.9,293.22232142857143,297.12857142857143,520.6,293.22232142857143,297.12857142857143,624.5,381.22232142857143,361.12857142857143,728.3,492.22232142857143,526.1285714285714,828.3,514.2223214285714,559.1285714285714,939.4,523.2223214285714,560.1285714285714,1043.8,542.2223214285714,557.1285714285714,1147.7,554.2223214285714,549.1285714285714,1253.4,554.2223214285714,549.1285714285714,1358.8,554.2223214285714,549.1285714285714,1468.8,554.2223214285714,549.1285714285714,1578.9,554.2223214285714,549.1285714285714,1689.4,554.2223214285714,549.1285714285714,1792,554.2223214285714,549.1285714285714,1893.7,554.2223214285714,549.1285714285714,1998.4,554.2223214285714,549.1285714285714,2104.6,554.2223214285714,549.1285714285714,2217.4,554.2223214285714,549.1285714285714,2323.4,554.2223214285714,549.1285714285714,2425.3,554.2223214285714,549.1285714285714,2526.2,554.2223214285714,549.1285714285714,2629.9,554.2223214285714,549.1285714285714,2731.8,554.2223214285714,549.1285714285714,2838.2,554.2223214285714,549.1285714285714,2939.8,554.2223214285714,549.1285714285714,3041.3,554.2223214285714,549.1285714285714,3145,554.2223214285714,549.1285714285714,3246.2,554.2223214285714,549.1285714285714,3347.3,554.2223214285714,549.1285714285714,3448.1,554.2223214285714,549.1285714285714,3549.4,554.2223214285714,549.1285714285714,3658.9,554.2223214285714,549.1285714285714,3761.8,554.2223214285714,549.1285714285714,3864.3,554.2223214285714,549.1285714285714,3975.4,554.2223214285714,549.1285714285714,4076.9,554.2223214285714,549.1285714285714,4177.3,554.2223214285714,549.1285714285714,4278.8,554.2223214285714,549.1285714285714,4381,554.2223214285714,549.1285714285714,4490.4,554.2223214285714,549.1285714285714,4591.9,554.2223214285714,549.1285714285714,4697.7,554.2223214285714,549.1285714285714,4804.6,554.2223214285714,549.1285714285714,4908.2]","[1494.5,1494.5,1000,0,494.5,""smooth"",""right"",""right"",""good_move"",4995.4,3499.6,2981.2,1495.8,518.4,""smooth"",""right"",""right"",""good_move"",7800.2,2804.1,2356.7,4996.1,447.4,""oops"",""right"",""right"",""good_move"",11580.8,3779.6,3365.4,7801.2,414.2,""smooth"",""down"",""down"",""good_move"",15039.8,3454.2,3052.2,11585.6,402,""smooth"",""down"",""down"",""good_move"",18012.9,2971.7,2547.7,15041.3,423.9,""smooth"",""down"",""down"",""good_move""]","",""
"4110","","<div style=""width:500px;"">
  <p>What determined the result of this run?</p>
  </div>","100","html-slider-response","20","369614","0.0-5.0-1.2","31","1","2025-07-09 12:58:30","01610cd0009c79a99da7d0a3353eb402","105.1.167.152","Mozilla/5.0 (Windows NT 10.0; Win64; x64) AppleWebKit/537.36 (KHTML, like Gecko) Chrome/138.0.0.0 Safari/537.36","WebKit","Chrome","138.0.0.0","Windows","10.0","https://app.prolific.com/","en-GB,en;q=0.9,en-US;q=0.8,zu;q=0.7,es;q=0.6","6129dca465e41b5ae1b262da","683db7602f5db6a34d12d064","686e6757ac84e5f447d70362","1","6129dca465e41b5ae1b262da","1","2025-07-09T13:04:43.467Z","","","","","","","","","","","AttribQ","","50","","","","","","","","","","","","","","","","","","","","","","","","","","","","",""
"4009","","<div style=""width:500px;"">
  <p>How much control did you have over the ball?</p>
  </div>","100","html-slider-response","21","373627","0.0-5.0-2.2","31","1","2025-07-09 12:58:30","01610cd0009c79a99da7d0a3353eb402","105.1.167.152","Mozilla/5.0 (Windows NT 10.0; Win64; x64) AppleWebKit/537.36 (KHTML, like Gecko) Chrome/138.0.0.0 Safari/537.36","WebKit","Chrome","138.0.0.0","Windows","10.0","https://app.prolific.com/","en-GB,en;q=0.9,en-US;q=0.8,zu;q=0.7,es;q=0.6","6129dca465e41b5ae1b262da","683db7602f5db6a34d12d064","686e6757ac84e5f447d70362","1","6129dca465e41b5ae1b262da","1","2025-07-09T13:04:47.480Z","","","","","","","","","","","ControlQ","","50","","","","","","","","","","","","","","","","","","","","","","","","","","","","",""
"4368","","<div style=""width:500px;"">
  <p>How would you describe your current emotional state?</p>
  </div>","0","html-slider-response","22","378000","0.0-5.0-3.2","31","1","2025-07-09 12:58:30","01610cd0009c79a99da7d0a3353eb402","105.1.167.152","Mozilla/5.0 (Windows NT 10.0; Win64; x64) AppleWebKit/537.36 (KHTML, like Gecko) Chrome/138.0.0.0 Safari/537.36","WebKit","Chrome","138.0.0.0","Windows","10.0","https://app.prolific.com/","en-GB,en;q=0.9,en-US;q=0.8,zu;q=0.7,es;q=0.6","6129dca465e41b5ae1b262da","683db7602f5db6a34d12d064","686e6757ac84e5f447d70362","1","6129dca465e41b5ae1b262da","1","2025-07-09T13:04:51.853Z","","","","","","","","","","","StressQ","","50","","","","","","","","","","","","","","","","","","","","","","","","","","","","",""
"4585","","<div style=""width:500px;"">
  <p>What best describes how you currently feel?</p>
  </div>","100","html-slider-response","23","382591","0.0-5.0-4.2","31","1","2025-07-09 12:58:30","01610cd0009c79a99da7d0a3353eb402","105.1.167.152","Mozilla/5.0 (Windows NT 10.0; Win64; x64) AppleWebKit/537.36 (KHTML, like Gecko) Chrome/138.0.0.0 Safari/537.36","WebKit","Chrome","138.0.0.0","Windows","10.0","https://app.prolific.com/","en-GB,en;q=0.9,en-US;q=0.8,zu;q=0.7,es;q=0.6","6129dca465e41b5ae1b262da","683db7602f5db6a34d12d064","686e6757ac84e5f447d70362","1","6129dca465e41b5ae1b262da","1","2025-07-09T13:04:56.444Z","","","","","","","","","","","MotivationQ","","50","","","","","","","","","","","","","","","","","","","","","","","","","","","","",""
"","","","","ctl-task-cpt","24","428073","0.0-5.0-0.3","31","1","2025-07-09 12:58:30","01610cd0009c79a99da7d0a3353eb402","105.1.167.152","Mozilla/5.0 (Windows NT 10.0; Win64; x64) AppleWebKit/537.36 (KHTML, like Gecko) Chrome/138.0.0.0 Safari/537.36","WebKit","Chrome","138.0.0.0","Windows","10.0","https://app.prolific.com/","en-GB,en;q=0.9,en-US;q=0.8,zu;q=0.7,es;q=0.6","6129dca465e41b5ae1b262da","683db7602f5db6a34d12d064","686e6757ac84e5f447d70362","1","6129dca465e41b5ae1b262da","1","2025-07-09T13:05:41.926Z","","","","","","","","","","","","","","win-only","1","g1:NE,g2:SW","0.7","4","0","385215.6","1969.9","6977.8","42461.4","1","4","4","6","2","4","4","23","19","0.17424242424242425","1447.1","3000","610","[""down"",""left""]","{""num_key_presses"":8,""num_perfect"":5,""num_errors"":0,""num_randdir"":3,""num_randdir_good_moves"":2,""num_whilered"":0,""num_whileblue"":0,""num_blue"":4,""num_good_moves"":7}","[298.22232142857143,296.12857142857143,1,298.22232142857143,296.12857142857143,103.4,298.22232142857143,296.12857142857143,211.9,298.22232142857143,296.12857142857143,327.7,298.22232142857143,296.12857142857143,436,298.22232142857143,296.12857142857143,547.9,298.22232142857143,296.12857142857143,649.1,298.22232142857143,296.12857142857143,752.7,117.22232142857143,496.12857142857143,864.1,92.22232142857143,525.1285714285714,965.2,85.22232142857143,534.1285714285714,1066.9,75.22232142857143,545.1285714285714,1174.1,67.22232142857143,545.1285714285714,1277.2,67.22232142857143,545.1285714285714,1377.5,67.22232142857143,545.1285714285714,1477.6,67.22232142857143,545.1285714285714,1581.7,67.22232142857143,545.1285714285714,1694.3,67.22232142857143,545.1285714285714,1796.5,67.22232142857143,545.1285714285714,1904.7,67.22232142857143,545.1285714285714,2011.8,67.22232142857143,545.1285714285714,2126.6,67.22232142857143,545.1285714285714,2231.5,67.22232142857143,545.1285714285714,2336,67.22232142857143,545.1285714285714,2445.5,67.22232142857143,545.1285714285714,2552.7,67.22232142857143,545.1285714285714,2656.6,67.22232142857143,545.1285714285714,2757.5,67.22232142857143,545.1285714285714,2861.1,67.22232142857143,545.1285714285714,2965.6,67.22232142857143,545.1285714285714,3075.5,67.22232142857143,545.1285714285714,3177,67.22232142857143,545.1285714285714,3292.8,67.22232142857143,545.1285714285714,3396.9,67.22232142857143,545.1285714285714,3504,67.22232142857143,545.1285714285714,3609.1,67.22232142857143,545.1285714285714,3711.6,67.22232142857143,545.1285714285714,3825.6,67.22232142857143,545.1285714285714,3927.7,67.22232142857143,545.1285714285714,4037,67.22232142857143,545.1285714285714,4138.1,67.22232142857143,545.1285714285714,4241.3,67.22232142857143,545.1285714285714,4341.5,67.22232142857143,545.1285714285714,4453.8,67.22232142857143,545.1285714285714,4559.7,67.22232142857143,545.1285714285714,4660.3,67.22232142857143,545.1285714285714,4766.4,67.22232142857143,545.1285714285714,4874.1,67.22232142857143,545.1285714285714,4974.8]","[1715,1715,1000,0,715.1,""oops"",""down"",""down"",""good_move"",4719.6,3003.6,2572.2,1716,431.4,""smooth"",""down"",""down"",""good_move"",7046.3,2323.9,1936.8,4722.4,387.1,""oops"",""down"",""down"",""good_move"",21266.8,14218.9,2551.8,18287.1,427.9,""smooth"",""left"",""left"",""good_move"",23886.9,2618.6,2193.9,21268.3,424.7,""smooth"",""left"",""left"",""good_move"",26810.5,2921.9,2513.3,23888.7,408.6,""oops"",""left"",""right"",""bad_move"",29154.9,2342.7,1860.7,26812.2,482,""smooth"",""left"",""left"",""good_move"",35368,6212.4,2270.5,32679.2,418.3,""smooth"",""left"",""left"",""good_move""]","",""
"4342","","<div style=""width:500px;"">
  <p>What determined the result of this run?</p>
  </div>","100","html-slider-response","25","432419","0.0-5.0-1.3","31","1","2025-07-09 12:58:30","01610cd0009c79a99da7d0a3353eb402","105.1.167.152","Mozilla/5.0 (Windows NT 10.0; Win64; x64) AppleWebKit/537.36 (KHTML, like Gecko) Chrome/138.0.0.0 Safari/537.36","WebKit","Chrome","138.0.0.0","Windows","10.0","https://app.prolific.com/","en-GB,en;q=0.9,en-US;q=0.8,zu;q=0.7,es;q=0.6","6129dca465e41b5ae1b262da","683db7602f5db6a34d12d064","686e6757ac84e5f447d70362","1","6129dca465e41b5ae1b262da","1","2025-07-09T13:05:46.272Z","","","","","","","","","","","AttribQ","","50","","","","","","","","","","","","","","","","","","","","","","","","","","","","",""
"4665","","<div style=""width:500px;"">
  <p>How much control did you have over the ball?</p>
  </div>","55","html-slider-response","26","437087","0.0-5.0-2.3","31","1","2025-07-09 12:58:30","01610cd0009c79a99da7d0a3353eb402","105.1.167.152","Mozilla/5.0 (Windows NT 10.0; Win64; x64) AppleWebKit/537.36 (KHTML, like Gecko) Chrome/138.0.0.0 Safari/537.36","WebKit","Chrome","138.0.0.0","Windows","10.0","https://app.prolific.com/","en-GB,en;q=0.9,en-US;q=0.8,zu;q=0.7,es;q=0.6","6129dca465e41b5ae1b262da","683db7602f5db6a34d12d064","686e6757ac84e5f447d70362","1","6129dca465e41b5ae1b262da","1","2025-07-09T13:05:50.940Z","","","","","","","","","","","ControlQ","","50","","","","","","","","","","","","","","","","","","","","","","","","","","","","",""
"4373","","<div style=""width:500px;"">
  <p>How would you describe your current emotional state?</p>
  </div>","0","html-slider-response","27","441464","0.0-5.0-3.3","31","1","2025-07-09 12:58:30","01610cd0009c79a99da7d0a3353eb402","105.1.167.152","Mozilla/5.0 (Windows NT 10.0; Win64; x64) AppleWebKit/537.36 (KHTML, like Gecko) Chrome/138.0.0.0 Safari/537.36","WebKit","Chrome","138.0.0.0","Windows","10.0","https://app.prolific.com/","en-GB,en;q=0.9,en-US;q=0.8,zu;q=0.7,es;q=0.6","6129dca465e41b5ae1b262da","683db7602f5db6a34d12d064","686e6757ac84e5f447d70362","1","6129dca465e41b5ae1b262da","1","2025-07-09T13:05:55.317Z","","","","","","","","","","","StressQ","","50","","","","","","","","","","","","","","","","","","","","","","","","","","","","",""
"3855","","<div style=""width:500px;"">
  <p>What best describes how you currently feel?</p>
  </div>","100","html-slider-response","28","445326","0.0-5.0-4.3","31","1","2025-07-09 12:58:30","01610cd0009c79a99da7d0a3353eb402","105.1.167.152","Mozilla/5.0 (Windows NT 10.0; Win64; x64) AppleWebKit/537.36 (KHTML, like Gecko) Chrome/138.0.0.0 Safari/537.36","WebKit","Chrome","138.0.0.0","Windows","10.0","https://app.prolific.com/","en-GB,en;q=0.9,en-US;q=0.8,zu;q=0.7,es;q=0.6","6129dca465e41b5ae1b262da","683db7602f5db6a34d12d064","686e6757ac84e5f447d70362","1","6129dca465e41b5ae1b262da","1","2025-07-09T13:05:59.180Z","","","","","","","","","","","MotivationQ","","50","","","","","","","","","","","","","","","","","","","","","","","","","","","","",""
"","","","","ctl-task-cpt","29","496300","0.0-5.0-0.4","31","1","2025-07-09 12:58:30","01610cd0009c79a99da7d0a3353eb402","105.1.167.152","Mozilla/5.0 (Windows NT 10.0; Win64; x64) AppleWebKit/537.36 (KHTML, like Gecko) Chrome/138.0.0.0 Safari/537.36","WebKit","Chrome","138.0.0.0","Windows","10.0","https://app.prolific.com/","en-GB,en;q=0.9,en-US;q=0.8,zu;q=0.7,es;q=0.6","6129dca465e41b5ae1b262da","683db7602f5db6a34d12d064","686e6757ac84e5f447d70362","1","6129dca465e41b5ae1b262da","1","2025-07-09T13:06:50.153Z","","","","","","","","","","","","","","win-only","0","g1:NW,g2:SE","0.6","5","0","447950.8","2066.3","7069.9","47951.4","1","4","8","6","2","-8","-8","15","23","0.11363636363636363","1418.7","3000","-1990","[""down"",""right""]","{""num_key_presses"":10,""num_perfect"":6,""num_errors"":0,""num_randdir"":4,""num_randdir_good_moves"":1,""num_whilered"":0,""num_whileblue"":0,""num_blue"":4,""num_good_moves"":7}","[292.22232142857143,294.12857142857143,1,292.22232142857143,294.12857142857143,106,292.22232142857143,294.12857142857143,219.1,292.22232142857143,294.12857142857143,322.3,292.22232142857143,294.12857142857143,429.5,292.22232142857143,294.12857142857143,530.2,301.22232142857143,304.12857142857143,641.3,441.22232142857143,450.12857142857143,746.2,481.22232142857143,490.12857142857143,847.8,511.22232142857143,519.1285714285714,952.3,542.2223214285714,533.1285714285714,1057.7,558.2223214285714,540.1285714285714,1165.5,559.2223214285714,541.1285714285714,1270.3,559.2223214285714,541.1285714285714,1371,559.2223214285714,541.1285714285714,1471,559.2223214285714,541.1285714285714,1579,559.2223214285714,541.1285714285714,1685.5,559.2223214285714,541.1285714285714,1787.6,559.2223214285714,541.1285714285714,1896,559.2223214285714,541.1285714285714,2000.8,559.2223214285714,541.1285714285714,2102.4,559.2223214285714,541.1285714285714,2203.5,559.2223214285714,541.1285714285714,2303.7,559.2223214285714,541.1285714285714,2404.2,559.2223214285714,541.1285714285714,2508.2,559.2223214285714,541.1285714285714,2614.5,559.2223214285714,541.1285714285714,2714.5,559.2223214285714,541.1285714285714,2816.6,559.2223214285714,541.1285714285714,2923.7,559.2223214285714,541.1285714285714,3032.3,559.2223214285714,541.1285714285714,3135.6,559.2223214285714,541.1285714285714,3238.8,559.2223214285714,541.1285714285714,3340.1,559.2223214285714,541.1285714285714,3445.7,559.2223214285714,541.1285714285714,3546.1,559.2223214285714,541.1285714285714,3650.4,559.2223214285714,541.1285714285714,3750.8,559.2223214285714,541.1285714285714,3851,559.2223214285714,541.1285714285714,3951.1,559.2223214285714,541.1285714285714,4054.3,559.2223214285714,541.1285714285714,4159,559.2223214285714,541.1285714285714,4263.4,559.2223214285714,541.1285714285714,4364,559.2223214285714,541.1285714285714,4467.6,559.2223214285714,541.1285714285714,4577.4,559.2223214285714,541.1285714285714,4678.8,559.2223214285714,541.1285714285714,4785.9,559.2223214285714,541.1285714285714,4893.9,559.2223214285714,541.1285714285714,4997.6]","[4540.5,4540.5,2030.4,2013.2,496.9,""smooth"",""down"",""down"",""good_move"",7752.2,3205.2,2738.5,4547,466.7,""smooth"",""down"",""down"",""good_move"",10491.3,2738.1,2306.4,7753.2,431.7,""oops"",""down"",""down"",""good_move"",13740.3,3243.8,2682.6,10496.5,561.2,""oops"",""right"",""up"",""bad_move"",19529.8,5786.7,2263.3,16898.8,367.7,""smooth"",""right"",""right"",""good_move"",22158.8,2628.3,2142,19530.5,486.3,""oops"",""right"",""up"",""bad_move"",27741.2,5581.7,2400.6,24952.7,387.9,""smooth"",""right"",""right"",""good_move"",30011.5,2269.8,1908.4,27741.7,361.4,""smooth"",""right"",""right"",""good_move"",32446,2433.8,2050.9,30012.2,382.9,""smooth"",""down"",""down"",""good_move"",38281.4,5835.1,2931.8,34823.5,529.5,""oops"",""down"",""left"",""bad_move""]","",""
"7221","","<div style=""width:500px;"">
  <p>What determined the result of this run?</p>
  </div>","0","html-slider-response","30","503523","0.0-5.0-1.4","31","1","2025-07-09 12:58:30","01610cd0009c79a99da7d0a3353eb402","105.1.167.152","Mozilla/5.0 (Windows NT 10.0; Win64; x64) AppleWebKit/537.36 (KHTML, like Gecko) Chrome/138.0.0.0 Safari/537.36","WebKit","Chrome","138.0.0.0","Windows","10.0","https://app.prolific.com/","en-GB,en;q=0.9,en-US;q=0.8,zu;q=0.7,es;q=0.6","6129dca465e41b5ae1b262da","683db7602f5db6a34d12d064","686e6757ac84e5f447d70362","1","6129dca465e41b5ae1b262da","1","2025-07-09T13:06:57.376Z","","","","","","","","","","","AttribQ","","50","","","","","","","","","","","","","","","","","","","","","","","","","","","","",""
"3686","","<div style=""width:500px;"">
  <p>How much control did you have over the ball?</p>
  </div>","0","html-slider-response","31","507213","0.0-5.0-2.4","31","1","2025-07-09 12:58:30","01610cd0009c79a99da7d0a3353eb402","105.1.167.152","Mozilla/5.0 (Windows NT 10.0; Win64; x64) AppleWebKit/537.36 (KHTML, like Gecko) Chrome/138.0.0.0 Safari/537.36","WebKit","Chrome","138.0.0.0","Windows","10.0","https://app.prolific.com/","en-GB,en;q=0.9,en-US;q=0.8,zu;q=0.7,es;q=0.6","6129dca465e41b5ae1b262da","683db7602f5db6a34d12d064","686e6757ac84e5f447d70362","1","6129dca465e41b5ae1b262da","1","2025-07-09T13:07:01.066Z","","","","","","","","","","","ControlQ","","50","","","","","","","","","","","","","","","","","","","","","","","","","","","","",""
"4195","","<div style=""width:500px;"">
  <p>How would you describe your current emotional state?</p>
  </div>","0","html-slider-response","32","511410","0.0-5.0-3.4","31","1","2025-07-09 12:58:30","01610cd0009c79a99da7d0a3353eb402","105.1.167.152","Mozilla/5.0 (Windows NT 10.0; Win64; x64) AppleWebKit/537.36 (KHTML, like Gecko) Chrome/138.0.0.0 Safari/537.36","WebKit","Chrome","138.0.0.0","Windows","10.0","https://app.prolific.com/","en-GB,en;q=0.9,en-US;q=0.8,zu;q=0.7,es;q=0.6","6129dca465e41b5ae1b262da","683db7602f5db6a34d12d064","686e6757ac84e5f447d70362","1","6129dca465e41b5ae1b262da","1","2025-07-09T13:07:05.263Z","","","","","","","","","","","StressQ","","50","","","","","","","","","","","","","","","","","","","","","","","","","","","","",""
"4631","","<div style=""width:500px;"">
  <p>What best describes how you currently feel?</p>
  </div>","100","html-slider-response","33","516044","0.0-5.0-4.4","31","1","2025-07-09 12:58:30","01610cd0009c79a99da7d0a3353eb402","105.1.167.152","Mozilla/5.0 (Windows NT 10.0; Win64; x64) AppleWebKit/537.36 (KHTML, like Gecko) Chrome/138.0.0.0 Safari/537.36","WebKit","Chrome","138.0.0.0","Windows","10.0","https://app.prolific.com/","en-GB,en;q=0.9,en-US;q=0.8,zu;q=0.7,es;q=0.6","6129dca465e41b5ae1b262da","683db7602f5db6a34d12d064","686e6757ac84e5f447d70362","1","6129dca465e41b5ae1b262da","1","2025-07-09T13:07:09.897Z","","","","","","","","","","","MotivationQ","","50","","","","","","","","","","","","","","","","","","","","","","","","","","","","",""
"","","","","ctl-task-cpt","34","554216","0.0-5.0-0.5","31","1","2025-07-09 12:58:30","01610cd0009c79a99da7d0a3353eb402","105.1.167.152","Mozilla/5.0 (Windows NT 10.0; Win64; x64) AppleWebKit/537.36 (KHTML, like Gecko) Chrome/138.0.0.0 Safari/537.36","WebKit","Chrome","138.0.0.0","Windows","10.0","https://app.prolific.com/","en-GB,en;q=0.9,en-US;q=0.8,zu;q=0.7,es;q=0.6","6129dca465e41b5ae1b262da","683db7602f5db6a34d12d064","686e6757ac84e5f447d70362","1","6129dca465e41b5ae1b262da","1","2025-07-09T13:07:48.070Z","","","","","","","","","","","","","","win-only","3","g1:SW,g2:NE","0.5","6","0","518665.4","15892.1","20901.5","35149.8","1","4","4","6","2","4","4","19","15","0.14393939393939395","1593.2","3000","1255","[""up"",""right""]","{""num_key_presses"":6,""num_perfect"":4,""num_errors"":0,""num_randdir"":2,""num_randdir_good_moves"":2,""num_whilered"":0,""num_whileblue"":0,""num_blue"":0,""num_good_moves"":6}","[296.22232142857143,303.12857142857143,0.7,296.22232142857143,303.12857142857143,107.9,296.22232142857143,303.12857142857143,212.4,296.22232142857143,303.12857142857143,313.9,296.22232142857143,303.12857142857143,418.8,296.22232142857143,303.12857142857143,524.7,296.22232142857143,303.12857142857143,628.8,296.22232142857143,303.12857142857143,732.8,296.22232142857143,303.12857142857143,832.9,296.22232142857143,303.12857142857143,935.5,459.22232142857143,124.12857142857143,1041.7,496.22232142857143,86.12857142857143,1149.1,529.2223214285714,59.128571428571426,1259.3,537.2223214285714,56.128571428571426,1359.3,539.2223214285714,56.128571428571426,1460.1,539.2223214285714,56.128571428571426,1573.6,539.2223214285714,56.128571428571426,1676.5,539.2223214285714,56.128571428571426,1780.6,539.2223214285714,56.128571428571426,1881,539.2223214285714,56.128571428571426,1991.3,539.2223214285714,56.128571428571426,2096.2,539.2223214285714,56.128571428571426,2207.1,539.2223214285714,56.128571428571426,2311.5,539.2223214285714,56.128571428571426,2411.6,539.2223214285714,56.128571428571426,2512,539.2223214285714,56.128571428571426,2624.4,539.2223214285714,56.128571428571426,2728.7,539.2223214285714,56.128571428571426,2830,539.2223214285714,56.128571428571426,2930.6,539.2223214285714,56.128571428571426,3034.1,539.2223214285714,56.128571428571426,3138.6,539.2223214285714,56.128571428571426,3240.9,539.2223214285714,56.128571428571426,3355.5,539.2223214285714,56.128571428571426,3460.1,539.2223214285714,56.128571428571426,3561,539.2223214285714,56.128571428571426,3663.5,539.2223214285714,56.128571428571426,3765,539.2223214285714,56.128571428571426,3871.1,539.2223214285714,56.128571428571426,3972.9,539.2223214285714,56.128571428571426,4077.9,539.2223214285714,56.128571428571426,4179.6,539.2223214285714,56.128571428571426,4280.1,539.2223214285714,56.128571428571426,4388,539.2223214285714,56.128571428571426,4489.3,539.2223214285714,56.128571428571426,4592.1,539.2223214285714,56.128571428571426,4693.4,539.2223214285714,56.128571428571426,4795.6,539.2223214285714,56.128571428571426,4905.1]","[1421.5,1421.5,1000,0,421.5,""smooth"",""right"",""right"",""good_move"",4157.6,2731.7,2333.8,1425.9,397.9,""oops"",""right"",""up"",""good_move"",7015.5,2857,2481.7,4158.6,375.2,""smooth"",""right"",""right"",""good_move"",8912.5,1896.2,1469.2,7016.3,427,""smooth"",""right"",""right"",""good_move"",11153.5,2240.3,1820.3,8913.3,419.9,""smooth"",""up"",""up"",""good_move"",14109.3,2954.1,2488.4,11155.2,465.7,""oops"",""up"",""up"",""good_move""]","",""
"7455","","<div style=""width:500px;"">
  <p>What determined the result of this run?</p>
  </div>","89","html-slider-response","35","561674","0.0-5.0-1.5","31","1","2025-07-09 12:58:30","01610cd0009c79a99da7d0a3353eb402","105.1.167.152","Mozilla/5.0 (Windows NT 10.0; Win64; x64) AppleWebKit/537.36 (KHTML, like Gecko) Chrome/138.0.0.0 Safari/537.36","WebKit","Chrome","138.0.0.0","Windows","10.0","https://app.prolific.com/","en-GB,en;q=0.9,en-US;q=0.8,zu;q=0.7,es;q=0.6","6129dca465e41b5ae1b262da","683db7602f5db6a34d12d064","686e6757ac84e5f447d70362","1","6129dca465e41b5ae1b262da","1","2025-07-09T13:07:55.527Z","","","","","","","","","","","AttribQ","","50","","","","","","","","","","","","","","","","","","","","","","","","","","","","",""
"3990","","<div style=""width:500px;"">
  <p>How much control did you have over the ball?</p>
  </div>","69","html-slider-response","36","565667","0.0-5.0-2.5","31","1","2025-07-09 12:58:30","01610cd0009c79a99da7d0a3353eb402","105.1.167.152","Mozilla/5.0 (Windows NT 10.0; Win64; x64) AppleWebKit/537.36 (KHTML, like Gecko) Chrome/138.0.0.0 Safari/537.36","WebKit","Chrome","138.0.0.0","Windows","10.0","https://app.prolific.com/","en-GB,en;q=0.9,en-US;q=0.8,zu;q=0.7,es;q=0.6","6129dca465e41b5ae1b262da","683db7602f5db6a34d12d064","686e6757ac84e5f447d70362","1","6129dca465e41b5ae1b262da","1","2025-07-09T13:07:59.520Z","","","","","","","","","","","ControlQ","","50","","","","","","","","","","","","","","","","","","","","","","","","","","","","",""
"3392","","<div style=""width:500px;"">
  <p>How would you describe your current emotional state?</p>
  </div>","0","html-slider-response","37","569066","0.0-5.0-3.5","31","1","2025-07-09 12:58:30","01610cd0009c79a99da7d0a3353eb402","105.1.167.152","Mozilla/5.0 (Windows NT 10.0; Win64; x64) AppleWebKit/537.36 (KHTML, like Gecko) Chrome/138.0.0.0 Safari/537.36","WebKit","Chrome","138.0.0.0","Windows","10.0","https://app.prolific.com/","en-GB,en;q=0.9,en-US;q=0.8,zu;q=0.7,es;q=0.6","6129dca465e41b5ae1b262da","683db7602f5db6a34d12d064","686e6757ac84e5f447d70362","1","6129dca465e41b5ae1b262da","1","2025-07-09T13:08:02.919Z","","","","","","","","","","","StressQ","","50","","","","","","","","","","","","","","","","","","","","","","","","","","","","",""
"4316","","<div style=""width:500px;"">
  <p>What best describes how you currently feel?</p>
  </div>","100","html-slider-response","38","573384","0.0-5.0-4.5","31","1","2025-07-09 12:58:30","01610cd0009c79a99da7d0a3353eb402","105.1.167.152","Mozilla/5.0 (Windows NT 10.0; Win64; x64) AppleWebKit/537.36 (KHTML, like Gecko) Chrome/138.0.0.0 Safari/537.36","WebKit","Chrome","138.0.0.0","Windows","10.0","https://app.prolific.com/","en-GB,en;q=0.9,en-US;q=0.8,zu;q=0.7,es;q=0.6","6129dca465e41b5ae1b262da","683db7602f5db6a34d12d064","686e6757ac84e5f447d70362","1","6129dca465e41b5ae1b262da","1","2025-07-09T13:08:07.237Z","","","","","","","","","","","MotivationQ","","50","","","","","","","","","","","","","","","","","","","","","","","","","","","","",""
"","","","","ctl-task-cpt","39","599142","0.0-5.0-0.6","31","1","2025-07-09 12:58:30","01610cd0009c79a99da7d0a3353eb402","105.1.167.152","Mozilla/5.0 (Windows NT 10.0; Win64; x64) AppleWebKit/537.36 (KHTML, like Gecko) Chrome/138.0.0.0 Safari/537.36","WebKit","Chrome","138.0.0.0","Windows","10.0","https://app.prolific.com/","en-GB,en;q=0.9,en-US;q=0.8,zu;q=0.7,es;q=0.6","6129dca465e41b5ae1b262da","683db7602f5db6a34d12d064","686e6757ac84e5f447d70362","1","6129dca465e41b5ae1b262da","1","2025-07-09T13:08:32.995Z","","","","","","","","","","","","","","win-only","3","g1:SW,g2:NE","0.4","7","0","576003.2","1923.6","6931.6","22733.7","1","4","4","6","2","4","4","23","19","0.17424242424242425","1556.2","3000","1460","[""up"",""right""]","{""num_key_presses"":6,""num_perfect"":1,""num_errors"":0,""num_randdir"":5,""num_randdir_good_moves"":5,""num_whilered"":0,""num_whileblue"":0,""num_blue"":0,""num_good_moves"":6}","[301.22232142857143,297.12857142857143,0.6,301.22232142857143,297.12857142857143,107.8,301.22232142857143,297.12857142857143,211.1,301.22232142857143,297.12857142857143,316.3,301.22232142857143,297.12857142857143,417,301.22232142857143,297.12857142857143,519.9,301.22232142857143,297.12857142857143,622.1,301.22232142857143,297.12857142857143,722.9,301.22232142857143,297.12857142857143,824.2,461.22232142857143,142.12857142857143,925.7,500.22232142857143,103.12857142857143,1035.9,521.2223214285714,71.12857142857143,1135.9,542.2223214285714,52.128571428571426,1237.2,548.2223214285714,50.128571428571426,1337.2,548.2223214285714,50.128571428571426,1437.6,548.2223214285714,50.128571428571426,1580.4,548.2223214285714,50.128571428571426,1682.9,548.2223214285714,50.128571428571426,1785.2,548.2223214285714,50.128571428571426,1887.9,548.2223214285714,50.128571428571426,1997.6,548.2223214285714,50.128571428571426,2104.5,548.2223214285714,50.128571428571426,2217.9,548.2223214285714,50.128571428571426,2318.1,548.2223214285714,50.128571428571426,2427.6,548.2223214285714,50.128571428571426,2532.5,548.2223214285714,50.128571428571426,2642.8,548.2223214285714,50.128571428571426,2746.9,548.2223214285714,50.128571428571426,2847.1,548.2223214285714,50.128571428571426,2955.9,548.2223214285714,50.128571428571426,3059.5,548.2223214285714,50.128571428571426,3167.6,548.2223214285714,50.128571428571426,3268.2,548.2223214285714,50.128571428571426,3369.4,548.2223214285714,50.128571428571426,3479.3,548.2223214285714,50.128571428571426,3583.8,548.2223214285714,50.128571428571426,3685.5,548.2223214285714,50.128571428571426,3794.2,548.2223214285714,50.128571428571426,3897.8,548.2223214285714,50.128571428571426,4003.7,548.2223214285714,50.128571428571426,4114.9,548.2223214285714,50.128571428571426,4217.1,548.2223214285714,50.128571428571426,4317.3,548.2223214285714,50.128571428571426,4417.3,548.2223214285714,50.128571428571426,4517.5,548.2223214285714,50.128571428571426,4620.3,548.2223214285714,50.128571428571426,4720.5,548.2223214285714,50.128571428571426,4824.9,548.2223214285714,50.128571428571426,4930]","[1368.5,1368.6,1000,0,368.6,""oops"",""right"",""up"",""good_move"",4749.5,3379.7,2948.7,1369.8,431,""smooth"",""right"",""right"",""good_move"",7656.8,2906.1,2541.6,4750.7,364.5,""oops"",""right"",""up"",""good_move"",10724.2,3064.8,2595.1,7659.4,469.7,""oops"",""right"",""up"",""good_move"",13271.6,2546.5,2195,10725.1,351.5,""oops"",""right"",""right"",""good_move"",15655.9,2383.5,2030.7,13272.4,352.8,""oops"",""right"",""right"",""good_move""]","",""
"4832","","<div style=""width:500px;"">
  <p>What determined the result of this run?</p>
  </div>","46","html-slider-response","40","603975","0.0-5.0-1.6","31","1","2025-07-09 12:58:30","01610cd0009c79a99da7d0a3353eb402","105.1.167.152","Mozilla/5.0 (Windows NT 10.0; Win64; x64) AppleWebKit/537.36 (KHTML, like Gecko) Chrome/138.0.0.0 Safari/537.36","WebKit","Chrome","138.0.0.0","Windows","10.0","https://app.prolific.com/","en-GB,en;q=0.9,en-US;q=0.8,zu;q=0.7,es;q=0.6","6129dca465e41b5ae1b262da","683db7602f5db6a34d12d064","686e6757ac84e5f447d70362","1","6129dca465e41b5ae1b262da","1","2025-07-09T13:08:37.829Z","","","","","","","","","","","AttribQ","","50","","","","","","","","","","","","","","","","","","","","","","","","","","","","",""
"4350","","<div style=""width:500px;"">
  <p>How much control did you have over the ball?</p>
  </div>","72","html-slider-response","41","608328","0.0-5.0-2.6","31","1","2025-07-09 12:58:30","01610cd0009c79a99da7d0a3353eb402","105.1.167.152","Mozilla/5.0 (Windows NT 10.0; Win64; x64) AppleWebKit/537.36 (KHTML, like Gecko) Chrome/138.0.0.0 Safari/537.36","WebKit","Chrome","138.0.0.0","Windows","10.0","https://app.prolific.com/","en-GB,en;q=0.9,en-US;q=0.8,zu;q=0.7,es;q=0.6","6129dca465e41b5ae1b262da","683db7602f5db6a34d12d064","686e6757ac84e5f447d70362","1","6129dca465e41b5ae1b262da","1","2025-07-09T13:08:42.181Z","","","","","","","","","","","ControlQ","","50","","","","","","","","","","","","","","","","","","","","","","","","","","","","",""
"3595","","<div style=""width:500px;"">
  <p>How would you describe your current emotional state?</p>
  </div>","0","html-slider-response","42","611925","0.0-5.0-3.6","31","1","2025-07-09 12:58:30","01610cd0009c79a99da7d0a3353eb402","105.1.167.152","Mozilla/5.0 (Windows NT 10.0; Win64; x64) AppleWebKit/537.36 (KHTML, like Gecko) Chrome/138.0.0.0 Safari/537.36","WebKit","Chrome","138.0.0.0","Windows","10.0","https://app.prolific.com/","en-GB,en;q=0.9,en-US;q=0.8,zu;q=0.7,es;q=0.6","6129dca465e41b5ae1b262da","683db7602f5db6a34d12d064","686e6757ac84e5f447d70362","1","6129dca465e41b5ae1b262da","1","2025-07-09T13:08:45.779Z","","","","","","","","","","","StressQ","","50","","","","","","","","","","","","","","","","","","","","","","","","","","","","",""
"3479","","<div style=""width:500px;"">
  <p>What best describes how you currently feel?</p>
  </div>","100","html-slider-response","43","615406","0.0-5.0-4.6","31","1","2025-07-09 12:58:30","01610cd0009c79a99da7d0a3353eb402","105.1.167.152","Mozilla/5.0 (Windows NT 10.0; Win64; x64) AppleWebKit/537.36 (KHTML, like Gecko) Chrome/138.0.0.0 Safari/537.36","WebKit","Chrome","138.0.0.0","Windows","10.0","https://app.prolific.com/","en-GB,en;q=0.9,en-US;q=0.8,zu;q=0.7,es;q=0.6","6129dca465e41b5ae1b262da","683db7602f5db6a34d12d064","686e6757ac84e5f447d70362","1","6129dca465e41b5ae1b262da","1","2025-07-09T13:08:49.259Z","","","","","","","","","","","MotivationQ","","50","","","","","","","","","","","","","","","","","","","","","","","","","","","","",""
"","","","","ctl-task-cpt","44","668176","0.0-5.0-0.7","31","1","2025-07-09 12:58:30","01610cd0009c79a99da7d0a3353eb402","105.1.167.152","Mozilla/5.0 (Windows NT 10.0; Win64; x64) AppleWebKit/537.36 (KHTML, like Gecko) Chrome/138.0.0.0 Safari/537.36","WebKit","Chrome","138.0.0.0","Windows","10.0","https://app.prolific.com/","en-GB,en;q=0.9,en-US;q=0.8,zu;q=0.7,es;q=0.6","6129dca465e41b5ae1b262da","683db7602f5db6a34d12d064","686e6757ac84e5f447d70362","1","6129dca465e41b5ae1b262da","1","2025-07-09T13:09:42.029Z","","","","","","","","","","","","","","win-only","3","g1:SW,g2:NE","0.3","8","0","618023.6","1753.6","6763.4","49736.3","1","4","8","6","2","-8","-9","14","23","0.10606060606060606","1470.3","3000","-1740","[""up"",""right""]","{""num_key_presses"":11,""num_perfect"":3,""num_errors"":1,""num_randdir"":7,""num_randdir_good_moves"":3,""num_whilered"":0,""num_whileblue"":1,""num_blue"":4,""num_good_moves"":6}","[296.22232142857143,291.12857142857143,0.7,296.22232142857143,291.12857142857143,110,296.22232142857143,291.12857142857143,211,296.22232142857143,291.12857142857143,311.9,296.22232142857143,291.12857142857143,412,296.22232142857143,291.12857142857143,515.1,296.22232142857143,291.12857142857143,621.1,304.22232142857143,280.12857142857143,729.3,389.22232142857143,199.12857142857143,831.9,476.22232142857143,116.12857142857143,938,503.22232142857143,87.12857142857143,1041.6,516.2223214285714,71.12857142857143,1145.4,532.2223214285714,61.128571428571426,1258.1,532.2223214285714,61.128571428571426,1365.4,532.2223214285714,61.128571428571426,1477.4,532.2223214285714,61.128571428571426,1580.8,532.2223214285714,61.128571428571426,1689.9,532.2223214285714,61.128571428571426,1794.4,532.2223214285714,61.128571428571426,1897.1,532.2223214285714,61.128571428571426,2012,532.2223214285714,61.128571428571426,2118.5,532.2223214285714,61.128571428571426,2224.2,532.2223214285714,61.128571428571426,2328.3,532.2223214285714,61.128571428571426,2429.1,532.2223214285714,61.128571428571426,2531.3,532.2223214285714,61.128571428571426,2637.5,532.2223214285714,61.128571428571426,2743.8,532.2223214285714,61.128571428571426,2844.8,532.2223214285714,61.128571428571426,2947.2,532.2223214285714,61.128571428571426,3047.3,532.2223214285714,61.128571428571426,3152.5,532.2223214285714,61.128571428571426,3267,532.2223214285714,61.128571428571426,3369.2,532.2223214285714,61.128571428571426,3472.5,532.2223214285714,61.128571428571426,3577.1,532.2223214285714,61.128571428571426,3680.5,532.2223214285714,61.128571428571426,3787.9,532.2223214285714,61.128571428571426,3888.7,532.2223214285714,61.128571428571426,3992.4,532.2223214285714,61.128571428571426,4095.2,532.2223214285714,61.128571428571426,4200.9,532.2223214285714,61.128571428571426,4307.5,532.2223214285714,61.128571428571426,4411.3,532.2223214285714,61.128571428571426,4525,532.2223214285714,61.128571428571426,4625.2,532.2223214285714,61.128571428571426,4728.2,532.2223214285714,61.128571428571426,4833.5,532.2223214285714,61.128571428571426,4935.2]","[1447.9,1447.9,1000,0,447.9,""oops"",""right"",""right"",""good_move"",8058.6,6608.9,2861,4621.4,576.2,""oops"",""right"",""left"",""bad_move"",17446.4,9386.4,2774.9,14230.7,440.8,""oops"",""up"",""up"",""good_move"",20315.9,2867.9,2412.2,17448,455.7,""smooth"",""up"",""up"",""good_move"",23568.1,3246.5,2865.3,20321.7,381.1,""oops"",""up"",""right"",""good_move"",26554,2983.7,2544.3,23570.3,439.4,""while_blue"",""up"",""left"",""bad_move"",28764.5,2207.5,1671.7,26557,535.8,""smooth"",""up"",""up"",""good_move"",32101.1,3330.2,2923.4,28770.9,406.8,""oops"",""right"",""left"",""bad_move"",35174.3,3072.4,2577.8,32101.9,494.6,""smooth"",""right"",""right"",""good_move"",37692.8,2517.5,2132.8,35175.3,384.7,""oops"",""right"",""left"",""bad_move"",39854.1,2160.2,1668.7,37694,491.4,""oops"",""right"",""left"",""bad_move""]","",""
"4198","","<div style=""width:500px;"">
  <p>What determined the result of this run?</p>
  </div>","0","html-slider-response","45","672376","0.0-5.0-1.7","31","1","2025-07-09 12:58:30","01610cd0009c79a99da7d0a3353eb402","105.1.167.152","Mozilla/5.0 (Windows NT 10.0; Win64; x64) AppleWebKit/537.36 (KHTML, like Gecko) Chrome/138.0.0.0 Safari/537.36","WebKit","Chrome","138.0.0.0","Windows","10.0","https://app.prolific.com/","en-GB,en;q=0.9,en-US;q=0.8,zu;q=0.7,es;q=0.6","6129dca465e41b5ae1b262da","683db7602f5db6a34d12d064","686e6757ac84e5f447d70362","1","6129dca465e41b5ae1b262da","1","2025-07-09T13:09:46.229Z","","","","","","","","","","","AttribQ","","50","","","","","","","","","","","","","","","","","","","","","","","","","","","","",""
"4518","","<div style=""width:500px;"">
  <p>How much control did you have over the ball?</p>
  </div>","21","html-slider-response","46","676898","0.0-5.0-2.7","31","1","2025-07-09 12:58:30","01610cd0009c79a99da7d0a3353eb402","105.1.167.152","Mozilla/5.0 (Windows NT 10.0; Win64; x64) AppleWebKit/537.36 (KHTML, like Gecko) Chrome/138.0.0.0 Safari/537.36","WebKit","Chrome","138.0.0.0","Windows","10.0","https://app.prolific.com/","en-GB,en;q=0.9,en-US;q=0.8,zu;q=0.7,es;q=0.6","6129dca465e41b5ae1b262da","683db7602f5db6a34d12d064","686e6757ac84e5f447d70362","1","6129dca465e41b5ae1b262da","1","2025-07-09T13:09:50.751Z","","","","","","","","","","","ControlQ","","50","","","","","","","","","","","","","","","","","","","","","","","","","","","","",""
"3531","","<div style=""width:500px;"">
  <p>How would you describe your current emotional state?</p>
  </div>","0","html-slider-response","47","680433","0.0-5.0-3.7","31","1","2025-07-09 12:58:30","01610cd0009c79a99da7d0a3353eb402","105.1.167.152","Mozilla/5.0 (Windows NT 10.0; Win64; x64) AppleWebKit/537.36 (KHTML, like Gecko) Chrome/138.0.0.0 Safari/537.36","WebKit","Chrome","138.0.0.0","Windows","10.0","https://app.prolific.com/","en-GB,en;q=0.9,en-US;q=0.8,zu;q=0.7,es;q=0.6","6129dca465e41b5ae1b262da","683db7602f5db6a34d12d064","686e6757ac84e5f447d70362","1","6129dca465e41b5ae1b262da","1","2025-07-09T13:09:54.286Z","","","","","","","","","","","StressQ","","50","","","","","","","","","","","","","","","","","","","","","","","","","","","","",""
"4383","","<div style=""width:500px;"">
  <p>What best describes how you currently feel?</p>
  </div>","100","html-slider-response","48","684823","0.0-5.0-4.7","31","1","2025-07-09 12:58:30","01610cd0009c79a99da7d0a3353eb402","105.1.167.152","Mozilla/5.0 (Windows NT 10.0; Win64; x64) AppleWebKit/537.36 (KHTML, like Gecko) Chrome/138.0.0.0 Safari/537.36","WebKit","Chrome","138.0.0.0","Windows","10.0","https://app.prolific.com/","en-GB,en;q=0.9,en-US;q=0.8,zu;q=0.7,es;q=0.6","6129dca465e41b5ae1b262da","683db7602f5db6a34d12d064","686e6757ac84e5f447d70362","1","6129dca465e41b5ae1b262da","1","2025-07-09T13:09:58.676Z","","","","","","","","","","","MotivationQ","","50","","","","","","","","","","","","","","","","","","","","","","","","","","","","",""
"","","","","ctl-task-cpt","49","760542","0.0-5.0-0.8","31","1","2025-07-09 12:58:30","01610cd0009c79a99da7d0a3353eb402","105.1.167.152","Mozilla/5.0 (Windows NT 10.0; Win64; x64) AppleWebKit/537.36 (KHTML, like Gecko) Chrome/138.0.0.0 Safari/537.36","WebKit","Chrome","138.0.0.0","Windows","10.0","https://app.prolific.com/","en-GB,en;q=0.9,en-US;q=0.8,zu;q=0.7,es;q=0.6","6129dca465e41b5ae1b262da","683db7602f5db6a34d12d064","686e6757ac84e5f447d70362","1","6129dca465e41b5ae1b262da","1","2025-07-09T13:11:14.395Z","","","","","","","","","","","","","","win-only","2","g1:SE,g2:NW","0.2","9","0","687442","2730.8","7745.1","72692.8","1","4","8","6","2","-8","-9","5","14","0.03787878787878788","1864","3000","-865","[""left"",""up""]","{""num_key_presses"":15,""num_perfect"":4,""num_errors"":1,""num_randdir"":10,""num_randdir_good_moves"":3,""num_whilered"":0,""num_whileblue"":1,""num_blue"":6,""num_good_moves"":8}","[299.22232142857143,292.12857142857143,0.9,299.22232142857143,292.12857142857143,107.5,299.22232142857143,292.12857142857143,214.1,299.22232142857143,292.12857142857143,335.5,299.22232142857143,292.12857142857143,443.3,299.22232142857143,292.12857142857143,549.8,299.22232142857143,292.12857142857143,650.8,299.22232142857143,292.12857142857143,759.6,299.22232142857143,292.12857142857143,863.4,299.22232142857143,292.12857142857143,965.6,256.22232142857143,226.12857142857143,1075.5,150.22232142857143,45.128571428571426,1179.4,126.22232142857143,12.128571428571426,1291.7,107.22232142857143,8.128571428571426,1393.2,89.22232142857143,18.128571428571426,1498,76.22232142857143,38.128571428571426,1600.9,74.22232142857143,41.128571428571426,1704.3,74.22232142857143,41.128571428571426,1804.8,74.22232142857143,41.128571428571426,1912.5,74.22232142857143,41.128571428571426,2014.2,74.22232142857143,41.128571428571426,2118.8,74.22232142857143,41.128571428571426,2222.8,74.22232142857143,41.128571428571426,2337.2,74.22232142857143,41.128571428571426,2442.7,74.22232142857143,41.128571428571426,2547,74.22232142857143,41.128571428571426,2650.1,74.22232142857143,41.128571428571426,2755.6,74.22232142857143,41.128571428571426,2860.7,74.22232142857143,41.128571428571426,2962.8,74.22232142857143,41.128571428571426,3065.1,74.22232142857143,41.128571428571426,3165.6,74.22232142857143,41.128571428571426,3272.5,74.22232142857143,41.128571428571426,3380.8,74.22232142857143,41.128571428571426,3482.3,74.22232142857143,41.128571428571426,3587.8,74.22232142857143,41.128571428571426,3693.5,74.22232142857143,41.128571428571426,3797.3,74.22232142857143,41.128571428571426,3908,74.22232142857143,41.128571428571426,4008.2,74.22232142857143,41.128571428571426,4113.3,74.22232142857143,41.128571428571426,4214.7,74.22232142857143,41.128571428571426,4319.9,74.22232142857143,41.128571428571426,4425.7,74.22232142857143,41.128571428571426,4529.3,74.22232142857143,41.128571428571426,4635.9,74.22232142857143,41.128571428571426,4739.7,74.22232142857143,41.128571428571426,4840.1,74.22232142857143,41.128571428571426,4946.2]","[1444.3,1444.3,1000,0,444.3,""oops"",""up"",""left"",""good_move"",4440,2994.8,2528.8,1445.2,466,""oops"",""up"",""up"",""good_move"",12042.5,7600.3,3312.2,8311.8,418.5,""oops"",""up"",""right"",""bad_move"",15561.2,3517.3,2920.6,12043.9,596.7,""oops"",""up"",""down"",""bad_move"",18980.8,3417.6,2937.9,15563.2,479.7,""oops"",""up"",""right"",""bad_move"",22199.5,3214.1,2821.2,18985.4,392.9,""oops"",""up"",""left"",""good_move"",25307,3105.6,2676,22201.4,429.6,""oops"",""up"",""down"",""bad_move"",28580,3271.9,2832.7,25308.1,439.2,""oops"",""up"",""down"",""bad_move"",34599.4,6018.2,1998,32114.4,487,""smooth"",""up"",""up"",""good_move"",37296,2689.4,2053.2,34606.6,636.2,""smooth"",""up"",""up"",""good_move"",39825,2524,2108.1,37301,415.9,""smooth"",""up"",""up"",""good_move"",46303.8,6477.8,2187.2,43729,387.6,""while_blue"",""up"",""left"",""good_move"",49174.9,2870,2417,46304.9,453,""smooth"",""up"",""up"",""good_move"",55927.6,6752.1,2314.2,53214.9,398.5,""oops"",""up"",""right"",""bad_move"",62645,6716.6,2931.6,59283.8,429.6,""oops"",""up"",""down"",""bad_move""]","",""
"3822","","<div style=""width:500px;"">
  <p>What determined the result of this run?</p>
  </div>","0","html-slider-response","50","764367","0.0-5.0-1.8","31","1","2025-07-09 12:58:30","01610cd0009c79a99da7d0a3353eb402","105.1.167.152","Mozilla/5.0 (Windows NT 10.0; Win64; x64) AppleWebKit/537.36 (KHTML, like Gecko) Chrome/138.0.0.0 Safari/537.36","WebKit","Chrome","138.0.0.0","Windows","10.0","https://app.prolific.com/","en-GB,en;q=0.9,en-US;q=0.8,zu;q=0.7,es;q=0.6","6129dca465e41b5ae1b262da","683db7602f5db6a34d12d064","686e6757ac84e5f447d70362","1","6129dca465e41b5ae1b262da","1","2025-07-09T13:11:18.220Z","","","","","","","","","","","AttribQ","","50","","","","","","","","","","","","","","","","","","","","","","","","","","","","",""
"3288","","<div style=""width:500px;"">
  <p>How much control did you have over the ball?</p>
  </div>","0","html-slider-response","51","767659","0.0-5.0-2.8","31","1","2025-07-09 12:58:30","01610cd0009c79a99da7d0a3353eb402","105.1.167.152","Mozilla/5.0 (Windows NT 10.0; Win64; x64) AppleWebKit/537.36 (KHTML, like Gecko) Chrome/138.0.0.0 Safari/537.36","WebKit","Chrome","138.0.0.0","Windows","10.0","https://app.prolific.com/","en-GB,en;q=0.9,en-US;q=0.8,zu;q=0.7,es;q=0.6","6129dca465e41b5ae1b262da","683db7602f5db6a34d12d064","686e6757ac84e5f447d70362","1","6129dca465e41b5ae1b262da","1","2025-07-09T13:11:21.512Z","","","","","","","","","","","ControlQ","","50","","","","","","","","","","","","","","","","","","","","","","","","","","","","",""
"4557","","<div style=""width:500px;"">
  <p>How would you describe your current emotional state?</p>
  </div>","56","html-slider-response","52","772219","0.0-5.0-3.8","31","1","2025-07-09 12:58:30","01610cd0009c79a99da7d0a3353eb402","105.1.167.152","Mozilla/5.0 (Windows NT 10.0; Win64; x64) AppleWebKit/537.36 (KHTML, like Gecko) Chrome/138.0.0.0 Safari/537.36","WebKit","Chrome","138.0.0.0","Windows","10.0","https://app.prolific.com/","en-GB,en;q=0.9,en-US;q=0.8,zu;q=0.7,es;q=0.6","6129dca465e41b5ae1b262da","683db7602f5db6a34d12d064","686e6757ac84e5f447d70362","1","6129dca465e41b5ae1b262da","1","2025-07-09T13:11:26.072Z","","","","","","","","","","","StressQ","","50","","","","","","","","","","","","","","","","","","","","","","","","","","","","",""
"3749","","<div style=""width:500px;"">
  <p>What best describes how you currently feel?</p>
  </div>","100","html-slider-response","53","775970","0.0-5.0-4.8","31","1","2025-07-09 12:58:30","01610cd0009c79a99da7d0a3353eb402","105.1.167.152","Mozilla/5.0 (Windows NT 10.0; Win64; x64) AppleWebKit/537.36 (KHTML, like Gecko) Chrome/138.0.0.0 Safari/537.36","WebKit","Chrome","138.0.0.0","Windows","10.0","https://app.prolific.com/","en-GB,en;q=0.9,en-US;q=0.8,zu;q=0.7,es;q=0.6","6129dca465e41b5ae1b262da","683db7602f5db6a34d12d064","686e6757ac84e5f447d70362","1","6129dca465e41b5ae1b262da","1","2025-07-09T13:11:29.823Z","","","","","","","","","","","MotivationQ","","50","","","","","","","","","","","","","","","","","","","","","","","","","","","","",""
"","","","","ctl-task-cpt","54","861625","0.0-5.0-0.9","31","1","2025-07-09 12:58:30","01610cd0009c79a99da7d0a3353eb402","105.1.167.152","Mozilla/5.0 (Windows NT 10.0; Win64; x64) AppleWebKit/537.36 (KHTML, like Gecko) Chrome/138.0.0.0 Safari/537.36","WebKit","Chrome","138.0.0.0","Windows","10.0","https://app.prolific.com/","en-GB,en;q=0.9,en-US;q=0.8,zu;q=0.7,es;q=0.6","6129dca465e41b5ae1b262da","683db7602f5db6a34d12d064","686e6757ac84e5f447d70362","1","6129dca465e41b5ae1b262da","1","2025-07-09T13:12:55.479Z","","","","","","","","","","","","","","win-only","2","g1:SE,g2:NW","0.4","10","0","778590.5","14045.9","19059.4","82617","1","4","4","6","2","4","4","9","5","0.06818181818181818","1561.4","3000","1000","[""left"",""up""]","{""num_key_presses"":14,""num_perfect"":5,""num_errors"":0,""num_randdir"":9,""num_randdir_good_moves"":5,""num_whilered"":0,""num_whileblue"":0,""num_blue"":1,""num_good_moves"":10}","[300.22232142857143,295.12857142857143,0.8,300.22232142857143,295.12857142857143,123.5,300.22232142857143,295.12857142857143,242.1,300.22232142857143,295.12857142857143,362.7,300.22232142857143,295.12857142857143,484,300.22232142857143,295.12857142857143,610,300.22232142857143,295.12857142857143,714.1,300.22232142857143,295.12857142857143,830.1,228.22232142857143,261.12857142857143,963.1,127.22232142857143,125.12857142857143,1066.6,70.22232142857143,60.128571428571426,1175,63.222321428571426,55.128571428571426,1277.6,59.222321428571426,52.128571428571426,1379.1,59.222321428571426,52.128571428571426,1499,59.222321428571426,52.128571428571426,1605.1,59.222321428571426,52.128571428571426,1721.2,59.222321428571426,52.128571428571426,1838.7,59.222321428571426,52.128571428571426,1961.5,59.222321428571426,52.128571428571426,2091,59.222321428571426,52.128571428571426,2205.5,59.222321428571426,52.128571428571426,2328.9,59.222321428571426,52.128571428571426,2445.1,59.222321428571426,52.128571428571426,2561.6,59.222321428571426,52.128571428571426,2685,59.222321428571426,52.128571428571426,2801.8,59.222321428571426,52.128571428571426,2918.4,59.222321428571426,52.128571428571426,3035,59.222321428571426,52.128571428571426,3159.1,59.222321428571426,52.128571428571426,3275.4,59.222321428571426,52.128571428571426,3389.7,59.222321428571426,52.128571428571426,3501.8,59.222321428571426,52.128571428571426,3625.8,59.222321428571426,52.128571428571426,3747.3,59.222321428571426,52.128571428571426,3866,59.222321428571426,52.128571428571426,3978.9,59.222321428571426,52.128571428571426,4105.5,59.222321428571426,52.128571428571426,4222.7,59.222321428571426,52.128571428571426,4339.4,59.222321428571426,52.128571428571426,4458.5,59.222321428571426,52.128571428571426,4575.9,59.222321428571426,52.128571428571426,4693.7,59.222321428571426,52.128571428571426,4810.6,59.222321428571426,52.128571428571426,4927]","[1511.6,1511.6,1000,0,511.6,""oops"",""up"",""right"",""bad_move"",4305.9,2793.2,2223.3,1512.7,569.9,""oops"",""up"",""up"",""good_move"",9999.2,5692.2,2356.2,4307,3336,""smooth"",""up"",""up"",""good_move"",15642.3,5642.4,2427.7,9999.9,3214.7,""oops"",""up"",""left"",""good_move"",25341.8,9698.8,2856.5,21968.7,516.6,""smooth"",""up"",""up"",""good_move"",32857.2,7514.7,3019.8,25342.5,4494.9,""smooth"",""left"",""left"",""good_move"",40869.1,8011.1,1897.4,32858,6113.7,""oops"",""left"",""right"",""bad_move"",43789.3,2919.6,2373.4,40869.7,546.2,""oops"",""left"",""left"",""good_move"",47716.3,3925.5,3466.8,43790.8,458.7,""smooth"",""left"",""left"",""good_move"",50834.2,3116.9,2518.9,47717.3,598,""oops"",""left"",""down"",""bad_move"",54240.4,3404.6,2966.2,50835.8,438.4,""oops"",""left"",""up"",""good_move"",57371.3,3128.8,2732.5,54242.7,396.1,""oops"",""left"",""right"",""bad_move"",60583.3,3210.4,2682.1,57372.9,528.3,""smooth"",""left"",""left"",""good_move"",63300.2,2715.7,2327.9,60584.5,387.8,""oops"",""left"",""left"",""good_move""]","",""
"5203","","<div style=""width:500px;"">
  <p>What determined the result of this run?</p>
  </div>","38","html-slider-response","55","866831","0.0-5.0-1.9","31","1","2025-07-09 12:58:30","01610cd0009c79a99da7d0a3353eb402","105.1.167.152","Mozilla/5.0 (Windows NT 10.0; Win64; x64) AppleWebKit/537.36 (KHTML, like Gecko) Chrome/138.0.0.0 Safari/537.36","WebKit","Chrome","138.0.0.0","Windows","10.0","https://app.prolific.com/","en-GB,en;q=0.9,en-US;q=0.8,zu;q=0.7,es;q=0.6","6129dca465e41b5ae1b262da","683db7602f5db6a34d12d064","686e6757ac84e5f447d70362","1","6129dca465e41b5ae1b262da","1","2025-07-09T13:13:00.684Z","","","","","","","","","","","AttribQ","","50","","","","","","","","","","","","","","","","","","","","","","","","","","","","",""
"12004","","<div style=""width:500px;"">
  <p>How much control did you have over the ball?</p>
  </div>","40","html-slider-response","56","878838","0.0-5.0-2.9","31","1","2025-07-09 12:58:30","01610cd0009c79a99da7d0a3353eb402","105.1.167.152","Mozilla/5.0 (Windows NT 10.0; Win64; x64) AppleWebKit/537.36 (KHTML, like Gecko) Chrome/138.0.0.0 Safari/537.36","WebKit","Chrome","138.0.0.0","Windows","10.0","https://app.prolific.com/","en-GB,en;q=0.9,en-US;q=0.8,zu;q=0.7,es;q=0.6","6129dca465e41b5ae1b262da","683db7602f5db6a34d12d064","686e6757ac84e5f447d70362","1","6129dca465e41b5ae1b262da","1","2025-07-09T13:13:12.691Z","","","","","","","","","","","ControlQ","","50","","","","","","","","","","","","","","","","","","","","","","","","","","","","",""
"3806","","<div style=""width:500px;"">
  <p>How would you describe your current emotional state?</p>
  </div>","42","html-slider-response","57","882648","0.0-5.0-3.9","31","1","2025-07-09 12:58:30","01610cd0009c79a99da7d0a3353eb402","105.1.167.152","Mozilla/5.0 (Windows NT 10.0; Win64; x64) AppleWebKit/537.36 (KHTML, like Gecko) Chrome/138.0.0.0 Safari/537.36","WebKit","Chrome","138.0.0.0","Windows","10.0","https://app.prolific.com/","en-GB,en;q=0.9,en-US;q=0.8,zu;q=0.7,es;q=0.6","6129dca465e41b5ae1b262da","683db7602f5db6a34d12d064","686e6757ac84e5f447d70362","1","6129dca465e41b5ae1b262da","1","2025-07-09T13:13:16.501Z","","","","","","","","","","","StressQ","","50","","","","","","","","","","","","","","","","","","","","","","","","","","","","",""
"4329","","<div style=""width:500px;"">
  <p>What best describes how you currently feel?</p>
  </div>","100","html-slider-response","58","886980","0.0-5.0-4.9","31","1","2025-07-09 12:58:30","01610cd0009c79a99da7d0a3353eb402","105.1.167.152","Mozilla/5.0 (Windows NT 10.0; Win64; x64) AppleWebKit/537.36 (KHTML, like Gecko) Chrome/138.0.0.0 Safari/537.36","WebKit","Chrome","138.0.0.0","Windows","10.0","https://app.prolific.com/","en-GB,en;q=0.9,en-US;q=0.8,zu;q=0.7,es;q=0.6","6129dca465e41b5ae1b262da","683db7602f5db6a34d12d064","686e6757ac84e5f447d70362","1","6129dca465e41b5ae1b262da","1","2025-07-09T13:13:20.833Z","","","","","","","","","","","MotivationQ","","50","","","","","","","","","","","","","","","","","","","","","","","","","","","","",""
"","","","","ctl-task-cpt","59","992999","0.0-5.0-0.10","31","1","2025-07-09 12:58:30","01610cd0009c79a99da7d0a3353eb402","105.1.167.152","Mozilla/5.0 (Windows NT 10.0; Win64; x64) AppleWebKit/537.36 (KHTML, like Gecko) Chrome/138.0.0.0 Safari/537.36","WebKit","Chrome","138.0.0.0","Windows","10.0","https://app.prolific.com/","en-GB,en;q=0.9,en-US;q=0.8,zu;q=0.7,es;q=0.6","6129dca465e41b5ae1b262da","683db7602f5db6a34d12d064","686e6757ac84e5f447d70362","1","6129dca465e41b5ae1b262da","1","2025-07-09T13:15:06.852Z","","","","","","","","","","","","","","win-only","1","g1:NE,g2:SW","0.5","11","0","889600.7","2325.9","7336.3","102964.1","1","4","4","6","2","4","4","13","9","0.09848484848484848","1507.6","3000","1380","[""down"",""left""]","{""num_key_presses"":18,""num_perfect"":8,""num_errors"":0,""num_randdir"":10,""num_randdir_good_moves"":4,""num_whilered"":0,""num_whileblue"":0,""num_blue"":5,""num_good_moves"":12}","[297.22232142857143,294.12857142857143,0.7,297.22232142857143,294.12857142857143,113,297.22232142857143,294.12857142857143,213.6,297.22232142857143,294.12857142857143,345.5,297.22232142857143,294.12857142857143,478.9,297.22232142857143,294.12857142857143,609.7,297.22232142857143,294.12857142857143,740.8,214.22232142857143,374.12857142857143,849,108.22232142857143,472.12857142857143,955.3,66.22232142857143,511.12857142857143,1069.1,47.222321428571426,528.1285714285714,1186.6,43.222321428571426,531.1285714285714,1289.1,41.222321428571426,533.1285714285714,1390.6,41.222321428571426,533.1285714285714,1493.9,41.222321428571426,533.1285714285714,1610.1,41.222321428571426,533.1285714285714,1710.7,41.222321428571426,533.1285714285714,1815.1,41.222321428571426,533.1285714285714,1915.8,41.222321428571426,533.1285714285714,2029.4,41.222321428571426,533.1285714285714,2130.1,41.222321428571426,533.1285714285714,2236.7,41.222321428571426,533.1285714285714,2345.3,41.222321428571426,533.1285714285714,2447.2,41.222321428571426,533.1285714285714,2559,41.222321428571426,533.1285714285714,2662,41.222321428571426,533.1285714285714,2770.8,41.222321428571426,533.1285714285714,2871.5,41.222321428571426,533.1285714285714,2980.2,41.222321428571426,533.1285714285714,3085.3,41.222321428571426,533.1285714285714,3188.8,41.222321428571426,533.1285714285714,3296,41.222321428571426,533.1285714285714,3401.7,41.222321428571426,533.1285714285714,3511.2,41.222321428571426,533.1285714285714,3612.3,41.222321428571426,533.1285714285714,3713.1,41.222321428571426,533.1285714285714,3813.3,41.222321428571426,533.1285714285714,3913.5,41.222321428571426,533.1285714285714,4017.3,41.222321428571426,533.1285714285714,4124.1,41.222321428571426,533.1285714285714,4227.4,41.222321428571426,533.1285714285714,4336.4,41.222321428571426,533.1285714285714,4444.3,41.222321428571426,533.1285714285714,4552.4,41.222321428571426,533.1285714285714,4652.7,41.222321428571426,533.1285714285714,4757.1,41.222321428571426,533.1285714285714,4862.6,41.222321428571426,533.1285714285714,4967.5]","[5771.5,5771.5,3177.3,2003.1,591.1,""oops"",""down"",""left"",""good_move"",9118.2,3345.8,2451.7,5772.4,894.1,""smooth"",""down"",""down"",""good_move"",11729.8,2609.3,2185.8,9120.5,423.6,""smooth"",""down"",""down"",""good_move"",15379.8,3649,3154.8,11730.8,494.2,""smooth"",""down"",""down"",""good_move"",25716.3,10335.5,3002.7,22158.6,555,""oops"",""left"",""up"",""bad_move"",30710.7,4993.6,2668.6,25717.2,2324.9,""oops"",""left"",""right"",""bad_move"",34480,3768.2,3315.3,30711.8,453,""smooth"",""left"",""left"",""good_move"",40223.8,5742.8,2766.6,34481.1,2976.1,""smooth"",""left"",""left"",""good_move"",49162.7,8938.4,2016.4,46504.9,641.4,""oops"",""left"",""up"",""bad_move"",55126,5962.4,2794.8,49163.6,3167.6,""oops"",""down"",""up"",""bad_move"",61099.6,5970.8,2076.6,55129.4,3893.6,""oops"",""down"",""up"",""bad_move"",71071.8,9968.2,2853.9,67761.5,456.4,""oops"",""down"",""down"",""good_move"",74109.3,3036.8,2437.4,71072.6,599.3,""oops"",""down"",""down"",""good_move"",78111.5,4001.3,3543.1,74110.2,458.2,""oops"",""down"",""left"",""good_move"",85309.3,7195.5,2121.8,78113.8,5073.7,""oops"",""down"",""right"",""bad_move"",88330.7,3020.7,2457.2,85310,563.5,""smooth"",""down"",""down"",""good_move"",92045.5,3713.9,3249.1,88331.6,464.8,""smooth"",""down"",""down"",""good_move"",94890.9,2841.1,2338.1,92049.9,502.9,""smooth"",""left"",""left"",""good_move""]","",""
"4976","","<div style=""width:500px;"">
  <p>What determined the result of this run?</p>
  </div>","42","html-slider-response","60","997982","0.0-5.0-1.10","31","1","2025-07-09 12:58:30","01610cd0009c79a99da7d0a3353eb402","105.1.167.152","Mozilla/5.0 (Windows NT 10.0; Win64; x64) AppleWebKit/537.36 (KHTML, like Gecko) Chrome/138.0.0.0 Safari/537.36","WebKit","Chrome","138.0.0.0","Windows","10.0","https://app.prolific.com/","en-GB,en;q=0.9,en-US;q=0.8,zu;q=0.7,es;q=0.6","6129dca465e41b5ae1b262da","683db7602f5db6a34d12d064","686e6757ac84e5f447d70362","1","6129dca465e41b5ae1b262da","1","2025-07-09T13:15:11.835Z","","","","","","","","","","","AttribQ","","50","","","","","","","","","","","","","","","","","","","","","","","","","","","","",""
"4182","","<div style=""width:500px;"">
  <p>How much control did you have over the ball?</p>
  </div>","36","html-slider-response","61","1002167","0.0-5.0-2.10","31","1","2025-07-09 12:58:30","01610cd0009c79a99da7d0a3353eb402","105.1.167.152","Mozilla/5.0 (Windows NT 10.0; Win64; x64) AppleWebKit/537.36 (KHTML, like Gecko) Chrome/138.0.0.0 Safari/537.36","WebKit","Chrome","138.0.0.0","Windows","10.0","https://app.prolific.com/","en-GB,en;q=0.9,en-US;q=0.8,zu;q=0.7,es;q=0.6","6129dca465e41b5ae1b262da","683db7602f5db6a34d12d064","686e6757ac84e5f447d70362","1","6129dca465e41b5ae1b262da","1","2025-07-09T13:15:16.020Z","","","","","","","","","","","ControlQ","","50","","","","","","","","","","","","","","","","","","","","","","","","","","","","",""
"3722","","<div style=""width:500px;"">
  <p>How would you describe your current emotional state?</p>
  </div>","6","html-slider-response","62","1005895","0.0-5.0-3.10","31","1","2025-07-09 12:58:30","01610cd0009c79a99da7d0a3353eb402","105.1.167.152","Mozilla/5.0 (Windows NT 10.0; Win64; x64) AppleWebKit/537.36 (KHTML, like Gecko) Chrome/138.0.0.0 Safari/537.36","WebKit","Chrome","138.0.0.0","Windows","10.0","https://app.prolific.com/","en-GB,en;q=0.9,en-US;q=0.8,zu;q=0.7,es;q=0.6","6129dca465e41b5ae1b262da","683db7602f5db6a34d12d064","686e6757ac84e5f447d70362","1","6129dca465e41b5ae1b262da","1","2025-07-09T13:15:19.749Z","","","","","","","","","","","StressQ","","50","","","","","","","","","","","","","","","","","","","","","","","","","","","","",""
"38776","","<div style=""width:500px;"">
  <p>What best describes how you currently feel?</p>
  </div>","100","html-slider-response","63","1044674","0.0-5.0-4.10","31","1","2025-07-09 12:58:30","01610cd0009c79a99da7d0a3353eb402","105.1.167.152","Mozilla/5.0 (Windows NT 10.0; Win64; x64) AppleWebKit/537.36 (KHTML, like Gecko) Chrome/138.0.0.0 Safari/537.36","WebKit","Chrome","138.0.0.0","Windows","10.0","https://app.prolific.com/","en-GB,en;q=0.9,en-US;q=0.8,zu;q=0.7,es;q=0.6","6129dca465e41b5ae1b262da","683db7602f5db6a34d12d064","686e6757ac84e5f447d70362","1","6129dca465e41b5ae1b262da","1","2025-07-09T13:15:58.527Z","","","","","","","","","","","MotivationQ","","50","","","","","","","","","","","","","","","","","","","","","","","","","","","","",""
"","","","","ctl-task-cpt","64","1104349","0.0-5.0-0.11","31","1","2025-07-09 12:58:30","01610cd0009c79a99da7d0a3353eb402","105.1.167.152","Mozilla/5.0 (Windows NT 10.0; Win64; x64) AppleWebKit/537.36 (KHTML, like Gecko) Chrome/138.0.0.0 Safari/537.36","WebKit","Chrome","138.0.0.0","Windows","10.0","https://app.prolific.com/","en-GB,en;q=0.9,en-US;q=0.8,zu;q=0.7,es;q=0.6","6129dca465e41b5ae1b262da","683db7602f5db6a34d12d064","686e6757ac84e5f447d70362","1","6129dca465e41b5ae1b262da","1","2025-07-09T13:16:58.202Z","","","","","","","","","","","","","","win-only","0","g1:NW,g2:SE","0.6","12","0","1047294.6","16570.5","21582.6","56648.9","1","4","8","6","2","8","8","21","13","0.1590909090909091","2273.8","3000","1885","[""down"",""right""]","{""num_key_presses"":10,""num_perfect"":6,""num_errors"":0,""num_randdir"":4,""num_randdir_good_moves"":2,""num_whilered"":0,""num_whileblue"":0,""num_blue"":2,""num_good_moves"":8}","[296.22232142857143,292.12857142857143,1.3,296.22232142857143,292.12857142857143,107.6,296.22232142857143,292.12857142857143,208.5,296.22232142857143,292.12857142857143,308.7,296.22232142857143,292.12857142857143,417.7,296.22232142857143,292.12857142857143,531.1,296.22232142857143,292.12857142857143,635,296.22232142857143,292.12857142857143,735.3,296.22232142857143,292.12857142857143,838.6,416.22232142857143,361.12857142857143,941.7,533.2223214285714,475.12857142857143,1053.8,567.2223214285714,524.1285714285714,1164.2,596.2223214285714,561.1285714285714,1268.5,599.2223214285714,565.1285714285714,1383.6,599.2223214285714,565.1285714285714,1491.7,599.2223214285714,565.1285714285714,1609.4,599.2223214285714,565.1285714285714,1720.4,599.2223214285714,565.1285714285714,1830.2,599.2223214285714,565.1285714285714,1934.5,560.2223214285714,555.1285714285714,2040.1,555.2223214285714,552.1285714285714,2147.5,555.2223214285714,552.1285714285714,2252.6,555.2223214285714,552.1285714285714,2354.7,555.2223214285714,552.1285714285714,2470.3,555.2223214285714,552.1285714285714,2570.6,555.2223214285714,552.1285714285714,2672.2,555.2223214285714,552.1285714285714,2774.4,555.2223214285714,552.1285714285714,2889.2,555.2223214285714,552.1285714285714,2990.6,555.2223214285714,552.1285714285714,3099.5,555.2223214285714,552.1285714285714,3199.7,555.2223214285714,552.1285714285714,3300.6,555.2223214285714,552.1285714285714,3407.5,555.2223214285714,552.1285714285714,3517.9,555.2223214285714,552.1285714285714,3618,555.2223214285714,552.1285714285714,3726.2,555.2223214285714,552.1285714285714,3834.1,555.2223214285714,552.1285714285714,3938.5,555.2223214285714,552.1285714285714,4039.3,555.2223214285714,552.1285714285714,4150.1,555.2223214285714,552.1285714285714,4252.7,555.2223214285714,552.1285714285714,4362.3,555.2223214285714,552.1285714285714,4478.5,555.2223214285714,552.1285714285714,4582.4,555.2223214285714,552.1285714285714,4693.2,555.2223214285714,552.1285714285714,4800.8,555.2223214285714,552.1285714285714,4909.2]","[4265.4,4265.5,1850.9,2015.7,398.9,""smooth"",""down"",""down"",""good_move"",7267.3,3000.8,2535.8,4266.6,464.9,""smooth"",""down"",""down"",""good_move"",9858.2,2589.8,2209.8,7268.4,380,""oops"",""right"",""down"",""good_move"",12186.6,2326.4,1880.4,9860.2,446.1,""smooth"",""right"",""right"",""good_move"",18353,6165.2,2815.7,14986,551.3,""oops"",""right"",""right"",""good_move"",21661.1,3307.5,2858.3,18353.6,449.2,""oops"",""right"",""left"",""bad_move"",25167.6,3505.2,3103.3,21662.4,401.9,""smooth"",""right"",""right"",""good_move"",28708,3535.2,3137.2,25172.8,398,""oops"",""right"",""left"",""bad_move"",31894.4,3184,1967.1,28710.5,1216.8,""smooth"",""right"",""right"",""good_move"",34642.7,2747.1,2331.8,31895.6,415.3,""smooth"",""right"",""right"",""good_move""]","",""
"4549","","<div style=""width:500px;"">
  <p>What determined the result of this run?</p>
  </div>","55","html-slider-response","65","1108900","0.0-5.0-1.11","31","1","2025-07-09 12:58:30","01610cd0009c79a99da7d0a3353eb402","105.1.167.152","Mozilla/5.0 (Windows NT 10.0; Win64; x64) AppleWebKit/537.36 (KHTML, like Gecko) Chrome/138.0.0.0 Safari/537.36","WebKit","Chrome","138.0.0.0","Windows","10.0","https://app.prolific.com/","en-GB,en;q=0.9,en-US;q=0.8,zu;q=0.7,es;q=0.6","6129dca465e41b5ae1b262da","683db7602f5db6a34d12d064","686e6757ac84e5f447d70362","1","6129dca465e41b5ae1b262da","1","2025-07-09T13:17:02.753Z","","","","","","","","","","","AttribQ","","50","","","","","","","","","","","","","","","","","","","","","","","","","","","","",""
"4655","","<div style=""width:500px;"">
  <p>How much control did you have over the ball?</p>
  </div>","61","html-slider-response","66","1113558","0.0-5.0-2.11","31","1","2025-07-09 12:58:30","01610cd0009c79a99da7d0a3353eb402","105.1.167.152","Mozilla/5.0 (Windows NT 10.0; Win64; x64) AppleWebKit/537.36 (KHTML, like Gecko) Chrome/138.0.0.0 Safari/537.36","WebKit","Chrome","138.0.0.0","Windows","10.0","https://app.prolific.com/","en-GB,en;q=0.9,en-US;q=0.8,zu;q=0.7,es;q=0.6","6129dca465e41b5ae1b262da","683db7602f5db6a34d12d064","686e6757ac84e5f447d70362","1","6129dca465e41b5ae1b262da","1","2025-07-09T13:17:07.411Z","","","","","","","","","","","ControlQ","","50","","","","","","","","","","","","","","","","","","","","","","","","","","","","",""
"3611","","<div style=""width:500px;"">
  <p>How would you describe your current emotional state?</p>
  </div>","0","html-slider-response","67","1117176","0.0-5.0-3.11","31","1","2025-07-09 12:58:30","01610cd0009c79a99da7d0a3353eb402","105.1.167.152","Mozilla/5.0 (Windows NT 10.0; Win64; x64) AppleWebKit/537.36 (KHTML, like Gecko) Chrome/138.0.0.0 Safari/537.36","WebKit","Chrome","138.0.0.0","Windows","10.0","https://app.prolific.com/","en-GB,en;q=0.9,en-US;q=0.8,zu;q=0.7,es;q=0.6","6129dca465e41b5ae1b262da","683db7602f5db6a34d12d064","686e6757ac84e5f447d70362","1","6129dca465e41b5ae1b262da","1","2025-07-09T13:17:11.029Z","","","","","","","","","","","StressQ","","50","","","","","","","","","","","","","","","","","","","","","","","","","","","","",""
"3515","","<div style=""width:500px;"">
  <p>What best describes how you currently feel?</p>
  </div>","100","html-slider-response","68","1120693","0.0-5.0-4.11","31","1","2025-07-09 12:58:30","01610cd0009c79a99da7d0a3353eb402","105.1.167.152","Mozilla/5.0 (Windows NT 10.0; Win64; x64) AppleWebKit/537.36 (KHTML, like Gecko) Chrome/138.0.0.0 Safari/537.36","WebKit","Chrome","138.0.0.0","Windows","10.0","https://app.prolific.com/","en-GB,en;q=0.9,en-US;q=0.8,zu;q=0.7,es;q=0.6","6129dca465e41b5ae1b262da","683db7602f5db6a34d12d064","686e6757ac84e5f447d70362","1","6129dca465e41b5ae1b262da","1","2025-07-09T13:17:14.546Z","","","","","","","","","","","MotivationQ","","50","","","","","","","","","","","","","","","","","","","","","","","","","","","","",""
"","","","","ctl-task-cpt","69","1188561","0.0-5.0-0.12","31","1","2025-07-09 12:58:30","01610cd0009c79a99da7d0a3353eb402","105.1.167.152","Mozilla/5.0 (Windows NT 10.0; Win64; x64) AppleWebKit/537.36 (KHTML, like Gecko) Chrome/138.0.0.0 Safari/537.36","WebKit","Chrome","138.0.0.0","Windows","10.0","https://app.prolific.com/","en-GB,en;q=0.9,en-US;q=0.8,zu;q=0.7,es;q=0.6","6129dca465e41b5ae1b262da","683db7602f5db6a34d12d064","686e6757ac84e5f447d70362","1","6129dca465e41b5ae1b262da","1","2025-07-09T13:18:22.414Z","","","","","","","","","","","","","","win-only","3","g1:SW,g2:NE","0.7","13","0","1123311.9","2298.4","7301.8","64806.3","1","4","4","6","2","4","4","25","21","0.1893939393939394","1620.1","3000","2210","[""up"",""right""]","{""num_key_presses"":10,""num_perfect"":7,""num_errors"":0,""num_randdir"":3,""num_randdir_good_moves"":1,""num_whilered"":0,""num_whileblue"":0,""num_blue"":2,""num_good_moves"":8}","[296.22232142857143,296.12857142857143,0.6,296.22232142857143,296.12857142857143,121.5,296.22232142857143,296.12857142857143,228.5,296.22232142857143,296.12857142857143,331.7,296.22232142857143,296.12857142857143,433,296.22232142857143,296.12857142857143,537.9,296.22232142857143,296.12857142857143,662.9,296.22232142857143,296.12857142857143,786.2,296.22232142857143,296.12857142857143,899.5,429.22232142857143,159.12857142857143,1026.6,467.22232142857143,98.12857142857143,1150.5,505.22232142857143,59.128571428571426,1275.6,524.2223214285714,52.128571428571426,1396.9,527.2223214285714,52.128571428571426,1507.3,527.2223214285714,52.128571428571426,1611.8,527.2223214285714,52.128571428571426,1724.1,527.2223214285714,52.128571428571426,1826.3,527.2223214285714,52.128571428571426,1951.1,527.2223214285714,52.128571428571426,2052.9,527.2223214285714,52.128571428571426,2159.6,527.2223214285714,52.128571428571426,2279.5,527.2223214285714,52.128571428571426,2383.3,527.2223214285714,52.128571428571426,2510.3,527.2223214285714,52.128571428571426,2627,527.2223214285714,52.128571428571426,2750.5,527.2223214285714,52.128571428571426,2851.7,527.2223214285714,52.128571428571426,2958.3,527.2223214285714,52.128571428571426,3064.4,527.2223214285714,52.128571428571426,3183.3,527.2223214285714,52.128571428571426,3284,527.2223214285714,52.128571428571426,3395.7,527.2223214285714,52.128571428571426,3502.9,527.2223214285714,52.128571428571426,3629.8,527.2223214285714,52.128571428571426,3740.2,527.2223214285714,52.128571428571426,3841.8,527.2223214285714,52.128571428571426,3943.5,527.2223214285714,52.128571428571426,4055.4,527.2223214285714,52.128571428571426,4180.3,527.2223214285714,52.128571428571426,4281.5,527.2223214285714,52.128571428571426,4382.9,527.2223214285714,52.128571428571426,4489.6,527.2223214285714,52.128571428571426,4591.3,527.2223214285714,52.128571428571426,4696.6,527.2223214285714,52.128571428571426,4820.1,527.2223214285714,52.128571428571426,4925.2]","[1502.3,1502.3,1000,0,502.3,""smooth"",""right"",""right"",""good_move"",7146.2,5642.8,1833.9,4830.5,481.8,""smooth"",""right"",""right"",""good_move"",13983,6836.3,2475.6,11034,473.4,""smooth"",""up"",""up"",""good_move"",20616.4,6629.6,2711.2,13986.8,3918.4,""smooth"",""up"",""up"",""good_move"",27523.5,6906.6,2218.4,20616.9,4688.2,""oops"",""up"",""down"",""bad_move"",30766.2,3241.9,1577.2,27524.3,1664.7,""oops"",""up"",""left"",""bad_move"",38467.9,7696,2498.6,30771.9,5197.4,""smooth"",""up"",""up"",""good_move"",46129.6,7660.9,2050.2,38468.7,5610.7,""smooth"",""up"",""up"",""good_move"",53566.8,7436.6,2431.9,46130.2,5004.7,""smooth"",""right"",""right"",""good_move"",56263.6,2695.9,2146.8,53567.7,549.1,""oops"",""right"",""right"",""good_move""]","",""
"22487","","<div style=""width:500px;"">
  <p>What determined the result of this run?</p>
  </div>","50","html-slider-response","70","1211053","0.0-5.0-1.12","31","1","2025-07-09 12:58:30","01610cd0009c79a99da7d0a3353eb402","105.1.167.152","Mozilla/5.0 (Windows NT 10.0; Win64; x64) AppleWebKit/537.36 (KHTML, like Gecko) Chrome/138.0.0.0 Safari/537.36","WebKit","Chrome","138.0.0.0","Windows","10.0","https://app.prolific.com/","en-GB,en;q=0.9,en-US;q=0.8,zu;q=0.7,es;q=0.6","6129dca465e41b5ae1b262da","683db7602f5db6a34d12d064","686e6757ac84e5f447d70362","1","6129dca465e41b5ae1b262da","1","2025-07-09T13:18:44.906Z","","","","","","","","","","","AttribQ","","50","","","","","","","","","","","","","","","","","","","","","","","","","","","","",""
"5008","","<div style=""width:500px;"">
  <p>How much control did you have over the ball?</p>
  </div>","55","html-slider-response","71","1216066","0.0-5.0-2.12","31","1","2025-07-09 12:58:30","01610cd0009c79a99da7d0a3353eb402","105.1.167.152","Mozilla/5.0 (Windows NT 10.0; Win64; x64) AppleWebKit/537.36 (KHTML, like Gecko) Chrome/138.0.0.0 Safari/537.36","WebKit","Chrome","138.0.0.0","Windows","10.0","https://app.prolific.com/","en-GB,en;q=0.9,en-US;q=0.8,zu;q=0.7,es;q=0.6","6129dca465e41b5ae1b262da","683db7602f5db6a34d12d064","686e6757ac84e5f447d70362","1","6129dca465e41b5ae1b262da","1","2025-07-09T13:18:49.919Z","","","","","","","","","","","ControlQ","","50","","","","","","","","","","","","","","","","","","","","","","","","","","","","",""
"4008","","<div style=""width:500px;"">
  <p>How would you describe your current emotional state?</p>
  </div>","0","html-slider-response","72","1220079","0.0-5.0-3.12","31","1","2025-07-09 12:58:30","01610cd0009c79a99da7d0a3353eb402","105.1.167.152","Mozilla/5.0 (Windows NT 10.0; Win64; x64) AppleWebKit/537.36 (KHTML, like Gecko) Chrome/138.0.0.0 Safari/537.36","WebKit","Chrome","138.0.0.0","Windows","10.0","https://app.prolific.com/","en-GB,en;q=0.9,en-US;q=0.8,zu;q=0.7,es;q=0.6","6129dca465e41b5ae1b262da","683db7602f5db6a34d12d064","686e6757ac84e5f447d70362","1","6129dca465e41b5ae1b262da","1","2025-07-09T13:18:53.933Z","","","","","","","","","","","StressQ","","50","","","","","","","","","","","","","","","","","","","","","","","","","","","","",""
"3261","","<div style=""width:500px;"">
  <p>What best describes how you currently feel?</p>
  </div>","100","html-slider-response","73","1223345","0.0-5.0-4.12","31","1","2025-07-09 12:58:30","01610cd0009c79a99da7d0a3353eb402","105.1.167.152","Mozilla/5.0 (Windows NT 10.0; Win64; x64) AppleWebKit/537.36 (KHTML, like Gecko) Chrome/138.0.0.0 Safari/537.36","WebKit","Chrome","138.0.0.0","Windows","10.0","https://app.prolific.com/","en-GB,en;q=0.9,en-US;q=0.8,zu;q=0.7,es;q=0.6","6129dca465e41b5ae1b262da","683db7602f5db6a34d12d064","686e6757ac84e5f447d70362","1","6129dca465e41b5ae1b262da","1","2025-07-09T13:18:57.198Z","","","","","","","","","","","MotivationQ","","50","","","","","","","","","","","","","","","","","","","","","","","","","","","","",""
