"rt","response_timestamp","stimulus","response","trial_type","trial_index","time_elapsed","internal_node_id","run_id","condition","recorded_at","source_code_version","ip","user_agent","device","browser","browser_version","platform","platform_version","referer","accept_language","PROLIFIC_PID","STUDY_ID","SESSION_ID","WEEK","BATCH","prolific_id","week","batch","realtime","success","responses","item_order","radio_event_ids","radio_event_times","key_event_times","mouse_event_times","straightlining","zigzagging","honeypot","eventType","view_history","slider_start","which_type","canvas_config","goals_layout","control_level","trial_number","tutorial_trial_number","trial_start_time","phase1_start_time","phase2_start_time","phase3_start_time","goal_1_value","goal_1_distance","goal_2_value","goal_2_distance","goal_selected","outcome","outcome_total","participant_final_score","participant_initial_score","participant_final_score_prop","goal_choice_rt","allocated_time","allocated_time_remaining","goal_direction","counts","mouse_movements","key_presses","question_order","question_id"
"19973","1753883728960","<p style='font-size:40px;line-height:1.25'><strong>Welcome to the experiment!</strong></p><p style='font-size:1.1em;line-height:1.25'>Thank you for participanting in our experiment again! You will be asked to play the Dysfunctional Ball Game again. We will briefly recap the rules before we start.</p><p style='font-size:1.1em;line-height:1.25'>Press <strong>Next</strong> to continue.</p>","0","custom-html-button-response","0","19975","0.0-0.0","292","1","2025-07-30 13:55:07","1f75c3e559b7213887762d5229550c2b","178.166.40.254","Mozilla/5.0 (Windows NT 10.0; Win64; x64) AppleWebKit/537.36 (KHTML, like Gecko) Chrome/138.0.0.0 Safari/537.36 Edg/138.0.0.0","WebKit","Edge","138.0.0.0","Windows","10.0","https://app.prolific.com/","en-GB,en;q=0.9,en-US;q=0.8,pt-BR;q=0.7,pt-PT;q=0.6,pt;q=0.5","6172d51173f6962cef6b18cf","6877631c9844ddd5501205fc","688a2424ebc0271ed9c22892","3","1","6172d51173f6962cef6b18cf","3","1","2025-07-30T13:55:28.961Z","","","","","","","","","","","","","","","","","","","","","","","","","","","","","","","","","","","","","","","","","",""
"2275","","","","fullscreen","1","23262","0.0-1.0","292","1","2025-07-30 13:55:07","1f75c3e559b7213887762d5229550c2b","178.166.40.254","Mozilla/5.0 (Windows NT 10.0; Win64; x64) AppleWebKit/537.36 (KHTML, like Gecko) Chrome/138.0.0.0 Safari/537.36 Edg/138.0.0.0","WebKit","Edge","138.0.0.0","Windows","10.0","https://app.prolific.com/","en-GB,en;q=0.9,en-US;q=0.8,pt-BR;q=0.7,pt-PT;q=0.6,pt;q=0.5","6172d51173f6962cef6b18cf","6877631c9844ddd5501205fc","688a2424ebc0271ed9c22892","3","1","6172d51173f6962cef6b18cf","3","1","","true","","","","","","","","","","","","","","","","","","","","","","","","","","","","","","","","","","","","","","","","",""
"1365","1753883733722","<p style='font-size:1.1em;line-height:1.25'>In the following, we will ask you a few questions relating to your feelings in the last 24 hours.<br></p><p style='font-size:1.1em;line-height:1.25'>Press the <strong>Next</strong> button to continue.</p>","0","custom-html-button-response","2","24736","0.0-2.0-0.0","292","1","2025-07-30 13:55:07","1f75c3e559b7213887762d5229550c2b","178.166.40.254","Mozilla/5.0 (Windows NT 10.0; Win64; x64) AppleWebKit/537.36 (KHTML, like Gecko) Chrome/138.0.0.0 Safari/537.36 Edg/138.0.0.0","WebKit","Edge","138.0.0.0","Windows","10.0","https://app.prolific.com/","en-GB,en;q=0.9,en-US;q=0.8,pt-BR;q=0.7,pt-PT;q=0.6,pt;q=0.5","6172d51173f6962cef6b18cf","6877631c9844ddd5501205fc","688a2424ebc0271ed9c22892","3","1","6172d51173f6962cef6b18cf","3","1","2025-07-30T13:55:33.722Z","","","","","","","","","","","","","","","","","","","","","","","","","","","","","","","","","","","","","","","","","",""
"50738.30000001192","","","","survey-template","3","75478","0.0-2.0-1.0","292","1","2025-07-30 13:55:07","1f75c3e559b7213887762d5229550c2b","178.166.40.254","Mozilla/5.0 (Windows NT 10.0; Win64; x64) AppleWebKit/537.36 (KHTML, like Gecko) Chrome/138.0.0.0 Safari/537.36 Edg/138.0.0.0","WebKit","Edge","138.0.0.0","Windows","10.0","https://app.prolific.com/","en-GB,en;q=0.9,en-US;q=0.8,pt-BR;q=0.7,pt-PT;q=0.6,pt;q=0.5","6172d51173f6962cef6b18cf","6877631c9844ddd5501205fc","688a2424ebc0271ed9c22892","3","1","6172d51173f6962cef6b18cf","3","1","2025-07-30T13:56:24.464Z","","{""Q01"":""0"",""Q02"":""0"",""Q03"":""0"",""Q04"":""2"",""Q05"":""2"",""Q06"":""0"",""Q07"":""4"",""Q08"":""1"",""Q09"":""0"",""Q10"":""1"",""Q11"":""1"",""Q12"":""0"",""Q13"":""5"",""Q14"":""0"",""Q15"":""0"",""Q16"":""0"",""Q17"":""0"",""Q18"":""0"",""Q19"":""0"",""Q20"":""2"",""Q21"":""1"",""Q22"":""1""}","[0,1,2,3,4,5,6,7,8,9,10,11,12,13,14,15,16,17,18,19,20,21]","[""Q01"",""Q02"",""Q03"",""Q04"",""Q05"",""Q06"",""Q07"",""Q08"",""Q08"",""Q09"",""Q10"",""Q11"",""Q12"",""Q13"",""Q14"",""Q15"",""Q16"",""Q17"",""Q18"",""Q19"",""Q20"",""Q21"",""Q22"",""Q22"",""Q21"",""Q20""]","[5618,6315,7194.4000000059605,8804.90000000596,10542.40000000596,12092.90000000596,14063.09999999404,16618.30000001192,17951,19074.09999999404,20750,22897.40000000596,24408.40000000596,25871.59999999404,27612,29097.69999998808,29887.09999999404,31209.09999999404,31943.19999998808,33067.09999999404,35445.40000000596,36794.19999998808,38504.5,45122.90000000596,47094,49337.40000000596]","[1.5,4433.199999988079,5618,6315,7194.4000000059605,8804.90000000596,10542.40000000596,12092.90000000596,14063.09999999404,16618.30000001192,17951,19074.09999999404,20750,22897.40000000596,24408.40000000596,25871.59999999404,27612,29097.69999998808,29887.09999999404,31209.09999999404,31943.19999998808,33067.09999999404,35445.40000000596,36794.19999998808,38504.5,45122.90000000596,47094,49337.40000000596,50734.90000000596]","[]","0.5454545454545454","0.2857142857142857","0","drsp","","","","","","","","","","","","","","","","","","","","","","","","","","","","","","",""
"12267.09999999404","","","","survey-template","4","87747","0.0-2.0-2.0","292","1","2025-07-30 13:55:07","1f75c3e559b7213887762d5229550c2b","178.166.40.254","Mozilla/5.0 (Windows NT 10.0; Win64; x64) AppleWebKit/537.36 (KHTML, like Gecko) Chrome/138.0.0.0 Safari/537.36 Edg/138.0.0.0","WebKit","Edge","138.0.0.0","Windows","10.0","https://app.prolific.com/","en-GB,en;q=0.9,en-US;q=0.8,pt-BR;q=0.7,pt-PT;q=0.6,pt;q=0.5","6172d51173f6962cef6b18cf","6877631c9844ddd5501205fc","688a2424ebc0271ed9c22892","3","1","6172d51173f6962cef6b18cf","3","1","2025-07-30T13:56:36.733Z","","{""Q01"":""2"",""Q02"":""3"",""Q03"":""0""}","[0,1,2]","[""Q01"",""Q02"",""Q03""]","[5855.9000000059605,7260.800000011921,9351.59999999404]","[3385.699999988079,5855.9000000059605,6575.5999999940395,7260.800000011921,9351.59999999404,12266.699999988079]","[]","0.6666666666666666","0","0","stress","","","","","","","","","","","","","","","","","","","","","","","","","","","","","","",""
"1904","","","","instructions","5","89651","0.0-3.0-0.0","292","1","2025-07-30 13:55:07","1f75c3e559b7213887762d5229550c2b","178.166.40.254","Mozilla/5.0 (Windows NT 10.0; Win64; x64) AppleWebKit/537.36 (KHTML, like Gecko) Chrome/138.0.0.0 Safari/537.36 Edg/138.0.0.0","WebKit","Edge","138.0.0.0","Windows","10.0","https://app.prolific.com/","en-GB,en;q=0.9,en-US;q=0.8,pt-BR;q=0.7,pt-PT;q=0.6,pt;q=0.5","6172d51173f6962cef6b18cf","6877631c9844ddd5501205fc","688a2424ebc0271ed9c22892","3","1","6172d51173f6962cef6b18cf","3","1","","","","","","","","","","","","","[{""page_index"":0,""viewing_time"":1903}]","","","","","","","","","","","","","","","","","","","","","","","","","","","","","",""
"2936","","<p>Before you start with this game please answer the following three questions yourself. </p>
  <p>Through this game, we measure several aspects of your cognitive performance, such as reaction times, multi-tasking capabilities </p>
  <p>and the ability to assess the situation you are in.</p>
  <p></p>
  <p><b>How good do you usually are in such tasks?</b></p>","0","html-slider-response","6","92589","0.0-4.0-0.0","292","1","2025-07-30 13:55:07","1f75c3e559b7213887762d5229550c2b","178.166.40.254","Mozilla/5.0 (Windows NT 10.0; Win64; x64) AppleWebKit/537.36 (KHTML, like Gecko) Chrome/138.0.0.0 Safari/537.36 Edg/138.0.0.0","WebKit","Edge","138.0.0.0","Windows","10.0","https://app.prolific.com/","en-GB,en;q=0.9,en-US;q=0.8,pt-BR;q=0.7,pt-PT;q=0.6,pt;q=0.5","6172d51173f6962cef6b18cf","6877631c9844ddd5501205fc","688a2424ebc0271ed9c22892","3","1","6172d51173f6962cef6b18cf","3","1","2025-07-30T13:56:41.575Z","","","","","","","","","","","PreSkillQ","","50","","","","","","","","","","","","","","","","","","","","","","","","","","","","",""
"2719","","<div style=""width:500px;"">
  <p>How well do you think you will perform in this task compared to other participants?</p>
  </div>","0","html-slider-response","7","95309","0.0-4.0-1.0","292","1","2025-07-30 13:55:07","1f75c3e559b7213887762d5229550c2b","178.166.40.254","Mozilla/5.0 (Windows NT 10.0; Win64; x64) AppleWebKit/537.36 (KHTML, like Gecko) Chrome/138.0.0.0 Safari/537.36 Edg/138.0.0.0","WebKit","Edge","138.0.0.0","Windows","10.0","https://app.prolific.com/","en-GB,en;q=0.9,en-US;q=0.8,pt-BR;q=0.7,pt-PT;q=0.6,pt;q=0.5","6172d51173f6962cef6b18cf","6877631c9844ddd5501205fc","688a2424ebc0271ed9c22892","3","1","6172d51173f6962cef6b18cf","3","1","2025-07-30T13:56:44.295Z","","","","","","","","","","","PrePerfQ","","50","","","","","","","","","","","","","","","","","","","","","","","","","","","","",""
"3778","","<div style=""width:500px;"">
  <p>What best describes how you currently feel?</p>
  </div>","30","html-slider-response","8","99089","0.0-4.0-2.0","292","1","2025-07-30 13:55:07","1f75c3e559b7213887762d5229550c2b","178.166.40.254","Mozilla/5.0 (Windows NT 10.0; Win64; x64) AppleWebKit/537.36 (KHTML, like Gecko) Chrome/138.0.0.0 Safari/537.36 Edg/138.0.0.0","WebKit","Edge","138.0.0.0","Windows","10.0","https://app.prolific.com/","en-GB,en;q=0.9,en-US;q=0.8,pt-BR;q=0.7,pt-PT;q=0.6,pt;q=0.5","6172d51173f6962cef6b18cf","6877631c9844ddd5501205fc","688a2424ebc0271ed9c22892","3","1","6172d51173f6962cef6b18cf","3","1","2025-07-30T13:56:48.075Z","","","","","","","","","","","PreMotivationQ","","50","","","","","","","","","","","","","","","","","","","","","","","","","","","","",""
"","","","","ctl-task-cpt","9","125561","0.0-5.0-0.0","292","1","2025-07-30 13:55:07","1f75c3e559b7213887762d5229550c2b","178.166.40.254","Mozilla/5.0 (Windows NT 10.0; Win64; x64) AppleWebKit/537.36 (KHTML, like Gecko) Chrome/138.0.0.0 Safari/537.36 Edg/138.0.0.0","WebKit","Edge","138.0.0.0","Windows","10.0","https://app.prolific.com/","en-GB,en;q=0.9,en-US;q=0.8,pt-BR;q=0.7,pt-PT;q=0.6,pt;q=0.5","6172d51173f6962cef6b18cf","6877631c9844ddd5501205fc","688a2424ebc0271ed9c22892","3","1","6172d51173f6962cef6b18cf","3","1","2025-07-30T13:57:14.547Z","","","","","","","","","","","","","","win-only","0","g1:NW,g2:SE","1","1","0","100417","969.8","5970.4","23466.7","1","4","4","6","1","1","1","1","0","0.007575757575757576","1408.4","3000","1320","[""left"",""up""]","{""num_key_presses"":4,""num_perfect"":4,""num_errors"":0,""num_randdir"":0,""num_randdir_good_moves"":0,""num_whilered"":0,""num_whileblue"":0,""num_blue"":2,""num_good_moves"":4}","[415.57142857142856,409.47767857142856,0.1,415.57142857142856,409.47767857142856,112.6,415.57142857142856,409.47767857142856,216.2,415.57142857142856,409.47767857142856,321.2,410.57142857142856,405.47767857142856,421.3,406.57142857142856,408.47767857142856,521.4,523.5714285714286,513.4776785714286,625.5,637.5714285714286,633.4776785714286,725.5,700.5714285714286,686.4776785714286,825.6,738.5714285714286,724.4776785714286,926.1,713.5714285714286,720.4776785714286,1026.3,244.57142857142856,290.47767857142856,1131.1,114.57142857142857,96.47767857142857,1231.2,73.57142857142857,81.47767857142857,1336.1,70.57142857142857,80.47767857142857,1436.4,69.57142857142857,80.47767857142857,1541.5,73.57142857142857,83.47767857142857,1641.7,246.57142857142856,183.47767857142856,1745.8,806.5714285714286,401.47767857142856,1845.9,1286.5714285714287,516.4776785714286,1946.1,1263.5714285714287,510.47767857142856,2051,1231.5714285714287,501.47767857142856,2155.9,1229.5714285714287,501.47767857142856,2256,1229.5714285714287,501.47767857142856,2356.1,1229.5714285714287,501.47767857142856,2456.2,1187.5714285714287,487.47767857142856,2556.3,1178.5714285714287,485.47767857142856,2656.4,1177.5714285714287,485.47767857142856,2756.4,1165.5714285714287,485.47767857142856,2860.5,1154.5714285714287,484.47767857142856,2960.6,1154.5714285714287,484.47767857142856,3060.7,1154.5714285714287,484.47767857142856,3160.7,1129.5714285714287,483.47767857142856,3260.9,1102.5714285714287,483.47767857142856,3361,1101.5714285714287,482.47767857142856,3461,1101.5714285714287,482.47767857142856,3561.1,1101.5714285714287,482.47767857142856,3661.2,1101.5714285714287,482.47767857142856,3761.3,1101.5714285714287,482.47767857142856,3865.5,1101.5714285714287,482.47767857142856,3965.5,1101.5714285714287,482.47767857142856,4065.7,1101.5714285714287,482.47767857142856,4165.7,1101.5714285714287,482.47767857142856,4265.8,1101.5714285714287,482.47767857142856,4366,1101.5714285714287,482.47767857142856,4466,1101.5714285714287,482.47767857142856,4566.1,1101.5714285714287,482.47767857142856,4666.2,1101.5714285714287,482.47767857142856,4766.2,1101.5714285714287,482.47767857142856,4866.3,1101.5714285714287,482.47767857142856,4970.5]","[1413.2,1413.2,1000,0,413.2,""smooth"",""up"",""up"",""good_move"",11483.4,10070,2798.3,8315.7,369.4,""smooth"",""up"",""up"",""good_move"",14302.1,2818.5,2228.3,11483.6,590.2,""smooth"",""left"",""left"",""good_move"",17407.5,3105.1,2776.9,14302.4,328.2,""smooth"",""left"",""left"",""good_move""]","",""
"2631","","<div style=""width:500px;"">
  <p>What determined the result of this run?</p>
  </div>","15","html-slider-response","10","128194","0.0-5.0-1.0","292","1","2025-07-30 13:55:07","1f75c3e559b7213887762d5229550c2b","178.166.40.254","Mozilla/5.0 (Windows NT 10.0; Win64; x64) AppleWebKit/537.36 (KHTML, like Gecko) Chrome/138.0.0.0 Safari/537.36 Edg/138.0.0.0","WebKit","Edge","138.0.0.0","Windows","10.0","https://app.prolific.com/","en-GB,en;q=0.9,en-US;q=0.8,pt-BR;q=0.7,pt-PT;q=0.6,pt;q=0.5","6172d51173f6962cef6b18cf","6877631c9844ddd5501205fc","688a2424ebc0271ed9c22892","3","1","6172d51173f6962cef6b18cf","3","1","2025-07-30T13:57:17.180Z","","","","","","","","","","","AttribQ","","50","","","","","","","","","","","","","","","","","","","","","","","","","","","","",""
"2219","","<div style=""width:500px;"">
  <p>How much control did you have over the ball?</p>
  </div>","86","html-slider-response","11","130413","0.0-5.0-2.0","292","1","2025-07-30 13:55:07","1f75c3e559b7213887762d5229550c2b","178.166.40.254","Mozilla/5.0 (Windows NT 10.0; Win64; x64) AppleWebKit/537.36 (KHTML, like Gecko) Chrome/138.0.0.0 Safari/537.36 Edg/138.0.0.0","WebKit","Edge","138.0.0.0","Windows","10.0","https://app.prolific.com/","en-GB,en;q=0.9,en-US;q=0.8,pt-BR;q=0.7,pt-PT;q=0.6,pt;q=0.5","6172d51173f6962cef6b18cf","6877631c9844ddd5501205fc","688a2424ebc0271ed9c22892","3","1","6172d51173f6962cef6b18cf","3","1","2025-07-30T13:57:19.399Z","","","","","","","","","","","ControlQ","","50","","","","","","","","","","","","","","","","","","","","","","","","","","","","",""
"2765","","<div style=""width:500px;"">
  <p>How would you describe your current emotional state?</p>
  </div>","26","html-slider-response","12","133179","0.0-5.0-3.0","292","1","2025-07-30 13:55:07","1f75c3e559b7213887762d5229550c2b","178.166.40.254","Mozilla/5.0 (Windows NT 10.0; Win64; x64) AppleWebKit/537.36 (KHTML, like Gecko) Chrome/138.0.0.0 Safari/537.36 Edg/138.0.0.0","WebKit","Edge","138.0.0.0","Windows","10.0","https://app.prolific.com/","en-GB,en;q=0.9,en-US;q=0.8,pt-BR;q=0.7,pt-PT;q=0.6,pt;q=0.5","6172d51173f6962cef6b18cf","6877631c9844ddd5501205fc","688a2424ebc0271ed9c22892","3","1","6172d51173f6962cef6b18cf","3","1","2025-07-30T13:57:22.166Z","","","","","","","","","","","StressQ","","50","","","","","","","","","","","","","","","","","","","","","","","","","","","","",""
"3134","","<div style=""width:500px;"">
  <p>What best describes how you currently feel?</p>
  </div>","32","html-slider-response","13","136315","0.0-5.0-4.0","292","1","2025-07-30 13:55:07","1f75c3e559b7213887762d5229550c2b","178.166.40.254","Mozilla/5.0 (Windows NT 10.0; Win64; x64) AppleWebKit/537.36 (KHTML, like Gecko) Chrome/138.0.0.0 Safari/537.36 Edg/138.0.0.0","WebKit","Edge","138.0.0.0","Windows","10.0","https://app.prolific.com/","en-GB,en;q=0.9,en-US;q=0.8,pt-BR;q=0.7,pt-PT;q=0.6,pt;q=0.5","6172d51173f6962cef6b18cf","6877631c9844ddd5501205fc","688a2424ebc0271ed9c22892","3","1","6172d51173f6962cef6b18cf","3","1","2025-07-30T13:57:25.301Z","","","","","","","","","","","MotivationQ","","50","","","","","","","","","","","","","","","","","","","","","","","","","","","","",""
"","","","","ctl-task-cpt","14","162791","0.0-5.0-0.1","292","1","2025-07-30 13:55:07","1f75c3e559b7213887762d5229550c2b","178.166.40.254","Mozilla/5.0 (Windows NT 10.0; Win64; x64) AppleWebKit/537.36 (KHTML, like Gecko) Chrome/138.0.0.0 Safari/537.36 Edg/138.0.0.0","WebKit","Edge","138.0.0.0","Windows","10.0","https://app.prolific.com/","en-GB,en;q=0.9,en-US;q=0.8,pt-BR;q=0.7,pt-PT;q=0.6,pt;q=0.5","6172d51173f6962cef6b18cf","6877631c9844ddd5501205fc","688a2424ebc0271ed9c22892","3","1","6172d51173f6962cef6b18cf","3","1","2025-07-30T13:57:51.777Z","","","","","","","","","","","","","","win-only","2","g1:SE,g2:NW","0.9","2","0","137642.4","794.5","5796","23475.3","1","4","8","6","1","1","1","2","1","0.015151515151515152","1044.2","3000","1670","[""down"",""right""]","{""num_key_presses"":4,""num_perfect"":4,""num_errors"":0,""num_randdir"":0,""num_randdir_good_moves"":0,""num_whilered"":0,""num_whileblue"":0,""num_blue"":2,""num_good_moves"":4}","[410.57142857142856,421.47767857142856,0.1,409.57142857142856,421.47767857142856,100.7,409.57142857142856,421.47767857142856,200.9,409.57142857142856,421.47767857142856,301,333.57142857142856,365.47767857142856,401.1,267.57142857142856,307.47767857142856,501.2,425.57142857142856,461.47767857142856,601.2,609.5714285714286,647.4776785714286,705.6,700.5714285714286,721.4776785714286,805.9,750.5714285714286,757.4776785714286,911,779.5714285714286,770.4776785714286,1016.1,779.5714285714286,769.4776785714286,1121.1,781.5714285714286,768.4776785714286,1221.3,875.5714285714286,683.4776785714286,1321.5,1005.5714285714286,535.4776785714286,1421.6,1023.5714285714286,525.4776785714286,1521.6,1023.5714285714286,525.4776785714286,1625.7,1023.5714285714286,525.4776785714286,1726.2,1023.5714285714286,525.4776785714286,1831,1023.5714285714286,525.4776785714286,1931.3,1023.5714285714286,525.4776785714286,2035.9,1023.5714285714286,525.4776785714286,2135.9,1023.5714285714286,525.4776785714286,2236,1023.5714285714286,525.4776785714286,2336.1,1023.5714285714286,525.4776785714286,2436.4,1023.5714285714286,525.4776785714286,2536.4,1023.5714285714286,525.4776785714286,2636.5,1023.5714285714286,525.4776785714286,2741.3,1023.5714285714286,525.4776785714286,2845.7,1023.5714285714286,525.4776785714286,2946.6,1023.5714285714286,525.4776785714286,3050.9,1023.5714285714286,525.4776785714286,3151.1,1023.5714285714286,525.4776785714286,3251.4,1023.5714285714286,525.4776785714286,3356.3,1023.5714285714286,525.4776785714286,3456.3,1023.5714285714286,525.4776785714286,3556.6,1023.5714285714286,525.4776785714286,3661.6,1023.5714285714286,525.4776785714286,3761.6,1023.5714285714286,525.4776785714286,3866.4,1023.5714285714286,525.4776785714286,3966.4,1023.5714285714286,525.4776785714286,4071.5,1023.5714285714286,525.4776785714286,4175.9,1023.5714285714286,525.4776785714286,4275.9,1023.5714285714286,525.4776785714286,4376,1023.5714285714286,525.4776785714286,4476.1,1023.5714285714286,525.4776785714286,4576.1,1023.5714285714286,525.4776785714286,4676.4,1023.5714285714286,525.4776785714286,4781.6,1023.5714285714286,525.4776785714286,4881.6,1023.5714285714286,525.4776785714286,4985.7]","[1412,1412,1000,0,412,""smooth"",""right"",""right"",""good_move"",4383.1,2970.8,2645,1412.3,325.8,""smooth"",""down"",""down"",""good_move"",11293.7,6910.3,2822.4,8159.9,311.4,""smooth"",""down"",""down"",""good_move"",17589.4,6295.6,2393.8,14889.9,305.7,""smooth"",""right"",""right"",""good_move""]","",""
"3780","","<div style=""width:500px;"">
  <p>What determined the result of this run?</p>
  </div>","34","html-slider-response","15","166572","0.0-5.0-1.1","292","1","2025-07-30 13:55:07","1f75c3e559b7213887762d5229550c2b","178.166.40.254","Mozilla/5.0 (Windows NT 10.0; Win64; x64) AppleWebKit/537.36 (KHTML, like Gecko) Chrome/138.0.0.0 Safari/537.36 Edg/138.0.0.0","WebKit","Edge","138.0.0.0","Windows","10.0","https://app.prolific.com/","en-GB,en;q=0.9,en-US;q=0.8,pt-BR;q=0.7,pt-PT;q=0.6,pt;q=0.5","6172d51173f6962cef6b18cf","6877631c9844ddd5501205fc","688a2424ebc0271ed9c22892","3","1","6172d51173f6962cef6b18cf","3","1","2025-07-30T13:57:55.558Z","","","","","","","","","","","AttribQ","","50","","","","","","","","","","","","","","","","","","","","","","","","","","","","",""
"2806","","<div style=""width:500px;"">
  <p>How much control did you have over the ball?</p>
  </div>","78","html-slider-response","16","169379","0.0-5.0-2.1","292","1","2025-07-30 13:55:07","1f75c3e559b7213887762d5229550c2b","178.166.40.254","Mozilla/5.0 (Windows NT 10.0; Win64; x64) AppleWebKit/537.36 (KHTML, like Gecko) Chrome/138.0.0.0 Safari/537.36 Edg/138.0.0.0","WebKit","Edge","138.0.0.0","Windows","10.0","https://app.prolific.com/","en-GB,en;q=0.9,en-US;q=0.8,pt-BR;q=0.7,pt-PT;q=0.6,pt;q=0.5","6172d51173f6962cef6b18cf","6877631c9844ddd5501205fc","688a2424ebc0271ed9c22892","3","1","6172d51173f6962cef6b18cf","3","1","2025-07-30T13:57:58.365Z","","","","","","","","","","","ControlQ","","50","","","","","","","","","","","","","","","","","","","","","","","","","","","","",""
"1614","","<div style=""width:500px;"">
  <p>How would you describe your current emotional state?</p>
  </div>","33","html-slider-response","17","170994","0.0-5.0-3.1","292","1","2025-07-30 13:55:07","1f75c3e559b7213887762d5229550c2b","178.166.40.254","Mozilla/5.0 (Windows NT 10.0; Win64; x64) AppleWebKit/537.36 (KHTML, like Gecko) Chrome/138.0.0.0 Safari/537.36 Edg/138.0.0.0","WebKit","Edge","138.0.0.0","Windows","10.0","https://app.prolific.com/","en-GB,en;q=0.9,en-US;q=0.8,pt-BR;q=0.7,pt-PT;q=0.6,pt;q=0.5","6172d51173f6962cef6b18cf","6877631c9844ddd5501205fc","688a2424ebc0271ed9c22892","3","1","6172d51173f6962cef6b18cf","3","1","2025-07-30T13:57:59.980Z","","","","","","","","","","","StressQ","","50","","","","","","","","","","","","","","","","","","","","","","","","","","","","",""
"2199","","<div style=""width:500px;"">
  <p>What best describes how you currently feel?</p>
  </div>","29","html-slider-response","18","173193","0.0-5.0-4.1","292","1","2025-07-30 13:55:07","1f75c3e559b7213887762d5229550c2b","178.166.40.254","Mozilla/5.0 (Windows NT 10.0; Win64; x64) AppleWebKit/537.36 (KHTML, like Gecko) Chrome/138.0.0.0 Safari/537.36 Edg/138.0.0.0","WebKit","Edge","138.0.0.0","Windows","10.0","https://app.prolific.com/","en-GB,en;q=0.9,en-US;q=0.8,pt-BR;q=0.7,pt-PT;q=0.6,pt;q=0.5","6172d51173f6962cef6b18cf","6877631c9844ddd5501205fc","688a2424ebc0271ed9c22892","3","1","6172d51173f6962cef6b18cf","3","1","2025-07-30T13:58:02.179Z","","","","","","","","","","","MotivationQ","","50","","","","","","","","","","","","","","","","","","","","","","","","","","","","",""
"","","","","ctl-task-cpt","19","205538","0.0-5.0-0.2","292","1","2025-07-30 13:55:07","1f75c3e559b7213887762d5229550c2b","178.166.40.254","Mozilla/5.0 (Windows NT 10.0; Win64; x64) AppleWebKit/537.36 (KHTML, like Gecko) Chrome/138.0.0.0 Safari/537.36 Edg/138.0.0.0","WebKit","Edge","138.0.0.0","Windows","10.0","https://app.prolific.com/","en-GB,en;q=0.9,en-US;q=0.8,pt-BR;q=0.7,pt-PT;q=0.6,pt;q=0.5","6172d51173f6962cef6b18cf","6877631c9844ddd5501205fc","688a2424ebc0271ed9c22892","3","1","6172d51173f6962cef6b18cf","3","1","2025-07-30T13:58:34.524Z","","","","","","","","","","","","","","win-only","2","g1:SE,g2:NW","0.8","3","0","174521.3","680.3","5685.2","29325.6","1","4","4","6","1","1","0","2","2","0.015151515151515152","747.1","3000","200","[""down"",""right""]","{""num_key_presses"":8,""num_perfect"":6,""num_errors"":1,""num_randdir"":1,""num_randdir_good_moves"":0,""num_whilered"":0,""num_whileblue"":1,""num_blue"":2,""num_good_moves"":6}","[413.57142857142856,416.47767857142856,0.1,413.57142857142856,416.47767857142856,100.4,413.57142857142856,416.47767857142856,200.6,417.57142857142856,418.47767857142856,300.7,557.5714285714286,516.4776785714286,400.8,708.5714285714286,668.4776785714286,500.8,742.5714285714286,728.4776785714286,605.1,745.5714285714286,757.4776785714286,710,745.5714285714286,756.4776785714286,810.1,745.5714285714286,756.4776785714286,910.2,824.5714285714286,697.4776785714286,1010.3,1018.5714285714286,614.4776785714286,1110.3,1059.5714285714287,601.4776785714286,1210.5,1059.5714285714287,601.4776785714286,1310.6,1059.5714285714287,601.4776785714286,1410.8,1059.5714285714287,601.4776785714286,1510.8,1059.5714285714287,601.4776785714286,1615.7,1059.5714285714287,601.4776785714286,1720,1059.5714285714287,601.4776785714286,1820,1059.5714285714287,601.4776785714286,1920.2,1059.5714285714287,601.4776785714286,2020.2,1059.5714285714287,601.4776785714286,2120.4,1059.5714285714287,601.4776785714286,2220.4,1059.5714285714287,601.4776785714286,2320.5,1059.5714285714287,601.4776785714286,2420.6,1059.5714285714287,601.4776785714286,2520.6,1059.5714285714287,601.4776785714286,2620.7,1059.5714285714287,601.4776785714286,2720.7,1059.5714285714287,601.4776785714286,2825.1,1059.5714285714287,601.4776785714286,2925.1,1059.5714285714287,601.4776785714286,3025.4,1059.5714285714287,601.4776785714286,3125.3,1059.5714285714287,601.4776785714286,3225.5,1059.5714285714287,601.4776785714286,3325.5,1059.5714285714287,601.4776785714286,3425.5,1059.5714285714287,601.4776785714286,3525.6,1059.5714285714287,601.4776785714286,3625.8,1059.5714285714287,601.4776785714286,3726,1059.5714285714287,601.4776785714286,3830.7,1059.5714285714287,601.4776785714286,3934.9,1059.5714285714287,601.4776785714286,4035.1,1059.5714285714287,601.4776785714286,4135.2,1059.5714285714287,601.4776785714286,4235.3,1059.5714285714287,601.4776785714286,4335.3,1059.5714285714287,601.4776785714286,4435.5,1059.5714285714287,601.4776785714286,4540.4,1059.5714285714287,601.4776785714286,4640.6,1059.5714285714287,601.4776785714286,4740.7,1059.5714285714287,601.4776785714286,4840.7,1059.5714285714287,601.4776785714286,4940.9]","[1402,1402,1000,0,402,""smooth"",""right"",""right"",""good_move"",4714.9,3312.7,2967.8,1402.2,344.9,""smooth"",""down"",""down"",""good_move"",7868.2,3153,2807.1,4715.2,345.9,""smooth"",""down"",""down"",""good_move"",10176,2307.7,1597.7,7868.3,710,""oops"",""right"",""up"",""bad_move"",12985.9,2809.7,2544.6,10176.2,265.2,""while_blue"",""down"",""left"",""bad_move"",15741.8,2755.6,2430.3,12986.3,325.3,""smooth"",""down"",""down"",""good_move"",21340.2,5598.2,2231.5,18825.3,283.4,""smooth"",""right"",""right"",""good_move"",23554.3,2214,1789.9,21340.3,424.1,""smooth"",""right"",""right"",""good_move""]","",""
"2148","","<div style=""width:500px;"">
  <p>What determined the result of this run?</p>
  </div>","32","html-slider-response","20","207687","0.0-5.0-1.2","292","1","2025-07-30 13:55:07","1f75c3e559b7213887762d5229550c2b","178.166.40.254","Mozilla/5.0 (Windows NT 10.0; Win64; x64) AppleWebKit/537.36 (KHTML, like Gecko) Chrome/138.0.0.0 Safari/537.36 Edg/138.0.0.0","WebKit","Edge","138.0.0.0","Windows","10.0","https://app.prolific.com/","en-GB,en;q=0.9,en-US;q=0.8,pt-BR;q=0.7,pt-PT;q=0.6,pt;q=0.5","6172d51173f6962cef6b18cf","6877631c9844ddd5501205fc","688a2424ebc0271ed9c22892","3","1","6172d51173f6962cef6b18cf","3","1","2025-07-30T13:58:36.673Z","","","","","","","","","","","AttribQ","","50","","","","","","","","","","","","","","","","","","","","","","","","","","","","",""
"1920","","<div style=""width:500px;"">
  <p>How much control did you have over the ball?</p>
  </div>","73","html-slider-response","21","209608","0.0-5.0-2.2","292","1","2025-07-30 13:55:07","1f75c3e559b7213887762d5229550c2b","178.166.40.254","Mozilla/5.0 (Windows NT 10.0; Win64; x64) AppleWebKit/537.36 (KHTML, like Gecko) Chrome/138.0.0.0 Safari/537.36 Edg/138.0.0.0","WebKit","Edge","138.0.0.0","Windows","10.0","https://app.prolific.com/","en-GB,en;q=0.9,en-US;q=0.8,pt-BR;q=0.7,pt-PT;q=0.6,pt;q=0.5","6172d51173f6962cef6b18cf","6877631c9844ddd5501205fc","688a2424ebc0271ed9c22892","3","1","6172d51173f6962cef6b18cf","3","1","2025-07-30T13:58:38.594Z","","","","","","","","","","","ControlQ","","50","","","","","","","","","","","","","","","","","","","","","","","","","","","","",""
"4300","","<div style=""width:500px;"">
  <p>How would you describe your current emotional state?</p>
  </div>","26","html-slider-response","22","213909","0.0-5.0-3.2","292","1","2025-07-30 13:55:07","1f75c3e559b7213887762d5229550c2b","178.166.40.254","Mozilla/5.0 (Windows NT 10.0; Win64; x64) AppleWebKit/537.36 (KHTML, like Gecko) Chrome/138.0.0.0 Safari/537.36 Edg/138.0.0.0","WebKit","Edge","138.0.0.0","Windows","10.0","https://app.prolific.com/","en-GB,en;q=0.9,en-US;q=0.8,pt-BR;q=0.7,pt-PT;q=0.6,pt;q=0.5","6172d51173f6962cef6b18cf","6877631c9844ddd5501205fc","688a2424ebc0271ed9c22892","3","1","6172d51173f6962cef6b18cf","3","1","2025-07-30T13:58:42.895Z","","","","","","","","","","","StressQ","","50","","","","","","","","","","","","","","","","","","","","","","","","","","","","",""
"2193","","<div style=""width:500px;"">
  <p>What best describes how you currently feel?</p>
  </div>","59","html-slider-response","23","216103","0.0-5.0-4.2","292","1","2025-07-30 13:55:07","1f75c3e559b7213887762d5229550c2b","178.166.40.254","Mozilla/5.0 (Windows NT 10.0; Win64; x64) AppleWebKit/537.36 (KHTML, like Gecko) Chrome/138.0.0.0 Safari/537.36 Edg/138.0.0.0","WebKit","Edge","138.0.0.0","Windows","10.0","https://app.prolific.com/","en-GB,en;q=0.9,en-US;q=0.8,pt-BR;q=0.7,pt-PT;q=0.6,pt;q=0.5","6172d51173f6962cef6b18cf","6877631c9844ddd5501205fc","688a2424ebc0271ed9c22892","3","1","6172d51173f6962cef6b18cf","3","1","2025-07-30T13:58:45.089Z","","","","","","","","","","","MotivationQ","","50","","","","","","","","","","","","","","","","","","","","","","","","","","","","",""
"","","","","ctl-task-cpt","24","263741","0.0-5.0-0.3","292","1","2025-07-30 13:55:07","1f75c3e559b7213887762d5229550c2b","178.166.40.254","Mozilla/5.0 (Windows NT 10.0; Win64; x64) AppleWebKit/537.36 (KHTML, like Gecko) Chrome/138.0.0.0 Safari/537.36 Edg/138.0.0.0","WebKit","Edge","138.0.0.0","Windows","10.0","https://app.prolific.com/","en-GB,en;q=0.9,en-US;q=0.8,pt-BR;q=0.7,pt-PT;q=0.6,pt;q=0.5","6172d51173f6962cef6b18cf","6877631c9844ddd5501205fc","688a2424ebc0271ed9c22892","3","1","6172d51173f6962cef6b18cf","3","1","2025-07-30T13:59:32.727Z","","","","","","","","","","","","","","win-only","0","g1:NW,g2:SE","0.7","4","0","217432","767.8","5770.5","44620.9","1","4","8","6","2","-8","-10","0","2","0","1072.1","3000","-2980","[""down"",""right""]","{""num_key_presses"":10,""num_perfect"":6,""num_errors"":2,""num_randdir"":2,""num_randdir_good_moves"":0,""num_whilered"":0,""num_whileblue"":2,""num_blue"":5,""num_good_moves"":7}","[419.57142857142856,419.47767857142856,0.2,419.57142857142856,419.47767857142856,102.8,419.57142857142856,419.47767857142856,207.9,419.57142857142856,419.47767857142856,308,416.57142857142856,419.47767857142856,412.2,444.57142857142856,480.47767857142856,512.6,588.5714285714286,604.4776785714286,612.6,633.5714285714286,666.4776785714286,717.9,665.5714285714286,716.4776785714286,822.8,728.5714285714286,753.4776785714286,923.4,777.5714285714286,773.4776785714286,1027.4,778.5714285714286,773.4776785714286,1128,783.5714285714286,773.4776785714286,1232.3,945.5714285714286,667.4776785714286,1333.3,1037.5714285714287,613.4776785714286,1433.4,1041.5714285714287,618.4776785714286,1537.7,1041.5714285714287,618.4776785714286,1637.8,1041.5714285714287,618.4776785714286,1737.8,1041.5714285714287,618.4776785714286,1837.9,1041.5714285714287,618.4776785714286,1938.1,1041.5714285714287,618.4776785714286,2042.7,1041.5714285714287,618.4776785714286,2142.8,1041.5714285714287,618.4776785714286,2242.9,1041.5714285714287,618.4776785714286,2342.9,1041.5714285714287,618.4776785714286,2447.3,1041.5714285714287,618.4776785714286,2547.6,1041.5714285714287,618.4776785714286,2652.6,1041.5714285714287,618.4776785714286,2752.7,1041.5714285714287,618.4776785714286,2852.7,1041.5714285714287,618.4776785714286,2952.7,1041.5714285714287,618.4776785714286,3052.8,1041.5714285714287,618.4776785714286,3158.8,1041.5714285714287,618.4776785714286,3262.9,1041.5714285714287,618.4776785714286,3367.9,1041.5714285714287,618.4776785714286,3473,1041.5714285714287,618.4776785714286,3578.1,1041.5714285714287,618.4776785714286,3682.3,1041.5714285714287,618.4776785714286,3782.4,1041.5714285714287,618.4776785714286,3882.6,1041.5714285714287,618.4776785714286,3987.9,1041.5714285714287,618.4776785714286,4088.1,1041.5714285714287,618.4776785714286,4192.8,1041.5714285714287,618.4776785714286,4293,1041.5714285714287,618.4776785714286,4393,1041.5714285714287,618.4776785714286,4493,1041.5714285714287,618.4776785714286,4597.4,1041.5714285714287,618.4776785714286,4697.6,1041.5714285714287,618.4776785714286,4797.8,1041.5714285714287,618.4776785714286,4902.6]","[5189.8,5189.8,2765.4,2005.1,419.3,""smooth"",""down"",""down"",""good_move"",8118.9,2928.7,2555.6,5190.2,373.1,""smooth"",""down"",""down"",""good_move"",14581,6461.9,2938.2,11304.7,338.1,""smooth"",""down"",""down"",""good_move"",17296.4,2715.3,2448.6,14581.1,266.7,""while_blue"",""right"",""right"",""good_move"",20101.8,2804.9,2454.4,17296.9,350.5,""oops"",""right"",""left"",""bad_move"",22516.7,2414.7,2043.4,20102,371.3,""oops"",""right"",""up"",""bad_move"",25326.8,2809.9,2459.4,22517,350.5,""smooth"",""right"",""right"",""good_move"",27359.5,2032.4,1712,25327.1,320.4,""smooth"",""right"",""right"",""good_move"",30587.9,3228.4,2960.5,27359.6,267.9,""while_blue"",""right"",""left"",""bad_move"",36021,5432.9,2301.1,33395.2,324.7,""smooth"",""right"",""right"",""good_move""]","",""
"3066","","<div style=""width:500px;"">
  <p>What determined the result of this run?</p>
  </div>","13","html-slider-response","25","266808","0.0-5.0-1.3","292","1","2025-07-30 13:55:07","1f75c3e559b7213887762d5229550c2b","178.166.40.254","Mozilla/5.0 (Windows NT 10.0; Win64; x64) AppleWebKit/537.36 (KHTML, like Gecko) Chrome/138.0.0.0 Safari/537.36 Edg/138.0.0.0","WebKit","Edge","138.0.0.0","Windows","10.0","https://app.prolific.com/","en-GB,en;q=0.9,en-US;q=0.8,pt-BR;q=0.7,pt-PT;q=0.6,pt;q=0.5","6172d51173f6962cef6b18cf","6877631c9844ddd5501205fc","688a2424ebc0271ed9c22892","3","1","6172d51173f6962cef6b18cf","3","1","2025-07-30T13:59:35.794Z","","","","","","","","","","","AttribQ","","50","","","","","","","","","","","","","","","","","","","","","","","","","","","","",""
"1723","","<div style=""width:500px;"">
  <p>How much control did you have over the ball?</p>
  </div>","11","html-slider-response","26","268532","0.0-5.0-2.3","292","1","2025-07-30 13:55:07","1f75c3e559b7213887762d5229550c2b","178.166.40.254","Mozilla/5.0 (Windows NT 10.0; Win64; x64) AppleWebKit/537.36 (KHTML, like Gecko) Chrome/138.0.0.0 Safari/537.36 Edg/138.0.0.0","WebKit","Edge","138.0.0.0","Windows","10.0","https://app.prolific.com/","en-GB,en;q=0.9,en-US;q=0.8,pt-BR;q=0.7,pt-PT;q=0.6,pt;q=0.5","6172d51173f6962cef6b18cf","6877631c9844ddd5501205fc","688a2424ebc0271ed9c22892","3","1","6172d51173f6962cef6b18cf","3","1","2025-07-30T13:59:37.518Z","","","","","","","","","","","ControlQ","","50","","","","","","","","","","","","","","","","","","","","","","","","","","","","",""
"2842","","<div style=""width:500px;"">
  <p>How would you describe your current emotional state?</p>
  </div>","66","html-slider-response","27","271375","0.0-5.0-3.3","292","1","2025-07-30 13:55:07","1f75c3e559b7213887762d5229550c2b","178.166.40.254","Mozilla/5.0 (Windows NT 10.0; Win64; x64) AppleWebKit/537.36 (KHTML, like Gecko) Chrome/138.0.0.0 Safari/537.36 Edg/138.0.0.0","WebKit","Edge","138.0.0.0","Windows","10.0","https://app.prolific.com/","en-GB,en;q=0.9,en-US;q=0.8,pt-BR;q=0.7,pt-PT;q=0.6,pt;q=0.5","6172d51173f6962cef6b18cf","6877631c9844ddd5501205fc","688a2424ebc0271ed9c22892","3","1","6172d51173f6962cef6b18cf","3","1","2025-07-30T13:59:40.361Z","","","","","","","","","","","StressQ","","50","","","","","","","","","","","","","","","","","","","","","","","","","","","","",""
"1885","","<div style=""width:500px;"">
  <p>What best describes how you currently feel?</p>
  </div>","19","html-slider-response","28","273261","0.0-5.0-4.3","292","1","2025-07-30 13:55:07","1f75c3e559b7213887762d5229550c2b","178.166.40.254","Mozilla/5.0 (Windows NT 10.0; Win64; x64) AppleWebKit/537.36 (KHTML, like Gecko) Chrome/138.0.0.0 Safari/537.36 Edg/138.0.0.0","WebKit","Edge","138.0.0.0","Windows","10.0","https://app.prolific.com/","en-GB,en;q=0.9,en-US;q=0.8,pt-BR;q=0.7,pt-PT;q=0.6,pt;q=0.5","6172d51173f6962cef6b18cf","6877631c9844ddd5501205fc","688a2424ebc0271ed9c22892","3","1","6172d51173f6962cef6b18cf","3","1","2025-07-30T13:59:42.247Z","","","","","","","","","","","MotivationQ","","50","","","","","","","","","","","","","","","","","","","","","","","","","","","","",""
"","","","","ctl-task-cpt","29","302573","0.0-5.0-0.4","292","1","2025-07-30 13:55:07","1f75c3e559b7213887762d5229550c2b","178.166.40.254","Mozilla/5.0 (Windows NT 10.0; Win64; x64) AppleWebKit/537.36 (KHTML, like Gecko) Chrome/138.0.0.0 Safari/537.36 Edg/138.0.0.0","WebKit","Edge","138.0.0.0","Windows","10.0","https://app.prolific.com/","en-GB,en;q=0.9,en-US;q=0.8,pt-BR;q=0.7,pt-PT;q=0.6,pt;q=0.5","6172d51173f6962cef6b18cf","6877631c9844ddd5501205fc","688a2424ebc0271ed9c22892","3","1","6172d51173f6962cef6b18cf","3","1","2025-07-30T14:00:11.559Z","","","","","","","","","","","","","","win-only","3","g1:SW,g2:NE","0.6","5","0","274589.4","829.9","5830.9","26295.1","1","4","4","6","1","1","1","1","0","0.007575757575757576","1154.8","3000","525","[""down"",""left""]","{""num_key_presses"":8,""num_perfect"":5,""num_errors"":0,""num_randdir"":3,""num_randdir_good_moves"":1,""num_whilered"":0,""num_whileblue"":0,""num_blue"":0,""num_good_moves"":6}","[427.57142857142856,419.47767857142856,0,427.57142857142856,419.47767857142856,100.9,427.57142857142856,419.47767857142856,205.9,427.57142857142856,419.47767857142856,306.1,415.57142857142856,432.47767857142856,406.1,397.57142857142856,476.47767857142856,511.2,413.57142857142856,459.47767857142856,616.1,373.57142857142856,481.47767857142856,720.3,225.57142857142856,607.4776785714286,820.3,71.57142857142857,708.4776785714286,921.2,30.57142857142857,747.4776785714286,1025.3,23.57142857142857,755.4776785714286,1125.4,25.57142857142857,755.4776785714286,1225.4,26.57142857142857,755.4776785714286,1325.6,22.57142857142857,752.4776785714286,1425.7,-151.42857142857144,653.4776785714286,1525.7,-194.42857142857144,587.4776785714286,1625.8,-192.42857142857144,588.4776785714286,1725.9,-192.42857142857144,588.4776785714286,1826,-192.42857142857144,588.4776785714286,1926.1,-192.42857142857144,588.4776785714286,2031.3,-192.42857142857144,588.4776785714286,2135.3,-192.42857142857144,588.4776785714286,2235.4,-192.42857142857144,588.4776785714286,2335.5,-192.42857142857144,588.4776785714286,2435.7,-192.42857142857144,588.4776785714286,2540.8,-192.42857142857144,588.4776785714286,2646,-192.42857142857144,588.4776785714286,2750.8,-192.42857142857144,588.4776785714286,2850.9,-192.42857142857144,588.4776785714286,2951,-192.42857142857144,588.4776785714286,3056.1,-192.42857142857144,588.4776785714286,3160.2,-192.42857142857144,588.4776785714286,3260.3,-192.42857142857144,588.4776785714286,3360.3,-192.42857142857144,588.4776785714286,3460.4,-192.42857142857144,588.4776785714286,3560.5,-192.42857142857144,588.4776785714286,3660.6,-192.42857142857144,588.4776785714286,3760.7,-192.42857142857144,588.4776785714286,3860.8,-192.42857142857144,588.4776785714286,3960.9,-192.42857142857144,588.4776785714286,4061,-192.42857142857144,588.4776785714286,4161.1,-192.42857142857144,588.4776785714286,4265.2,-192.42857142857144,588.4776785714286,4365.2,-192.42857142857144,588.4776785714286,4465.4,-192.42857142857144,588.4776785714286,4565.5,-192.42857142857144,588.4776785714286,4665.6,-192.42857142857144,588.4776785714286,4765.7,-192.42857142857144,588.4776785714286,4865.7,-192.42857142857144,588.4776785714286,4965.9]","[1340.3,1340.3,1000,0,340.3,""smooth"",""down"",""down"",""good_move"",3770.1,2429.6,2093.2,1340.5,336.4,""smooth"",""down"",""down"",""good_move"",6353.9,2583.6,2238.2,3770.3,345.4,""smooth"",""left"",""left"",""good_move"",9263.2,2909,2615.2,6354.3,293.7,""oops"",""left"",""right"",""bad_move"",12434,3170.7,2853.7,9263.3,317,""oops"",""left"",""up"",""bad_move"",14831.5,2397.2,2113.4,12434.3,283.9,""smooth"",""left"",""left"",""good_move"",17437.9,2606.2,2302.1,14831.7,304.1,""oops"",""down"",""down"",""good_move"",20368,2929.8,2637.2,17438.2,292.6,""smooth"",""left"",""left"",""good_move""]","",""
"1909","","<div style=""width:500px;"">
  <p>What determined the result of this run?</p>
  </div>","20","html-slider-response","30","304483","0.0-5.0-1.4","292","1","2025-07-30 13:55:07","1f75c3e559b7213887762d5229550c2b","178.166.40.254","Mozilla/5.0 (Windows NT 10.0; Win64; x64) AppleWebKit/537.36 (KHTML, like Gecko) Chrome/138.0.0.0 Safari/537.36 Edg/138.0.0.0","WebKit","Edge","138.0.0.0","Windows","10.0","https://app.prolific.com/","en-GB,en;q=0.9,en-US;q=0.8,pt-BR;q=0.7,pt-PT;q=0.6,pt;q=0.5","6172d51173f6962cef6b18cf","6877631c9844ddd5501205fc","688a2424ebc0271ed9c22892","3","1","6172d51173f6962cef6b18cf","3","1","2025-07-30T14:00:13.469Z","","","","","","","","","","","AttribQ","","50","","","","","","","","","","","","","","","","","","","","","","","","","","","","",""
"2408","","<div style=""width:500px;"">
  <p>How much control did you have over the ball?</p>
  </div>","14","html-slider-response","31","306892","0.0-5.0-2.4","292","1","2025-07-30 13:55:07","1f75c3e559b7213887762d5229550c2b","178.166.40.254","Mozilla/5.0 (Windows NT 10.0; Win64; x64) AppleWebKit/537.36 (KHTML, like Gecko) Chrome/138.0.0.0 Safari/537.36 Edg/138.0.0.0","WebKit","Edge","138.0.0.0","Windows","10.0","https://app.prolific.com/","en-GB,en;q=0.9,en-US;q=0.8,pt-BR;q=0.7,pt-PT;q=0.6,pt;q=0.5","6172d51173f6962cef6b18cf","6877631c9844ddd5501205fc","688a2424ebc0271ed9c22892","3","1","6172d51173f6962cef6b18cf","3","1","2025-07-30T14:00:15.878Z","","","","","","","","","","","ControlQ","","50","","","","","","","","","","","","","","","","","","","","","","","","","","","","",""
"2023","","<div style=""width:500px;"">
  <p>How would you describe your current emotional state?</p>
  </div>","35","html-slider-response","32","308916","0.0-5.0-3.4","292","1","2025-07-30 13:55:07","1f75c3e559b7213887762d5229550c2b","178.166.40.254","Mozilla/5.0 (Windows NT 10.0; Win64; x64) AppleWebKit/537.36 (KHTML, like Gecko) Chrome/138.0.0.0 Safari/537.36 Edg/138.0.0.0","WebKit","Edge","138.0.0.0","Windows","10.0","https://app.prolific.com/","en-GB,en;q=0.9,en-US;q=0.8,pt-BR;q=0.7,pt-PT;q=0.6,pt;q=0.5","6172d51173f6962cef6b18cf","6877631c9844ddd5501205fc","688a2424ebc0271ed9c22892","3","1","6172d51173f6962cef6b18cf","3","1","2025-07-30T14:00:17.902Z","","","","","","","","","","","StressQ","","50","","","","","","","","","","","","","","","","","","","","","","","","","","","","",""
"2188","","<div style=""width:500px;"">
  <p>What best describes how you currently feel?</p>
  </div>","63","html-slider-response","33","311105","0.0-5.0-4.4","292","1","2025-07-30 13:55:07","1f75c3e559b7213887762d5229550c2b","178.166.40.254","Mozilla/5.0 (Windows NT 10.0; Win64; x64) AppleWebKit/537.36 (KHTML, like Gecko) Chrome/138.0.0.0 Safari/537.36 Edg/138.0.0.0","WebKit","Edge","138.0.0.0","Windows","10.0","https://app.prolific.com/","en-GB,en;q=0.9,en-US;q=0.8,pt-BR;q=0.7,pt-PT;q=0.6,pt;q=0.5","6172d51173f6962cef6b18cf","6877631c9844ddd5501205fc","688a2424ebc0271ed9c22892","3","1","6172d51173f6962cef6b18cf","3","1","2025-07-30T14:00:20.091Z","","","","","","","","","","","MotivationQ","","50","","","","","","","","","","","","","","","","","","","","","","","","","","","","",""
"","","","","ctl-task-cpt","34","352743","0.0-5.0-0.5","292","1","2025-07-30 13:55:07","1f75c3e559b7213887762d5229550c2b","178.166.40.254","Mozilla/5.0 (Windows NT 10.0; Win64; x64) AppleWebKit/537.36 (KHTML, like Gecko) Chrome/138.0.0.0 Safari/537.36 Edg/138.0.0.0","WebKit","Edge","138.0.0.0","Windows","10.0","https://app.prolific.com/","en-GB,en;q=0.9,en-US;q=0.8,pt-BR;q=0.7,pt-PT;q=0.6,pt;q=0.5","6172d51173f6962cef6b18cf","6877631c9844ddd5501205fc","688a2424ebc0271ed9c22892","3","1","6172d51173f6962cef6b18cf","3","1","2025-07-30T14:01:01.729Z","","","","","","","","","","","","","","win-only","1","g1:NE,g2:SW","0.5","6","0","312433.6","1073.2","6075.3","38620.1","1","4","8","6","1","1","0","1","1","0.007575757575757576","759.2","3000","185","[""up"",""right""]","{""num_key_presses"":10,""num_perfect"":5,""num_errors"":1,""num_randdir"":4,""num_randdir_good_moves"":1,""num_whilered"":0,""num_whileblue"":1,""num_blue"":2,""num_good_moves"":7}","[425.57142857142856,418.47767857142856,0.1,425.57142857142856,418.47767857142856,103.3,424.57142857142856,418.47767857142856,203.4,424.57142857142856,418.47767857142856,307.4,462.57142857142856,422.47767857142856,407.5,655.5714285714286,308.47767857142856,507.6,749.5714285714286,159.47767857142856,607.7,784.5714285714286,97.47767857142857,707.8,788.5714285714286,85.47767857142857,811.9,788.5714285714286,85.47767857142857,912,866.5714285714286,158.47767857142856,1012.3,993.5714285714286,230.47767857142856,1117.2,1017.5714285714286,244.47767857142856,1217.3,1017.5714285714286,244.47767857142856,1317.6,1017.5714285714286,244.47767857142856,1417.7,1017.5714285714286,244.47767857142856,1517.7,1017.5714285714286,244.47767857142856,1617.7,1017.5714285714286,244.47767857142856,1718,1017.5714285714286,244.47767857142856,1822.2,1017.5714285714286,244.47767857142856,1922.2,1017.5714285714286,244.47767857142856,2022.3,1017.5714285714286,244.47767857142856,2122.4,1017.5714285714286,244.47767857142856,2222.4,1017.5714285714286,244.47767857142856,2322.5,1017.5714285714286,244.47767857142856,2422.8,1017.5714285714286,244.47767857142856,2527.7,1017.5714285714286,244.47767857142856,2627.7,1017.5714285714286,244.47767857142856,2727.8,1017.5714285714286,244.47767857142856,2832.8,1017.5714285714286,244.47767857142856,2936.9,1017.5714285714286,244.47767857142856,3037.1,1017.5714285714286,244.47767857142856,3137.2,1017.5714285714286,244.47767857142856,3237.3,1017.5714285714286,244.47767857142856,3337.4,1017.5714285714286,244.47767857142856,3437.4,1017.5714285714286,244.47767857142856,3537.6,1017.5714285714286,244.47767857142856,3637.6,1017.5714285714286,244.47767857142856,3737.8,1017.5714285714286,244.47767857142856,3837.8,1017.5714285714286,244.47767857142856,3941.9,1017.5714285714286,244.47767857142856,4042.1,1017.5714285714286,244.47767857142856,4147.1,1017.5714285714286,244.47767857142856,4247.1,1017.5714285714286,244.47767857142856,4347.4,1017.5714285714286,244.47767857142856,4447.4,1017.5714285714286,244.47767857142856,4547.4,1017.5714285714286,244.47767857142856,4647.5,1017.5714285714286,244.47767857142856,4747.6,1017.5714285714286,244.47767857142856,4847.7,1017.5714285714286,244.47767857142856,4947.8]","[1324.2,1324.2,1000,0,324.2,""smooth"",""up"",""up"",""good_move"",4747.3,3422.7,3082.6,1324.6,340.1,""smooth"",""up"",""up"",""good_move"",7977.4,3229.9,2911.4,4747.5,318.5,""oops"",""right"",""left"",""bad_move"",11237.2,3259.5,2903.7,7977.8,355.8,""oops"",""right"",""left"",""bad_move"",13232.7,1995.2,1655.8,11237.5,339.4,""oops"",""right"",""left"",""bad_move"",16341.6,3108.7,2786.8,13232.9,321.9,""smooth"",""right"",""right"",""good_move"",19124,2782.1,2508,16341.9,274.1,""smooth"",""right"",""right"",""good_move"",26479.9,7355.8,2976.7,23250.5,252.7,""oops"",""right"",""right"",""good_move"",29383.5,2903.4,2650.9,26480.1,252.5,""while_blue"",""right"",""right"",""good_move"",32458.7,3074.9,2743,29383.8,331.9,""smooth"",""right"",""right"",""good_move""]","",""
"2144","","<div style=""width:500px;"">
  <p>What determined the result of this run?</p>
  </div>","6","html-slider-response","35","354887","0.0-5.0-1.5","292","1","2025-07-30 13:55:07","1f75c3e559b7213887762d5229550c2b","178.166.40.254","Mozilla/5.0 (Windows NT 10.0; Win64; x64) AppleWebKit/537.36 (KHTML, like Gecko) Chrome/138.0.0.0 Safari/537.36 Edg/138.0.0.0","WebKit","Edge","138.0.0.0","Windows","10.0","https://app.prolific.com/","en-GB,en;q=0.9,en-US;q=0.8,pt-BR;q=0.7,pt-PT;q=0.6,pt;q=0.5","6172d51173f6962cef6b18cf","6877631c9844ddd5501205fc","688a2424ebc0271ed9c22892","3","1","6172d51173f6962cef6b18cf","3","1","2025-07-30T14:01:03.873Z","","","","","","","","","","","AttribQ","","50","","","","","","","","","","","","","","","","","","","","","","","","","","","","",""
"1573","","<div style=""width:500px;"">
  <p>How much control did you have over the ball?</p>
  </div>","8","html-slider-response","36","356461","0.0-5.0-2.5","292","1","2025-07-30 13:55:07","1f75c3e559b7213887762d5229550c2b","178.166.40.254","Mozilla/5.0 (Windows NT 10.0; Win64; x64) AppleWebKit/537.36 (KHTML, like Gecko) Chrome/138.0.0.0 Safari/537.36 Edg/138.0.0.0","WebKit","Edge","138.0.0.0","Windows","10.0","https://app.prolific.com/","en-GB,en;q=0.9,en-US;q=0.8,pt-BR;q=0.7,pt-PT;q=0.6,pt;q=0.5","6172d51173f6962cef6b18cf","6877631c9844ddd5501205fc","688a2424ebc0271ed9c22892","3","1","6172d51173f6962cef6b18cf","3","1","2025-07-30T14:01:05.447Z","","","","","","","","","","","ControlQ","","50","","","","","","","","","","","","","","","","","","","","","","","","","","","","",""
"1650","","<div style=""width:500px;"">
  <p>How would you describe your current emotional state?</p>
  </div>","69","html-slider-response","37","358112","0.0-5.0-3.5","292","1","2025-07-30 13:55:07","1f75c3e559b7213887762d5229550c2b","178.166.40.254","Mozilla/5.0 (Windows NT 10.0; Win64; x64) AppleWebKit/537.36 (KHTML, like Gecko) Chrome/138.0.0.0 Safari/537.36 Edg/138.0.0.0","WebKit","Edge","138.0.0.0","Windows","10.0","https://app.prolific.com/","en-GB,en;q=0.9,en-US;q=0.8,pt-BR;q=0.7,pt-PT;q=0.6,pt;q=0.5","6172d51173f6962cef6b18cf","6877631c9844ddd5501205fc","688a2424ebc0271ed9c22892","3","1","6172d51173f6962cef6b18cf","3","1","2025-07-30T14:01:07.098Z","","","","","","","","","","","StressQ","","50","","","","","","","","","","","","","","","","","","","","","","","","","","","","",""
"2249","","<div style=""width:500px;"">
  <p>What best describes how you currently feel?</p>
  </div>","26","html-slider-response","38","360362","0.0-5.0-4.5","292","1","2025-07-30 13:55:07","1f75c3e559b7213887762d5229550c2b","178.166.40.254","Mozilla/5.0 (Windows NT 10.0; Win64; x64) AppleWebKit/537.36 (KHTML, like Gecko) Chrome/138.0.0.0 Safari/537.36 Edg/138.0.0.0","WebKit","Edge","138.0.0.0","Windows","10.0","https://app.prolific.com/","en-GB,en;q=0.9,en-US;q=0.8,pt-BR;q=0.7,pt-PT;q=0.6,pt;q=0.5","6172d51173f6962cef6b18cf","6877631c9844ddd5501205fc","688a2424ebc0271ed9c22892","3","1","6172d51173f6962cef6b18cf","3","1","2025-07-30T14:01:09.348Z","","","","","","","","","","","MotivationQ","","50","","","","","","","","","","","","","","","","","","","","","","","","","","","","",""
"","","","","ctl-task-cpt","39","407880","0.0-5.0-0.6","292","1","2025-07-30 13:55:07","1f75c3e559b7213887762d5229550c2b","178.166.40.254","Mozilla/5.0 (Windows NT 10.0; Win64; x64) AppleWebKit/537.36 (KHTML, like Gecko) Chrome/138.0.0.0 Safari/537.36 Edg/138.0.0.0","WebKit","Edge","138.0.0.0","Windows","10.0","https://app.prolific.com/","en-GB,en;q=0.9,en-US;q=0.8,pt-BR;q=0.7,pt-PT;q=0.6,pt;q=0.5","6172d51173f6962cef6b18cf","6877631c9844ddd5501205fc","688a2424ebc0271ed9c22892","3","1","6172d51173f6962cef6b18cf","3","1","2025-07-30T14:01:56.866Z","","","","","","","","","","","","","","win-only","3","g1:SW,g2:NE","0.4","7","0","361689.9","609.5","5610.8","44500.6","1","4","8","6","1","-1","-2","0","1","0","1097","3000","-3015","[""down"",""left""]","{""num_key_presses"":10,""num_perfect"":4,""num_errors"":1,""num_randdir"":5,""num_randdir_good_moves"":2,""num_whilered"":0,""num_whileblue"":1,""num_blue"":4,""num_good_moves"":6}","[415.57142857142856,413.47767857142856,0.1,415.57142857142856,413.47767857142856,101.2,414.57142857142856,415.47767857142856,205.9,414.57142857142856,415.47767857142856,310.8,435.57142857142856,414.47767857142856,411.2,408.57142857142856,400.47767857142856,515.8,230.57142857142856,497.47767857142856,615.9,95.57142857142857,630.4776785714286,715.9,84.57142857142857,653.4776785714286,821.3,86.57142857142857,684.4776785714286,925.7,75.57142857142857,727.4776785714286,1026.1,73.57142857142857,737.4776785714286,1132.2,65.57142857142857,733.4776785714286,1235.8,-63.42857142857143,685.4776785714286,1335.9,-111.42857142857143,621.4776785714286,1436.2,-92.42857142857143,614.4776785714286,1540.9,-91.42857142857143,614.4776785714286,1641.2,-91.42857142857143,614.4776785714286,1745.9,-91.42857142857143,614.4776785714286,1846,-91.42857142857143,614.4776785714286,1950.9,-91.42857142857143,614.4776785714286,2051,-91.42857142857143,614.4776785714286,2151.1,-91.42857142857143,614.4776785714286,2255.9,-91.42857142857143,614.4776785714286,2356.1,-91.42857142857143,614.4776785714286,2456.1,-91.42857142857143,614.4776785714286,2556.2,-91.42857142857143,614.4776785714286,2656.5,-91.42857142857143,614.4776785714286,2761.2,-91.42857142857143,614.4776785714286,2865.7,-91.42857142857143,614.4776785714286,2965.9,-91.42857142857143,614.4776785714286,3066.2,-91.42857142857143,614.4776785714286,3171.2,-91.42857142857143,614.4776785714286,3271.2,-91.42857142857143,614.4776785714286,3371.4,-91.42857142857143,614.4776785714286,3471.4,-79.42857142857143,611.4776785714286,3575.6,-79.42857142857143,611.4776785714286,3675.7,-79.42857142857143,611.4776785714286,3775.8,-79.42857142857143,611.4776785714286,3876,-72.42857142857143,618.4776785714286,3980.9,-44.42857142857143,784.4776785714286,4081,135.57142857142856,773.4776785714286,4181.1,198.57142857142856,727.4776785714286,4281.2,82.57142857142857,710.4776785714286,4381.2,-159.42857142857144,623.4776785714286,4481.4,-263.42857142857144,603.4776785714286,4581.5,-264.42857142857144,603.4776785714286,4685.9,-264.42857142857144,603.4776785714286,4791.1,-264.42857142857144,603.4776785714286,4896,-256.42857142857144,606.4776785714286,4996.3]","[8006.5,8006.5,1931.7,5649.8,425,""oops"",""down"",""up"",""bad_move"",10651.2,2644.4,2193.3,8006.8,451.1,""oops"",""down"",""right"",""bad_move"",13657.6,3006.2,2718.3,10651.4,287.9,""oops"",""left"",""right"",""bad_move"",16456.5,2798.8,2562.2,13657.7,236.6,""smooth"",""down"",""down"",""good_move"",19170.4,2713.6,2357.4,16456.8,356.2,""smooth"",""left"",""left"",""good_move"",22498.7,3328.1,2999.4,19170.6,328.7,""oops"",""left"",""left"",""good_move"",24869.4,2370.6,2050.3,22498.8,320.3,""smooth"",""left"",""left"",""good_move"",31451.3,6581.8,2831.6,28304.6,315.1,""smooth"",""down"",""down"",""good_move"",34344.6,2893,2598.6,31451.6,294.4,""oops"",""down"",""left"",""good_move"",36362.6,2017.7,1794.6,34344.9,223.1,""while_blue"",""down"",""up"",""bad_move""]","",""
"2000","","<div style=""width:500px;"">
  <p>What determined the result of this run?</p>
  </div>","3","html-slider-response","40","409880","0.0-5.0-1.6","292","1","2025-07-30 13:55:07","1f75c3e559b7213887762d5229550c2b","178.166.40.254","Mozilla/5.0 (Windows NT 10.0; Win64; x64) AppleWebKit/537.36 (KHTML, like Gecko) Chrome/138.0.0.0 Safari/537.36 Edg/138.0.0.0","WebKit","Edge","138.0.0.0","Windows","10.0","https://app.prolific.com/","en-GB,en;q=0.9,en-US;q=0.8,pt-BR;q=0.7,pt-PT;q=0.6,pt;q=0.5","6172d51173f6962cef6b18cf","6877631c9844ddd5501205fc","688a2424ebc0271ed9c22892","3","1","6172d51173f6962cef6b18cf","3","1","2025-07-30T14:01:58.866Z","","","","","","","","","","","AttribQ","","50","","","","","","","","","","","","","","","","","","","","","","","","","","","","",""
"2060","","<div style=""width:500px;"">
  <p>How much control did you have over the ball?</p>
  </div>","1","html-slider-response","41","411941","0.0-5.0-2.6","292","1","2025-07-30 13:55:07","1f75c3e559b7213887762d5229550c2b","178.166.40.254","Mozilla/5.0 (Windows NT 10.0; Win64; x64) AppleWebKit/537.36 (KHTML, like Gecko) Chrome/138.0.0.0 Safari/537.36 Edg/138.0.0.0","WebKit","Edge","138.0.0.0","Windows","10.0","https://app.prolific.com/","en-GB,en;q=0.9,en-US;q=0.8,pt-BR;q=0.7,pt-PT;q=0.6,pt;q=0.5","6172d51173f6962cef6b18cf","6877631c9844ddd5501205fc","688a2424ebc0271ed9c22892","3","1","6172d51173f6962cef6b18cf","3","1","2025-07-30T14:02:00.927Z","","","","","","","","","","","ControlQ","","50","","","","","","","","","","","","","","","","","","","","","","","","","","","","",""
"2156","","<div style=""width:500px;"">
  <p>How would you describe your current emotional state?</p>
  </div>","63","html-slider-response","42","414098","0.0-5.0-3.6","292","1","2025-07-30 13:55:07","1f75c3e559b7213887762d5229550c2b","178.166.40.254","Mozilla/5.0 (Windows NT 10.0; Win64; x64) AppleWebKit/537.36 (KHTML, like Gecko) Chrome/138.0.0.0 Safari/537.36 Edg/138.0.0.0","WebKit","Edge","138.0.0.0","Windows","10.0","https://app.prolific.com/","en-GB,en;q=0.9,en-US;q=0.8,pt-BR;q=0.7,pt-PT;q=0.6,pt;q=0.5","6172d51173f6962cef6b18cf","6877631c9844ddd5501205fc","688a2424ebc0271ed9c22892","3","1","6172d51173f6962cef6b18cf","3","1","2025-07-30T14:02:03.084Z","","","","","","","","","","","StressQ","","50","","","","","","","","","","","","","","","","","","","","","","","","","","","","",""
"1477","","<div style=""width:500px;"">
  <p>What best describes how you currently feel?</p>
  </div>","22","html-slider-response","43","415576","0.0-5.0-4.6","292","1","2025-07-30 13:55:07","1f75c3e559b7213887762d5229550c2b","178.166.40.254","Mozilla/5.0 (Windows NT 10.0; Win64; x64) AppleWebKit/537.36 (KHTML, like Gecko) Chrome/138.0.0.0 Safari/537.36 Edg/138.0.0.0","WebKit","Edge","138.0.0.0","Windows","10.0","https://app.prolific.com/","en-GB,en;q=0.9,en-US;q=0.8,pt-BR;q=0.7,pt-PT;q=0.6,pt;q=0.5","6172d51173f6962cef6b18cf","6877631c9844ddd5501205fc","688a2424ebc0271ed9c22892","3","1","6172d51173f6962cef6b18cf","3","1","2025-07-30T14:02:04.562Z","","","","","","","","","","","MotivationQ","","50","","","","","","","","","","","","","","","","","","","","","","","","","","","","",""
"","","","","ctl-task-cpt","44","450556","0.0-5.0-0.7","292","1","2025-07-30 13:55:07","1f75c3e559b7213887762d5229550c2b","178.166.40.254","Mozilla/5.0 (Windows NT 10.0; Win64; x64) AppleWebKit/537.36 (KHTML, like Gecko) Chrome/138.0.0.0 Safari/537.36 Edg/138.0.0.0","WebKit","Edge","138.0.0.0","Windows","10.0","https://app.prolific.com/","en-GB,en;q=0.9,en-US;q=0.8,pt-BR;q=0.7,pt-PT;q=0.6,pt;q=0.5","6172d51173f6962cef6b18cf","6877631c9844ddd5501205fc","688a2424ebc0271ed9c22892","3","1","6172d51173f6962cef6b18cf","3","1","2025-07-30T14:02:39.542Z","","","","","","","","","","","","","","win-only","1","g1:NE,g2:SW","0.3","8","0","416904.7","598.3","5600.3","31960.2","1","4","4","6","1","1","-1","0","0","0","734.7","3000","345","[""up"",""right""]","{""num_key_presses"":10,""num_perfect"":2,""num_errors"":2,""num_randdir"":6,""num_randdir_good_moves"":5,""num_whilered"":0,""num_whileblue"":2,""num_blue"":2,""num_good_moves"":7}","[422.57142857142856,415.47767857142856,0.1,421.57142857142856,415.47767857142856,102.3,420.57142857142856,415.47767857142856,202.3,420.57142857142856,415.47767857142856,302.3,505.57142857142856,365.47767857142856,402.4,694.5714285714286,195.47767857142856,506.7,745.5714285714286,121.47767857142857,607.1,775.5714285714286,80.47767857142857,707.1,773.5714285714286,79.47767857142857,807.1,773.5714285714286,79.47767857142857,907.6,795.5714285714286,123.47767857142857,1012,954.5714285714286,310.47767857142856,1112.4,1002.5714285714286,374.47767857142856,1212.4,1013.5714285714286,380.47767857142856,1317.4,1015.5714285714286,381.47767857142856,1417.6,1015.5714285714286,381.47767857142856,1518,1015.5714285714286,381.47767857142856,1622.5,1015.5714285714286,381.47767857142856,1726.9,1015.5714285714286,381.47767857142856,1827.6,1015.5714285714286,381.47767857142856,1932.4,1015.5714285714286,381.47767857142856,2036.9,1015.5714285714286,381.47767857142856,2137.1,1015.5714285714286,381.47767857142856,2237.2,1015.5714285714286,381.47767857142856,2337.2,1015.5714285714286,381.47767857142856,2446.3,1015.5714285714286,381.47767857142856,2547.4,1015.5714285714286,381.47767857142856,2647.5,1015.5714285714286,381.47767857142856,2751.7,1015.5714285714286,381.47767857142856,2851.8,1015.5714285714286,381.47767857142856,2951.9,1015.5714285714286,381.47767857142856,3056.8,1015.5714285714286,381.47767857142856,3156.9,1015.5714285714286,381.47767857142856,3257.2,1015.5714285714286,381.47767857142856,3362.1,1015.5714285714286,381.47767857142856,3462.1,1015.5714285714286,381.47767857142856,3566.8,1015.5714285714286,381.47767857142856,3667.3,1015.5714285714286,381.47767857142856,3767.6,1015.5714285714286,381.47767857142856,3872,1015.5714285714286,381.47767857142856,3972,1015.5714285714286,381.47767857142856,4072,1015.5714285714286,381.47767857142856,4172,1015.5714285714286,381.47767857142856,4273.1,1015.5714285714286,381.47767857142856,4377.3,1015.5714285714286,381.47767857142856,4482.2,1015.5714285714286,381.47767857142856,4582.2,1015.5714285714286,381.47767857142856,4682.3,1015.5714285714286,381.47767857142856,4787.4,1015.5714285714286,381.47767857142856,4892.4,1015.5714285714286,381.47767857142856,4997.7]","[1361.7,1361.7,1000,0,361.7,""oops"",""up"",""down"",""bad_move"",3515,2153.2,1819.3,1361.9,333.9,""oops"",""up"",""right"",""good_move"",5848.2,2332.9,2049.4,3515.3,283.5,""while_blue"",""up"",""down"",""bad_move"",8907.7,3059.2,2720.3,5848.5,338.9,""oops"",""up"",""up"",""good_move"",12342.5,3434.6,3097.8,8907.9,336.8,""oops"",""up"",""up"",""good_move"",14863.2,2520.5,2162.4,12342.7,358.1,""while_blue"",""up"",""left"",""bad_move"",17008.4,2144.9,1818.7,14863.5,326.2,""smooth"",""up"",""up"",""good_move"",20265.1,3256.7,2959.8,17008.5,296.9,""smooth"",""up"",""up"",""good_move"",23477.1,3211.8,2808.4,20265.3,403.4,""oops"",""right"",""right"",""good_move"",26261.1,2783.7,2490.9,23477.4,292.8,""oops"",""right"",""right"",""good_move""]","",""
"1820","","<div style=""width:500px;"">
  <p>What determined the result of this run?</p>
  </div>","1","html-slider-response","45","452377","0.0-5.0-1.7","292","1","2025-07-30 13:55:07","1f75c3e559b7213887762d5229550c2b","178.166.40.254","Mozilla/5.0 (Windows NT 10.0; Win64; x64) AppleWebKit/537.36 (KHTML, like Gecko) Chrome/138.0.0.0 Safari/537.36 Edg/138.0.0.0","WebKit","Edge","138.0.0.0","Windows","10.0","https://app.prolific.com/","en-GB,en;q=0.9,en-US;q=0.8,pt-BR;q=0.7,pt-PT;q=0.6,pt;q=0.5","6172d51173f6962cef6b18cf","6877631c9844ddd5501205fc","688a2424ebc0271ed9c22892","3","1","6172d51173f6962cef6b18cf","3","1","2025-07-30T14:02:41.363Z","","","","","","","","","","","AttribQ","","50","","","","","","","","","","","","","","","","","","","","","","","","","","","","",""
"2664","","<div style=""width:500px;"">
  <p>How much control did you have over the ball?</p>
  </div>","18","html-slider-response","46","455042","0.0-5.0-2.7","292","1","2025-07-30 13:55:07","1f75c3e559b7213887762d5229550c2b","178.166.40.254","Mozilla/5.0 (Windows NT 10.0; Win64; x64) AppleWebKit/537.36 (KHTML, like Gecko) Chrome/138.0.0.0 Safari/537.36 Edg/138.0.0.0","WebKit","Edge","138.0.0.0","Windows","10.0","https://app.prolific.com/","en-GB,en;q=0.9,en-US;q=0.8,pt-BR;q=0.7,pt-PT;q=0.6,pt;q=0.5","6172d51173f6962cef6b18cf","6877631c9844ddd5501205fc","688a2424ebc0271ed9c22892","3","1","6172d51173f6962cef6b18cf","3","1","2025-07-30T14:02:44.028Z","","","","","","","","","","","ControlQ","","50","","","","","","","","","","","","","","","","","","","","","","","","","","","","",""
"3895","","<div style=""width:500px;"">
  <p>How would you describe your current emotional state?</p>
  </div>","67","html-slider-response","47","458937","0.0-5.0-3.7","292","1","2025-07-30 13:55:07","1f75c3e559b7213887762d5229550c2b","178.166.40.254","Mozilla/5.0 (Windows NT 10.0; Win64; x64) AppleWebKit/537.36 (KHTML, like Gecko) Chrome/138.0.0.0 Safari/537.36 Edg/138.0.0.0","WebKit","Edge","138.0.0.0","Windows","10.0","https://app.prolific.com/","en-GB,en;q=0.9,en-US;q=0.8,pt-BR;q=0.7,pt-PT;q=0.6,pt;q=0.5","6172d51173f6962cef6b18cf","6877631c9844ddd5501205fc","688a2424ebc0271ed9c22892","3","1","6172d51173f6962cef6b18cf","3","1","2025-07-30T14:02:47.923Z","","","","","","","","","","","StressQ","","50","","","","","","","","","","","","","","","","","","","","","","","","","","","","",""
"2810","","<div style=""width:500px;"">
  <p>What best describes how you currently feel?</p>
  </div>","6","html-slider-response","48","461749","0.0-5.0-4.7","292","1","2025-07-30 13:55:07","1f75c3e559b7213887762d5229550c2b","178.166.40.254","Mozilla/5.0 (Windows NT 10.0; Win64; x64) AppleWebKit/537.36 (KHTML, like Gecko) Chrome/138.0.0.0 Safari/537.36 Edg/138.0.0.0","WebKit","Edge","138.0.0.0","Windows","10.0","https://app.prolific.com/","en-GB,en;q=0.9,en-US;q=0.8,pt-BR;q=0.7,pt-PT;q=0.6,pt;q=0.5","6172d51173f6962cef6b18cf","6877631c9844ddd5501205fc","688a2424ebc0271ed9c22892","3","1","6172d51173f6962cef6b18cf","3","1","2025-07-30T14:02:50.735Z","","","","","","","","","","","MotivationQ","","50","","","","","","","","","","","","","","","","","","","","","","","","","","","","",""
"","","","","ctl-task-cpt","49","510167","0.0-5.0-0.8","292","1","2025-07-30 13:55:07","1f75c3e559b7213887762d5229550c2b","178.166.40.254","Mozilla/5.0 (Windows NT 10.0; Win64; x64) AppleWebKit/537.36 (KHTML, like Gecko) Chrome/138.0.0.0 Safari/537.36 Edg/138.0.0.0","WebKit","Edge","138.0.0.0","Windows","10.0","https://app.prolific.com/","en-GB,en;q=0.9,en-US;q=0.8,pt-BR;q=0.7,pt-PT;q=0.6,pt;q=0.5","6172d51173f6962cef6b18cf","6877631c9844ddd5501205fc","688a2424ebc0271ed9c22892","3","1","6172d51173f6962cef6b18cf","3","1","2025-07-30T14:03:39.153Z","","","","","","","","","","","","","","win-only","3","g1:SW,g2:NE","0.2","9","0","463077.4","629.1","5631.1","45400.8","1","4","4","6","1","-1","-4","0","0","0","1281.7","3000","-3005","[""down"",""left""]","{""num_key_presses"":11,""num_perfect"":2,""num_errors"":3,""num_randdir"":6,""num_randdir_good_moves"":3,""num_whilered"":0,""num_whileblue"":3,""num_blue"":5,""num_good_moves"":6}","[418.57142857142856,420.47767857142856,0,418.57142857142856,420.47767857142856,101.6,418.57142857142856,420.47767857142856,206.8,423.57142857142856,416.47767857142856,311.3,534.5714285714286,292.47767857142856,411.4,754.5714285714286,140.47767857142856,511.6,783.5714285714286,107.47767857142857,611.7,779.5714285714286,92.47767857142857,716.8,562.5714285714286,237.47767857142856,822,364.57142857142856,484.47767857142856,926.4,165.57142857142856,660.4776785714286,1031.2,128.57142857142856,703.4776785714286,1131.5,34.57142857142857,756.4776785714286,1231.6,28.57142857142857,761.4776785714286,1337.1,28.57142857142857,760.4776785714286,1441.5,-36.42857142857143,702.4776785714286,1541.7,-192.42857142857144,479.47767857142856,1642.3,-199.42857142857144,440.47767857142856,1746.6,-200.42857142857144,440.47767857142856,1851.6,-200.42857142857144,440.47767857142856,1951.7,-200.42857142857144,440.47767857142856,2056.5,-200.42857142857144,440.47767857142856,2156.7,-200.42857142857144,440.47767857142856,2261.2,-200.42857142857144,440.47767857142856,2361.4,-200.42857142857144,440.47767857142856,2461.6,-200.42857142857144,440.47767857142856,2566.6,-200.42857142857144,440.47767857142856,2671.6,-200.42857142857144,440.47767857142856,2776.5,-200.42857142857144,440.47767857142856,2876.6,-200.42857142857144,440.47767857142856,2976.7,-200.42857142857144,440.47767857142856,3077,-200.42857142857144,440.47767857142856,3181.6,-200.42857142857144,440.47767857142856,3286.2,-200.42857142857144,440.47767857142856,3386.2,-200.42857142857144,440.47767857142856,3491.4,-200.42857142857144,440.47767857142856,3591.4,-200.42857142857144,440.47767857142856,3691.5,-200.42857142857144,440.47767857142856,3796.5,-200.42857142857144,440.47767857142856,3896.7,-200.42857142857144,440.47767857142856,3996.7,-200.42857142857144,440.47767857142856,4097.5,-200.42857142857144,440.47767857142856,4201.2,-200.42857142857144,440.47767857142856,4301.5,-200.42857142857144,440.47767857142856,4402.1,-200.42857142857144,440.47767857142856,4506.5,-200.42857142857144,440.47767857142856,4606.7,-200.42857142857144,440.47767857142856,4707.3,-200.42857142857144,440.47767857142856,4807.9,-200.42857142857144,440.47767857142856,4911.9]","[8772.3,8772.4,2194.9,6194.7,382.8,""oops"",""left"",""down"",""good_move"",11575.6,2802.8,2481.9,8772.8,320.9,""oops"",""left"",""right"",""bad_move"",14047.7,2471.9,2146.8,11575.8,325.1,""smooth"",""left"",""left"",""good_move"",17311,3263.1,2893.5,14047.9,369.6,""oops"",""left"",""up"",""bad_move"",20551,3239.9,2963.8,17311.1,276.1,""while_blue"",""left"",""right"",""bad_move"",23458.7,2907.3,2560.9,20551.4,346.4,""oops"",""down"",""left"",""good_move"",26348.4,2889.5,2553.5,23458.9,336,""oops"",""down"",""up"",""bad_move"",28842.5,2493.9,2201.1,26348.6,292.8,""while_blue"",""left"",""up"",""bad_move"",31724,2881.4,2569.2,28842.6,312.2,""smooth"",""down"",""down"",""good_move"",34002.2,2278,1950.7,31724.2,327.3,""oops"",""down"",""down"",""good_move"",37480.5,3478.1,3191.8,34002.4,286.3,""while_blue"",""down"",""down"",""good_move""]","",""
"4919","","<div style=""width:500px;"">
  <p>What determined the result of this run?</p>
  </div>","100","html-slider-response","50","515086","0.0-5.0-1.8","292","1","2025-07-30 13:55:07","1f75c3e559b7213887762d5229550c2b","178.166.40.254","Mozilla/5.0 (Windows NT 10.0; Win64; x64) AppleWebKit/537.36 (KHTML, like Gecko) Chrome/138.0.0.0 Safari/537.36 Edg/138.0.0.0","WebKit","Edge","138.0.0.0","Windows","10.0","https://app.prolific.com/","en-GB,en;q=0.9,en-US;q=0.8,pt-BR;q=0.7,pt-PT;q=0.6,pt;q=0.5","6172d51173f6962cef6b18cf","6877631c9844ddd5501205fc","688a2424ebc0271ed9c22892","3","1","6172d51173f6962cef6b18cf","3","1","2025-07-30T14:03:44.072Z","","","","","","","","","","","AttribQ","","50","","","","","","","","","","","","","","","","","","","","","","","","","","","","",""
"3442","","<div style=""width:500px;"">
  <p>How much control did you have over the ball?</p>
  </div>","39","html-slider-response","51","518529","0.0-5.0-2.8","292","1","2025-07-30 13:55:07","1f75c3e559b7213887762d5229550c2b","178.166.40.254","Mozilla/5.0 (Windows NT 10.0; Win64; x64) AppleWebKit/537.36 (KHTML, like Gecko) Chrome/138.0.0.0 Safari/537.36 Edg/138.0.0.0","WebKit","Edge","138.0.0.0","Windows","10.0","https://app.prolific.com/","en-GB,en;q=0.9,en-US;q=0.8,pt-BR;q=0.7,pt-PT;q=0.6,pt;q=0.5","6172d51173f6962cef6b18cf","6877631c9844ddd5501205fc","688a2424ebc0271ed9c22892","3","1","6172d51173f6962cef6b18cf","3","1","2025-07-30T14:03:47.515Z","","","","","","","","","","","ControlQ","","50","","","","","","","","","","","","","","","","","","","","","","","","","","","","",""
"2329","","<div style=""width:500px;"">
  <p>How would you describe your current emotional state?</p>
  </div>","100","html-slider-response","52","520859","0.0-5.0-3.8","292","1","2025-07-30 13:55:07","1f75c3e559b7213887762d5229550c2b","178.166.40.254","Mozilla/5.0 (Windows NT 10.0; Win64; x64) AppleWebKit/537.36 (KHTML, like Gecko) Chrome/138.0.0.0 Safari/537.36 Edg/138.0.0.0","WebKit","Edge","138.0.0.0","Windows","10.0","https://app.prolific.com/","en-GB,en;q=0.9,en-US;q=0.8,pt-BR;q=0.7,pt-PT;q=0.6,pt;q=0.5","6172d51173f6962cef6b18cf","6877631c9844ddd5501205fc","688a2424ebc0271ed9c22892","3","1","6172d51173f6962cef6b18cf","3","1","2025-07-30T14:03:49.845Z","","","","","","","","","","","StressQ","","50","","","","","","","","","","","","","","","","","","","","","","","","","","","","",""
"3251","","<div style=""width:500px;"">
  <p>What best describes how you currently feel?</p>
  </div>","0","html-slider-response","53","524111","0.0-5.0-4.8","292","1","2025-07-30 13:55:07","1f75c3e559b7213887762d5229550c2b","178.166.40.254","Mozilla/5.0 (Windows NT 10.0; Win64; x64) AppleWebKit/537.36 (KHTML, like Gecko) Chrome/138.0.0.0 Safari/537.36 Edg/138.0.0.0","WebKit","Edge","138.0.0.0","Windows","10.0","https://app.prolific.com/","en-GB,en;q=0.9,en-US;q=0.8,pt-BR;q=0.7,pt-PT;q=0.6,pt;q=0.5","6172d51173f6962cef6b18cf","6877631c9844ddd5501205fc","688a2424ebc0271ed9c22892","3","1","6172d51173f6962cef6b18cf","3","1","2025-07-30T14:03:53.097Z","","","","","","","","","","","MotivationQ","","50","","","","","","","","","","","","","","","","","","","","","","","","","","","","",""
"","","","","ctl-task-cpt","54","560459","0.0-5.0-0.9","292","1","2025-07-30 13:55:07","1f75c3e559b7213887762d5229550c2b","178.166.40.254","Mozilla/5.0 (Windows NT 10.0; Win64; x64) AppleWebKit/537.36 (KHTML, like Gecko) Chrome/138.0.0.0 Safari/537.36 Edg/138.0.0.0","WebKit","Edge","138.0.0.0","Windows","10.0","https://app.prolific.com/","en-GB,en;q=0.9,en-US;q=0.8,pt-BR;q=0.7,pt-PT;q=0.6,pt;q=0.5","6172d51173f6962cef6b18cf","6877631c9844ddd5501205fc","688a2424ebc0271ed9c22892","3","1","6172d51173f6962cef6b18cf","3","1","2025-07-30T14:04:29.445Z","","","","","","","","","","","","","","win-only","2","g1:SE,g2:NW","0.4","10","0","525439.8","717.3","5720.7","33330.2","1","4","8","6","1","-1","-1","0","0","0","742.8","3000","-3010","[""down"",""right""]","{""num_key_presses"":8,""num_perfect"":4,""num_errors"":0,""num_randdir"":4,""num_randdir_good_moves"":1,""num_whilered"":0,""num_whileblue"":0,""num_blue"":1,""num_good_moves"":5}","[419.57142857142856,425.47767857142856,0.1,419.57142857142856,425.47767857142856,108.8,417.57142857142856,425.47767857142856,213.2,417.57142857142856,425.47767857142856,319.5,415.57142857142856,430.47767857142856,423.7,722.5714285714286,673.4776785714286,528.4,809.5714285714286,754.4776785714286,628.4,813.5714285714286,769.4776785714286,728.6,813.5714285714286,769.4776785714286,833,813.5714285714286,769.4776785714286,933.5,936.5714285714286,762.4776785714286,1038,1010.5714285714286,730.4776785714286,1143.2,1015.5714285714286,746.4776785714286,1243.2,1015.5714285714286,746.4776785714286,1348.2,1015.5714285714286,746.4776785714286,1448.3,1015.5714285714286,746.4776785714286,1548.3,1015.5714285714286,746.4776785714286,1648.7,1015.5714285714286,746.4776785714286,1748.7,1015.5714285714286,746.4776785714286,1853.3,1015.5714285714286,746.4776785714286,1953.5,1015.5714285714286,746.4776785714286,2054.5,1015.5714285714286,746.4776785714286,2158.1,1015.5714285714286,746.4776785714286,2263,1015.5714285714286,746.4776785714286,2363.1,1015.5714285714286,746.4776785714286,2463.2,1015.5714285714286,746.4776785714286,2563.2,1015.5714285714286,746.4776785714286,2664.4,1015.5714285714286,746.4776785714286,2768.4,1015.5714285714286,746.4776785714286,2873.3,1015.5714285714286,746.4776785714286,2973.3,1015.5714285714286,746.4776785714286,3073.4,1015.5714285714286,746.4776785714286,3177.9,1015.5714285714286,746.4776785714286,3277.9,1015.5714285714286,746.4776785714286,3377.9,1015.5714285714286,746.4776785714286,3478.1,1015.5714285714286,746.4776785714286,3578.1,1015.5714285714286,746.4776785714286,3678.2,1015.5714285714286,746.4776785714286,3778.3,1015.5714285714286,746.4776785714286,3878.3,1015.5714285714286,746.4776785714286,3978.4,1015.5714285714286,746.4776785714286,4083.8,1015.5714285714286,746.4776785714286,4188.2,1015.5714285714286,746.4776785714286,4288.6,1015.5714285714286,746.4776785714286,4388.7,1015.5714285714286,746.4776785714286,4494.2,1015.5714285714286,746.4776785714286,4598.4,1015.5714285714286,746.4776785714286,4703.1,1015.5714285714286,746.4776785714286,4803.2,1015.5714285714286,746.4776785714286,4903.4]","[1387.8,1387.8,1000,0,387.8,""smooth"",""right"",""right"",""good_move"",4734.5,3346.5,2974.1,1388,372.4,""oops"",""down"",""left"",""bad_move"",7509.9,2775.1,2460.7,4734.8,314.4,""smooth"",""down"",""down"",""good_move"",10004.6,2494.4,2145.8,7510.2,348.6,""oops"",""down"",""left"",""bad_move"",12939.4,2934.7,2608.8,10004.8,325.8,""oops"",""down"",""up"",""bad_move"",15422.6,2483,2142.6,12939.6,340.4,""oops"",""down"",""right"",""good_move"",22667.7,7244.9,2900.3,19434.5,332.9,""smooth"",""down"",""down"",""good_move"",25098.4,2430.5,2091.8,22667.9,338.7,""smooth"",""down"",""down"",""good_move""]","",""
"3600","","<div style=""width:500px;"">
  <p>What determined the result of this run?</p>
  </div>","18","html-slider-response","55","564060","0.0-5.0-1.9","292","1","2025-07-30 13:55:07","1f75c3e559b7213887762d5229550c2b","178.166.40.254","Mozilla/5.0 (Windows NT 10.0; Win64; x64) AppleWebKit/537.36 (KHTML, like Gecko) Chrome/138.0.0.0 Safari/537.36 Edg/138.0.0.0","WebKit","Edge","138.0.0.0","Windows","10.0","https://app.prolific.com/","en-GB,en;q=0.9,en-US;q=0.8,pt-BR;q=0.7,pt-PT;q=0.6,pt;q=0.5","6172d51173f6962cef6b18cf","6877631c9844ddd5501205fc","688a2424ebc0271ed9c22892","3","1","6172d51173f6962cef6b18cf","3","1","2025-07-30T14:04:33.046Z","","","","","","","","","","","AttribQ","","50","","","","","","","","","","","","","","","","","","","","","","","","","","","","",""
"1494","","<div style=""width:500px;"">
  <p>How much control did you have over the ball?</p>
  </div>","0","html-slider-response","56","565555","0.0-5.0-2.9","292","1","2025-07-30 13:55:07","1f75c3e559b7213887762d5229550c2b","178.166.40.254","Mozilla/5.0 (Windows NT 10.0; Win64; x64) AppleWebKit/537.36 (KHTML, like Gecko) Chrome/138.0.0.0 Safari/537.36 Edg/138.0.0.0","WebKit","Edge","138.0.0.0","Windows","10.0","https://app.prolific.com/","en-GB,en;q=0.9,en-US;q=0.8,pt-BR;q=0.7,pt-PT;q=0.6,pt;q=0.5","6172d51173f6962cef6b18cf","6877631c9844ddd5501205fc","688a2424ebc0271ed9c22892","3","1","6172d51173f6962cef6b18cf","3","1","2025-07-30T14:04:34.541Z","","","","","","","","","","","ControlQ","","50","","","","","","","","","","","","","","","","","","","","","","","","","","","","",""
"1661","","<div style=""width:500px;"">
  <p>How would you describe your current emotional state?</p>
  </div>","78","html-slider-response","57","567216","0.0-5.0-3.9","292","1","2025-07-30 13:55:07","1f75c3e559b7213887762d5229550c2b","178.166.40.254","Mozilla/5.0 (Windows NT 10.0; Win64; x64) AppleWebKit/537.36 (KHTML, like Gecko) Chrome/138.0.0.0 Safari/537.36 Edg/138.0.0.0","WebKit","Edge","138.0.0.0","Windows","10.0","https://app.prolific.com/","en-GB,en;q=0.9,en-US;q=0.8,pt-BR;q=0.7,pt-PT;q=0.6,pt;q=0.5","6172d51173f6962cef6b18cf","6877631c9844ddd5501205fc","688a2424ebc0271ed9c22892","3","1","6172d51173f6962cef6b18cf","3","1","2025-07-30T14:04:36.202Z","","","","","","","","","","","StressQ","","50","","","","","","","","","","","","","","","","","","","","","","","","","","","","",""
"2173","","<div style=""width:500px;"">
  <p>What best describes how you currently feel?</p>
  </div>","35","html-slider-response","58","569389","0.0-5.0-4.9","292","1","2025-07-30 13:55:07","1f75c3e559b7213887762d5229550c2b","178.166.40.254","Mozilla/5.0 (Windows NT 10.0; Win64; x64) AppleWebKit/537.36 (KHTML, like Gecko) Chrome/138.0.0.0 Safari/537.36 Edg/138.0.0.0","WebKit","Edge","138.0.0.0","Windows","10.0","https://app.prolific.com/","en-GB,en;q=0.9,en-US;q=0.8,pt-BR;q=0.7,pt-PT;q=0.6,pt;q=0.5","6172d51173f6962cef6b18cf","6877631c9844ddd5501205fc","688a2424ebc0271ed9c22892","3","1","6172d51173f6962cef6b18cf","3","1","2025-07-30T14:04:38.376Z","","","","","","","","","","","MotivationQ","","50","","","","","","","","","","","","","","","","","","","","","","","","","","","","",""
"","","","","ctl-task-cpt","59","593057","0.0-5.0-0.10","292","1","2025-07-30 13:55:07","1f75c3e559b7213887762d5229550c2b","178.166.40.254","Mozilla/5.0 (Windows NT 10.0; Win64; x64) AppleWebKit/537.36 (KHTML, like Gecko) Chrome/138.0.0.0 Safari/537.36 Edg/138.0.0.0","WebKit","Edge","138.0.0.0","Windows","10.0","https://app.prolific.com/","en-GB,en;q=0.9,en-US;q=0.8,pt-BR;q=0.7,pt-PT;q=0.6,pt;q=0.5","6172d51173f6962cef6b18cf","6877631c9844ddd5501205fc","688a2424ebc0271ed9c22892","3","1","6172d51173f6962cef6b18cf","3","1","2025-07-30T14:05:02.043Z","","","","","","","","","","","","","","win-only","0","g1:NW,g2:SE","0.5","11","0","570717.8","503.5","5505.5","20650.2","1","4","4","6","1","1","1","1","0","0.007575757575757576","681.7","3000","1550","[""left"",""up""]","{""num_key_presses"":4,""num_perfect"":3,""num_errors"":0,""num_randdir"":1,""num_randdir_good_moves"":1,""num_whilered"":0,""num_whileblue"":0,""num_blue"":1,""num_good_moves"":4}","[418.57142857142856,410.47767857142856,0.1,418.57142857142856,410.47767857142856,101.7,418.57142857142856,410.47767857142856,201.9,399.57142857142856,390.47767857142856,302,207.57142857142856,276.47767857142856,402.1,156.57142857142856,194.47767857142856,503.7,135.57142857142856,126.47767857142857,606.8,113.57142857142857,98.47767857142857,706.8,112.57142857142857,98.47767857142857,806.8,65.57142857142857,116.47767857142857,906.8,-86.42857142857143,175.47767857142856,1006.8,-103.42857142857143,201.47767857142856,1106.9,-115.42857142857143,247.47767857142856,1206.9,-115.42857142857143,247.47767857142856,1307,-115.42857142857143,247.47767857142856,1407,-115.42857142857143,247.47767857142856,1507.1,-115.42857142857143,247.47767857142856,1612.3,-115.42857142857143,247.47767857142856,1716.9,-115.42857142857143,247.47767857142856,1816.9,-115.42857142857143,247.47767857142856,1916.9,-115.42857142857143,247.47767857142856,2017.1,-115.42857142857143,247.47767857142856,2122.4,-115.42857142857143,247.47767857142856,2222.6,-115.42857142857143,247.47767857142856,2327.3,-115.42857142857143,247.47767857142856,2432,-115.42857142857143,247.47767857142856,2532.6,-115.42857142857143,247.47767857142856,2637.1,-115.42857142857143,247.47767857142856,2742.1,-115.42857142857143,247.47767857142856,2846.7,-115.42857142857143,247.47767857142856,2947,-115.42857142857143,247.47767857142856,3051.7,-115.42857142857143,247.47767857142856,3151.8,-115.42857142857143,247.47767857142856,3252,-115.42857142857143,247.47767857142856,3357.4,-115.42857142857143,247.47767857142856,3462.2,-115.42857142857143,247.47767857142856,3562.4,-115.42857142857143,247.47767857142856,3666.9,-115.42857142857143,247.47767857142856,3771.7,-115.42857142857143,247.47767857142856,3871.8,-115.42857142857143,247.47767857142856,3971.9,-115.42857142857143,247.47767857142856,4071.9,-115.42857142857143,247.47767857142856,4171.9,-115.42857142857143,247.47767857142856,4276.9,-115.42857142857143,247.47767857142856,4377,-115.42857142857143,247.47767857142856,4477.2,-115.42857142857143,247.47767857142856,4583.4,-115.42857142857143,247.47767857142856,4687.3,-115.42857142857143,247.47767857142856,4791.8,-115.42857142857143,247.47767857142856,4891.9,-115.42857142857143,247.47767857142856,4991.9]","[1433.9,1433.9,1000,0,433.9,""oops"",""left"",""up"",""good_move"",8324.9,6890.7,2517.6,5434.8,372.5,""smooth"",""left"",""left"",""good_move"",11172.7,2847.6,2501.4,8325.1,346.2,""smooth"",""up"",""up"",""good_move"",15045,3872.1,3549.3,11172.9,322.8,""smooth"",""left"",""left"",""good_move""]","",""
"3094","","<div style=""width:500px;"">
  <p>What determined the result of this run?</p>
  </div>","29","html-slider-response","60","596151","0.0-5.0-1.10","292","1","2025-07-30 13:55:07","1f75c3e559b7213887762d5229550c2b","178.166.40.254","Mozilla/5.0 (Windows NT 10.0; Win64; x64) AppleWebKit/537.36 (KHTML, like Gecko) Chrome/138.0.0.0 Safari/537.36 Edg/138.0.0.0","WebKit","Edge","138.0.0.0","Windows","10.0","https://app.prolific.com/","en-GB,en;q=0.9,en-US;q=0.8,pt-BR;q=0.7,pt-PT;q=0.6,pt;q=0.5","6172d51173f6962cef6b18cf","6877631c9844ddd5501205fc","688a2424ebc0271ed9c22892","3","1","6172d51173f6962cef6b18cf","3","1","2025-07-30T14:05:05.137Z","","","","","","","","","","","AttribQ","","50","","","","","","","","","","","","","","","","","","","","","","","","","","","","",""
"2261","","<div style=""width:500px;"">
  <p>How much control did you have over the ball?</p>
  </div>","54","html-slider-response","61","598413","0.0-5.0-2.10","292","1","2025-07-30 13:55:07","1f75c3e559b7213887762d5229550c2b","178.166.40.254","Mozilla/5.0 (Windows NT 10.0; Win64; x64) AppleWebKit/537.36 (KHTML, like Gecko) Chrome/138.0.0.0 Safari/537.36 Edg/138.0.0.0","WebKit","Edge","138.0.0.0","Windows","10.0","https://app.prolific.com/","en-GB,en;q=0.9,en-US;q=0.8,pt-BR;q=0.7,pt-PT;q=0.6,pt;q=0.5","6172d51173f6962cef6b18cf","6877631c9844ddd5501205fc","688a2424ebc0271ed9c22892","3","1","6172d51173f6962cef6b18cf","3","1","2025-07-30T14:05:07.399Z","","","","","","","","","","","ControlQ","","50","","","","","","","","","","","","","","","","","","","","","","","","","","","","",""
"3356","","<div style=""width:500px;"">
  <p>How would you describe your current emotional state?</p>
  </div>","53","html-slider-response","62","601770","0.0-5.0-3.10","292","1","2025-07-30 13:55:07","1f75c3e559b7213887762d5229550c2b","178.166.40.254","Mozilla/5.0 (Windows NT 10.0; Win64; x64) AppleWebKit/537.36 (KHTML, like Gecko) Chrome/138.0.0.0 Safari/537.36 Edg/138.0.0.0","WebKit","Edge","138.0.0.0","Windows","10.0","https://app.prolific.com/","en-GB,en;q=0.9,en-US;q=0.8,pt-BR;q=0.7,pt-PT;q=0.6,pt;q=0.5","6172d51173f6962cef6b18cf","6877631c9844ddd5501205fc","688a2424ebc0271ed9c22892","3","1","6172d51173f6962cef6b18cf","3","1","2025-07-30T14:05:10.756Z","","","","","","","","","","","StressQ","","50","","","","","","","","","","","","","","","","","","","","","","","","","","","","",""
"2177","","<div style=""width:500px;"">
  <p>What best describes how you currently feel?</p>
  </div>","54","html-slider-response","63","603947","0.0-5.0-4.10","292","1","2025-07-30 13:55:07","1f75c3e559b7213887762d5229550c2b","178.166.40.254","Mozilla/5.0 (Windows NT 10.0; Win64; x64) AppleWebKit/537.36 (KHTML, like Gecko) Chrome/138.0.0.0 Safari/537.36 Edg/138.0.0.0","WebKit","Edge","138.0.0.0","Windows","10.0","https://app.prolific.com/","en-GB,en;q=0.9,en-US;q=0.8,pt-BR;q=0.7,pt-PT;q=0.6,pt;q=0.5","6172d51173f6962cef6b18cf","6877631c9844ddd5501205fc","688a2424ebc0271ed9c22892","3","1","6172d51173f6962cef6b18cf","3","1","2025-07-30T14:05:12.933Z","","","","","","","","","","","MotivationQ","","50","","","","","","","","","","","","","","","","","","","","","","","","","","","","",""
"","","","","ctl-task-cpt","64","629158","0.0-5.0-0.11","292","1","2025-07-30 13:55:07","1f75c3e559b7213887762d5229550c2b","178.166.40.254","Mozilla/5.0 (Windows NT 10.0; Win64; x64) AppleWebKit/537.36 (KHTML, like Gecko) Chrome/138.0.0.0 Safari/537.36 Edg/138.0.0.0","WebKit","Edge","138.0.0.0","Windows","10.0","https://app.prolific.com/","en-GB,en;q=0.9,en-US;q=0.8,pt-BR;q=0.7,pt-PT;q=0.6,pt;q=0.5","6172d51173f6962cef6b18cf","6877631c9844ddd5501205fc","688a2424ebc0271ed9c22892","3","1","6172d51173f6962cef6b18cf","3","1","2025-07-30T14:05:38.144Z","","","","","","","","","","","","","","win-only","1","g1:NE,g2:SW","0.6","12","0","605276.1","1084.7","6085.4","22191.5","1","4","8","6","1","1","1","2","1","0.015151515151515152","785.1","3000","910","[""up"",""right""]","{""num_key_presses"":6,""num_perfect"":2,""num_errors"":0,""num_randdir"":4,""num_randdir_good_moves"":3,""num_whilered"":0,""num_whileblue"":0,""num_blue"":0,""num_good_moves"":5}","[408.57142857142856,413.47767857142856,0.1,408.57142857142856,413.47767857142856,103.7,408.57142857142856,413.47767857142856,206.2,371.57142857142856,384.47767857142856,306.3,411.57142857142856,295.47767857142856,408.4,607.5714285714286,183.47767857142856,511.4,698.5714285714286,122.47767857142857,612.6,720.5714285714286,102.47767857142857,715.6,732.5714285714286,89.47767857142857,815.7,732.5714285714286,89.47767857142857,915.9,822.5714285714286,166.47767857142856,1021,1041.5714285714287,292.47767857142856,1126.1,1042.5714285714287,312.47767857142856,1226.4,1038.5714285714287,315.47767857142856,1331.3,1038.5714285714287,315.47767857142856,1431.4,1038.5714285714287,315.47767857142856,1531.5,1038.5714285714287,315.47767857142856,1635.5,1038.5714285714287,315.47767857142856,1735.6,1038.5714285714287,315.47767857142856,1835.7,1038.5714285714287,315.47767857142856,1935.9,1038.5714285714287,315.47767857142856,2040.9,1038.5714285714287,315.47767857142856,2141,1038.5714285714287,315.47767857142856,2241.1,1038.5714285714287,315.47767857142856,2346.1,1038.5714285714287,315.47767857142856,2446.2,1038.5714285714287,315.47767857142856,2546.4,1038.5714285714287,315.47767857142856,2646.5,1038.5714285714287,315.47767857142856,2750.6,1038.5714285714287,315.47767857142856,2850.7,1038.5714285714287,315.47767857142856,2950.8,1038.5714285714287,315.47767857142856,3050.9,1038.5714285714287,315.47767857142856,3150.9,1038.5714285714287,315.47767857142856,3256.2,1038.5714285714287,315.47767857142856,3356.3,1038.5714285714287,315.47767857142856,3456.5,1038.5714285714287,315.47767857142856,3561.3,1038.5714285714287,315.47767857142856,3661.3,1038.5714285714287,315.47767857142856,3765.4,1038.5714285714287,315.47767857142856,3865.6,1038.5714285714287,315.47767857142856,3965.6,1038.5714285714287,315.47767857142856,4065.7,1038.5714285714287,315.47767857142856,4170.6,1038.5714285714287,315.47767857142856,4276,1038.5714285714287,315.47767857142856,4376,1038.5714285714287,315.47767857142856,4477.2,1038.5714285714287,315.47767857142856,4581.1,1038.5714285714287,315.47767857142856,4681.3,1038.5714285714287,315.47767857142856,4781.4,1038.5714285714287,315.47767857142856,4885.5,1038.5714285714287,315.47767857142856,4985.6]","[1397.8,1397.8,1000,0,397.8,""oops"",""up"",""up"",""good_move"",4396.4,2998.5,2612.3,1398,386.2,""smooth"",""up"",""up"",""good_move"",7558.5,3161.9,2824.4,4396.6,337.5,""oops"",""right"",""left"",""bad_move"",10797.3,3238.6,2910.1,7558.7,328.5,""smooth"",""right"",""right"",""good_move"",13437,2639.4,2291,10797.6,348.4,""oops"",""right"",""right"",""good_move"",16007.3,2570.1,2244.2,13437.2,325.9,""oops"",""right"",""right"",""good_move""]","",""
"3026","","<div style=""width:500px;"">
  <p>What determined the result of this run?</p>
  </div>","33","html-slider-response","65","632185","0.0-5.0-1.11","292","1","2025-07-30 13:55:07","1f75c3e559b7213887762d5229550c2b","178.166.40.254","Mozilla/5.0 (Windows NT 10.0; Win64; x64) AppleWebKit/537.36 (KHTML, like Gecko) Chrome/138.0.0.0 Safari/537.36 Edg/138.0.0.0","WebKit","Edge","138.0.0.0","Windows","10.0","https://app.prolific.com/","en-GB,en;q=0.9,en-US;q=0.8,pt-BR;q=0.7,pt-PT;q=0.6,pt;q=0.5","6172d51173f6962cef6b18cf","6877631c9844ddd5501205fc","688a2424ebc0271ed9c22892","3","1","6172d51173f6962cef6b18cf","3","1","2025-07-30T14:05:41.171Z","","","","","","","","","","","AttribQ","","50","","","","","","","","","","","","","","","","","","","","","","","","","","","","",""
"1619","","<div style=""width:500px;"">
  <p>How much control did you have over the ball?</p>
  </div>","31","html-slider-response","66","633805","0.0-5.0-2.11","292","1","2025-07-30 13:55:07","1f75c3e559b7213887762d5229550c2b","178.166.40.254","Mozilla/5.0 (Windows NT 10.0; Win64; x64) AppleWebKit/537.36 (KHTML, like Gecko) Chrome/138.0.0.0 Safari/537.36 Edg/138.0.0.0","WebKit","Edge","138.0.0.0","Windows","10.0","https://app.prolific.com/","en-GB,en;q=0.9,en-US;q=0.8,pt-BR;q=0.7,pt-PT;q=0.6,pt;q=0.5","6172d51173f6962cef6b18cf","6877631c9844ddd5501205fc","688a2424ebc0271ed9c22892","3","1","6172d51173f6962cef6b18cf","3","1","2025-07-30T14:05:42.791Z","","","","","","","","","","","ControlQ","","50","","","","","","","","","","","","","","","","","","","","","","","","","","","","",""
"2311","","<div style=""width:500px;"">
  <p>How would you describe your current emotional state?</p>
  </div>","53","html-slider-response","67","636117","0.0-5.0-3.11","292","1","2025-07-30 13:55:07","1f75c3e559b7213887762d5229550c2b","178.166.40.254","Mozilla/5.0 (Windows NT 10.0; Win64; x64) AppleWebKit/537.36 (KHTML, like Gecko) Chrome/138.0.0.0 Safari/537.36 Edg/138.0.0.0","WebKit","Edge","138.0.0.0","Windows","10.0","https://app.prolific.com/","en-GB,en;q=0.9,en-US;q=0.8,pt-BR;q=0.7,pt-PT;q=0.6,pt;q=0.5","6172d51173f6962cef6b18cf","6877631c9844ddd5501205fc","688a2424ebc0271ed9c22892","3","1","6172d51173f6962cef6b18cf","3","1","2025-07-30T14:05:45.103Z","","","","","","","","","","","StressQ","","50","","","","","","","","","","","","","","","","","","","","","","","","","","","","",""
"2430","","<div style=""width:500px;"">
  <p>What best describes how you currently feel?</p>
  </div>","55","html-slider-response","68","638548","0.0-5.0-4.11","292","1","2025-07-30 13:55:07","1f75c3e559b7213887762d5229550c2b","178.166.40.254","Mozilla/5.0 (Windows NT 10.0; Win64; x64) AppleWebKit/537.36 (KHTML, like Gecko) Chrome/138.0.0.0 Safari/537.36 Edg/138.0.0.0","WebKit","Edge","138.0.0.0","Windows","10.0","https://app.prolific.com/","en-GB,en;q=0.9,en-US;q=0.8,pt-BR;q=0.7,pt-PT;q=0.6,pt;q=0.5","6172d51173f6962cef6b18cf","6877631c9844ddd5501205fc","688a2424ebc0271ed9c22892","3","1","6172d51173f6962cef6b18cf","3","1","2025-07-30T14:05:47.534Z","","","","","","","","","","","MotivationQ","","50","","","","","","","","","","","","","","","","","","","","","","","","","","","","",""
"","","","","ctl-task-cpt","69","682938","0.0-5.0-0.12","292","1","2025-07-30 13:55:07","1f75c3e559b7213887762d5229550c2b","178.166.40.254","Mozilla/5.0 (Windows NT 10.0; Win64; x64) AppleWebKit/537.36 (KHTML, like Gecko) Chrome/138.0.0.0 Safari/537.36 Edg/138.0.0.0","WebKit","Edge","138.0.0.0","Windows","10.0","https://app.prolific.com/","en-GB,en;q=0.9,en-US;q=0.8,pt-BR;q=0.7,pt-PT;q=0.6,pt;q=0.5","6172d51173f6962cef6b18cf","6877631c9844ddd5501205fc","688a2424ebc0271ed9c22892","3","1","6172d51173f6962cef6b18cf","3","1","2025-07-30T14:06:31.924Z","","","","","","","","","","","","","","win-only","3","g1:SW,g2:NE","0.7","13","0","639876.5","630.5","5630.8","41375.2","1","4","4","6","1","1","1","3","2","0.022727272727272728","914.5","3000","790","[""down"",""left""]","{""num_key_presses"":6,""num_perfect"":3,""num_errors"":0,""num_randdir"":3,""num_randdir_good_moves"":2,""num_whilered"":0,""num_whileblue"":0,""num_blue"":6,""num_good_moves"":5}","[422.57142857142856,418.47767857142856,0.2,422.57142857142856,418.47767857142856,100.3,418.57142857142856,419.47767857142856,200.4,412.57142857142856,417.47767857142856,305.4,363.57142857142856,454.47767857142856,405.5,374.57142857142856,450.47767857142856,510.4,152.57142857142856,623.4776785714286,614.6,122.57142857142857,675.4776785714286,714.7,80.57142857142857,721.4776785714286,814.7,61.57142857142857,741.4776785714286,925.6,61.57142857142857,741.4776785714286,1026.1,37.57142857142857,735.4776785714286,1130,-211.42857142857144,666.4776785714286,1230.1,-277.42857142857144,601.4776785714286,1330.4,-257.42857142857144,606.4776785714286,1434.7,-256.42857142857144,606.4776785714286,1534.9,-256.42857142857144,606.4776785714286,1639.7,-256.42857142857144,606.4776785714286,1740,-256.42857142857144,606.4776785714286,1840.1,-256.42857142857144,606.4776785714286,1945,-256.42857142857144,606.4776785714286,2045,-256.42857142857144,606.4776785714286,2145.4,-256.42857142857144,606.4776785714286,2250.2,-256.42857142857144,606.4776785714286,2351.4,-256.42857142857144,606.4776785714286,2455.7,-256.42857142857144,606.4776785714286,2555.9,-256.42857142857144,606.4776785714286,2660.1,-256.42857142857144,606.4776785714286,2760.3,-256.42857142857144,606.4776785714286,2860.4,-256.42857142857144,606.4776785714286,2960.4,-256.42857142857144,606.4776785714286,3060.5,-256.42857142857144,606.4776785714286,3160.7,-256.42857142857144,606.4776785714286,3265.3,-256.42857142857144,606.4776785714286,3369.5,-256.42857142857144,606.4776785714286,3469.7,-256.42857142857144,606.4776785714286,3574.6,-256.42857142857144,606.4776785714286,3674.6,-256.42857142857144,606.4776785714286,3774.7,-256.42857142857144,606.4776785714286,3874.9,-256.42857142857144,606.4776785714286,3976.1,-256.42857142857144,606.4776785714286,4080.3,-256.42857142857144,606.4776785714286,4180.6,-256.42857142857144,606.4776785714286,4280.6,-256.42857142857144,606.4776785714286,4385.5,-256.42857142857144,606.4776785714286,4490.9,-256.42857142857144,606.4776785714286,4594.7,-256.42857142857144,606.4776785714286,4694.8,-256.42857142857144,606.4776785714286,4794.9,-256.42857142857144,606.4776785714286,4895.1,-256.42857142857144,606.4776785714286,4995.1]","[1420.5,1420.5,1000,0,420.5,""smooth"",""down"",""down"",""good_move"",6911.4,5490.5,1914.2,4569.6,427.6,""smooth"",""left"",""left"",""good_move"",12977,6065.4,3069.4,9630.2,277.4,""oops"",""down"",""down"",""good_move"",23031.8,10054.6,2091.6,20574.9,365.3,""oops"",""left"",""up"",""bad_move"",25952.7,2920.8,2553.3,23032,367.5,""smooth"",""down"",""down"",""good_move"",35658.3,9705.3,2657.1,32614.7,386.5,""oops"",""left"",""left"",""good_move""]","",""
"3587","","<div style=""width:500px;"">
  <p>What determined the result of this run?</p>
  </div>","31","html-slider-response","70","686526","0.0-5.0-1.12","292","1","2025-07-30 13:55:07","1f75c3e559b7213887762d5229550c2b","178.166.40.254","Mozilla/5.0 (Windows NT 10.0; Win64; x64) AppleWebKit/537.36 (KHTML, like Gecko) Chrome/138.0.0.0 Safari/537.36 Edg/138.0.0.0","WebKit","Edge","138.0.0.0","Windows","10.0","https://app.prolific.com/","en-GB,en;q=0.9,en-US;q=0.8,pt-BR;q=0.7,pt-PT;q=0.6,pt;q=0.5","6172d51173f6962cef6b18cf","6877631c9844ddd5501205fc","688a2424ebc0271ed9c22892","3","1","6172d51173f6962cef6b18cf","3","1","2025-07-30T14:06:35.512Z","","","","","","","","","","","AttribQ","","50","","","","","","","","","","","","","","","","","","","","","","","","","","","","",""
"2260","","<div style=""width:500px;"">
  <p>How much control did you have over the ball?</p>
  </div>","38","html-slider-response","71","688786","0.0-5.0-2.12","292","1","2025-07-30 13:55:07","1f75c3e559b7213887762d5229550c2b","178.166.40.254","Mozilla/5.0 (Windows NT 10.0; Win64; x64) AppleWebKit/537.36 (KHTML, like Gecko) Chrome/138.0.0.0 Safari/537.36 Edg/138.0.0.0","WebKit","Edge","138.0.0.0","Windows","10.0","https://app.prolific.com/","en-GB,en;q=0.9,en-US;q=0.8,pt-BR;q=0.7,pt-PT;q=0.6,pt;q=0.5","6172d51173f6962cef6b18cf","6877631c9844ddd5501205fc","688a2424ebc0271ed9c22892","3","1","6172d51173f6962cef6b18cf","3","1","2025-07-30T14:06:37.773Z","","","","","","","","","","","ControlQ","","50","","","","","","","","","","","","","","","","","","","","","","","","","","","","",""
"1843","","<div style=""width:500px;"">
  <p>How would you describe your current emotional state?</p>
  </div>","41","html-slider-response","72","690631","0.0-5.0-3.12","292","1","2025-07-30 13:55:07","1f75c3e559b7213887762d5229550c2b","178.166.40.254","Mozilla/5.0 (Windows NT 10.0; Win64; x64) AppleWebKit/537.36 (KHTML, like Gecko) Chrome/138.0.0.0 Safari/537.36 Edg/138.0.0.0","WebKit","Edge","138.0.0.0","Windows","10.0","https://app.prolific.com/","en-GB,en;q=0.9,en-US;q=0.8,pt-BR;q=0.7,pt-PT;q=0.6,pt;q=0.5","6172d51173f6962cef6b18cf","6877631c9844ddd5501205fc","688a2424ebc0271ed9c22892","3","1","6172d51173f6962cef6b18cf","3","1","2025-07-30T14:06:39.617Z","","","","","","","","","","","StressQ","","50","","","","","","","","","","","","","","","","","","","","","","","","","","","","",""
"2381","","<div style=""width:500px;"">
  <p>What best describes how you currently feel?</p>
