"rt","response_timestamp","stimulus","response","trial_type","trial_index","time_elapsed","internal_node_id","run_id","condition","recorded_at","source_code_version","ip","user_agent","device","browser","browser_version","platform","platform_version","referer","accept_language","PROLIFIC_PID","STUDY_ID","SESSION_ID","WEEK","BATCH","prolific_id","week","batch","realtime","success","responses","item_order","radio_event_ids","radio_event_times","key_event_times","mouse_event_times","straightlining","zigzagging","honeypot","eventType","view_history","slider_start","which_type","canvas_config","goals_layout","control_level","trial_number","tutorial_trial_number","trial_start_time","phase1_start_time","phase2_start_time","phase3_start_time","goal_1_value","goal_1_distance","goal_2_value","goal_2_distance","goal_selected","outcome","outcome_total","participant_final_score","participant_initial_score","participant_final_score_prop","goal_choice_rt","allocated_time","allocated_time_remaining","goal_direction","counts","mouse_movements","key_presses","question_order","question_id"
"3066","1753268441135","<p style='font-size:40px;line-height:1.25'><strong>Welcome to the experiment!</strong></p><p style='font-size:1.1em;line-height:1.25'>Thank you for participanting in our experiment again! You will be asked to play the Dysfunctional Ball Game again. We will briefly recap the rules before we start.</p><p style='font-size:1.1em;line-height:1.25'>Press <strong>Next</strong> to continue.</p>","0","custom-html-button-response","0","3071","0.0-0.0","212","1","2025-07-23 11:00:30","1f75c3e559b7213887762d5229550c2b","62.164.249.91","Mozilla/5.0 (Windows NT 10.0; Win64; x64) AppleWebKit/537.36 (KHTML, like Gecko) Chrome/132.0.0.0 Safari/537.36","WebKit","Chrome","132.0.0.0","Windows","10.0","https://app.prolific.com/","en-US,en;q=0.9","6792a60bf1238ae52e645ecb","683db9eb0562dbf637994deb","6880c083edc1442dcd649076","2","1","6792a60bf1238ae52e645ecb","2","1","2025-07-23T11:00:41.138Z","","","","","","","","","","","","","","","","","","","","","","","","","","","","","","","","","","","","","","","","","",""
"6429","","","","fullscreen","1","10516","0.0-1.0","212","1","2025-07-23 11:00:30","1f75c3e559b7213887762d5229550c2b","62.164.249.91","Mozilla/5.0 (Windows NT 10.0; Win64; x64) AppleWebKit/537.36 (KHTML, like Gecko) Chrome/132.0.0.0 Safari/537.36","WebKit","Chrome","132.0.0.0","Windows","10.0","https://app.prolific.com/","en-US,en;q=0.9","6792a60bf1238ae52e645ecb","683db9eb0562dbf637994deb","6880c083edc1442dcd649076","2","1","6792a60bf1238ae52e645ecb","2","1","","true","","","","","","","","","","","","","","","","","","","","","","","","","","","","","","","","","","","","","","","","",""
"2767","1753268451352","<p style='font-size:1.1em;line-height:1.25'>In the following, we will ask you a few questions relating to your feelings in the last 24 hours.<br></p><p style='font-size:1.1em;line-height:1.25'>Press the <strong>Next</strong> button to continue.</p>","0","custom-html-button-response","2","13286","0.0-2.0-0.0","212","1","2025-07-23 11:00:30","1f75c3e559b7213887762d5229550c2b","62.164.249.91","Mozilla/5.0 (Windows NT 10.0; Win64; x64) AppleWebKit/537.36 (KHTML, like Gecko) Chrome/132.0.0.0 Safari/537.36","WebKit","Chrome","132.0.0.0","Windows","10.0","https://app.prolific.com/","en-US,en;q=0.9","6792a60bf1238ae52e645ecb","683db9eb0562dbf637994deb","6880c083edc1442dcd649076","2","1","6792a60bf1238ae52e645ecb","2","1","2025-07-23T11:00:51.353Z","","","","","","","","","","","","","","","","","","","","","","","","","","","","","","","","","","","","","","","","","",""
"206541.79999995232","","","","survey-template","3","219837","0.0-2.0-1.0","212","1","2025-07-23 11:00:30","1f75c3e559b7213887762d5229550c2b","62.164.249.91","Mozilla/5.0 (Windows NT 10.0; Win64; x64) AppleWebKit/537.36 (KHTML, like Gecko) Chrome/132.0.0.0 Safari/537.36","WebKit","Chrome","132.0.0.0","Windows","10.0","https://app.prolific.com/","en-US,en;q=0.9","6792a60bf1238ae52e645ecb","683db9eb0562dbf637994deb","6880c083edc1442dcd649076","2","1","6792a60bf1238ae52e645ecb","2","1","2025-07-23T11:04:17.904Z","","{""Q01"":""3"",""Q02"":""2"",""Q03"":""2"",""Q04"":""2"",""Q05"":""4"",""Q06"":""4"",""Q07"":""4"",""Q08"":""3"",""Q09"":""3"",""Q10"":""4"",""Q11"":""4"",""Q12"":""4"",""Q13"":""5"",""Q14"":""4"",""Q15"":""2"",""Q16"":""4"",""Q17"":""4"",""Q18"":""4"",""Q19"":""3"",""Q20"":""2"",""Q21"":""3"",""Q22"":""3""}","[0,1,2,3,4,5,6,7,8,9,10,11,12,13,14,15,16,17,18,19,20,21]","[""Q01"",""Q02"",""Q03"",""Q04"",""Q05"",""Q06"",""Q07"",""Q08"",""Q09"",""Q10"",""Q11"",""Q12"",""Q13"",""Q14"",""Q15"",""Q16"",""Q17"",""Q18"",""Q19"",""Q20"",""Q21"",""Q22""]","[4179.799999952316,7961.200000047684,10726.600000143051,12289.200000047684,15024.100000143051,20679.700000047684,23178.60000014305,25662.799999952316,27928.60000014305,31116.60000014305,36162.200000047684,39445.40000009537,41021.90000009537,42975.5,47022.799999952316,50884,53474.5,56615.700000047684,61976.60000014305,67725.20000004768,201757.10000014305,205303.90000009537]","[]","[0.20000004768371582,4179.799999952316,7961.200000047684,10726.600000143051,12289.200000047684,15024.100000143051,20679.700000047684,23178.60000014305,25662.799999952316,27928.60000014305,29880.10000014305,31116.60000014305,36162.200000047684,38063.799999952316,39445.40000009537,41021.90000009537,42975.5,47022.799999952316,50884,52414.90000009537,53474.5,55273.299999952316,56615.700000047684,61976.60000014305,67725.20000004768,201757.10000014305,205303.90000009537,206537.5]","0.45454545454545453","0.38095238095238093","0","drsp","","","","","","","","","","","","","","","","","","","","","","","","","","","","","","",""
"11635.299999952316","","","","survey-template","4","231475","0.0-2.0-2.0","212","1","2025-07-23 11:00:30","1f75c3e559b7213887762d5229550c2b","62.164.249.91","Mozilla/5.0 (Windows NT 10.0; Win64; x64) AppleWebKit/537.36 (KHTML, like Gecko) Chrome/132.0.0.0 Safari/537.36","WebKit","Chrome","132.0.0.0","Windows","10.0","https://app.prolific.com/","en-US,en;q=0.9","6792a60bf1238ae52e645ecb","683db9eb0562dbf637994deb","6880c083edc1442dcd649076","2","1","6792a60bf1238ae52e645ecb","2","1","2025-07-23T11:04:29.542Z","","{""Q01"":""3"",""Q02"":""1"",""Q03"":""3""}","[0,1,2]","[""Q01"",""Q02"",""Q03""]","[4602.099999904633,6633.099999904633,9933.099999904633]","[]","[288.69999980926514,4602.099999904633,6633.099999904633,8993.399999856949,9933.099999904633,11633.599999904633]","0.6666666666666666","1","0","stress","","","","","","","","","","","","","","","","","","","","","","","","","","","","","","",""
"33793","","","","instructions","5","265270","0.0-3.0-0.0","212","1","2025-07-23 11:00:30","1f75c3e559b7213887762d5229550c2b","62.164.249.91","Mozilla/5.0 (Windows NT 10.0; Win64; x64) AppleWebKit/537.36 (KHTML, like Gecko) Chrome/132.0.0.0 Safari/537.36","WebKit","Chrome","132.0.0.0","Windows","10.0","https://app.prolific.com/","en-US,en;q=0.9","6792a60bf1238ae52e645ecb","683db9eb0562dbf637994deb","6880c083edc1442dcd649076","2","1","6792a60bf1238ae52e645ecb","2","1","","","","","","","","","","","","","[{""page_index"":0,""viewing_time"":33792}]","","","","","","","","","","","","","","","","","","","","","","","","","","","","","",""
"8075","","<p>Before you start with this game please answer the following three questions yourself. </p>
  <p>Through this game, we measure several aspects of your cognitive performance, such as reaction times, multi-tasking capabilities </p>
  <p>and the ability to assess the situation you are in.</p>
  <p></p>
  <p><b>How good do you usually are in such tasks?</b></p>","85","html-slider-response","6","273348","0.0-4.0-0.0","212","1","2025-07-23 11:00:30","1f75c3e559b7213887762d5229550c2b","62.164.249.91","Mozilla/5.0 (Windows NT 10.0; Win64; x64) AppleWebKit/537.36 (KHTML, like Gecko) Chrome/132.0.0.0 Safari/537.36","WebKit","Chrome","132.0.0.0","Windows","10.0","https://app.prolific.com/","en-US,en;q=0.9","6792a60bf1238ae52e645ecb","683db9eb0562dbf637994deb","6880c083edc1442dcd649076","2","1","6792a60bf1238ae52e645ecb","2","1","2025-07-23T11:05:11.415Z","","","","","","","","","","","PreSkillQ","","50","","","","","","","","","","","","","","","","","","","","","","","","","","","","",""
"3245","","<div style=""width:500px;"">
  <p>How well do you think you will perform in this task compared to other participants?</p>
  </div>","63","html-slider-response","7","276596","0.0-4.0-1.0","212","1","2025-07-23 11:00:30","1f75c3e559b7213887762d5229550c2b","62.164.249.91","Mozilla/5.0 (Windows NT 10.0; Win64; x64) AppleWebKit/537.36 (KHTML, like Gecko) Chrome/132.0.0.0 Safari/537.36","WebKit","Chrome","132.0.0.0","Windows","10.0","https://app.prolific.com/","en-US,en;q=0.9","6792a60bf1238ae52e645ecb","683db9eb0562dbf637994deb","6880c083edc1442dcd649076","2","1","6792a60bf1238ae52e645ecb","2","1","2025-07-23T11:05:14.663Z","","","","","","","","","","","PrePerfQ","","50","","","","","","","","","","","","","","","","","","","","","","","","","","","","",""
"3254","","<div style=""width:500px;"">
  <p>What best describes how you currently feel?</p>
  </div>","100","html-slider-response","8","279851","0.0-4.0-2.0","212","1","2025-07-23 11:00:30","1f75c3e559b7213887762d5229550c2b","62.164.249.91","Mozilla/5.0 (Windows NT 10.0; Win64; x64) AppleWebKit/537.36 (KHTML, like Gecko) Chrome/132.0.0.0 Safari/537.36","WebKit","Chrome","132.0.0.0","Windows","10.0","https://app.prolific.com/","en-US,en;q=0.9","6792a60bf1238ae52e645ecb","683db9eb0562dbf637994deb","6880c083edc1442dcd649076","2","1","6792a60bf1238ae52e645ecb","2","1","2025-07-23T11:05:17.918Z","","","","","","","","","","","PreMotivationQ","","50","","","","","","","","","","","","","","","","","","","","","","","","","","","","",""
"","","","","ctl-task-cpt","9","312010","0.0-5.0-0.0","212","1","2025-07-23 11:00:30","1f75c3e559b7213887762d5229550c2b","62.164.249.91","Mozilla/5.0 (Windows NT 10.0; Win64; x64) AppleWebKit/537.36 (KHTML, like Gecko) Chrome/132.0.0.0 Safari/537.36","WebKit","Chrome","132.0.0.0","Windows","10.0","https://app.prolific.com/","en-US,en;q=0.9","6792a60bf1238ae52e645ecb","683db9eb0562dbf637994deb","6880c083edc1442dcd649076","2","1","6792a60bf1238ae52e645ecb","2","1","2025-07-23T11:05:50.078Z","","","","","","","","","","","","","","win-only","1","g1:NE,g2:SW","1","1","0","287548.8","3017.3","8020.8","29153.3","1","4","8","6","2","8","7","7","0","0.05303030303030303","1803.3","3000","670","[""down"",""left""]","{""num_key_presses"":8,""num_perfect"":7,""num_errors"":1,""num_randdir"":0,""num_randdir_good_moves"":0,""num_whilered"":0,""num_whileblue"":1,""num_blue"":1,""num_good_moves"":7}","[301.22232142857143,301.12857142857143,0.2,301.22232142857143,301.12857142857143,104.3,301.22232142857143,301.12857142857143,208.2,301.22232142857143,301.12857142857143,309.2,301.22232142857143,301.12857142857143,413.5,301.22232142857143,301.12857142857143,514.7,301.22232142857143,301.12857142857143,619.5,301.22232142857143,301.12857142857143,723.7,205.22232142857143,374.12857142857143,828.9,114.22232142857143,440.12857142857143,933.5,103.22232142857143,449.12857142857143,1035.6,103.22232142857143,449.12857142857143,1139.1,103.22232142857143,449.12857142857143,1247.3,80.22232142857143,480.12857142857143,1351.8,72.22232142857143,490.12857142857143,1454.7,60.222321428571426,506.12857142857143,1559.3,46.222321428571426,529.1285714285714,1660.5,46.222321428571426,529.1285714285714,1762,46.222321428571426,529.1285714285714,1863.2,46.222321428571426,529.1285714285714,1963.4,46.222321428571426,529.1285714285714,2064.7,46.222321428571426,529.1285714285714,2169.1,46.222321428571426,529.1285714285714,2273.3,46.222321428571426,529.1285714285714,2373.6,46.222321428571426,529.1285714285714,2478.2,46.222321428571426,529.1285714285714,2579.3,46.222321428571426,529.1285714285714,2683.9,46.222321428571426,529.1285714285714,2784,46.222321428571426,529.1285714285714,2888.8,46.222321428571426,529.1285714285714,2994.2,46.222321428571426,529.1285714285714,3098.9,46.222321428571426,529.1285714285714,3204.6,46.222321428571426,529.1285714285714,3308.2,46.222321428571426,529.1285714285714,3409.8,46.222321428571426,529.1285714285714,3513.3,46.222321428571426,529.1285714285714,3614.2,46.222321428571426,529.1285714285714,3718.7,46.222321428571426,529.1285714285714,3818.7,46.222321428571426,529.1285714285714,3923.8,46.222321428571426,529.1285714285714,4028.6,46.222321428571426,529.1285714285714,4129,46.222321428571426,529.1285714285714,4229.1,46.222321428571426,529.1285714285714,4333.2,46.222321428571426,529.1285714285714,4433.5,46.222321428571426,529.1285714285714,4540,46.222321428571426,529.1285714285714,4643.7,46.222321428571426,529.1285714285714,4748.7,46.222321428571426,529.1285714285714,4853.9,46.222321428571426,529.1285714285714,4954.6]","[1368.4,1368.3,1000,0.1,368.3,""smooth"",""down"",""down"",""good_move"",4177.6,2808.4,2468.3,1369.4,339.9,""smooth"",""down"",""down"",""good_move"",7015.2,2837.3,2519.3,4178,317.9,""smooth"",""left"",""left"",""good_move"",9524.5,2508.7,2169.3,7015.8,339.4,""smooth"",""down"",""down"",""good_move"",12504.5,2979.7,2714.9,9524.8,264.8,""while_blue"",""left"",""right"",""bad_move"",15469.4,2964.3,2591.4,12505.1,372.9,""smooth"",""left"",""left"",""good_move"",18319.4,2849.7,2501.1,15469.7,348.6,""smooth"",""left"",""left"",""good_move"",21035.8,2716.1,2294.7,18319.8,421.3,""smooth"",""left"",""left"",""good_move""]","",""
"4967","","<div style=""width:500px;"">
  <p>What determined the result of this run?</p>
  </div>","100","html-slider-response","10","316979","0.0-5.0-1.0","212","1","2025-07-23 11:00:30","1f75c3e559b7213887762d5229550c2b","62.164.249.91","Mozilla/5.0 (Windows NT 10.0; Win64; x64) AppleWebKit/537.36 (KHTML, like Gecko) Chrome/132.0.0.0 Safari/537.36","WebKit","Chrome","132.0.0.0","Windows","10.0","https://app.prolific.com/","en-US,en;q=0.9","6792a60bf1238ae52e645ecb","683db9eb0562dbf637994deb","6880c083edc1442dcd649076","2","1","6792a60bf1238ae52e645ecb","2","1","2025-07-23T11:05:55.046Z","","","","","","","","","","","AttribQ","","50","","","","","","","","","","","","","","","","","","","","","","","","","","","","",""
"4276","","<div style=""width:500px;"">
  <p>How much control did you have over the ball?</p>
  </div>","100","html-slider-response","11","321256","0.0-5.0-2.0","212","1","2025-07-23 11:00:30","1f75c3e559b7213887762d5229550c2b","62.164.249.91","Mozilla/5.0 (Windows NT 10.0; Win64; x64) AppleWebKit/537.36 (KHTML, like Gecko) Chrome/132.0.0.0 Safari/537.36","WebKit","Chrome","132.0.0.0","Windows","10.0","https://app.prolific.com/","en-US,en;q=0.9","6792a60bf1238ae52e645ecb","683db9eb0562dbf637994deb","6880c083edc1442dcd649076","2","1","6792a60bf1238ae52e645ecb","2","1","2025-07-23T11:05:59.324Z","","","","","","","","","","","ControlQ","","50","","","","","","","","","","","","","","","","","","","","","","","","","","","","",""
"3283","","<div style=""width:500px;"">
  <p>How would you describe your current emotional state?</p>
  </div>","0","html-slider-response","12","324542","0.0-5.0-3.0","212","1","2025-07-23 11:00:30","1f75c3e559b7213887762d5229550c2b","62.164.249.91","Mozilla/5.0 (Windows NT 10.0; Win64; x64) AppleWebKit/537.36 (KHTML, like Gecko) Chrome/132.0.0.0 Safari/537.36","WebKit","Chrome","132.0.0.0","Windows","10.0","https://app.prolific.com/","en-US,en;q=0.9","6792a60bf1238ae52e645ecb","683db9eb0562dbf637994deb","6880c083edc1442dcd649076","2","1","6792a60bf1238ae52e645ecb","2","1","2025-07-23T11:06:02.609Z","","","","","","","","","","","StressQ","","50","","","","","","","","","","","","","","","","","","","","","","","","","","","","",""
"3093","","<div style=""width:500px;"">
  <p>What best describes how you currently feel?</p>
  </div>","100","html-slider-response","13","327637","0.0-5.0-4.0","212","1","2025-07-23 11:00:30","1f75c3e559b7213887762d5229550c2b","62.164.249.91","Mozilla/5.0 (Windows NT 10.0; Win64; x64) AppleWebKit/537.36 (KHTML, like Gecko) Chrome/132.0.0.0 Safari/537.36","WebKit","Chrome","132.0.0.0","Windows","10.0","https://app.prolific.com/","en-US,en;q=0.9","6792a60bf1238ae52e645ecb","683db9eb0562dbf637994deb","6880c083edc1442dcd649076","2","1","6792a60bf1238ae52e645ecb","2","1","2025-07-23T11:06:05.704Z","","","","","","","","","","","MotivationQ","","50","","","","","","","","","","","","","","","","","","","","","","","","","","","","",""
"","","","","ctl-task-cpt","14","362121","0.0-5.0-0.1","212","1","2025-07-23 11:00:30","1f75c3e559b7213887762d5229550c2b","62.164.249.91","Mozilla/5.0 (Windows NT 10.0; Win64; x64) AppleWebKit/537.36 (KHTML, like Gecko) Chrome/132.0.0.0 Safari/537.36","WebKit","Chrome","132.0.0.0","Windows","10.0","https://app.prolific.com/","en-US,en;q=0.9","6792a60bf1238ae52e645ecb","683db9eb0562dbf637994deb","6880c083edc1442dcd649076","2","1","6792a60bf1238ae52e645ecb","2","1","2025-07-23T11:06:40.189Z","","","","","","","","","","","","","","win-only","0","g1:NW,g2:SE","0.9","2","0","335335.9","1345.9","6351.4","31465.9","1","4","4","6","2","4","4","11","7","0.08333333333333333","4061.7","3000","370","[""down"",""right""]","{""num_key_presses"":8,""num_perfect"":7,""num_errors"":0,""num_randdir"":1,""num_randdir_good_moves"":0,""num_whilered"":0,""num_whileblue"":0,""num_blue"":1,""num_good_moves"":7}","[293.22232142857143,301.12857142857143,0.3,293.22232142857143,301.12857142857143,104.7,293.22232142857143,301.12857142857143,205.8,293.22232142857143,301.12857142857143,310,293.22232142857143,301.12857142857143,414.7,293.22232142857143,301.12857142857143,515,293.22232142857143,301.12857142857143,615,295.22232142857143,304.12857142857143,716,368.22232142857143,390.12857142857143,820.2,442.22232142857143,504.12857142857143,925.3,442.22232142857143,504.12857142857143,1030.9,442.22232142857143,504.12857142857143,1135.4,442.22232142857143,504.12857142857143,1239.6,442.22232142857143,504.12857142857143,1340.6,442.22232142857143,504.12857142857143,1442,442.22232142857143,504.12857142857143,1544.7,442.22232142857143,504.12857142857143,1644.9,304.22232142857143,359.12857142857143,1745.4,259.22232142857143,262.12857142857143,1850.2,259.22232142857143,262.12857142857143,1955.5,259.22232142857143,262.12857142857143,2061,156.22232142857143,182.12857142857143,2165.3,75.22232142857143,114.12857142857143,2265.5,74.22232142857143,110.12857142857143,2370.1,68.22232142857143,101.12857142857143,2470.3,63.222321428571426,71.12857142857143,2575.2,63.222321428571426,69.12857142857143,2675.3,63.222321428571426,69.12857142857143,2780,63.222321428571426,69.12857142857143,2880.4,63.222321428571426,69.12857142857143,2984.6,63.222321428571426,69.12857142857143,3084.6,63.222321428571426,69.12857142857143,3184.6,178.22232142857143,173.12857142857143,3285.1,598.2223214285714,612.1285714285714,3385.4,603.2223214285714,612.1285714285714,3490.5,603.2223214285714,612.1285714285714,3591.3,603.2223214285714,612.1285714285714,3694.7,553.2223214285714,572.1285714285714,3795.9,538.2223214285714,558.1285714285714,3900.2,538.2223214285714,557.1285714285714,4000.2,538.2223214285714,557.1285714285714,4100.6,538.2223214285714,557.1285714285714,4205.4,538.2223214285714,557.1285714285714,4305.4,538.2223214285714,557.1285714285714,4410.1,538.2223214285714,557.1285714285714,4510.1,538.2223214285714,557.1285714285714,4610.1,538.2223214285714,557.1285714285714,4714.9,538.2223214285714,557.1285714285714,4815.5,538.2223214285714,557.1285714285714,4920.1]","[1352.4,1352.4,1000,0,352.4,""smooth"",""down"",""down"",""good_move"",4063.6,2710.7,2329.5,1352.9,381.2,""oops"",""right"",""left"",""bad_move"",6280.6,2216.4,1888.1,4064.2,328.3,""smooth"",""down"",""down"",""good_move"",9917.5,3636.2,3315,6281.3,321.2,""smooth"",""down"",""down"",""good_move"",12312.4,2394.8,2078.1,9917.6,316.7,""smooth"",""right"",""right"",""good_move"",14728.4,2415,2087.6,12313.4,327.4,""smooth"",""right"",""right"",""good_move"",17875.9,3147.2,2833,14728.7,314.2,""smooth"",""right"",""right"",""good_move"",25016.4,7140.2,3246.6,21439.5,330.3,""smooth"",""right"",""right"",""good_move""]","",""
"4129","","<div style=""width:500px;"">
  <p>What determined the result of this run?</p>
  </div>","100","html-slider-response","15","366252","0.0-5.0-1.1","212","1","2025-07-23 11:00:30","1f75c3e559b7213887762d5229550c2b","62.164.249.91","Mozilla/5.0 (Windows NT 10.0; Win64; x64) AppleWebKit/537.36 (KHTML, like Gecko) Chrome/132.0.0.0 Safari/537.36","WebKit","Chrome","132.0.0.0","Windows","10.0","https://app.prolific.com/","en-US,en;q=0.9","6792a60bf1238ae52e645ecb","683db9eb0562dbf637994deb","6880c083edc1442dcd649076","2","1","6792a60bf1238ae52e645ecb","2","1","2025-07-23T11:06:44.319Z","","","","","","","","","","","AttribQ","","50","","","","","","","","","","","","","","","","","","","","","","","","","","","","",""
"3287","","<div style=""width:500px;"">
  <p>How much control did you have over the ball?</p>
  </div>","100","html-slider-response","16","369541","0.0-5.0-2.1","212","1","2025-07-23 11:00:30","1f75c3e559b7213887762d5229550c2b","62.164.249.91","Mozilla/5.0 (Windows NT 10.0; Win64; x64) AppleWebKit/537.36 (KHTML, like Gecko) Chrome/132.0.0.0 Safari/537.36","WebKit","Chrome","132.0.0.0","Windows","10.0","https://app.prolific.com/","en-US,en;q=0.9","6792a60bf1238ae52e645ecb","683db9eb0562dbf637994deb","6880c083edc1442dcd649076","2","1","6792a60bf1238ae52e645ecb","2","1","2025-07-23T11:06:47.608Z","","","","","","","","","","","ControlQ","","50","","","","","","","","","","","","","","","","","","","","","","","","","","","","",""
"2335","","<div style=""width:500px;"">
  <p>How would you describe your current emotional state?</p>
  </div>","0","html-slider-response","17","371876","0.0-5.0-3.1","212","1","2025-07-23 11:00:30","1f75c3e559b7213887762d5229550c2b","62.164.249.91","Mozilla/5.0 (Windows NT 10.0; Win64; x64) AppleWebKit/537.36 (KHTML, like Gecko) Chrome/132.0.0.0 Safari/537.36","WebKit","Chrome","132.0.0.0","Windows","10.0","https://app.prolific.com/","en-US,en;q=0.9","6792a60bf1238ae52e645ecb","683db9eb0562dbf637994deb","6880c083edc1442dcd649076","2","1","6792a60bf1238ae52e645ecb","2","1","2025-07-23T11:06:49.944Z","","","","","","","","","","","StressQ","","50","","","","","","","","","","","","","","","","","","","","","","","","","","","","",""
"5991","","<div style=""width:500px;"">
  <p>What best describes how you currently feel?</p>
  </div>","99","html-slider-response","18","377868","0.0-5.0-4.1","212","1","2025-07-23 11:00:30","1f75c3e559b7213887762d5229550c2b","62.164.249.91","Mozilla/5.0 (Windows NT 10.0; Win64; x64) AppleWebKit/537.36 (KHTML, like Gecko) Chrome/132.0.0.0 Safari/537.36","WebKit","Chrome","132.0.0.0","Windows","10.0","https://app.prolific.com/","en-US,en;q=0.9","6792a60bf1238ae52e645ecb","683db9eb0562dbf637994deb","6880c083edc1442dcd649076","2","1","6792a60bf1238ae52e645ecb","2","1","2025-07-23T11:06:55.935Z","","","","","","","","","","","MotivationQ","","50","","","","","","","","","","","","","","","","","","","","","","","","","","","","",""
"","","","","ctl-task-cpt","19","418353","0.0-5.0-0.2","212","1","2025-07-23 11:00:30","1f75c3e559b7213887762d5229550c2b","62.164.249.91","Mozilla/5.0 (Windows NT 10.0; Win64; x64) AppleWebKit/537.36 (KHTML, like Gecko) Chrome/132.0.0.0 Safari/537.36","WebKit","Chrome","132.0.0.0","Windows","10.0","https://app.prolific.com/","en-US,en;q=0.9","6792a60bf1238ae52e645ecb","683db9eb0562dbf637994deb","6880c083edc1442dcd649076","2","1","6792a60bf1238ae52e645ecb","2","1","2025-07-23T11:07:36.420Z","","","","","","","","","","","","","","win-only","0","g1:NW,g2:SE","0.8","3","0","385566.5","1317.3","6318.6","37476.9","1","4","4","6","2","4","4","15","11","0.11363636363636363","1796.6","3000","985","[""down"",""right""]","{""num_key_presses"":6,""num_perfect"":6,""num_errors"":0,""num_randdir"":0,""num_randdir_good_moves"":0,""num_whilered"":0,""num_whileblue"":0,""num_blue"":4,""num_good_moves"":6}","[302.22232142857143,293.12857142857143,0.8,302.22232142857143,293.12857142857143,103.2,302.22232142857143,293.12857142857143,208.5,302.22232142857143,293.12857142857143,312.6,302.22232142857143,293.12857142857143,418.2,302.22232142857143,293.12857142857143,527.1,346.22232142857143,358.12857142857143,628.7,412.22232142857143,442.12857142857143,729.8,412.22232142857143,442.12857142857143,834.3,412.22232142857143,442.12857142857143,937.5,430.22232142857143,448.12857142857143,1038.1,465.22232142857143,470.12857142857143,1138.7,486.22232142857143,489.12857142857143,1240.6,507.22232142857143,513.1285714285714,1343.3,522.2223214285714,527.1285714285714,1453.5,538.2223214285714,549.1285714285714,1559,542.2223214285714,555.1285714285714,1659.9,542.2223214285714,555.1285714285714,1769.3,542.2223214285714,555.1285714285714,1873.9,542.2223214285714,555.1285714285714,1974,542.2223214285714,555.1285714285714,2074.9,542.2223214285714,555.1285714285714,2178.7,542.2223214285714,555.1285714285714,2285,542.2223214285714,555.1285714285714,2388.6,542.2223214285714,555.1285714285714,2495.2,542.2223214285714,555.1285714285714,2610.2,542.2223214285714,555.1285714285714,2712.7,542.2223214285714,555.1285714285714,2818.6,542.2223214285714,555.1285714285714,2923.7,542.2223214285714,555.1285714285714,3028.3,542.2223214285714,555.1285714285714,3134.7,542.2223214285714,555.1285714285714,3234.7,542.2223214285714,555.1285714285714,3337.2,542.2223214285714,555.1285714285714,3439.4,542.2223214285714,555.1285714285714,3544.2,542.2223214285714,555.1285714285714,3651.2,542.2223214285714,555.1285714285714,3754.3,542.2223214285714,555.1285714285714,3859.6,542.2223214285714,555.1285714285714,3967.3,542.2223214285714,555.1285714285714,4068.5,542.2223214285714,555.1285714285714,4171.6,542.2223214285714,555.1285714285714,4273.3,542.2223214285714,555.1285714285714,4373.4,542.2223214285714,555.1285714285714,4478.4,542.2223214285714,555.1285714285714,4584.2,542.2223214285714,555.1285714285714,4684.7,542.2223214285714,555.1285714285714,4785.1,542.2223214285714,555.1285714285714,4889.1,542.2223214285714,555.1285714285714,4993.7]","[1365.3,1365.3,1000,0,365.3,""smooth"",""down"",""down"",""good_move"",5248.3,3882.2,3499.9,1366.1,382.3,""smooth"",""right"",""right"",""good_move"",8564.9,3316.1,2921.8,5248.8,394.3,""smooth"",""down"",""down"",""good_move"",11630.8,3065.7,2723.1,8565.1,342.6,""smooth"",""right"",""right"",""good_move"",24486.9,12855.8,2035.4,21997.8,453.7,""smooth"",""right"",""right"",""good_move"",31063.8,6576.7,3031.6,27672.7,359.5,""smooth"",""down"",""down"",""good_move""]","",""
"4673","","<div style=""width:500px;"">
  <p>What determined the result of this run?</p>
  </div>","100","html-slider-response","20","423027","0.0-5.0-1.2","212","1","2025-07-23 11:00:30","1f75c3e559b7213887762d5229550c2b","62.164.249.91","Mozilla/5.0 (Windows NT 10.0; Win64; x64) AppleWebKit/537.36 (KHTML, like Gecko) Chrome/132.0.0.0 Safari/537.36","WebKit","Chrome","132.0.0.0","Windows","10.0","https://app.prolific.com/","en-US,en;q=0.9","6792a60bf1238ae52e645ecb","683db9eb0562dbf637994deb","6880c083edc1442dcd649076","2","1","6792a60bf1238ae52e645ecb","2","1","2025-07-23T11:07:41.095Z","","","","","","","","","","","AttribQ","","50","","","","","","","","","","","","","","","","","","","","","","","","","","","","",""
"2988","","<div style=""width:500px;"">
  <p>How much control did you have over the ball?</p>
  </div>","100","html-slider-response","21","426016","0.0-5.0-2.2","212","1","2025-07-23 11:00:30","1f75c3e559b7213887762d5229550c2b","62.164.249.91","Mozilla/5.0 (Windows NT 10.0; Win64; x64) AppleWebKit/537.36 (KHTML, like Gecko) Chrome/132.0.0.0 Safari/537.36","WebKit","Chrome","132.0.0.0","Windows","10.0","https://app.prolific.com/","en-US,en;q=0.9","6792a60bf1238ae52e645ecb","683db9eb0562dbf637994deb","6880c083edc1442dcd649076","2","1","6792a60bf1238ae52e645ecb","2","1","2025-07-23T11:07:44.083Z","","","","","","","","","","","ControlQ","","50","","","","","","","","","","","","","","","","","","","","","","","","","","","","",""
"3581","","<div style=""width:500px;"">
  <p>How would you describe your current emotional state?</p>
  </div>","1","html-slider-response","22","429599","0.0-5.0-3.2","212","1","2025-07-23 11:00:30","1f75c3e559b7213887762d5229550c2b","62.164.249.91","Mozilla/5.0 (Windows NT 10.0; Win64; x64) AppleWebKit/537.36 (KHTML, like Gecko) Chrome/132.0.0.0 Safari/537.36","WebKit","Chrome","132.0.0.0","Windows","10.0","https://app.prolific.com/","en-US,en;q=0.9","6792a60bf1238ae52e645ecb","683db9eb0562dbf637994deb","6880c083edc1442dcd649076","2","1","6792a60bf1238ae52e645ecb","2","1","2025-07-23T11:07:47.666Z","","","","","","","","","","","StressQ","","50","","","","","","","","","","","","","","","","","","","","","","","","","","","","",""
"3354","","<div style=""width:500px;"">
  <p>What best describes how you currently feel?</p>
  </div>","99","html-slider-response","23","432954","0.0-5.0-4.2","212","1","2025-07-23 11:00:30","1f75c3e559b7213887762d5229550c2b","62.164.249.91","Mozilla/5.0 (Windows NT 10.0; Win64; x64) AppleWebKit/537.36 (KHTML, like Gecko) Chrome/132.0.0.0 Safari/537.36","WebKit","Chrome","132.0.0.0","Windows","10.0","https://app.prolific.com/","en-US,en;q=0.9","6792a60bf1238ae52e645ecb","683db9eb0562dbf637994deb","6880c083edc1442dcd649076","2","1","6792a60bf1238ae52e645ecb","2","1","2025-07-23T11:07:51.021Z","","","","","","","","","","","MotivationQ","","50","","","","","","","","","","","","","","","","","","","","","","","","","","","","",""
"","","","","ctl-task-cpt","24","473515","0.0-5.0-0.3","212","1","2025-07-23 11:00:30","1f75c3e559b7213887762d5229550c2b","62.164.249.91","Mozilla/5.0 (Windows NT 10.0; Win64; x64) AppleWebKit/537.36 (KHTML, like Gecko) Chrome/132.0.0.0 Safari/537.36","WebKit","Chrome","132.0.0.0","Windows","10.0","https://app.prolific.com/","en-US,en;q=0.9","6792a60bf1238ae52e645ecb","683db9eb0562dbf637994deb","6880c083edc1442dcd649076","2","1","6792a60bf1238ae52e645ecb","2","1","2025-07-23T11:08:31.582Z","","","","","","","","","","","","","","win-only","1","g1:NE,g2:SW","0.7","4","0","440651.4","2041.1","7045.9","37536.7","1","4","8","6","2","8","8","23","15","0.17424242424242425","2120.1","3000","530","[""down"",""left""]","{""num_key_presses"":6,""num_perfect"":4,""num_errors"":0,""num_randdir"":2,""num_randdir_good_moves"":2,""num_whilered"":0,""num_whileblue"":0,""num_blue"":3,""num_good_moves"":6}","[293.22232142857143,297.12857142857143,0.5,293.22232142857143,297.12857142857143,105.2,293.22232142857143,297.12857142857143,210.4,293.22232142857143,297.12857142857143,315.4,293.22232142857143,297.12857142857143,420.8,293.22232142857143,297.12857142857143,527.3,293.22232142857143,297.12857142857143,630.7,293.22232142857143,297.12857142857143,730.7,293.22232142857143,297.12857142857143,835.9,293.22232142857143,297.12857142857143,936.8,293.22232142857143,297.12857142857143,1039.4,293.22232142857143,297.12857142857143,1141,293.22232142857143,297.12857142857143,1241.1,257.22232142857143,324.12857142857143,1358.1,199.22232142857143,363.12857142857143,1458.9,171.22232142857143,380.12857142857143,1559.6,119.22232142857143,424.12857142857143,1665.7,85.22232142857143,456.12857142857143,1768.7,71.22232142857143,496.12857142857143,1869.6,70.22232142857143,508.12857142857143,1970.7,70.22232142857143,508.12857142857143,2071.4,70.22232142857143,508.12857142857143,2174.6,70.22232142857143,508.12857142857143,2274.9,70.22232142857143,508.12857142857143,2375.7,70.22232142857143,508.12857142857143,2479.3,70.22232142857143,508.12857142857143,2584.7,70.22232142857143,508.12857142857143,2702.3,70.22232142857143,508.12857142857143,2805.3,70.22232142857143,508.12857142857143,2905.5,70.22232142857143,508.12857142857143,3014.9,70.22232142857143,508.12857142857143,3121.9,70.22232142857143,508.12857142857143,3222.2,70.22232142857143,508.12857142857143,3322.9,70.22232142857143,508.12857142857143,3425.4,70.22232142857143,508.12857142857143,3529.1,70.22232142857143,508.12857142857143,3629.9,70.22232142857143,508.12857142857143,3738.4,70.22232142857143,508.12857142857143,3840.1,70.22232142857143,508.12857142857143,3945.6,70.22232142857143,508.12857142857143,4054.4,70.22232142857143,508.12857142857143,4154.9,70.22232142857143,508.12857142857143,4259.2,70.22232142857143,508.12857142857143,4359.2,70.22232142857143,508.12857142857143,4459.8,70.22232142857143,508.12857142857143,4559.9,70.22232142857143,508.12857142857143,4659.9,70.22232142857143,508.12857142857143,4764.1,70.22232142857143,508.12857142857143,4865.6,70.22232142857143,508.12857142857143,4971.1]","[1336.7,1336.7,1000,0,336.7,""smooth"",""down"",""down"",""good_move"",9033.3,7696,3517.5,5117.9,397.9,""oops"",""down"",""down"",""good_move"",19953,10919.5,2955.7,16598.2,399.1,""smooth"",""left"",""left"",""good_move"",23248.2,3294.8,2907.3,19953.4,387.5,""oops"",""down"",""down"",""good_move"",26262.9,3014.4,2569.3,23248.5,445.1,""smooth"",""left"",""left"",""good_move"",30387.9,4124.7,3304.1,26263.2,820.6,""smooth"",""left"",""left"",""good_move""]","",""
"30381","","<div style=""width:500px;"">
  <p>What determined the result of this run?</p>
  </div>","100","html-slider-response","25","503897","0.0-5.0-1.3","212","1","2025-07-23 11:00:30","1f75c3e559b7213887762d5229550c2b","62.164.249.91","Mozilla/5.0 (Windows NT 10.0; Win64; x64) AppleWebKit/537.36 (KHTML, like Gecko) Chrome/132.0.0.0 Safari/537.36","WebKit","Chrome","132.0.0.0","Windows","10.0","https://app.prolific.com/","en-US,en;q=0.9","6792a60bf1238ae52e645ecb","683db9eb0562dbf637994deb","6880c083edc1442dcd649076","2","1","6792a60bf1238ae52e645ecb","2","1","2025-07-23T11:09:01.964Z","","","","","","","","","","","AttribQ","","50","","","","","","","","","","","","","","","","","","","","","","","","","","","","",""
"2937","","<div style=""width:500px;"">
  <p>How much control did you have over the ball?</p>
  </div>","99","html-slider-response","26","506835","0.0-5.0-2.3","212","1","2025-07-23 11:00:30","1f75c3e559b7213887762d5229550c2b","62.164.249.91","Mozilla/5.0 (Windows NT 10.0; Win64; x64) AppleWebKit/537.36 (KHTML, like Gecko) Chrome/132.0.0.0 Safari/537.36","WebKit","Chrome","132.0.0.0","Windows","10.0","https://app.prolific.com/","en-US,en;q=0.9","6792a60bf1238ae52e645ecb","683db9eb0562dbf637994deb","6880c083edc1442dcd649076","2","1","6792a60bf1238ae52e645ecb","2","1","2025-07-23T11:09:04.902Z","","","","","","","","","","","ControlQ","","50","","","","","","","","","","","","","","","","","","","","","","","","","","","","",""
"3899","","<div style=""width:500px;"">
  <p>How would you describe your current emotional state?</p>
  </div>","0","html-slider-response","27","510736","0.0-5.0-3.3","212","1","2025-07-23 11:00:30","1f75c3e559b7213887762d5229550c2b","62.164.249.91","Mozilla/5.0 (Windows NT 10.0; Win64; x64) AppleWebKit/537.36 (KHTML, like Gecko) Chrome/132.0.0.0 Safari/537.36","WebKit","Chrome","132.0.0.0","Windows","10.0","https://app.prolific.com/","en-US,en;q=0.9","6792a60bf1238ae52e645ecb","683db9eb0562dbf637994deb","6880c083edc1442dcd649076","2","1","6792a60bf1238ae52e645ecb","2","1","2025-07-23T11:09:08.803Z","","","","","","","","","","","StressQ","","50","","","","","","","","","","","","","","","","","","","","","","","","","","","","",""
"2888","","<div style=""width:500px;"">
  <p>What best describes how you currently feel?</p>
  </div>","100","html-slider-response","28","513627","0.0-5.0-4.3","212","1","2025-07-23 11:00:30","1f75c3e559b7213887762d5229550c2b","62.164.249.91","Mozilla/5.0 (Windows NT 10.0; Win64; x64) AppleWebKit/537.36 (KHTML, like Gecko) Chrome/132.0.0.0 Safari/537.36","WebKit","Chrome","132.0.0.0","Windows","10.0","https://app.prolific.com/","en-US,en;q=0.9","6792a60bf1238ae52e645ecb","683db9eb0562dbf637994deb","6880c083edc1442dcd649076","2","1","6792a60bf1238ae52e645ecb","2","1","2025-07-23T11:09:11.694Z","","","","","","","","","","","MotivationQ","","50","","","","","","","","","","","","","","","","","","","","","","","","","","","","",""
"","","","","ctl-task-cpt","29","556110","0.0-5.0-0.4","212","1","2025-07-23 11:00:30","1f75c3e559b7213887762d5229550c2b","62.164.249.91","Mozilla/5.0 (Windows NT 10.0; Win64; x64) AppleWebKit/537.36 (KHTML, like Gecko) Chrome/132.0.0.0 Safari/537.36","WebKit","Chrome","132.0.0.0","Windows","10.0","https://app.prolific.com/","en-US,en;q=0.9","6792a60bf1238ae52e645ecb","683db9eb0562dbf637994deb","6880c083edc1442dcd649076","2","1","6792a60bf1238ae52e645ecb","2","1","2025-07-23T11:09:54.177Z","","","","","","","","","","","","","","win-only","2","g1:SE,g2:NW","0.6","5","0","521324.2","3454.4","8456.1","39464","1","4","4","6","2","-4","-4","19","23","0.14393939393939395","2784.3","3000","-2665","[""left"",""up""]","{""num_key_presses"":9,""num_perfect"":6,""num_errors"":0,""num_randdir"":3,""num_randdir_good_moves"":1,""num_whilered"":0,""num_whileblue"":0,""num_blue"":1,""num_good_moves"":7}","[298.22232142857143,296.12857142857143,0.3,298.22232142857143,296.12857142857143,101.6,298.22232142857143,296.12857142857143,211.2,298.22232142857143,296.12857142857143,311.5,298.22232142857143,296.12857142857143,415.9,298.22232142857143,296.12857142857143,516.9,298.22232142857143,296.12857142857143,621.7,268.22232142857143,280.12857142857143,729.1,113.22232142857143,155.12857142857143,831.1,113.22232142857143,155.12857142857143,936,113.22232142857143,155.12857142857143,1036.7,113.22232142857143,155.12857142857143,1137.4,66.22232142857143,92.12857142857143,1237.8,62.222321428571426,83.12857142857143,1345.3,62.222321428571426,82.12857142857143,1447.4,62.222321428571426,82.12857142857143,1551.2,62.222321428571426,82.12857142857143,1651.5,62.222321428571426,82.12857142857143,1752.3,62.222321428571426,82.12857142857143,1861.5,62.222321428571426,82.12857142857143,1961.6,62.222321428571426,82.12857142857143,2066.2,62.222321428571426,82.12857142857143,2166.6,62.222321428571426,82.12857142857143,2266.6,62.222321428571426,82.12857142857143,2371.5,62.222321428571426,82.12857142857143,2471.8,62.222321428571426,82.12857142857143,2572.1,62.222321428571426,82.12857142857143,2678.5,62.222321428571426,82.12857142857143,2781,62.222321428571426,82.12857142857143,2886.5,62.222321428571426,82.12857142857143,2986.7,62.222321428571426,82.12857142857143,3095.2,62.222321428571426,82.12857142857143,3196.5,62.222321428571426,82.12857142857143,3296.5,62.222321428571426,82.12857142857143,3401.6,62.222321428571426,82.12857142857143,3501.9,62.222321428571426,82.12857142857143,3606.6,62.222321428571426,82.12857142857143,3712.1,62.222321428571426,82.12857142857143,3817.5,62.222321428571426,82.12857142857143,3921.2,62.222321428571426,82.12857142857143,4021.6,62.222321428571426,82.12857142857143,4128.3,62.222321428571426,82.12857142857143,4228.7,62.222321428571426,82.12857142857143,4328.7,62.222321428571426,82.12857142857143,4428.9,62.222321428571426,82.12857142857143,4530.9,62.222321428571426,82.12857142857143,4631,62.222321428571426,82.12857142857143,4731.1,62.222321428571426,82.12857142857143,4831.6,62.222321428571426,82.12857142857143,4937.3]","[1360.7,1360.8,1000,0,360.8,""smooth"",""up"",""up"",""good_move"",4357.6,2996.4,2613.3,1361.2,383.1,""smooth"",""left"",""left"",""good_move"",7392.4,3034,2692.7,4358.4,341.3,""oops"",""up"",""right"",""bad_move"",10050.9,2658.1,2158.5,7392.8,499.6,""smooth"",""left"",""left"",""good_move"",12758.4,2707.2,2344.4,10051.2,362.8,""oops"",""left"",""up"",""good_move"",14802.8,2044.2,1662.2,12758.6,382,""oops"",""left"",""right"",""bad_move"",18341.2,3538.1,3217,14803.2,321,""smooth"",""left"",""left"",""good_move"",25160.2,6818.6,2868.2,21969.7,322.3,""smooth"",""left"",""left"",""good_move"",28323.2,3162.7,2869.8,25160.5,292.9,""smooth"",""up"",""up"",""good_move""]","",""
"120650","","<div style=""width:500px;"">
  <p>What determined the result of this run?</p>
  </div>","90","html-slider-response","30","676761","0.0-5.0-1.4","212","1","2025-07-23 11:00:30","1f75c3e559b7213887762d5229550c2b","62.164.249.91","Mozilla/5.0 (Windows NT 10.0; Win64; x64) AppleWebKit/537.36 (KHTML, like Gecko) Chrome/132.0.0.0 Safari/537.36","WebKit","Chrome","132.0.0.0","Windows","10.0","https://app.prolific.com/","en-US,en;q=0.9","6792a60bf1238ae52e645ecb","683db9eb0562dbf637994deb","6880c083edc1442dcd649076","2","1","6792a60bf1238ae52e645ecb","2","1","2025-07-23T11:11:54.828Z","","","","","","","","","","","AttribQ","","50","","","","","","","","","","","","","","","","","","","","","","","","","","","","",""
"3319","","<div style=""width:500px;"">
  <p>How much control did you have over the ball?</p>
  </div>","35","html-slider-response","31","680081","0.0-5.0-2.4","212","1","2025-07-23 11:00:30","1f75c3e559b7213887762d5229550c2b","62.164.249.91","Mozilla/5.0 (Windows NT 10.0; Win64; x64) AppleWebKit/537.36 (KHTML, like Gecko) Chrome/132.0.0.0 Safari/537.36","WebKit","Chrome","132.0.0.0","Windows","10.0","https://app.prolific.com/","en-US,en;q=0.9","6792a60bf1238ae52e645ecb","683db9eb0562dbf637994deb","6880c083edc1442dcd649076","2","1","6792a60bf1238ae52e645ecb","2","1","2025-07-23T11:11:58.149Z","","","","","","","","","","","ControlQ","","50","","","","","","","","","","","","","","","","","","","","","","","","","","","","",""
"3377","","<div style=""width:500px;"">
  <p>How would you describe your current emotional state?</p>
  </div>","16","html-slider-response","32","683460","0.0-5.0-3.4","212","1","2025-07-23 11:00:30","1f75c3e559b7213887762d5229550c2b","62.164.249.91","Mozilla/5.0 (Windows NT 10.0; Win64; x64) AppleWebKit/537.36 (KHTML, like Gecko) Chrome/132.0.0.0 Safari/537.36","WebKit","Chrome","132.0.0.0","Windows","10.0","https://app.prolific.com/","en-US,en;q=0.9","6792a60bf1238ae52e645ecb","683db9eb0562dbf637994deb","6880c083edc1442dcd649076","2","1","6792a60bf1238ae52e645ecb","2","1","2025-07-23T11:12:01.527Z","","","","","","","","","","","StressQ","","50","","","","","","","","","","","","","","","","","","","","","","","","","","","","",""
"3254","","<div style=""width:500px;"">
  <p>What best describes how you currently feel?</p>
  </div>","84","html-slider-response","33","686715","0.0-5.0-4.4","212","1","2025-07-23 11:00:30","1f75c3e559b7213887762d5229550c2b","62.164.249.91","Mozilla/5.0 (Windows NT 10.0; Win64; x64) AppleWebKit/537.36 (KHTML, like Gecko) Chrome/132.0.0.0 Safari/537.36","WebKit","Chrome","132.0.0.0","Windows","10.0","https://app.prolific.com/","en-US,en;q=0.9","6792a60bf1238ae52e645ecb","683db9eb0562dbf637994deb","6880c083edc1442dcd649076","2","1","6792a60bf1238ae52e645ecb","2","1","2025-07-23T11:12:04.782Z","","","","","","","","","","","MotivationQ","","50","","","","","","","","","","","","","","","","","","","","","","","","","","","","",""
"","","","","ctl-task-cpt","34","725547","0.0-5.0-0.5","212","1","2025-07-23 11:00:30","1f75c3e559b7213887762d5229550c2b","62.164.249.91","Mozilla/5.0 (Windows NT 10.0; Win64; x64) AppleWebKit/537.36 (KHTML, like Gecko) Chrome/132.0.0.0 Safari/537.36","WebKit","Chrome","132.0.0.0","Windows","10.0","https://app.prolific.com/","en-US,en;q=0.9","6792a60bf1238ae52e645ecb","683db9eb0562dbf637994deb","6880c083edc1442dcd649076","2","1","6792a60bf1238ae52e645ecb","2","1","2025-07-23T11:12:43.614Z","","","","","","","","","","","","","","win-only","2","g1:SE,g2:NW","0.5","6","0","694412.5","1285.1","6286","35815.3","1","4","8","6","2","-8","-8","11","19","0.08333333333333333","1093.6","3000","-2605","[""left"",""up""]","{""num_key_presses"":9,""num_perfect"":4,""num_errors"":0,""num_randdir"":5,""num_randdir_good_moves"":2,""num_whilered"":0,""num_whileblue"":0,""num_blue"":1,""num_good_moves"":6}","[296.22232142857143,296.12857142857143,0.4,296.22232142857143,296.12857142857143,105.7,296.22232142857143,296.12857142857143,206.6,296.22232142857143,296.12857142857143,314.5,296.22232142857143,296.12857142857143,415.8,296.22232142857143,296.12857142857143,521.1,296.22232142857143,296.12857142857143,628.8,194.22232142857143,229.12857142857143,731,79.22232142857143,55.128571428571426,835.8,78.22232142857143,52.128571428571426,937.3,78.22232142857143,52.128571428571426,1042.3,78.22232142857143,52.128571428571426,1145.8,78.22232142857143,52.128571428571426,1250.1,78.22232142857143,52.128571428571426,1350.5,78.22232142857143,52.128571428571426,1451,78.22232142857143,52.128571428571426,1551.4,78.22232142857143,52.128571428571426,1657.4,78.22232142857143,52.128571428571426,1760.9,78.22232142857143,52.128571428571426,1860.9,78.22232142857143,52.128571428571426,1964.3,78.22232142857143,52.128571428571426,2066,78.22232142857143,52.128571428571426,2167.4,78.22232142857143,52.128571428571426,2271.1,78.22232142857143,52.128571428571426,2376.8,78.22232142857143,52.128571428571426,2479.3,78.22232142857143,52.128571428571426,2580.8,78.22232142857143,52.128571428571426,2685.1,78.22232142857143,52.128571428571426,2785.9,78.22232142857143,52.128571428571426,2886,78.22232142857143,52.128571428571426,2993.1,78.22232142857143,52.128571428571426,3093.2,78.22232142857143,52.128571428571426,3195.2,78.22232142857143,52.128571428571426,3295.2,78.22232142857143,52.128571428571426,3399.2,78.22232142857143,52.128571428571426,3500.4,78.22232142857143,52.128571428571426,3600.6,78.22232142857143,52.128571428571426,3701.4,78.22232142857143,52.128571428571426,3805.6,78.22232142857143,52.128571428571426,3913.8,78.22232142857143,52.128571428571426,4014.2,78.22232142857143,52.128571428571426,4115.8,78.22232142857143,52.128571428571426,4220.8,78.22232142857143,52.128571428571426,4328.4,78.22232142857143,52.128571428571426,4430.9,78.22232142857143,52.128571428571426,4531.4,78.22232142857143,52.128571428571426,4632,78.22232142857143,52.128571428571426,4736.4,78.22232142857143,52.128571428571426,4840.8,78.22232142857143,52.128571428571426,4945.6]","[1418.8,1418.8,1000,0,418.8,""smooth"",""up"",""up"",""good_move"",3978.2,2559,2181.2,1419.2,377.8,""smooth"",""up"",""up"",""good_move"",6312.7,2334.2,2051.7,3978.5,282.5,""smooth"",""left"",""left"",""good_move"",9239.2,2926.1,2501.3,6313.1,424.8,""oops"",""up"",""down"",""bad_move"",11392,2152.4,1828.6,9239.6,323.8,""oops"",""up"",""up"",""good_move"",17910,6517.2,2667.2,14908.1,334.7,""smooth"",""up"",""up"",""good_move"",20425.1,2514.8,2150.4,17910.3,364.4,""oops"",""left"",""left"",""good_move"",23849.2,3423.7,3103.9,20425.6,319.7,""oops"",""left"",""down"",""bad_move"",27248.9,3399.2,3083.5,23849.7,315.7,""oops"",""up"",""down"",""bad_move""]","",""
"4252","","<div style=""width:500px;"">
  <p>What determined the result of this run?</p>
  </div>","22","html-slider-response","35","729800","0.0-5.0-1.5","212","1","2025-07-23 11:00:30","1f75c3e559b7213887762d5229550c2b","62.164.249.91","Mozilla/5.0 (Windows NT 10.0; Win64; x64) AppleWebKit/537.36 (KHTML, like Gecko) Chrome/132.0.0.0 Safari/537.36","WebKit","Chrome","132.0.0.0","Windows","10.0","https://app.prolific.com/","en-US,en;q=0.9","6792a60bf1238ae52e645ecb","683db9eb0562dbf637994deb","6880c083edc1442dcd649076","2","1","6792a60bf1238ae52e645ecb","2","1","2025-07-23T11:12:47.867Z","","","","","","","","","","","AttribQ","","50","","","","","","","","","","","","","","","","","","","","","","","","","","","","",""
"2911","","<div style=""width:500px;"">
  <p>How much control did you have over the ball?</p>
  </div>","31","html-slider-response","36","732713","0.0-5.0-2.5","212","1","2025-07-23 11:00:30","1f75c3e559b7213887762d5229550c2b","62.164.249.91","Mozilla/5.0 (Windows NT 10.0; Win64; x64) AppleWebKit/537.36 (KHTML, like Gecko) Chrome/132.0.0.0 Safari/537.36","WebKit","Chrome","132.0.0.0","Windows","10.0","https://app.prolific.com/","en-US,en;q=0.9","6792a60bf1238ae52e645ecb","683db9eb0562dbf637994deb","6880c083edc1442dcd649076","2","1","6792a60bf1238ae52e645ecb","2","1","2025-07-23T11:12:50.780Z","","","","","","","","","","","ControlQ","","50","","","","","","","","","","","","","","","","","","","","","","","","","","","","",""
"3380","","<div style=""width:500px;"">
  <p>How would you describe your current emotional state?</p>
  </div>","25","html-slider-response","37","736094","0.0-5.0-3.5","212","1","2025-07-23 11:00:30","1f75c3e559b7213887762d5229550c2b","62.164.249.91","Mozilla/5.0 (Windows NT 10.0; Win64; x64) AppleWebKit/537.36 (KHTML, like Gecko) Chrome/132.0.0.0 Safari/537.36","WebKit","Chrome","132.0.0.0","Windows","10.0","https://app.prolific.com/","en-US,en;q=0.9","6792a60bf1238ae52e645ecb","683db9eb0562dbf637994deb","6880c083edc1442dcd649076","2","1","6792a60bf1238ae52e645ecb","2","1","2025-07-23T11:12:54.161Z","","","","","","","","","","","StressQ","","50","","","","","","","","","","","","","","","","","","","","","","","","","","","","",""
"2818","","<div style=""width:500px;"">
  <p>What best describes how you currently feel?</p>
  </div>","78","html-slider-response","38","738913","0.0-5.0-4.5","212","1","2025-07-23 11:00:30","1f75c3e559b7213887762d5229550c2b","62.164.249.91","Mozilla/5.0 (Windows NT 10.0; Win64; x64) AppleWebKit/537.36 (KHTML, like Gecko) Chrome/132.0.0.0 Safari/537.36","WebKit","Chrome","132.0.0.0","Windows","10.0","https://app.prolific.com/","en-US,en;q=0.9","6792a60bf1238ae52e645ecb","683db9eb0562dbf637994deb","6880c083edc1442dcd649076","2","1","6792a60bf1238ae52e645ecb","2","1","2025-07-23T11:12:56.980Z","","","","","","","","","","","MotivationQ","","50","","","","","","","","","","","","","","","","","","","","","","","","","","","","",""
"","","","","ctl-task-cpt","39","783643","0.0-5.0-0.6","212","1","2025-07-23 11:00:30","1f75c3e559b7213887762d5229550c2b","62.164.249.91","Mozilla/5.0 (Windows NT 10.0; Win64; x64) AppleWebKit/537.36 (KHTML, like Gecko) Chrome/132.0.0.0 Safari/537.36","WebKit","Chrome","132.0.0.0","Windows","10.0","https://app.prolific.com/","en-US,en;q=0.9","6792a60bf1238ae52e645ecb","683db9eb0562dbf637994deb","6880c083edc1442dcd649076","2","1","6792a60bf1238ae52e645ecb","2","1","2025-07-23T11:13:41.710Z","","","","","","","","","","","","","","win-only","2","g1:SE,g2:NW","0.4","7","0","746611.2","1707","6711","41709.8","1","4","4","6","2","-4","-6","5","11","0.03787878787878788","1240","3000","-2625","[""left"",""up""]","{""num_key_presses"":11,""num_perfect"":4,""num_errors"":2,""num_randdir"":5,""num_randdir_good_moves"":2,""num_whilered"":0,""num_whileblue"":2,""num_blue"":3,""num_good_moves"":7}","[300.22232142857143,304.12857142857143,0.3,300.22232142857143,304.12857142857143,100.2,300.22232142857143,304.12857142857143,206.9,300.22232142857143,304.12857142857143,308.9,300.22232142857143,304.12857142857143,408.9,300.22232142857143,304.12857142857143,513.4,300.22232142857143,304.12857142857143,616.2,56.222321428571426,125.12857142857143,723.5,41.222321428571426,103.12857142857143,823.6,38.222321428571426,98.12857142857143,924.4,38.222321428571426,92.12857142857143,1028.6,38.222321428571426,92.12857142857143,1128.7,38.222321428571426,92.12857142857143,1229.3,38.222321428571426,92.12857142857143,1337.7,38.222321428571426,92.12857142857143,1445.2,38.222321428571426,92.12857142857143,1549.1,38.222321428571426,92.12857142857143,1653.1,38.222321428571426,92.12857142857143,1754.3,38.222321428571426,92.12857142857143,1858.6,38.222321428571426,92.12857142857143,1960,38.222321428571426,92.12857142857143,2064,38.222321428571426,92.12857142857143,2169.5,38.222321428571426,92.12857142857143,2272,38.222321428571426,92.12857142857143,2372.2,38.222321428571426,92.12857142857143,2473.8,38.222321428571426,92.12857142857143,2579.8,38.222321428571426,92.12857142857143,2687,38.222321428571426,92.12857142857143,2787.6,38.222321428571426,92.12857142857143,2888.6,38.222321428571426,92.12857142857143,2989.2,38.222321428571426,92.12857142857143,3089.3,38.222321428571426,92.12857142857143,3193.4,38.222321428571426,92.12857142857143,3293.8,38.222321428571426,92.12857142857143,3403.3,38.222321428571426,92.12857142857143,3509.5,38.222321428571426,92.12857142857143,3610.1,38.222321428571426,92.12857142857143,3713.9,38.222321428571426,92.12857142857143,3822.7,38.222321428571426,92.12857142857143,3923.7,38.222321428571426,92.12857142857143,4024,38.222321428571426,92.12857142857143,4128.8,38.222321428571426,92.12857142857143,4228.9,38.222321428571426,92.12857142857143,4328.9,38.222321428571426,92.12857142857143,4437.5,38.222321428571426,92.12857142857143,4540,38.222321428571426,92.12857142857143,4641.5,38.222321428571426,92.12857142857143,4743.3,38.222321428571426,92.12857142857143,4843.3,38.222321428571426,92.12857142857143,4943.8]","[1368.7,1368.7,1000,0,368.7,""smooth"",""up"",""up"",""good_move"",4233.1,2864,2548.8,1369.1,315.2,""while_blue"",""up"",""right"",""bad_move"",7237,3003.2,2607.5,4233.9,395.7,""smooth"",""up"",""up"",""good_move"",10151.8,2914.5,2586.3,7237.3,328.2,""oops"",""up"",""down"",""bad_move"",12828.3,2675.9,2333.2,10152.4,342.7,""smooth"",""up"",""up"",""good_move"",15665.1,2836.3,2454.7,12828.8,381.6,""smooth"",""up"",""up"",""good_move"",18222.2,2556.9,2231.3,15665.3,325.6,""oops"",""left"",""left"",""good_move"",21281.5,3058.9,2744.9,18222.6,314,""oops"",""left"",""right"",""bad_move"",23949.3,2666.6,2351.4,21282.7,315.2,""oops"",""left"",""right"",""bad_move"",26746.7,2796.8,2533.4,23949.9,263.4,""while_blue"",""left"",""left"",""good_move"",32412.6,5665.7,2052.2,29905.8,454.6,""oops"",""left"",""left"",""good_move""]","",""
"2410","","<div style=""width:500px;"">
  <p>What determined the result of this run?</p>
  </div>","39","html-slider-response","40","786054","0.0-5.0-1.6","212","1","2025-07-23 11:00:30","1f75c3e559b7213887762d5229550c2b","62.164.249.91","Mozilla/5.0 (Windows NT 10.0; Win64; x64) AppleWebKit/537.36 (KHTML, like Gecko) Chrome/132.0.0.0 Safari/537.36","WebKit","Chrome","132.0.0.0","Windows","10.0","https://app.prolific.com/","en-US,en;q=0.9","6792a60bf1238ae52e645ecb","683db9eb0562dbf637994deb","6880c083edc1442dcd649076","2","1","6792a60bf1238ae52e645ecb","2","1","2025-07-23T11:13:44.121Z","","","","","","","","","","","AttribQ","","50","","","","","","","","","","","","","","","","","","","","","","","","","","","","",""
"2371","","<div style=""width:500px;"">
  <p>How much control did you have over the ball?</p>
  </div>","18","html-slider-response","41","788427","0.0-5.0-2.6","212","1","2025-07-23 11:00:30","1f75c3e559b7213887762d5229550c2b","62.164.249.91","Mozilla/5.0 (Windows NT 10.0; Win64; x64) AppleWebKit/537.36 (KHTML, like Gecko) Chrome/132.0.0.0 Safari/537.36","WebKit","Chrome","132.0.0.0","Windows","10.0","https://app.prolific.com/","en-US,en;q=0.9","6792a60bf1238ae52e645ecb","683db9eb0562dbf637994deb","6880c083edc1442dcd649076","2","1","6792a60bf1238ae52e645ecb","2","1","2025-07-23T11:13:46.494Z","","","","","","","","","","","ControlQ","","50","","","","","","","","","","","","","","","","","","","","","","","","","","","","",""
"2676","","<div style=""width:500px;"">
  <p>How would you describe your current emotional state?</p>
  </div>","27","html-slider-response","42","791105","0.0-5.0-3.6","212","1","2025-07-23 11:00:30","1f75c3e559b7213887762d5229550c2b","62.164.249.91","Mozilla/5.0 (Windows NT 10.0; Win64; x64) AppleWebKit/537.36 (KHTML, like Gecko) Chrome/132.0.0.0 Safari/537.36","WebKit","Chrome","132.0.0.0","Windows","10.0","https://app.prolific.com/","en-US,en;q=0.9","6792a60bf1238ae52e645ecb","683db9eb0562dbf637994deb","6880c083edc1442dcd649076","2","1","6792a60bf1238ae52e645ecb","2","1","2025-07-23T11:13:49.172Z","","","","","","","","","","","StressQ","","50","","","","","","","","","","","","","","","","","","","","","","","","","","","","",""
"2556","","<div style=""width:500px;"">
  <p>What best describes how you currently feel?</p>
  </div>","89","html-slider-response","43","793664","0.0-5.0-4.6","212","1","2025-07-23 11:00:30","1f75c3e559b7213887762d5229550c2b","62.164.249.91","Mozilla/5.0 (Windows NT 10.0; Win64; x64) AppleWebKit/537.36 (KHTML, like Gecko) Chrome/132.0.0.0 Safari/537.36","WebKit","Chrome","132.0.0.0","Windows","10.0","https://app.prolific.com/","en-US,en;q=0.9","6792a60bf1238ae52e645ecb","683db9eb0562dbf637994deb","6880c083edc1442dcd649076","2","1","6792a60bf1238ae52e645ecb","2","1","2025-07-23T11:13:51.731Z","","","","","","","","","","","MotivationQ","","50","","","","","","","","","","","","","","","","","","","","","","","","","","","","",""
"","","","","ctl-task-cpt","44","834775","0.0-5.0-0.7","212","1","2025-07-23 11:00:30","1f75c3e559b7213887762d5229550c2b","62.164.249.91","Mozilla/5.0 (Windows NT 10.0; Win64; x64) AppleWebKit/537.36 (KHTML, like Gecko) Chrome/132.0.0.0 Safari/537.36","WebKit","Chrome","132.0.0.0","Windows","10.0","https://app.prolific.com/","en-US,en;q=0.9","6792a60bf1238ae52e645ecb","683db9eb0562dbf637994deb","6880c083edc1442dcd649076","2","1","6792a60bf1238ae52e645ecb","2","1","2025-07-23T11:14:32.842Z","","","","","","","","","","","","","","win-only","2","g1:SE,g2:NW","0.3","8","0","801361.8","2097.2","7102.4","38091","1","4","8","6","2","-8","-10","0","5","0","1197.4","3000","-2475","[""left"",""up""]","{""num_key_presses"":8,""num_perfect"":2,""num_errors"":2,""num_randdir"":4,""num_randdir_good_moves"":0,""num_whilered"":0,""num_whileblue"":1,""num_blue"":2,""num_good_moves"":3}","[293.22232142857143,301.12857142857143,0.2,293.22232142857143,301.12857142857143,103.4,293.22232142857143,301.12857142857143,205.8,293.22232142857143,301.12857142857143,313.4,293.22232142857143,301.12857142857143,413.6,293.22232142857143,301.12857142857143,518.4,293.22232142857143,301.12857142857143,619.6,111.22232142857143,106.12857142857143,726.8,106.22232142857143,97.12857142857143,828.6,103.22232142857143,93.12857142857143,928.7,69.22232142857143,58.128571428571426,1029.3,69.22232142857143,58.128571428571426,1139,69.22232142857143,58.128571428571426,1244.2,69.22232142857143,58.128571428571426,1344.6,69.22232142857143,58.128571428571426,1449.5,69.22232142857143,58.128571428571426,1549.5,69.22232142857143,58.128571428571426,1650.4,69.22232142857143,58.128571428571426,1755.1,69.22232142857143,58.128571428571426,1855.8,69.22232142857143,58.128571428571426,1958.7,69.22232142857143,58.128571428571426,2059.4,69.22232142857143,58.128571428571426,2161.2,69.22232142857143,58.128571428571426,2263.8,69.22232142857143,58.128571428571426,2364.1,69.22232142857143,58.128571428571426,2468.4,69.22232142857143,58.128571428571426,2574.3,69.22232142857143,58.128571428571426,2676.8,69.22232142857143,58.128571428571426,2778.6,69.22232142857143,58.128571428571426,2879,69.22232142857143,58.128571428571426,2983.5,69.22232142857143,58.128571428571426,3083.6,69.22232142857143,58.128571428571426,3189.2,69.22232142857143,58.128571428571426,3289.7,69.22232142857143,58.128571428571426,3394.6,69.22232142857143,58.128571428571426,3498.3,69.22232142857143,58.128571428571426,3598.8,69.22232142857143,58.128571428571426,3698.9,69.22232142857143,58.128571428571426,3805.3,69.22232142857143,58.128571428571426,3905.5,69.22232142857143,58.128571428571426,4009.9,69.22232142857143,58.128571428571426,4109.9,69.22232142857143,58.128571428571426,4214.3,69.22232142857143,58.128571428571426,4318.7,69.22232142857143,58.128571428571426,4428.1,69.22232142857143,58.128571428571426,4528.9,69.22232142857143,58.128571428571426,4633.6,69.22232142857143,58.128571428571426,4739.3,69.22232142857143,58.128571428571426,4841.1,69.22232142857143,58.128571428571426,4943.9]","[382.9,382.9,1000,0,-617.1,""error"",""-"",""-"",""no_move"",3957.9,3574.7,2154.9,1384.5,418.5,""oops"",""left"",""down"",""bad_move"",7300.3,3342,2954.3,3958.3,387.7,""oops"",""left"",""right"",""bad_move"",10799.6,3498.7,3156.1,7300.9,342.6,""smooth"",""up"",""up"",""good_move"",13172.1,2372,2007.9,10800.1,364.1,""smooth"",""up"",""up"",""good_move"",15838.1,2665.6,2296.6,13172.5,369,""oops"",""left"",""right"",""bad_move"",18802.6,2964.1,2644.4,15838.6,319.6,""while_blue"",""up"",""up"",""good_move"",22632.2,3829.2,3441.3,18803,387.9,""oops"",""left"",""down"",""bad_move""]","",""
"5371","","<div style=""width:500px;"">
  <p>What determined the result of this run?</p>
  </div>","37","html-slider-response","45","840148","0.0-5.0-1.7","212","1","2025-07-23 11:00:30","1f75c3e559b7213887762d5229550c2b","62.164.249.91","Mozilla/5.0 (Windows NT 10.0; Win64; x64) AppleWebKit/537.36 (KHTML, like Gecko) Chrome/132.0.0.0 Safari/537.36","WebKit","Chrome","132.0.0.0","Windows","10.0","https://app.prolific.com/","en-US,en;q=0.9","6792a60bf1238ae52e645ecb","683db9eb0562dbf637994deb","6880c083edc1442dcd649076","2","1","6792a60bf1238ae52e645ecb","2","1","2025-07-23T11:14:38.215Z","","","","","","","","","","","AttribQ","","50","","","","","","","","","","","","","","","","","","","","","","","","","","","","",""
"4164","","<div style=""width:500px;"">
  <p>How much control did you have over the ball?</p>
  </div>","53","html-slider-response","46","844313","0.0-5.0-2.7","212","1","2025-07-23 11:00:30","1f75c3e559b7213887762d5229550c2b","62.164.249.91","Mozilla/5.0 (Windows NT 10.0; Win64; x64) AppleWebKit/537.36 (KHTML, like Gecko) Chrome/132.0.0.0 Safari/537.36","WebKit","Chrome","132.0.0.0","Windows","10.0","https://app.prolific.com/","en-US,en;q=0.9","6792a60bf1238ae52e645ecb","683db9eb0562dbf637994deb","6880c083edc1442dcd649076","2","1","6792a60bf1238ae52e645ecb","2","1","2025-07-23T11:14:42.380Z","","","","","","","","","","","ControlQ","","50","","","","","","","","","","","","","","","","","","","","","","","","","","","","",""
"2417","","<div style=""width:500px;"">
  <p>How would you describe your current emotional state?</p>
  </div>","23","html-slider-response","47","846732","0.0-5.0-3.7","212","1","2025-07-23 11:00:30","1f75c3e559b7213887762d5229550c2b","62.164.249.91","Mozilla/5.0 (Windows NT 10.0; Win64; x64) AppleWebKit/537.36 (KHTML, like Gecko) Chrome/132.0.0.0 Safari/537.36","WebKit","Chrome","132.0.0.0","Windows","10.0","https://app.prolific.com/","en-US,en;q=0.9","6792a60bf1238ae52e645ecb","683db9eb0562dbf637994deb","6880c083edc1442dcd649076","2","1","6792a60bf1238ae52e645ecb","2","1","2025-07-23T11:14:44.799Z","","","","","","","","","","","StressQ","","50","","","","","","","","","","","","","","","","","","","","","","","","","","","","",""
"4600","","<div style=""width:500px;"">
  <p>What best describes how you currently feel?</p>
  </div>","78","html-slider-response","48","851333","0.0-5.0-4.7","212","1","2025-07-23 11:00:30","1f75c3e559b7213887762d5229550c2b","62.164.249.91","Mozilla/5.0 (Windows NT 10.0; Win64; x64) AppleWebKit/537.36 (KHTML, like Gecko) Chrome/132.0.0.0 Safari/537.36","WebKit","Chrome","132.0.0.0","Windows","10.0","https://app.prolific.com/","en-US,en;q=0.9","6792a60bf1238ae52e645ecb","683db9eb0562dbf637994deb","6880c083edc1442dcd649076","2","1","6792a60bf1238ae52e645ecb","2","1","2025-07-23T11:14:49.400Z","","","","","","","","","","","MotivationQ","","50","","","","","","","","","","","","","","","","","","","","","","","","","","","","",""
"","","","","ctl-task-cpt","49","909149","0.0-5.0-0.8","212","1","2025-07-23 11:00:30","1f75c3e559b7213887762d5229550c2b","62.164.249.91","Mozilla/5.0 (Windows NT 10.0; Win64; x64) AppleWebKit/537.36 (KHTML, like Gecko) Chrome/132.0.0.0 Safari/537.36","WebKit","Chrome","132.0.0.0","Windows","10.0","https://app.prolific.com/","en-US,en;q=0.9","6792a60bf1238ae52e645ecb","683db9eb0562dbf637994deb","6880c083edc1442dcd649076","2","1","6792a60bf1238ae52e645ecb","2","1","2025-07-23T11:15:47.216Z","","","","","","","","","","","","","","win-only","0","g1:NW,g2:SE","0.2","9","0","859030.5","2257.9","7266.6","54785.8","1","4","8","6","2","-8","-8","0","0","0","1739.1","3000","-2405","[""down"",""right""]","{""num_key_presses"":9,""num_perfect"":2,""num_errors"":0,""num_randdir"":7,""num_randdir_good_moves"":4,""num_whilered"":0,""num_whileblue"":0,""num_blue"":6,""num_good_moves"":6}","[293.22232142857143,302.12857142857143,0.4,293.22232142857143,302.12857142857143,104.7,293.22232142857143,302.12857142857143,208.3,293.22232142857143,302.12857142857143,308.9,293.22232142857143,302.12857142857143,412.7,293.22232142857143,302.12857142857143,518.5,293.22232142857143,302.12857142857143,627.1,382.22232142857143,419.12857142857143,727.6,386.22232142857143,421.12857142857143,828,386.22232142857143,421.12857142857143,935.1,386.22232142857143,421.12857142857143,1036.4,484.22232142857143,482.12857142857143,1141.1,524.2223214285714,508.12857142857143,1243.5,529.2223214285714,513.1285714285714,1344.2,534.2223214285714,520.1285714285714,1447.6,538.2223214285714,526.1285714285714,1547.6,538.2223214285714,526.1285714285714,1648.4,538.2223214285714,526.1285714285714,1748.5,538.2223214285714,526.1285714285714,1858.7,538.2223214285714,526.1285714285714,1962.6,538.2223214285714,526.1285714285714,2062.9,538.2223214285714,526.1285714285714,2163.9,538.2223214285714,526.1285714285714,2267.9,538.2223214285714,526.1285714285714,2377.5,538.2223214285714,526.1285714285714,2478,538.2223214285714,526.1285714285714,2579.1,538.2223214285714,526.1285714285714,2683.8,538.2223214285714,526.1285714285714,2791.3,538.2223214285714,526.1285714285714,2891.8,538.2223214285714,526.1285714285714,2993.6,538.2223214285714,526.1285714285714,3094.3,538.2223214285714,526.1285714285714,3197.8,538.2223214285714,526.1285714285714,3307.5,538.2223214285714,526.1285714285714,3408,538.2223214285714,526.1285714285714,3509,538.2223214285714,526.1285714285714,3613.4,538.2223214285714,526.1285714285714,3713.4,538.2223214285714,526.1285714285714,3817.9,538.2223214285714,526.1285714285714,3925.3,538.2223214285714,526.1285714285714,4026.7,538.2223214285714,526.1285714285714,4126.7,538.2223214285714,526.1285714285714,4227.4,538.2223214285714,526.1285714285714,4328,538.2223214285714,526.1285714285714,4433.4,538.2223214285714,526.1285714285714,4541.1,538.2223214285714,526.1285714285714,4641.3,538.2223214285714,526.1285714285714,4741.7,538.2223214285714,526.1285714285714,4844,538.2223214285714,526.1285714285714,4948]","[1385.9,1385.9,1000,0,385.9,""oops"",""down"",""right"",""good_move"",4130.2,2743.9,2374.1,1386.3,369.8,""oops"",""down"",""right"",""good_move"",6965.2,2834.7,2462.9,4130.5,371.8,""oops"",""down"",""right"",""good_move"",9440.7,2475.2,2133.5,6965.6,341.7,""oops"",""down"",""down"",""good_move"",22748.3,13307.2,2336.2,20018.8,393.3,""smooth"",""down"",""down"",""good_move"",26151.2,3402.6,3023.5,22748.6,379.1,""oops"",""down"",""left"",""bad_move"",29714.1,3562.3,3188.5,26151.8,373.8,""oops"",""down"",""left"",""bad_move"",32330.9,2616.5,2226.4,29714.4,390.1,""smooth"",""down"",""down"",""good_move"",34612.8,2281.6,1909.4,32331.3,372.2,""oops"",""right"",""up"",""bad_move""]","",""
"24758","","<div style=""width:500px;"">
  <p>What determined the result of this run?</p>
  </div>","95","html-slider-response","50","933908","0.0-5.0-1.8","212","1","2025-07-23 11:00:30","1f75c3e559b7213887762d5229550c2b","62.164.249.91","Mozilla/5.0 (Windows NT 10.0; Win64; x64) AppleWebKit/537.36 (KHTML, like Gecko) Chrome/132.0.0.0 Safari/537.36","WebKit","Chrome","132.0.0.0","Windows","10.0","https://app.prolific.com/","en-US,en;q=0.9","6792a60bf1238ae52e645ecb","683db9eb0562dbf637994deb","6880c083edc1442dcd649076","2","1","6792a60bf1238ae52e645ecb","2","1","2025-07-23T11:16:11.975Z","","","","","","","","","","","AttribQ","","50","","","","","","","","","","","","","","","","","","","","","","","","","","","","",""
"3259","","<div style=""width:500px;"">
  <p>How much control did you have over the ball?</p>
  </div>","90","html-slider-response","51","937169","0.0-5.0-2.8","212","1","2025-07-23 11:00:30","1f75c3e559b7213887762d5229550c2b","62.164.249.91","Mozilla/5.0 (Windows NT 10.0; Win64; x64) AppleWebKit/537.36 (KHTML, like Gecko) Chrome/132.0.0.0 Safari/537.36","WebKit","Chrome","132.0.0.0","Windows","10.0","https://app.prolific.com/","en-US,en;q=0.9","6792a60bf1238ae52e645ecb","683db9eb0562dbf637994deb","6880c083edc1442dcd649076","2","1","6792a60bf1238ae52e645ecb","2","1","2025-07-23T11:16:15.236Z","","","","","","","","","","","ControlQ","","50","","","","","","","","","","","","","","","","","","","","","","","","","","","","",""
"9682","","<div style=""width:500px;"">
  <p>How would you describe your current emotional state?</p>
  </div>","92","html-slider-response","52","946854","0.0-5.0-3.8","212","1","2025-07-23 11:00:30","1f75c3e559b7213887762d5229550c2b","62.164.249.91","Mozilla/5.0 (Windows NT 10.0; Win64; x64) AppleWebKit/537.36 (KHTML, like Gecko) Chrome/132.0.0.0 Safari/537.36","WebKit","Chrome","132.0.0.0","Windows","10.0","https://app.prolific.com/","en-US,en;q=0.9","6792a60bf1238ae52e645ecb","683db9eb0562dbf637994deb","6880c083edc1442dcd649076","2","1","6792a60bf1238ae52e645ecb","2","1","2025-07-23T11:16:24.922Z","","","","","","","","","","","StressQ","","50","","","","","","","","","","","","","","","","","","","","","","","","","","","","",""
"3009","","<div style=""width:500px;"">
  <p>What best describes how you currently feel?</p>
  </div>","78","html-slider-response","53","949866","0.0-5.0-4.8","212","1","2025-07-23 11:00:30","1f75c3e559b7213887762d5229550c2b","62.164.249.91","Mozilla/5.0 (Windows NT 10.0; Win64; x64) AppleWebKit/537.36 (KHTML, like Gecko) Chrome/132.0.0.0 Safari/537.36","WebKit","Chrome","132.0.0.0","Windows","10.0","https://app.prolific.com/","en-US,en;q=0.9","6792a60bf1238ae52e645ecb","683db9eb0562dbf637994deb","6880c083edc1442dcd649076","2","1","6792a60bf1238ae52e645ecb","2","1","2025-07-23T11:16:27.933Z","","","","","","","","","","","MotivationQ","","50","","","","","","","","","","","","","","","","","","","","","","","","","","","","",""
"","","","","ctl-task-cpt","54","1010358","0.0-5.0-0.9","212","1","2025-07-23 11:00:30","1f75c3e559b7213887762d5229550c2b","62.164.249.91","Mozilla/5.0 (Windows NT 10.0; Win64; x64) AppleWebKit/537.36 (KHTML, like Gecko) Chrome/132.0.0.0 Safari/537.36","WebKit","Chrome","132.0.0.0","Windows","10.0","https://app.prolific.com/","en-US,en;q=0.9","6792a60bf1238ae52e645ecb","683db9eb0562dbf637994deb","6880c083edc1442dcd649076","2","1","6792a60bf1238ae52e645ecb","2","1","2025-07-23T11:17:28.425Z","","","","","","","","","","","","","","win-only","1","g1:NE,g2:SW","0.4","10","0","957564.8","1456.1","6468.6","57461.4","1","4","4","6","2","-4","-5","0","0","0","2077.5","3000","-2400","[""down"",""left""]","{""num_key_presses"":8,""num_perfect"":3,""num_errors"":1,""num_randdir"":4,""num_randdir_good_moves"":1,""num_whilered"":0,""num_whileblue"":0,""num_blue"":8,""num_good_moves"":4}","[299.22232142857143,297.12857142857143,0.3,299.22232142857143,297.12857142857143,101.9,299.22232142857143,297.12857142857143,204.3,299.22232142857143,297.12857142857143,304.6,299.22232142857143,297.12857142857143,405.3,299.22232142857143,297.12857142857143,507.1,299.22232142857143,297.12857142857143,609.9,193.22232142857143,403.12857142857143,715.2,143.22232142857143,463.12857142857143,821.7,113.22232142857143,492.12857142857143,926,113.22232142857143,492.12857142857143,1034.9,113.22232142857143,492.12857142857143,1134.9,91.22232142857143,517.1285714285714,1244.6,84.22232142857143,523.1285714285714,1354.2,84.22232142857143,523.1285714285714,1455.5,84.22232142857143,523.1285714285714,1558.7,84.22232142857143,523.1285714285714,1660.4,84.22232142857143,523.1285714285714,1769.4,84.22232142857143,523.1285714285714,1870.1,84.22232142857143,523.1285714285714,1970.2,84.22232142857143,523.1285714285714,2082.9,84.22232142857143,523.1285714285714,2185.2,84.22232142857143,523.1285714285714,2286.4,84.22232142857143,523.1285714285714,2389.9,84.22232142857143,523.1285714285714,2490.4,84.22232142857143,523.1285714285714,2595.9,84.22232142857143,523.1285714285714,2701.3,84.22232142857143,523.1285714285714,2804.5,84.22232142857143,523.1285714285714,2910.4,84.22232142857143,523.1285714285714,3021.7,84.22232142857143,523.1285714285714,3124.7,84.22232142857143,523.1285714285714,3225.6,84.22232142857143,523.1285714285714,3336.1,84.22232142857143,523.1285714285714,3441.8,84.22232142857143,523.1285714285714,3548.3,84.22232142857143,523.1285714285714,3649.7,84.22232142857143,523.1285714285714,3749.9,84.22232142857143,523.1285714285714,3860.7,84.22232142857143,523.1285714285714,3964.6,84.22232142857143,523.1285714285714,4065.2,84.22232142857143,523.1285714285714,4168.5,84.22232142857143,523.1285714285714,4269.8,84.22232142857143,523.1285714285714,4370.2,84.22232142857143,523.1285714285714,4476.7,84.22232142857143,523.1285714285714,4579.6,84.22232142857143,523.1285714285714,4682.7,84.22232142857143,523.1285714285714,4784,84.22232142857143,523.1285714285714,4884.4,84.22232142857143,523.1285714285714,4984.9]","[1939.5,1939.5,1000,0,939.5,""oops"",""down"",""down"",""good_move"",5054.3,3114.4,2744.7,1939.9,369.7,""smooth"",""left"",""left"",""good_move"",7392.8,2337.8,1984.3,5055,353.5,""smooth"",""down"",""down"",""good_move"",17046.8,9653.6,1964.7,14696.6,385.5,""smooth"",""down"",""down"",""good_move"",19936.7,2889.1,2381.8,17047.6,507.3,""oops"",""left"",""right"",""bad_move"",23642,3705,2601.6,22972.5,-1932.1,""error"",""-"",""-"",""no_move"",30220.9,6578.6,2136.3,27731.7,352.9,""oops"",""left"",""right"",""bad_move"",48248.1,18026.8,2790.1,44997,461,""oops"",""left"",""up"",""bad_move""]","",""
"6099","","<div style=""width:500px;"">
  <p>What determined the result of this run?</p>
  </div>","6","html-slider-response","55","1016459","0.0-5.0-1.9","212","1","2025-07-23 11:00:30","1f75c3e559b7213887762d5229550c2b","62.164.249.91","Mozilla/5.0 (Windows NT 10.0; Win64; x64) AppleWebKit/537.36 (KHTML, like Gecko) Chrome/132.0.0.0 Safari/537.36","WebKit","Chrome","132.0.0.0","Windows","10.0","https://app.prolific.com/","en-US,en;q=0.9","6792a60bf1238ae52e645ecb","683db9eb0562dbf637994deb","6880c083edc1442dcd649076","2","1","6792a60bf1238ae52e645ecb","2","1","2025-07-23T11:17:34.526Z","","","","","","","","","","","AttribQ","","50","","","","","","","","","","","","","","","","","","","","","","","","","","","","",""
"5090","","<div style=""width:500px;"">
  <p>How much control did you have over the ball?</p>
  </div>","86","html-slider-response","56","1021551","0.0-5.0-2.9","212","1","2025-07-23 11:00:30","1f75c3e559b7213887762d5229550c2b","62.164.249.91","Mozilla/5.0 (Windows NT 10.0; Win64; x64) AppleWebKit/537.36 (KHTML, like Gecko) Chrome/132.0.0.0 Safari/537.36","WebKit","Chrome","132.0.0.0","Windows","10.0","https://app.prolific.com/","en-US,en;q=0.9","6792a60bf1238ae52e645ecb","683db9eb0562dbf637994deb","6880c083edc1442dcd649076","2","1","6792a60bf1238ae52e645ecb","2","1","2025-07-23T11:17:39.618Z","","","","","","","","","","","ControlQ","","50","","","","","","","","","","","","","","","","","","","","","","","","","","","","",""
"3804","","<div style=""width:500px;"">
  <p>How would you describe your current emotional state?</p>
  </div>","85","html-slider-response","57","1025356","0.0-5.0-3.9","212","1","2025-07-23 11:00:30","1f75c3e559b7213887762d5229550c2b","62.164.249.91","Mozilla/5.0 (Windows NT 10.0; Win64; x64) AppleWebKit/537.36 (KHTML, like Gecko) Chrome/132.0.0.0 Safari/537.36","WebKit","Chrome","132.0.0.0","Windows","10.0","https://app.prolific.com/","en-US,en;q=0.9","6792a60bf1238ae52e645ecb","683db9eb0562dbf637994deb","6880c083edc1442dcd649076","2","1","6792a60bf1238ae52e645ecb","2","1","2025-07-23T11:17:43.424Z","","","","","","","","","","","StressQ","","50","","","","","","","","","","","","","","","","","","","","","","","","","","","","",""
"3004","","<div style=""width:500px;"">
  <p>What best describes how you currently feel?</p>
  </div>","90","html-slider-response","58","1028363","0.0-5.0-4.9","212","1","2025-07-23 11:00:30","1f75c3e559b7213887762d5229550c2b","62.164.249.91","Mozilla/5.0 (Windows NT 10.0; Win64; x64) AppleWebKit/537.36 (KHTML, like Gecko) Chrome/132.0.0.0 Safari/537.36","WebKit","Chrome","132.0.0.0","Windows","10.0","https://app.prolific.com/","en-US,en;q=0.9","6792a60bf1238ae52e645ecb","683db9eb0562dbf637994deb","6880c083edc1442dcd649076","2","1","6792a60bf1238ae52e645ecb","2","1","2025-07-23T11:17:46.430Z","","","","","","","","","","","MotivationQ","","50","","","","","","","","","","","","","","","","","","","","","","","","","","","","",""
"","","","","ctl-task-cpt","59","1074204","0.0-5.0-0.10","212","1","2025-07-23 11:00:30","1f75c3e559b7213887762d5229550c2b","62.164.249.91","Mozilla/5.0 (Windows NT 10.0; Win64; x64) AppleWebKit/537.36 (KHTML, like Gecko) Chrome/132.0.0.0 Safari/537.36","WebKit","Chrome","132.0.0.0","Windows","10.0","https://app.prolific.com/","en-US,en;q=0.9","6792a60bf1238ae52e645ecb","683db9eb0562dbf637994deb","6880c083edc1442dcd649076","2","1","6792a60bf1238ae52e645ecb","2","1","2025-07-23T11:18:32.271Z","","","","","","","","","","","","","","win-only","1","g1:NE,g2:SW","0.5","11","0","1036060.7","1458.3","6461.7","42825.8","1","4","4","6","2","-4","-4","0","0","0","2038.4","3000","-2275","[""down"",""left""]","{""num_key_presses"":9,""num_perfect"":5,""num_errors"":0,""num_randdir"":4,""num_randdir_good_moves"":1,""num_whilered"":0,""num_whileblue"":0,""num_blue"":2,""num_good_moves"":6}","[299.22232142857143,301.12857142857143,0.2,299.22232142857143,301.12857142857143,103,299.22232142857143,301.12857142857143,203.5,299.22232142857143,301.12857142857143,304,299.22232142857143,301.12857142857143,414.4,299.22232142857143,301.12857142857143,518.6,299.22232142857143,301.12857142857143,622.9,195.22232142857143,385.12857142857143,724.2,101.22232142857143,457.12857142857143,833.9,76.22232142857143,479.12857142857143,937.7,68.22232142857143,491.12857142857143,1043.3,68.22232142857143,492.12857142857143,1148.6,68.22232142857143,492.12857142857143,1251.3,68.22232142857143,492.12857142857143,1352.9,68.22232142857143,492.12857142857143,1459.8,68.22232142857143,492.12857142857143,1563.6,68.22232142857143,492.12857142857143,1664.6,61.222321428571426,509.12857142857143,1764.9,59.222321428571426,514.1285714285714,1867.5,59.222321428571426,514.1285714285714,1973,59.222321428571426,514.1285714285714,2083.7,59.222321428571426,514.1285714285714,2183.8,59.222321428571426,514.1285714285714,2287.7,59.222321428571426,514.1285714285714,2387.9,59.222321428571426,514.1285714285714,2488.8,59.222321428571426,514.1285714285714,2597.8,59.222321428571426,514.1285714285714,2698.1,59.222321428571426,514.1285714285714,2800.2,59.222321428571426,514.1285714285714,2902.9,59.222321428571426,514.1285714285714,3005.9,59.222321428571426,514.1285714285714,3108.1,59.222321428571426,514.1285714285714,3212.8,59.222321428571426,514.1285714285714,3313,59.222321428571426,514.1285714285714,3413.3,59.222321428571426,514.1285714285714,3513.6,59.222321428571426,514.1285714285714,3617.9,59.222321428571426,514.1285714285714,3730.4,59.222321428571426,514.1285714285714,3832.8,59.222321428571426,514.1285714285714,3932.9,59.222321428571426,514.1285714285714,4035.9,59.222321428571426,514.1285714285714,4137.3,59.222321428571426,514.1285714285714,4237.3,59.222321428571426,514.1285714285714,4338.1,59.222321428571426,514.1285714285714,4446.9,59.222321428571426,514.1285714285714,4549.1,59.222321428571426,514.1285714285714,4653,59.222321428571426,514.1285714285714,4753.4,59.222321428571426,514.1285714285714,4858.4,59.222321428571426,514.1285714285714,4958.4]","[1459.9,1459.9,1000,0,459.9,""oops"",""down"",""right"",""bad_move"",5163.5,3702.7,3322.2,1460.8,380.5,""smooth"",""down"",""down"",""good_move"",7809.3,2645,2096.2,5164.3,548.8,""smooth"",""down"",""down"",""good_move"",10759.8,2950.2,2573.2,7809.6,377,""smooth"",""left"",""left"",""good_move"",13872.6,3112.3,2754.4,10760.3,357.9,""smooth"",""left"",""left"",""good_move"",16677.4,2804.3,2459.3,13873.1,345,""smooth"",""left"",""left"",""good_move"",19416.7,2739,2346.7,16677.7,392.3,""oops"",""down"",""right"",""bad_move"",22203.2,2785.9,2385.9,19417.3,400,""oops"",""left"",""right"",""bad_move"",32678.4,10474.8,3148.1,29153.7,376.6,""oops"",""left"",""down"",""good_move""]","",""
"4247","","<div style=""width:500px;"">
  <p>What determined the result of this run?</p>
  </div>","93","html-slider-response","60","1078453","0.0-5.0-1.10","212","1","2025-07-23 11:00:30","1f75c3e559b7213887762d5229550c2b","62.164.249.91","Mozilla/5.0 (Windows NT 10.0; Win64; x64) AppleWebKit/537.36 (KHTML, like Gecko) Chrome/132.0.0.0 Safari/537.36","WebKit","Chrome","132.0.0.0","Windows","10.0","https://app.prolific.com/","en-US,en;q=0.9","6792a60bf1238ae52e645ecb","683db9eb0562dbf637994deb","6880c083edc1442dcd649076","2","1","6792a60bf1238ae52e645ecb","2","1","2025-07-23T11:18:36.520Z","","","","","","","","","","","AttribQ","","50","","","","","","","","","","","","","","","","","","","","","","","","","","","","",""
"3315","","<div style=""width:500px;"">
  <p>How much control did you have over the ball?</p>
  </div>","86","html-slider-response","61","1081769","0.0-5.0-2.10","212","1","2025-07-23 11:00:30","1f75c3e559b7213887762d5229550c2b","62.164.249.91","Mozilla/5.0 (Windows NT 10.0; Win64; x64) AppleWebKit/537.36 (KHTML, like Gecko) Chrome/132.0.0.0 Safari/537.36","WebKit","Chrome","132.0.0.0","Windows","10.0","https://app.prolific.com/","en-US,en;q=0.9","6792a60bf1238ae52e645ecb","683db9eb0562dbf637994deb","6880c083edc1442dcd649076","2","1","6792a60bf1238ae52e645ecb","2","1","2025-07-23T11:18:39.836Z","","","","","","","","","","","ControlQ","","50","","","","","","","","","","","","","","","","","","","","","","","","","","","","",""
"3125","","<div style=""width:500px;"">
  <p>How would you describe your current emotional state?</p>
  </div>","89","html-slider-response","62","1084896","0.0-5.0-3.10","212","1","2025-07-23 11:00:30","1f75c3e559b7213887762d5229550c2b","62.164.249.91","Mozilla/5.0 (Windows NT 10.0; Win64; x64) AppleWebKit/537.36 (KHTML, like Gecko) Chrome/132.0.0.0 Safari/537.36","WebKit","Chrome","132.0.0.0","Windows","10.0","https://app.prolific.com/","en-US,en;q=0.9","6792a60bf1238ae52e645ecb","683db9eb0562dbf637994deb","6880c083edc1442dcd649076","2","1","6792a60bf1238ae52e645ecb","2","1","2025-07-23T11:18:42.963Z","","","","","","","","","","","StressQ","","50","","","","","","","","","","","","","","","","","","","","","","","","","","","","",""
"3929","","<div style=""width:500px;"">
  <p>What best describes how you currently feel?</p>
  </div>","87","html-slider-response","63","1088827","0.0-5.0-4.10","212","1","2025-07-23 11:00:30","1f75c3e559b7213887762d5229550c2b","62.164.249.91","Mozilla/5.0 (Windows NT 10.0; Win64; x64) AppleWebKit/537.36 (KHTML, like Gecko) Chrome/132.0.0.0 Safari/537.36","WebKit","Chrome","132.0.0.0","Windows","10.0","https://app.prolific.com/","en-US,en;q=0.9","6792a60bf1238ae52e645ecb","683db9eb0562dbf637994deb","6880c083edc1442dcd649076","2","1","6792a60bf1238ae52e645ecb","2","1","2025-07-23T11:18:46.894Z","","","","","","","","","","","MotivationQ","","50","","","","","","","","","","","","","","","","","","","","","","","","","","","","",""
"","","","","ctl-task-cpt","64","1120995","0.0-5.0-0.11","212","1","2025-07-23 11:00:30","1f75c3e559b7213887762d5229550c2b","62.164.249.91","Mozilla/5.0 (Windows NT 10.0; Win64; x64) AppleWebKit/537.36 (KHTML, like Gecko) Chrome/132.0.0.0 Safari/537.36","WebKit","Chrome","132.0.0.0","Windows","10.0","https://app.prolific.com/","en-US,en;q=0.9","6792a60bf1238ae52e645ecb","683db9eb0562dbf637994deb","6880c083edc1442dcd649076","2","1","6792a60bf1238ae52e645ecb","2","1","2025-07-23T11:19:19.062Z","","","","","","","","","","","","","","win-only","0","g1:NW,g2:SE","0.6","12","0","1096524.7","1491.2","6495.2","29138.9","1","4","8","6","2","8","8","8","0","0.06060606060606061","1581.1","3000","1795","[""down"",""right""]","{""num_key_presses"":8,""num_perfect"":5,""num_errors"":0,""num_randdir"":3,""num_randdir_good_moves"":2,""num_whilered"":0,""num_whileblue"":0,""num_blue"":0,""num_good_moves"":7}","[304.22232142857143,300.12857142857143,0.3,304.22232142857143,300.12857142857143,105.9,304.22232142857143,300.12857142857143,214.3,304.22232142857143,300.12857142857143,322.5,304.22232142857143,300.12857142857143,425.9,304.22232142857143,300.12857142857143,535.3,304.22232142857143,300.12857142857143,642,304.22232142857143,300.12857142857143,742.1,454.22232142857143,458.12857142857143,851.6,467.22232142857143,475.12857142857143,959.7,467.22232142857143,475.12857142857143,1068.6,467.22232142857143,475.12857142857143,1172.2,503.22232142857143,511.12857142857143,1282.7,529.2223214285714,540.1285714285714,1383.4,535.2223214285714,547.1285714285714,1483.8,535.2223214285714,547.1285714285714,1596.5,535.2223214285714,547.1285714285714,1702.2,535.2223214285714,547.1285714285714,1812.9,535.2223214285714,547.1285714285714,1919.9,535.2223214285714,547.1285714285714,2022.5,535.2223214285714,547.1285714285714,2127.8,535.2223214285714,547.1285714285714,2235.5,535.2223214285714,547.1285714285714,2343.3,535.2223214285714,547.1285714285714,2449.2,535.2223214285714,547.1285714285714,2549.8,535.2223214285714,547.1285714285714,2649.9,535.2223214285714,547.1285714285714,2755.1,535.2223214285714,547.1285714285714,2860.8,535.2223214285714,547.1285714285714,2967.9,535.2223214285714,547.1285714285714,3070.2,535.2223214285714,547.1285714285714,3181.2,535.2223214285714,547.1285714285714,3283,535.2223214285714,547.1285714285714,3386.2,535.2223214285714,547.1285714285714,3490.3,535.2223214285714,547.1285714285714,3591.6,535.2223214285714,547.1285714285714,3691.9,535.2223214285714,547.1285714285714,3794.4,535.2223214285714,547.1285714285714,3900.1,535.2223214285714,547.1285714285714,4006.3,535.2223214285714,547.1285714285714,4114,535.2223214285714,547.1285714285714,4214.6,535.2223214285714,547.1285714285714,4315.4,535.2223214285714,547.1285714285714,4420.3,535.2223214285714,547.1285714285714,4521.1,535.2223214285714,547.1285714285714,4624.6,535.2223214285714,547.1285714285714,4732,535.2223214285714,547.1285714285714,4833.1,535.2223214285714,547.1285714285714,4934.2]","[1381.5,1381.5,1000,0,381.5,""smooth"",""down"",""down"",""good_move"",3909.1,2527,2012.1,1382.1,515,""smooth"",""right"",""right"",""good_move"",6515,2605,2254.7,3910,350.3,""oops"",""down"",""left"",""bad_move"",10257.7,3742.3,2950.5,6515.4,791.8,""smooth"",""down"",""down"",""good_move"",12889.8,2631.7,2247.7,10258.2,383.9,""oops"",""right"",""down"",""good_move"",15910.2,3020.1,2628.4,12890.1,391.7,""oops"",""right"",""right"",""good_move"",18693.4,2782.8,2331.1,15910.6,451.7,""smooth"",""right"",""right"",""good_move"",22273.9,3580.2,3227.6,18693.8,352.6,""smooth"",""right"",""right"",""good_move""]","",""
"5373","","<div style=""width:500px;"">
  <p>What determined the result of this run?</p>
  </div>","89","html-slider-response","65","1126369","0.0-5.0-1.11","212","1","2025-07-23 11:00:30","1f75c3e559b7213887762d5229550c2b","62.164.249.91","Mozilla/5.0 (Windows NT 10.0; Win64; x64) AppleWebKit/537.36 (KHTML, like Gecko) Chrome/132.0.0.0 Safari/537.36","WebKit","Chrome","132.0.0.0","Windows","10.0","https://app.prolific.com/","en-US,en;q=0.9","6792a60bf1238ae52e645ecb","683db9eb0562dbf637994deb","6880c083edc1442dcd649076","2","1","6792a60bf1238ae52e645ecb","2","1","2025-07-23T11:19:24.436Z","","","","","","","","","","","AttribQ","","50","","","","","","","","","","","","","","","","","","","","","","","","","","","","",""
"2693","","<div style=""width:500px;"">
  <p>How much control did you have over the ball?</p>
  </div>","87","html-slider-response","66","1129063","0.0-5.0-2.11","212","1","2025-07-23 11:00:30","1f75c3e559b7213887762d5229550c2b","62.164.249.91","Mozilla/5.0 (Windows NT 10.0; Win64; x64) AppleWebKit/537.36 (KHTML, like Gecko) Chrome/132.0.0.0 Safari/537.36","WebKit","Chrome","132.0.0.0","Windows","10.0","https://app.prolific.com/","en-US,en;q=0.9","6792a60bf1238ae52e645ecb","683db9eb0562dbf637994deb","6880c083edc1442dcd649076","2","1","6792a60bf1238ae52e645ecb","2","1","2025-07-23T11:19:27.130Z","","","","","","","","","","","ControlQ","","50","","","","","","","","","","","","","","","","","","","","","","","","","","","","",""
"4699","","<div style=""width:500px;"">
  <p>How would you describe your current emotional state?</p>
  </div>","86","html-slider-response","67","1133763","0.0-5.0-3.11","212","1","2025-07-23 11:00:30","1f75c3e559b7213887762d5229550c2b","62.164.249.91","Mozilla/5.0 (Windows NT 10.0; Win64; x64) AppleWebKit/537.36 (KHTML, like Gecko) Chrome/132.0.0.0 Safari/537.36","WebKit","Chrome","132.0.0.0","Windows","10.0","https://app.prolific.com/","en-US,en;q=0.9","6792a60bf1238ae52e645ecb","683db9eb0562dbf637994deb","6880c083edc1442dcd649076","2","1","6792a60bf1238ae52e645ecb","2","1","2025-07-23T11:19:31.830Z","","","","","","","","","","","StressQ","","50","","","","","","","","","","","","","","","","","","","","","","","","","","","","",""
"3000","","<div style=""width:500px;"">
  <p>What best describes how you currently feel?</p>
  </div>","90","html-slider-response","68","1136764","0.0-5.0-4.11","212","1","2025-07-23 11:00:30","1f75c3e559b7213887762d5229550c2b","62.164.249.91","Mozilla/5.0 (Windows NT 10.0; Win64; x64) AppleWebKit/537.36 (KHTML, like Gecko) Chrome/132.0.0.0 Safari/537.36","WebKit","Chrome","132.0.0.0","Windows","10.0","https://app.prolific.com/","en-US,en;q=0.9","6792a60bf1238ae52e645ecb","683db9eb0562dbf637994deb","6880c083edc1442dcd649076","2","1","6792a60bf1238ae52e645ecb","2","1","2025-07-23T11:19:34.831Z","","","","","","","","","","","MotivationQ","","50","","","","","","","","","","","","","","","","","","","","","","","","","","","","",""
"","","","","ctl-task-cpt","69","1165549","0.0-5.0-0.12","212","1","2025-07-23 11:00:30","1f75c3e559b7213887762d5229550c2b","62.164.249.91","Mozilla/5.0 (Windows NT 10.0; Win64; x64) AppleWebKit/537.36 (KHTML, like Gecko) Chrome/132.0.0.0 Safari/537.36","WebKit","Chrome","132.0.0.0","Windows","10.0","https://app.prolific.com/","en-US,en;q=0.9","6792a60bf1238ae52e645ecb","683db9eb0562dbf637994deb","6880c083edc1442dcd649076","2","1","6792a60bf1238ae52e645ecb","2","1","2025-07-23T11:20:03.616Z","","","","","","","","","","","","","","win-only","1","g1:NE,g2:SW","0.7","13","0","1144461.9","2586.4","7590.2","25756.6","1","4","8","6","2","8","8","16","8","0.12121212121212122","1692.2","3000","2175","[""down"",""left""]","{""num_key_presses"":6,""num_perfect"":5,""num_errors"":0,""num_randdir"":1,""num_randdir_good_moves"":1,""num_whilered"":0,""num_whileblue"":0,""num_blue"":0,""num_good_moves"":6}","[299.22232142857143,301.12857142857143,0.3,299.22232142857143,301.12857142857143,100,299.22232142857143,301.12857142857143,207.8,299.22232142857143,301.12857142857143,311.9,299.22232142857143,301.12857142857143,412.2,299.22232142857143,301.12857142857143,519,275.22232142857143,325.12857142857143,626.4,147.22232142857143,468.12857142857143,727.4,107.22232142857143,516.1285714285714,828.7,89.22232142857143,536.1285714285714,931.2,82.22232142857143,546.1285714285714,1035.9,81.22232142857143,547.1285714285714,1138.2,81.22232142857143,547.1285714285714,1241.1,81.22232142857143,547.1285714285714,1347.8,81.22232142857143,547.1285714285714,1456.2,81.22232142857143,547.1285714285714,1588.8,81.22232142857143,547.1285714285714,1693.8,81.22232142857143,547.1285714285714,1808.7,81.22232142857143,547.1285714285714,1921.8,81.22232142857143,547.1285714285714,2030.2,81.22232142857143,547.1285714285714,2140.2,81.22232142857143,547.1285714285714,2241.9,81.22232142857143,547.1285714285714,2345.3,81.22232142857143,547.1285714285714,2448.7,81.22232142857143,547.1285714285714,2557.5,81.22232142857143,547.1285714285714,2661.9,81.22232142857143,547.1285714285714,2766.3,81.22232142857143,547.1285714285714,2873.4,81.22232142857143,547.1285714285714,2984,81.22232142857143,547.1285714285714,3089.9,81.22232142857143,547.1285714285714,3203.2,81.22232142857143,547.1285714285714,3308.5,81.22232142857143,547.1285714285714,3409.2,81.22232142857143,547.1285714285714,3516.8,81.22232142857143,547.1285714285714,3623.5,81.22232142857143,547.1285714285714,3725.8,81.22232142857143,547.1285714285714,3836.9,81.22232142857143,547.1285714285714,3946.1,81.22232142857143,547.1285714285714,4048.9,81.22232142857143,547.1285714285714,4159.4,81.22232142857143,547.1285714285714,4264.3,81.22232142857143,547.1285714285714,4368.2,81.22232142857143,547.1285714285714,4476.4,81.22232142857143,547.1285714285714,4579.2,81.22232142857143,547.1285714285714,4685.7,81.22232142857143,547.1285714285714,4793.3,81.22232142857143,547.1285714285714,4896.1]","[1775.7,1775.7,1000,0,775.7,""smooth"",""down"",""down"",""good_move"",4485.3,2708.7,2235.9,1776.6,472.8,""smooth"",""left"",""left"",""good_move"",7926.3,3439.9,2699.7,4486.4,740.2,""smooth"",""down"",""down"",""good_move"",11515.8,3589.1,3200.3,7926.7,388.8,""smooth"",""left"",""left"",""good_move"",14923.8,3407.5,3053,11516.3,354.5,""oops"",""down"",""down"",""good_move"",17531.1,2606.5,2139.4,14924.6,467.1,""smooth"",""left"",""left"",""good_move""]","",""
"64412","","<div style=""width:500px;"">
  <p>What determined the result of this run?</p>
  </div>","82","html-slider-response","70","1229963","0.0-5.0-1.12","212","1","2025-07-23 11:00:30","1f75c3e559b7213887762d5229550c2b","62.164.249.91","Mozilla/5.0 (Windows NT 10.0; Win64; x64) AppleWebKit/537.36 (KHTML, like Gecko) Chrome/132.0.0.0 Safari/537.36","WebKit","Chrome","132.0.0.0","Windows","10.0","https://app.prolific.com/","en-US,en;q=0.9","6792a60bf1238ae52e645ecb","683db9eb0562dbf637994deb","6880c083edc1442dcd649076","2","1","6792a60bf1238ae52e645ecb","2","1","2025-07-23T11:21:08.030Z","","","","","","","","","","","AttribQ","","50","","","","","","","","","","","","","","","","","","","","","","","","","","","","",""
"2681","","<div style=""width:500px;"">
  <p>How much control did you have over the ball?</p>
  </div>","85","html-slider-response","71","1232648","0.0-5.0-2.12","212","1","2025-07-23 11:00:30","1f75c3e559b7213887762d5229550c2b","62.164.249.91","Mozilla/5.0 (Windows NT 10.0; Win64; x64) AppleWebKit/537.36 (KHTML, like Gecko) Chrome/132.0.0.0 Safari/537.36","WebKit","Chrome","132.0.0.0","Windows","10.0","https://app.prolific.com/","en-US,en;q=0.9","6792a60bf1238ae52e645ecb","683db9eb0562dbf637994deb","6880c083edc1442dcd649076","2","1","6792a60bf1238ae52e645ecb","2","1","2025-07-23T11:21:10.716Z","","","","","","","","","","","ControlQ","","50","","","","","","","","","","","","","","","","","","","","","","","","","","","","",""
"2690","","<div style=""width:500px;"">
  <p>How would you describe your current emotional state?</p>
  </div>","85","html-slider-response","72","1235341","0.0-5.0-3.12","212","1","2025-07-23 11:00:30","1f75c3e559b7213887762d5229550c2b","62.164.249.91","Mozilla/5.0 (Windows NT 10.0; Win64; x64) AppleWebKit/537.36 (KHTML, like Gecko) Chrome/132.0.0.0 Safari/537.36","WebKit","Chrome","132.0.0.0","Windows","10.0","https://app.prolific.com/","en-US,en;q=0.9","6792a60bf1238ae52e645ecb","683db9eb0562dbf637994deb","6880c083edc1442dcd649076","2","1","6792a60bf1238ae52e645ecb","2","1","2025-07-23T11:21:13.408Z","","","","","","","","","","","StressQ","","50","","","","","","","","","","","","","","","","","","","","","","","","","","","","",""
"2369","","<div style=""width:500px;"">
  <p>What best describes how you currently feel?</p>
  </div>","89","html-slider-response","73","1237713","0.0-5.0-4.12","212","1","2025-07-23 11:00:30","1f75c3e559b7213887762d5229550c2b","62.164.249.91","Mozilla/5.0 (Windows NT 10.0; Win64; x64) AppleWebKit/537.36 (KHTML, like Gecko) Chrome/132.0.0.0 Safari/537.36","WebKit","Chrome","132.0.0.0","Windows","10.0","https://app.prolific.com/","en-US,en;q=0.9","6792a60bf1238ae52e645ecb","683db9eb0562dbf637994deb","6880c083edc1442dcd649076","2","1","6792a60bf1238ae52e645ecb","2","1","2025-07-23T11:21:15.780Z","","","","","","","","","","","MotivationQ","","50","","","","","","","","","","","","","","","","","","","","","","","","","","","","",""
"","","","","ctl-task-cpt","74","1277137","0.0-5.0-0.13","212","1","2025-07-23 11:00:30","1f75c3e559b7213887762d5229550c2b","62.164.249.91","Mozilla/5.0 (Windows NT 10.0; Win64; x64) AppleWebKit/537.36 (KHTML, like Gecko) Chrome/132.0.0.0 Safari/537.36","WebKit","Chrome","132.0.0.0","Windows","10.0","https://app.prolific.com/","en-US,en;q=0.9","6792a60bf1238ae52e645ecb","683db9eb0562dbf637994deb","6880c083edc1442dcd649076","2","1","6792a60bf1238ae52e645ecb","2","1","2025-07-23T11:21:55.204Z","","","","","","","","","","","","","","win-only","0","g1:NW,g2:SE","0.8","14","0","1245415.5","1390.1","6394.7","36376.5","1","4","4","6","2","4","4","20","16","0.15151515151515152","1498.3","3000","1940","[""down"",""right""]","{""num_key_presses"":8,""num_perfect"":7,""num_errors"":0,""num_randdir"":1,""num_randdir_good_moves"":0,""num_whilered"":0,""num_whileblue"":0,""num_blue"":2,""num_good_moves"":7}","[300.22232142857143,304.12857142857143,0.5,300.22232142857143,304.12857142857143,108.9,300.22232142857143,304.12857142857143,214.4,300.22232142857143,304.12857142857143,323.1,300.22232142857143,304.12857142857143,427.3,300.22232142857143,304.12857142857143,539.1,308.22232142857143,312.12857142857143,647.3,395.22232142857143,415.12857142857143,751.7,444.22232142857143,486.12857142857143,855.6,444.22232142857143,486.12857142857143,966.6,444.22232142857143,486.12857142857143,1073.9,522.2223214285714,516.1285714285714,1186.7,538.2223214285714,523.1285714285714,1290.6,538.2223214285714,523.1285714285714,1393,538.2223214285714,523.1285714285714,1505.9,538.2223214285714,523.1285714285714,1612.7,538.2223214285714,523.1285714285714,1718.7,538.2223214285714,523.1285714285714,1824.6,538.2223214285714,523.1285714285714,1933.1,538.2223214285714,523.1285714285714,2039.9,538.2223214285714,523.1285714285714,2147.5,538.2223214285714,523.1285714285714,2249.3,538.2223214285714,523.1285714285714,2356.9,538.2223214285714,523.1285714285714,2461,538.2223214285714,523.1285714285714,2561.9,538.2223214285714,523.1285714285714,2670.2,538.2223214285714,523.1285714285714,2778,538.2223214285714,523.1285714285714,2883.1,538.2223214285714,523.1285714285714,2995,538.2223214285714,523.1285714285714,3104.8,538.2223214285714,523.1285714285714,3208,538.2223214285714,523.1285714285714,3308.5,538.2223214285714,523.1285714285714,3416.4,538.2223214285714,523.1285714285714,3517.5,538.2223214285714,523.1285714285714,3621.4,538.2223214285714,523.1285714285714,3729,538.2223214285714,523.1285714285714,3837,538.2223214285714,523.1285714285714,3941.3,538.2223214285714,523.1285714285714,4053.7,538.2223214285714,523.1285714285714,4162.6,538.2223214285714,523.1285714285714,4266.4,538.2223214285714,523.1285714285714,4378.8,538.2223214285714,523.1285714285714,4483.3,538.2223214285714,523.1285714285714,4583.4,538.2223214285714,523.1285714285714,4687.4,538.2223214285714,523.1285714285714,4794,538.2223214285714,523.1285714285714,4895.2]","[1424.9,1424.9,1000,0,424.9,""smooth"",""down"",""down"",""good_move"",4616.3,3190,2780.6,1426.4,409.3,""smooth"",""down"",""down"",""good_move"",6986.8,2370.2,1953.9,4616.6,416.3,""smooth"",""down"",""down"",""good_move"",13666.7,6679,2950.3,10351,365.4,""smooth"",""right"",""right"",""good_move"",16393.6,2725.8,2334.1,13667.8,391.7,""oops"",""right"",""up"",""bad_move"",19834.9,3440.7,1945.4,16394.2,1495.3,""smooth"",""right"",""right"",""good_move"",23060.8,3225.4,2806,19835.4,419.4,""smooth"",""right"",""right"",""good_move"",29443.2,6381.4,2825.7,26099,518.5,""smooth"",""down"",""down"",""good_move""]","",""
"8923","","<div style=""width:500px;"">
  <p>What determined the result of this run?</p>
  </div>","95","html-slider-response","75","1286063","0.0-5.0-1.13","212","1","2025-07-23 11:00:30","1f75c3e559b7213887762d5229550c2b","62.164.249.91","Mozilla/5.0 (Windows NT 10.0; Win64; x64) AppleWebKit/537.36 (KHTML, like Gecko) Chrome/132.0.0.0 Safari/537.36","WebKit","Chrome","132.0.0.0","Windows","10.0","https://app.prolific.com/","en-US,en;q=0.9","6792a60bf1238ae52e645ecb","683db9eb0562dbf637994deb","6880c083edc1442dcd649076","2","1","6792a60bf1238ae52e645ecb","2","1","2025-07-23T11:22:04.130Z","","","","","","","","","","","AttribQ","","50","","","","","","","","","","","","","","","","","","","","","","","","","","","","",""
"2628","","<div style=""width:500px;"">
  <p>How much control did you have over the ball?</p>
