"rt","response_timestamp","stimulus","response","trial_type","trial_index","time_elapsed","internal_node_id","run_id","condition","recorded_at","source_code_version","ip","user_agent","device","browser","browser_version","platform","platform_version","referer","accept_language","PROLIFIC_PID","STUDY_ID","SESSION_ID","WEEK","BATCH","prolific_id","week","batch","realtime","success","responses","item_order","radio_event_ids","radio_event_times","key_event_times","mouse_event_times","straightlining","zigzagging","honeypot","eventType","view_history","slider_start","which_type","canvas_config","goals_layout","control_level","trial_number","tutorial_trial_number","trial_start_time","phase1_start_time","phase2_start_time","phase3_start_time","goal_1_value","goal_1_distance","goal_2_value","goal_2_distance","goal_selected","outcome","outcome_total","participant_final_score","participant_initial_score","participant_final_score_prop","goal_choice_rt","allocated_time","allocated_time_remaining","goal_direction","counts","mouse_movements","key_presses","question_order","question_id"
"3784","1752653926569","<p style='font-size:40px;line-height:1.25'><strong>Welcome to the experiment!</strong></p><p style='font-size:1.1em;line-height:1.25'>Thank you for participanting in our experiment again! You will be asked to play the Dysfunctional Ball Game again. We will briefly recap the rules before we start.</p><p style='font-size:1.1em;line-height:1.25'>Press <strong>Next</strong> to continue.</p>","0","custom-html-button-response","0","3786","0.0-0.0","45","1","2025-07-16 08:18:10","1f75c3e559b7213887762d5229550c2b","192.143.69.125","Mozilla/5.0 (Windows NT 10.0; Win64; x64) AppleWebKit/537.36 (KHTML, like Gecko) Chrome/138.0.0.0 Safari/537.36 Edg/138.0.0.0","WebKit","Edge","138.0.0.0","Windows","10.0","https://app.prolific.com/","en-US,en;q=0.9","60c8a4ece55be5a30e0ccc5c","686e379bc37a29ffa5cdc956","6877601f4e150695a39af75d","1","1","60c8a4ece55be5a30e0ccc5c","1","1","2025-07-16T08:18:46.569Z","","","","","","","","","","","","","","","","","","","","","","","","","","","","","","","","","","","","","","","","","",""
"9283","","","","fullscreen","1","14078","0.0-1.0","45","1","2025-07-16 08:18:10","1f75c3e559b7213887762d5229550c2b","192.143.69.125","Mozilla/5.0 (Windows NT 10.0; Win64; x64) AppleWebKit/537.36 (KHTML, like Gecko) Chrome/138.0.0.0 Safari/537.36 Edg/138.0.0.0","WebKit","Edge","138.0.0.0","Windows","10.0","https://app.prolific.com/","en-US,en;q=0.9","60c8a4ece55be5a30e0ccc5c","686e379bc37a29ffa5cdc956","6877601f4e150695a39af75d","1","1","60c8a4ece55be5a30e0ccc5c","1","1","","true","","","","","","","","","","","","","","","","","","","","","","","","","","","","","","","","","","","","","","","","",""
"2646","1752653939508","<p style='font-size:1.1em;line-height:1.25'>In the following, we will ask you a few questions relating to your feelings in the last 24 hours.<br></p><p style='font-size:1.1em;line-height:1.25'>Press the <strong>Next</strong> button to continue.</p>","0","custom-html-button-response","2","16726","0.0-2.0-0.0","45","1","2025-07-16 08:18:10","1f75c3e559b7213887762d5229550c2b","192.143.69.125","Mozilla/5.0 (Windows NT 10.0; Win64; x64) AppleWebKit/537.36 (KHTML, like Gecko) Chrome/138.0.0.0 Safari/537.36 Edg/138.0.0.0","WebKit","Edge","138.0.0.0","Windows","10.0","https://app.prolific.com/","en-US,en;q=0.9","60c8a4ece55be5a30e0ccc5c","686e379bc37a29ffa5cdc956","6877601f4e150695a39af75d","1","1","60c8a4ece55be5a30e0ccc5c","1","1","2025-07-16T08:18:59.509Z","","","","","","","","","","","","","","","","","","","","","","","","","","","","","","","","","","","","","","","","","",""
"84160.60000000894","","","","survey-template","3","100904","0.0-2.0-1.0","45","1","2025-07-16 08:18:10","1f75c3e559b7213887762d5229550c2b","192.143.69.125","Mozilla/5.0 (Windows NT 10.0; Win64; x64) AppleWebKit/537.36 (KHTML, like Gecko) Chrome/138.0.0.0 Safari/537.36 Edg/138.0.0.0","WebKit","Edge","138.0.0.0","Windows","10.0","https://app.prolific.com/","en-US,en;q=0.9","60c8a4ece55be5a30e0ccc5c","686e379bc37a29ffa5cdc956","6877601f4e150695a39af75d","1","1","60c8a4ece55be5a30e0ccc5c","1","1","2025-07-16T08:20:23.687Z","","{""Q01"":""2"",""Q02"":""0"",""Q03"":""0"",""Q04"":""1"",""Q05"":""3"",""Q06"":""1"",""Q07"":""1"",""Q08"":""0"",""Q09"":""1"",""Q10"":""1"",""Q11"":""2"",""Q12"":""1"",""Q13"":""5"",""Q14"":""3"",""Q15"":""0"",""Q16"":""2"",""Q17"":""1"",""Q18"":""0"",""Q19"":""4"",""Q20"":""4"",""Q21"":""4"",""Q22"":""2""}","[0,1,2,3,4,5,6,7,8,9,10,11,12,13,14,15,16,17,18,19,20,21]","[""Q01"",""Q02"",""Q03"",""Q04"",""Q05"",""Q06"",""Q07"",""Q08"",""Q09"",""Q10"",""Q11"",""Q12"",""Q13"",""Q14"",""Q15"",""Q16"",""Q17"",""Q18"",""Q19"",""Q20"",""Q21"",""Q22""]","[3831.2000000029802,8664.10000000894,9826.70000000298,11286.5,13048.20000000298,15476.60000000894,16992.90000000596,19184.60000000894,30770.29999999702,32241.60000000894,34727.29999999702,37136,39987,44240.5,47923.70000000298,50323.79999999702,58546.60000000894,60131.40000000596,64970.60000000894,71975.20000000298,77038.20000000298,82314.60000000894]","[]","[0.29999999701976776,3831.2000000029802,7268.29999999702,8664.10000000894,9826.70000000298,11286.5,13048.20000000298,15476.60000000894,16992.90000000596,19184.60000000894,28303.29999999702,29375.20000000298,30770.29999999702,32241.60000000894,34727.29999999702,37136,39987,44240.5,47923.70000000298,50323.79999999702,57273.90000000596,58546.60000000894,60131.40000000596,64970.60000000894,71975.20000000298,77038.20000000298,81103.70000000298,82314.60000000894,84147.90000000596]","0.3181818181818182","0.3333333333333333","0","drsp","","","","","","","","","","","","","","","","","","","","","","","","","","","","","","",""
"13753.60000000894","","","","survey-template","4","114661","0.0-2.0-2.0","45","1","2025-07-16 08:18:10","1f75c3e559b7213887762d5229550c2b","192.143.69.125","Mozilla/5.0 (Windows NT 10.0; Win64; x64) AppleWebKit/537.36 (KHTML, like Gecko) Chrome/138.0.0.0 Safari/537.36 Edg/138.0.0.0","WebKit","Edge","138.0.0.0","Windows","10.0","https://app.prolific.com/","en-US,en;q=0.9","60c8a4ece55be5a30e0ccc5c","686e379bc37a29ffa5cdc956","6877601f4e150695a39af75d","1","1","60c8a4ece55be5a30e0ccc5c","1","1","2025-07-16T08:20:37.445Z","","{""Q01"":""1"",""Q02"":""3"",""Q03"":""2""}","[0,1,2]","[""Q01"",""Q02"",""Q03""]","[3479.1000000089407,7395.300000011921,12254.5]","[]","[3479.1000000089407,7395.300000011921,12254.5,13752.20000000298]","0.6666666666666666","0.5","0","stress","","","","","","","","","","","","","","","","","","","","","","","","","","","","","","",""
"6523","","","","instructions","5","121186","0.0-3.0-0.0","45","1","2025-07-16 08:18:10","1f75c3e559b7213887762d5229550c2b","192.143.69.125","Mozilla/5.0 (Windows NT 10.0; Win64; x64) AppleWebKit/537.36 (KHTML, like Gecko) Chrome/138.0.0.0 Safari/537.36 Edg/138.0.0.0","WebKit","Edge","138.0.0.0","Windows","10.0","https://app.prolific.com/","en-US,en;q=0.9","60c8a4ece55be5a30e0ccc5c","686e379bc37a29ffa5cdc956","6877601f4e150695a39af75d","1","1","60c8a4ece55be5a30e0ccc5c","1","1","","","","","","","","","","","","","[{""page_index"":0,""viewing_time"":6522}]","","","","","","","","","","","","","","","","","","","","","","","","","","","","","",""
"6889","","<p>Before you start with this game please answer the following three questions yourself. </p>
  <p>Through this game, we measure several aspects of your cognitive performance, such as reaction times, multi-tasking capabilities </p>
  <p>and the ability to assess the situation you are in.</p>
  <p></p>
  <p><b>How good do you usually are in such tasks?</b></p>","85","html-slider-response","6","128079","0.0-4.0-0.0","45","1","2025-07-16 08:18:10","1f75c3e559b7213887762d5229550c2b","192.143.69.125","Mozilla/5.0 (Windows NT 10.0; Win64; x64) AppleWebKit/537.36 (KHTML, like Gecko) Chrome/138.0.0.0 Safari/537.36 Edg/138.0.0.0","WebKit","Edge","138.0.0.0","Windows","10.0","https://app.prolific.com/","en-US,en;q=0.9","60c8a4ece55be5a30e0ccc5c","686e379bc37a29ffa5cdc956","6877601f4e150695a39af75d","1","1","60c8a4ece55be5a30e0ccc5c","1","1","2025-07-16T08:20:50.862Z","","","","","","","","","","","PreSkillQ","","50","","","","","","","","","","","","","","","","","","","","","","","","","","","","",""
"5654","","<div style=""width:500px;"">
  <p>How well do you think you will perform in this task compared to other participants?</p>
  </div>","81","html-slider-response","7","133735","0.0-4.0-1.0","45","1","2025-07-16 08:18:10","1f75c3e559b7213887762d5229550c2b","192.143.69.125","Mozilla/5.0 (Windows NT 10.0; Win64; x64) AppleWebKit/537.36 (KHTML, like Gecko) Chrome/138.0.0.0 Safari/537.36 Edg/138.0.0.0","WebKit","Edge","138.0.0.0","Windows","10.0","https://app.prolific.com/","en-US,en;q=0.9","60c8a4ece55be5a30e0ccc5c","686e379bc37a29ffa5cdc956","6877601f4e150695a39af75d","1","1","60c8a4ece55be5a30e0ccc5c","1","1","2025-07-16T08:20:56.518Z","","","","","","","","","","","PrePerfQ","","50","","","","","","","","","","","","","","","","","","","","","","","","","","","","",""
"3994","","<div style=""width:500px;"">
  <p>What best describes how you currently feel?</p>
  </div>","74","html-slider-response","8","137732","0.0-4.0-2.0","45","1","2025-07-16 08:18:10","1f75c3e559b7213887762d5229550c2b","192.143.69.125","Mozilla/5.0 (Windows NT 10.0; Win64; x64) AppleWebKit/537.36 (KHTML, like Gecko) Chrome/138.0.0.0 Safari/537.36 Edg/138.0.0.0","WebKit","Edge","138.0.0.0","Windows","10.0","https://app.prolific.com/","en-US,en;q=0.9","60c8a4ece55be5a30e0ccc5c","686e379bc37a29ffa5cdc956","6877601f4e150695a39af75d","1","1","60c8a4ece55be5a30e0ccc5c","1","1","2025-07-16T08:21:00.516Z","","","","","","","","","","","PreMotivationQ","","50","","","","","","","","","","","","","","","","","","","","","","","","","","","","",""
"","","","","ctl-task-cpt","9","161242","0.0-5.0-0.0","45","1","2025-07-16 08:18:10","1f75c3e559b7213887762d5229550c2b","192.143.69.125","Mozilla/5.0 (Windows NT 10.0; Win64; x64) AppleWebKit/537.36 (KHTML, like Gecko) Chrome/138.0.0.0 Safari/537.36 Edg/138.0.0.0","WebKit","Edge","138.0.0.0","Windows","10.0","https://app.prolific.com/","en-US,en;q=0.9","60c8a4ece55be5a30e0ccc5c","686e379bc37a29ffa5cdc956","6877601f4e150695a39af75d","1","1","60c8a4ece55be5a30e0ccc5c","1","1","2025-07-16T08:21:24.025Z","","","","","","","","","","","","","","win-only","0","g1:NW,g2:SE","1","1","0","173122.4","3055.8","8056.4","20499.6","1","4","8","6","1","1","1","1","0","0.007575757575757576","1625.9","3000","1345","[""left"",""up""]","{""num_key_presses"":4,""num_perfect"":4,""num_errors"":0,""num_randdir"":0,""num_randdir_good_moves"":0,""num_whilered"":0,""num_whileblue"":0,""num_blue"":0,""num_good_moves"":4}","[292.22232142857143,292.12857142857143,0.4,292.22232142857143,292.12857142857143,100.7,292.22232142857143,292.12857142857143,204.4,292.22232142857143,292.12857142857143,304.5,292.22232142857143,292.12857142857143,405.1,292.22232142857143,292.12857142857143,511.6,292.22232142857143,292.12857142857143,614.6,227.22232142857143,225.12857142857143,715.7,184.22232142857143,164.12857142857143,815.8,152.22232142857143,137.12857142857143,915.9,109.22232142857143,123.12857142857143,1022.1,89.22232142857143,112.12857142857143,1126.1,63.222321428571426,87.12857142857143,1226.1,40.222321428571426,34.128571428571426,1330.3,33.222321428571426,21.128571428571426,1431.3,33.222321428571426,21.128571428571426,1531.5,33.222321428571426,21.128571428571426,1639,33.222321428571426,21.128571428571426,1739.7,33.222321428571426,21.128571428571426,1840.4,33.222321428571426,21.128571428571426,1940.4,33.222321428571426,21.128571428571426,2040.5,33.222321428571426,21.128571428571426,2144.9,35.222321428571426,23.128571428571426,2245.7,61.222321428571426,52.128571428571426,2351,85.22232142857143,100.12857142857143,2455.3,112.22232142857143,144.12857142857143,2555.4,127.22232142857143,189.12857142857143,2661.2,143.22232142857143,222.12857142857143,2765.6,158.22232142857143,234.12857142857143,2865.8,158.22232142857143,234.12857142857143,2970.3,158.22232142857143,234.12857142857143,3075.1,158.22232142857143,234.12857142857143,3175.6,158.22232142857143,234.12857142857143,3281.6,158.22232142857143,234.12857142857143,3386.2,158.22232142857143,234.12857142857143,3489.4,158.22232142857143,234.12857142857143,3591.9,158.22232142857143,234.12857142857143,3695.6,158.22232142857143,234.12857142857143,3796.1,158.22232142857143,234.12857142857143,3901.6,158.22232142857143,234.12857142857143,4005.2,158.22232142857143,234.12857142857143,4111.2,158.22232142857143,234.12857142857143,4215.4,158.22232142857143,234.12857142857143,4319.7,158.22232142857143,234.12857142857143,4426.2,158.22232142857143,234.12857142857143,4531.4,158.22232142857143,234.12857142857143,4635.5,158.22232142857143,234.12857142857143,4740.5,158.22232142857143,234.12857142857143,4840.9,158.22232142857143,234.12857142857143,4941.8]","[1405.3,1405.3,1000,0,405.3,""smooth"",""left"",""left"",""good_move"",5329.4,3924.1,3563.9,1405.4,360.1,""smooth"",""left"",""left"",""good_move"",8623,3293.5,2855.1,5329.6,438.3,""smooth"",""up"",""up"",""good_move"",12337.5,3714.4,3167.9,8623.2,546.5,""smooth"",""up"",""up"",""good_move""]","",""
"4321","","<div style=""width:500px;"">
  <p>What determined the result of this run?</p>
  </div>","96","html-slider-response","10","165564","0.0-5.0-1.0","45","1","2025-07-16 08:18:10","1f75c3e559b7213887762d5229550c2b","192.143.69.125","Mozilla/5.0 (Windows NT 10.0; Win64; x64) AppleWebKit/537.36 (KHTML, like Gecko) Chrome/138.0.0.0 Safari/537.36 Edg/138.0.0.0","WebKit","Edge","138.0.0.0","Windows","10.0","https://app.prolific.com/","en-US,en;q=0.9","60c8a4ece55be5a30e0ccc5c","686e379bc37a29ffa5cdc956","6877601f4e150695a39af75d","1","1","60c8a4ece55be5a30e0ccc5c","1","1","2025-07-16T08:21:28.347Z","","","","","","","","","","","AttribQ","","50","","","","","","","","","","","","","","","","","","","","","","","","","","","","",""
"3982","","<div style=""width:500px;"">
  <p>How much control did you have over the ball?</p>
  </div>","95","html-slider-response","11","169546","0.0-5.0-2.0","45","1","2025-07-16 08:18:10","1f75c3e559b7213887762d5229550c2b","192.143.69.125","Mozilla/5.0 (Windows NT 10.0; Win64; x64) AppleWebKit/537.36 (KHTML, like Gecko) Chrome/138.0.0.0 Safari/537.36 Edg/138.0.0.0","WebKit","Edge","138.0.0.0","Windows","10.0","https://app.prolific.com/","en-US,en;q=0.9","60c8a4ece55be5a30e0ccc5c","686e379bc37a29ffa5cdc956","6877601f4e150695a39af75d","1","1","60c8a4ece55be5a30e0ccc5c","1","1","2025-07-16T08:21:32.329Z","","","","","","","","","","","ControlQ","","50","","","","","","","","","","","","","","","","","","","","","","","","","","","","",""
"4005","","<div style=""width:500px;"">
  <p>How would you describe your current emotional state?</p>
  </div>","9","html-slider-response","12","173553","0.0-5.0-3.0","45","1","2025-07-16 08:18:10","1f75c3e559b7213887762d5229550c2b","192.143.69.125","Mozilla/5.0 (Windows NT 10.0; Win64; x64) AppleWebKit/537.36 (KHTML, like Gecko) Chrome/138.0.0.0 Safari/537.36 Edg/138.0.0.0","WebKit","Edge","138.0.0.0","Windows","10.0","https://app.prolific.com/","en-US,en;q=0.9","60c8a4ece55be5a30e0ccc5c","686e379bc37a29ffa5cdc956","6877601f4e150695a39af75d","1","1","60c8a4ece55be5a30e0ccc5c","1","1","2025-07-16T08:21:36.336Z","","","","","","","","","","","StressQ","","50","","","","","","","","","","","","","","","","","","","","","","","","","","","","",""
"3784","","<div style=""width:500px;"">
  <p>What best describes how you currently feel?</p>
  </div>","82","html-slider-response","13","177338","0.0-5.0-4.0","45","1","2025-07-16 08:18:10","1f75c3e559b7213887762d5229550c2b","192.143.69.125","Mozilla/5.0 (Windows NT 10.0; Win64; x64) AppleWebKit/537.36 (KHTML, like Gecko) Chrome/138.0.0.0 Safari/537.36 Edg/138.0.0.0","WebKit","Edge","138.0.0.0","Windows","10.0","https://app.prolific.com/","en-US,en;q=0.9","60c8a4ece55be5a30e0ccc5c","686e379bc37a29ffa5cdc956","6877601f4e150695a39af75d","1","1","60c8a4ece55be5a30e0ccc5c","1","1","2025-07-16T08:21:40.122Z","","","","","","","","","","","MotivationQ","","50","","","","","","","","","","","","","","","","","","","","","","","","","","","","",""
"","","","","ctl-task-cpt","14","198298","0.0-5.0-0.1","45","1","2025-07-16 08:18:10","1f75c3e559b7213887762d5229550c2b","192.143.69.125","Mozilla/5.0 (Windows NT 10.0; Win64; x64) AppleWebKit/537.36 (KHTML, like Gecko) Chrome/138.0.0.0 Safari/537.36 Edg/138.0.0.0","WebKit","Edge","138.0.0.0","Windows","10.0","https://app.prolific.com/","en-US,en;q=0.9","60c8a4ece55be5a30e0ccc5c","686e379bc37a29ffa5cdc956","6877601f4e150695a39af75d","1","1","60c8a4ece55be5a30e0ccc5c","1","1","2025-07-16T08:22:01.081Z","","","","","","","","","","","","","","win-only","2","g1:SE,g2:NW","0.9","2","0","212726","1304.3","6307.5","17941.2","1","4","4","6","1","1","1","2","1","0.015151515151515152","1784.3","3000","1070","[""down"",""right""]","{""num_key_presses"":4,""num_perfect"":4,""num_errors"":0,""num_randdir"":0,""num_randdir_good_moves"":0,""num_whilered"":0,""num_whileblue"":0,""num_blue"":0,""num_good_moves"":4}","[292.22232142857143,299.12857142857143,0.2,292.22232142857143,299.12857142857143,101.9,292.22232142857143,299.12857142857143,202.3,292.22232142857143,299.12857142857143,306.6,292.22232142857143,299.12857142857143,406.9,292.22232142857143,299.12857142857143,512.4,292.22232142857143,299.12857142857143,613.1,292.22232142857143,299.12857142857143,717.2,292.22232142857143,299.12857142857143,817.6,439.22232142857143,384.12857142857143,922.4,475.22232142857143,439.12857142857143,1026.3,488.22232142857143,473.12857142857143,1127,496.22232142857143,499.12857142857143,1232.9,548.2223214285714,522.1285714285714,1336.5,564.2223214285714,535.1285714285714,1437.7,565.2223214285714,536.1285714285714,1542.4,565.2223214285714,536.1285714285714,1642.7,565.2223214285714,536.1285714285714,1746.1,565.2223214285714,536.1285714285714,1846.1,565.2223214285714,536.1285714285714,1946.8,565.2223214285714,536.1285714285714,2047.2,565.2223214285714,536.1285714285714,2152.3,565.2223214285714,536.1285714285714,2252.7,449.22232142857143,655.1285714285714,2356.6,403.22232142857143,683.1285714285714,2462.6,403.22232142857143,683.1285714285714,2567.7,403.22232142857143,683.1285714285714,2671.4,403.22232142857143,683.1285714285714,2771.4,403.22232142857143,683.1285714285714,2871.4,403.22232142857143,683.1285714285714,2976.1,403.22232142857143,683.1285714285714,3076.4,403.22232142857143,683.1285714285714,3176.8,403.22232142857143,683.1285714285714,3282.9,403.22232142857143,683.1285714285714,3386.5,403.22232142857143,683.1285714285714,3486.5,403.22232142857143,683.1285714285714,3586.6,403.22232142857143,683.1285714285714,3693.2,403.22232142857143,683.1285714285714,3796.1,403.22232142857143,683.1285714285714,3896.2,403.22232142857143,683.1285714285714,3996.3,403.22232142857143,683.1285714285714,4102.5,403.22232142857143,683.1285714285714,4207.2,403.22232142857143,683.1285714285714,4307.6,403.22232142857143,683.1285714285714,4412.2,403.22232142857143,683.1285714285714,4512.5,403.22232142857143,683.1285714285714,4612.5,403.22232142857143,683.1285714285714,4712.6,403.22232142857143,683.1285714285714,4816.6,403.22232142857143,683.1285714285714,4916.9]","[1408.5,1408.5,1000,0,408.5,""smooth"",""down"",""down"",""good_move"",4572.3,3163,2705.2,1409.4,457.7,""smooth"",""right"",""right"",""good_move"",7234.4,2661.7,2305.7,4572.7,356,""smooth"",""right"",""right"",""good_move"",11547.2,4312.6,3583.8,7234.6,728.8,""smooth"",""down"",""down"",""good_move""]","",""
"5818","","<div style=""width:500px;"">
  <p>What determined the result of this run?</p>
  </div>","99","html-slider-response","15","204117","0.0-5.0-1.1","45","1","2025-07-16 08:18:10","1f75c3e559b7213887762d5229550c2b","192.143.69.125","Mozilla/5.0 (Windows NT 10.0; Win64; x64) AppleWebKit/537.36 (KHTML, like Gecko) Chrome/138.0.0.0 Safari/537.36 Edg/138.0.0.0","WebKit","Edge","138.0.0.0","Windows","10.0","https://app.prolific.com/","en-US,en;q=0.9","60c8a4ece55be5a30e0ccc5c","686e379bc37a29ffa5cdc956","6877601f4e150695a39af75d","1","1","60c8a4ece55be5a30e0ccc5c","1","1","2025-07-16T08:22:06.900Z","","","","","","","","","","","AttribQ","","50","","","","","","","","","","","","","","","","","","","","","","","","","","","","",""
"2956","","<div style=""width:500px;"">
  <p>How much control did you have over the ball?</p>
  </div>","97","html-slider-response","16","207075","0.0-5.0-2.1","45","1","2025-07-16 08:18:10","1f75c3e559b7213887762d5229550c2b","192.143.69.125","Mozilla/5.0 (Windows NT 10.0; Win64; x64) AppleWebKit/537.36 (KHTML, like Gecko) Chrome/138.0.0.0 Safari/537.36 Edg/138.0.0.0","WebKit","Edge","138.0.0.0","Windows","10.0","https://app.prolific.com/","en-US,en;q=0.9","60c8a4ece55be5a30e0ccc5c","686e379bc37a29ffa5cdc956","6877601f4e150695a39af75d","1","1","60c8a4ece55be5a30e0ccc5c","1","1","2025-07-16T08:22:09.858Z","","","","","","","","","","","ControlQ","","50","","","","","","","","","","","","","","","","","","","","","","","","","","","","",""
"2457","","<div style=""width:500px;"">
  <p>How would you describe your current emotional state?</p>
  </div>","8","html-slider-response","17","209533","0.0-5.0-3.1","45","1","2025-07-16 08:18:10","1f75c3e559b7213887762d5229550c2b","192.143.69.125","Mozilla/5.0 (Windows NT 10.0; Win64; x64) AppleWebKit/537.36 (KHTML, like Gecko) Chrome/138.0.0.0 Safari/537.36 Edg/138.0.0.0","WebKit","Edge","138.0.0.0","Windows","10.0","https://app.prolific.com/","en-US,en;q=0.9","60c8a4ece55be5a30e0ccc5c","686e379bc37a29ffa5cdc956","6877601f4e150695a39af75d","1","1","60c8a4ece55be5a30e0ccc5c","1","1","2025-07-16T08:22:12.317Z","","","","","","","","","","","StressQ","","50","","","","","","","","","","","","","","","","","","","","","","","","","","","","",""
"3046","","<div style=""width:500px;"">
  <p>What best describes how you currently feel?</p>
  </div>","90","html-slider-response","18","212581","0.0-5.0-4.1","45","1","2025-07-16 08:18:10","1f75c3e559b7213887762d5229550c2b","192.143.69.125","Mozilla/5.0 (Windows NT 10.0; Win64; x64) AppleWebKit/537.36 (KHTML, like Gecko) Chrome/138.0.0.0 Safari/537.36 Edg/138.0.0.0","WebKit","Edge","138.0.0.0","Windows","10.0","https://app.prolific.com/","en-US,en;q=0.9","60c8a4ece55be5a30e0ccc5c","686e379bc37a29ffa5cdc956","6877601f4e150695a39af75d","1","1","60c8a4ece55be5a30e0ccc5c","1","1","2025-07-16T08:22:15.364Z","","","","","","","","","","","MotivationQ","","50","","","","","","","","","","","","","","","","","","","","","","","","","","","","",""
"","","","","ctl-task-cpt","19","233479","0.0-5.0-0.2","45","1","2025-07-16 08:18:10","1f75c3e559b7213887762d5229550c2b","192.143.69.125","Mozilla/5.0 (Windows NT 10.0; Win64; x64) AppleWebKit/537.36 (KHTML, like Gecko) Chrome/138.0.0.0 Safari/537.36 Edg/138.0.0.0","WebKit","Edge","138.0.0.0","Windows","10.0","https://app.prolific.com/","en-US,en;q=0.9","60c8a4ece55be5a30e0ccc5c","686e379bc37a29ffa5cdc956","6877601f4e150695a39af75d","1","1","60c8a4ece55be5a30e0ccc5c","1","1","2025-07-16T08:22:36.262Z","","","","","","","","","","","","","","win-only","3","g1:SW,g2:NE","0.8","3","0","247967.9","2278.2","7281.2","17880.8","1","4","8","6","1","1","1","3","2","0.022727272727272728","1627.6","3000","1570","[""down"",""left""]","{""num_key_presses"":4,""num_perfect"":2,""num_errors"":0,""num_randdir"":2,""num_randdir_good_moves"":2,""num_whilered"":0,""num_whileblue"":0,""num_blue"":0,""num_good_moves"":4}","[294.22232142857143,297.12857142857143,0.2,294.22232142857143,297.12857142857143,103.4,294.22232142857143,297.12857142857143,208.2,294.22232142857143,297.12857142857143,308.5,294.22232142857143,297.12857142857143,413.8,294.22232142857143,297.12857142857143,519.3,294.22232142857143,297.12857142857143,622.7,198.22232142857143,375.12857142857143,729.1,128.22232142857143,454.12857142857143,832,112.22232142857143,477.12857142857143,932.9,96.22232142857143,498.12857142857143,1038.2,44.222321428571426,546.1285714285714,1142.9,18.222321428571426,564.1285714285714,1248.8,15.222321428571426,564.1285714285714,1348.7,15.222321428571426,564.1285714285714,1449,15.222321428571426,564.1285714285714,1553.6,15.222321428571426,564.1285714285714,1657.5,15.222321428571426,564.1285714285714,1757.6,15.222321428571426,564.1285714285714,1860,15.222321428571426,564.1285714285714,1962.8,15.222321428571426,564.1285714285714,2063.2,15.222321428571426,564.1285714285714,2168.6,135.22232142857143,583.1285714285714,2269.1,212.22232142857143,629.1285714285714,2373.7,250.22232142857143,652.1285714285714,2478.2,250.22232142857143,652.1285714285714,2583.4,250.22232142857143,652.1285714285714,2687.6,250.22232142857143,652.1285714285714,2788.3,250.22232142857143,652.1285714285714,2893.8,250.22232142857143,652.1285714285714,2998.9,250.22232142857143,652.1285714285714,3098.9,250.22232142857143,652.1285714285714,3203.1,250.22232142857143,652.1285714285714,3303.4,250.22232142857143,652.1285714285714,3403.6,250.22232142857143,652.1285714285714,3507.3,250.22232142857143,652.1285714285714,3613.5,250.22232142857143,652.1285714285714,3718.8,250.22232142857143,652.1285714285714,3823.5,250.22232142857143,652.1285714285714,3928.3,250.22232142857143,652.1285714285714,4028.8,250.22232142857143,652.1285714285714,4133.5,250.22232142857143,652.1285714285714,4233.6,250.22232142857143,652.1285714285714,4338.6,250.22232142857143,652.1285714285714,4438.9,250.22232142857143,652.1285714285714,4542.9,250.22232142857143,652.1285714285714,4643.8,250.22232142857143,652.1285714285714,4748.8,250.22232142857143,652.1285714285714,4853.7,250.22232142857143,652.1285714285714,4957.2]","[1366.7,1366.7,1000,0,366.7,""oops"",""left"",""down"",""good_move"",4656.7,3289.4,2899.5,1367.5,389.8,""smooth"",""left"",""left"",""good_move"",7698.9,3041.8,2706.6,4657.1,335.2,""oops"",""left"",""down"",""good_move"",10507.5,2808.4,2447.1,7699.1,361.3,""smooth"",""left"",""left"",""good_move""]","",""
"3994","","<div style=""width:500px;"">
  <p>What determined the result of this run?</p>
  </div>","98","html-slider-response","20","237474","0.0-5.0-1.2","45","1","2025-07-16 08:18:10","1f75c3e559b7213887762d5229550c2b","192.143.69.125","Mozilla/5.0 (Windows NT 10.0; Win64; x64) AppleWebKit/537.36 (KHTML, like Gecko) Chrome/138.0.0.0 Safari/537.36 Edg/138.0.0.0","WebKit","Edge","138.0.0.0","Windows","10.0","https://app.prolific.com/","en-US,en;q=0.9","60c8a4ece55be5a30e0ccc5c","686e379bc37a29ffa5cdc956","6877601f4e150695a39af75d","1","1","60c8a4ece55be5a30e0ccc5c","1","1","2025-07-16T08:22:40.257Z","","","","","","","","","","","AttribQ","","50","","","","","","","","","","","","","","","","","","","","","","","","","","","","",""
"2802","","<div style=""width:500px;"">
  <p>How much control did you have over the ball?</p>
  </div>","78","html-slider-response","21","240277","0.0-5.0-2.2","45","1","2025-07-16 08:18:10","1f75c3e559b7213887762d5229550c2b","192.143.69.125","Mozilla/5.0 (Windows NT 10.0; Win64; x64) AppleWebKit/537.36 (KHTML, like Gecko) Chrome/138.0.0.0 Safari/537.36 Edg/138.0.0.0","WebKit","Edge","138.0.0.0","Windows","10.0","https://app.prolific.com/","en-US,en;q=0.9","60c8a4ece55be5a30e0ccc5c","686e379bc37a29ffa5cdc956","6877601f4e150695a39af75d","1","1","60c8a4ece55be5a30e0ccc5c","1","1","2025-07-16T08:22:43.061Z","","","","","","","","","","","ControlQ","","50","","","","","","","","","","","","","","","","","","","","","","","","","","","","",""
"3854","","<div style=""width:500px;"">
  <p>How would you describe your current emotional state?</p>
  </div>","17","html-slider-response","22","244134","0.0-5.0-3.2","45","1","2025-07-16 08:18:10","1f75c3e559b7213887762d5229550c2b","192.143.69.125","Mozilla/5.0 (Windows NT 10.0; Win64; x64) AppleWebKit/537.36 (KHTML, like Gecko) Chrome/138.0.0.0 Safari/537.36 Edg/138.0.0.0","WebKit","Edge","138.0.0.0","Windows","10.0","https://app.prolific.com/","en-US,en;q=0.9","60c8a4ece55be5a30e0ccc5c","686e379bc37a29ffa5cdc956","6877601f4e150695a39af75d","1","1","60c8a4ece55be5a30e0ccc5c","1","1","2025-07-16T08:22:46.917Z","","","","","","","","","","","StressQ","","50","","","","","","","","","","","","","","","","","","","","","","","","","","","","",""
"2876","","<div style=""width:500px;"">
  <p>What best describes how you currently feel?</p>
  </div>","90","html-slider-response","23","247011","0.0-5.0-4.2","45","1","2025-07-16 08:18:10","1f75c3e559b7213887762d5229550c2b","192.143.69.125","Mozilla/5.0 (Windows NT 10.0; Win64; x64) AppleWebKit/537.36 (KHTML, like Gecko) Chrome/138.0.0.0 Safari/537.36 Edg/138.0.0.0","WebKit","Edge","138.0.0.0","Windows","10.0","https://app.prolific.com/","en-US,en;q=0.9","60c8a4ece55be5a30e0ccc5c","686e379bc37a29ffa5cdc956","6877601f4e150695a39af75d","1","1","60c8a4ece55be5a30e0ccc5c","1","1","2025-07-16T08:22:49.794Z","","","","","","","","","","","MotivationQ","","50","","","","","","","","","","","","","","","","","","","","","","","","","","","","",""
"","","","","ctl-task-cpt","24","277859","0.0-5.0-0.3","45","1","2025-07-16 08:18:10","1f75c3e559b7213887762d5229550c2b","192.143.69.125","Mozilla/5.0 (Windows NT 10.0; Win64; x64) AppleWebKit/537.36 (KHTML, like Gecko) Chrome/138.0.0.0 Safari/537.36 Edg/138.0.0.0","WebKit","Edge","138.0.0.0","Windows","10.0","https://app.prolific.com/","en-US,en;q=0.9","60c8a4ece55be5a30e0ccc5c","686e379bc37a29ffa5cdc956","6877601f4e150695a39af75d","1","1","60c8a4ece55be5a30e0ccc5c","1","1","2025-07-16T08:23:20.642Z","","","","","","","","","","","","","","win-only","3","g1:SW,g2:NE","0.7","4","0","282398","1687.1","6691.9","27831.7","1","4","4","6","1","-1","-1","2","3","0.015151515151515152","1548.1","3000","-3000","[""down"",""left""]","{""num_key_presses"":6,""num_perfect"":4,""num_errors"":0,""num_randdir"":2,""num_randdir_good_moves"":0,""num_whilered"":0,""num_whileblue"":0,""num_blue"":1,""num_good_moves"":4}","[302.22232142857143,296.12857142857143,0.4,302.22232142857143,296.12857142857143,106.3,302.22232142857143,296.12857142857143,208.3,302.22232142857143,296.12857142857143,309.1,302.22232142857143,296.12857142857143,410,302.22232142857143,296.12857142857143,514.8,276.22232142857143,325.12857142857143,614.9,196.22232142857143,420.12857142857143,718.9,149.22232142857143,485.12857142857143,824,144.22232142857143,494.12857142857143,924.5,132.22232142857143,508.12857142857143,1025.5,106.22232142857143,526.1285714285714,1125.9,87.22232142857143,529.1285714285714,1228.6,72.22232142857143,529.1285714285714,1334.2,69.22232142857143,529.1285714285714,1435.1,69.22232142857143,529.1285714285714,1538.7,69.22232142857143,529.1285714285714,1646.5,69.22232142857143,529.1285714285714,1748.9,69.22232142857143,529.1285714285714,1854.5,69.22232142857143,529.1285714285714,1954.8,69.22232142857143,529.1285714285714,2059.5,74.22232142857143,531.1285714285714,2163.4,149.22232142857143,581.1285714285714,2264.1,216.22232142857143,645.1285714285714,2368.1,237.22232142857143,661.1285714285714,2469.2,237.22232142857143,661.1285714285714,2574.2,237.22232142857143,661.1285714285714,2678.9,237.22232142857143,661.1285714285714,2784,237.22232142857143,661.1285714285714,2889,237.22232142857143,661.1285714285714,2989.3,237.22232142857143,661.1285714285714,3090.1,237.22232142857143,661.1285714285714,3193.2,237.22232142857143,661.1285714285714,3294,237.22232142857143,661.1285714285714,3394.5,237.22232142857143,661.1285714285714,3498.6,237.22232142857143,661.1285714285714,3603.8,237.22232142857143,661.1285714285714,3704,237.22232142857143,661.1285714285714,3808.4,237.22232142857143,661.1285714285714,3913.9,237.22232142857143,661.1285714285714,4014.2,237.22232142857143,661.1285714285714,4114.2,237.22232142857143,661.1285714285714,4218.2,237.22232142857143,661.1285714285714,4318.9,237.22232142857143,661.1285714285714,4423.6,237.22232142857143,661.1285714285714,4524,237.22232142857143,661.1285714285714,4628,237.22232142857143,661.1285714285714,4728.4,237.22232142857143,661.1285714285714,4828.6,237.22232142857143,661.1285714285714,4933.8]","[1371.1,1371.1,1000,0,371.1,""smooth"",""left"",""left"",""good_move"",4302.2,2930.8,2528.1,1371.4,402.7,""smooth"",""left"",""left"",""good_move"",6765.5,2463.1,2083.3,4302.4,379.9,""smooth"",""down"",""down"",""good_move"",8853.6,2087.5,1628.7,6766.2,458.7,""oops"",""down"",""right"",""bad_move"",11898.1,3044.2,2323.8,8853.9,720.4,""smooth"",""down"",""down"",""good_move"",14828.6,2930.2,2554.8,11898.4,375.4,""oops"",""left"",""right"",""bad_move""]","",""
"7700","","<div style=""width:500px;"">
  <p>What determined the result of this run?</p>
  </div>","38","html-slider-response","25","285560","0.0-5.0-1.3","45","1","2025-07-16 08:18:10","1f75c3e559b7213887762d5229550c2b","192.143.69.125","Mozilla/5.0 (Windows NT 10.0; Win64; x64) AppleWebKit/537.36 (KHTML, like Gecko) Chrome/138.0.0.0 Safari/537.36 Edg/138.0.0.0","WebKit","Edge","138.0.0.0","Windows","10.0","https://app.prolific.com/","en-US,en;q=0.9","60c8a4ece55be5a30e0ccc5c","686e379bc37a29ffa5cdc956","6877601f4e150695a39af75d","1","1","60c8a4ece55be5a30e0ccc5c","1","1","2025-07-16T08:23:28.343Z","","","","","","","","","","","AttribQ","","50","","","","","","","","","","","","","","","","","","","","","","","","","","","","",""
"3552","","<div style=""width:500px;"">
  <p>How much control did you have over the ball?</p>
  </div>","42","html-slider-response","26","289113","0.0-5.0-2.3","45","1","2025-07-16 08:18:10","1f75c3e559b7213887762d5229550c2b","192.143.69.125","Mozilla/5.0 (Windows NT 10.0; Win64; x64) AppleWebKit/537.36 (KHTML, like Gecko) Chrome/138.0.0.0 Safari/537.36 Edg/138.0.0.0","WebKit","Edge","138.0.0.0","Windows","10.0","https://app.prolific.com/","en-US,en;q=0.9","60c8a4ece55be5a30e0ccc5c","686e379bc37a29ffa5cdc956","6877601f4e150695a39af75d","1","1","60c8a4ece55be5a30e0ccc5c","1","1","2025-07-16T08:23:31.896Z","","","","","","","","","","","ControlQ","","50","","","","","","","","","","","","","","","","","","","","","","","","","","","","",""
"3561","","<div style=""width:500px;"">
  <p>How would you describe your current emotional state?</p>
  </div>","56","html-slider-response","27","292675","0.0-5.0-3.3","45","1","2025-07-16 08:18:10","1f75c3e559b7213887762d5229550c2b","192.143.69.125","Mozilla/5.0 (Windows NT 10.0; Win64; x64) AppleWebKit/537.36 (KHTML, like Gecko) Chrome/138.0.0.0 Safari/537.36 Edg/138.0.0.0","WebKit","Edge","138.0.0.0","Windows","10.0","https://app.prolific.com/","en-US,en;q=0.9","60c8a4ece55be5a30e0ccc5c","686e379bc37a29ffa5cdc956","6877601f4e150695a39af75d","1","1","60c8a4ece55be5a30e0ccc5c","1","1","2025-07-16T08:23:35.458Z","","","","","","","","","","","StressQ","","50","","","","","","","","","","","","","","","","","","","","","","","","","","","","",""
"3047","","<div style=""width:500px;"">
  <p>What best describes how you currently feel?</p>
  </div>","45","html-slider-response","28","295723","0.0-5.0-4.3","45","1","2025-07-16 08:18:10","1f75c3e559b7213887762d5229550c2b","192.143.69.125","Mozilla/5.0 (Windows NT 10.0; Win64; x64) AppleWebKit/537.36 (KHTML, like Gecko) Chrome/138.0.0.0 Safari/537.36 Edg/138.0.0.0","WebKit","Edge","138.0.0.0","Windows","10.0","https://app.prolific.com/","en-US,en;q=0.9","60c8a4ece55be5a30e0ccc5c","686e379bc37a29ffa5cdc956","6877601f4e150695a39af75d","1","1","60c8a4ece55be5a30e0ccc5c","1","1","2025-07-16T08:23:38.506Z","","","","","","","","","","","MotivationQ","","50","","","","","","","","","","","","","","","","","","","","","","","","","","","","",""
"","","","","ctl-task-cpt","29","325153","0.0-5.0-0.4","45","1","2025-07-16 08:18:10","1f75c3e559b7213887762d5229550c2b","192.143.69.125","Mozilla/5.0 (Windows NT 10.0; Win64; x64) AppleWebKit/537.36 (KHTML, like Gecko) Chrome/138.0.0.0 Safari/537.36 Edg/138.0.0.0","WebKit","Edge","138.0.0.0","Windows","10.0","https://app.prolific.com/","en-US,en;q=0.9","60c8a4ece55be5a30e0ccc5c","686e379bc37a29ffa5cdc956","6877601f4e150695a39af75d","1","1","60c8a4ece55be5a30e0ccc5c","1","1","2025-07-16T08:24:07.936Z","","","","","","","","","","","","","","win-only","3","g1:SW,g2:NE","0.6","5","0","331109.5","2122.6","7127","26411.5","1","4","8","6","1","-1","-1","1","2","0.007575757575757576","1531.5","3000","-3015","[""down"",""left""]","{""num_key_presses"":5,""num_perfect"":3,""num_errors"":0,""num_randdir"":2,""num_randdir_good_moves"":1,""num_whilered"":0,""num_whileblue"":0,""num_blue"":1,""num_good_moves"":4}","[300.22232142857143,297.12857142857143,0.4,300.22232142857143,297.12857142857143,103.3,300.22232142857143,297.12857142857143,207.6,300.22232142857143,297.12857142857143,308.7,300.22232142857143,297.12857142857143,408.8,300.22232142857143,297.12857142857143,510.1,300.22232142857143,297.12857142857143,611.7,300.22232142857143,297.12857142857143,713.1,171.22232142857143,396.12857142857143,818,129.22232142857143,438.12857142857143,918.4,112.22232142857143,454.12857142857143,1023,101.22232142857143,462.12857142857143,1123.3,90.22232142857143,488.12857142857143,1223.3,76.22232142857143,516.1285714285714,1323.7,76.22232142857143,516.1285714285714,1428,76.22232142857143,516.1285714285714,1529.5,76.22232142857143,516.1285714285714,1634.6,76.22232142857143,516.1285714285714,1739.7,76.22232142857143,516.1285714285714,1844.6,76.22232142857143,516.1285714285714,1949.1,76.22232142857143,516.1285714285714,2049.7,76.22232142857143,516.1285714285714,2149.7,76.22232142857143,516.1285714285714,2253.7,77.22232142857143,518.1285714285714,2353.7,186.22232142857143,563.1285714285714,2454,266.22232142857143,647.1285714285714,2558.5,292.22232142857143,674.1285714285714,2662.1,292.22232142857143,674.1285714285714,2763.2,292.22232142857143,674.1285714285714,2864.6,292.22232142857143,674.1285714285714,2969.1,292.22232142857143,674.1285714285714,3069.5,292.22232142857143,674.1285714285714,3173.1,292.22232142857143,674.1285714285714,3273.8,292.22232142857143,674.1285714285714,3378.8,292.22232142857143,674.1285714285714,3479.2,292.22232142857143,674.1285714285714,3579.4,292.22232142857143,674.1285714285714,3684.5,292.22232142857143,674.1285714285714,3789.8,292.22232142857143,674.1285714285714,3893.1,292.22232142857143,674.1285714285714,3998,292.22232142857143,674.1285714285714,4098.8,292.22232142857143,674.1285714285714,4203.5,292.22232142857143,674.1285714285714,4303.7,292.22232142857143,674.1285714285714,4404.2,292.22232142857143,674.1285714285714,4509,292.22232142857143,674.1285714285714,4612.8,292.22232142857143,674.1285714285714,4712.8,292.22232142857143,674.1285714285714,4819.3,292.22232142857143,674.1285714285714,4924]","[1396.9,1396.9,1000,0,396.9,""smooth"",""left"",""left"",""good_move"",4350.8,2953.6,2285.9,1397.2,667.7,""smooth"",""down"",""down"",""good_move"",10908.7,6556.3,2215.1,8298.6,395,""oops"",""left"",""up"",""bad_move"",13724,2814.9,2117.5,10909.1,697.4,""oops"",""down"",""left"",""good_move"",16857.6,3132.9,2697.8,13724.7,435.1,""smooth"",""down"",""down"",""good_move""]","",""
"3659","","<div style=""width:500px;"">
  <p>What determined the result of this run?</p>
  </div>","47","html-slider-response","30","328814","0.0-5.0-1.4","45","1","2025-07-16 08:18:10","1f75c3e559b7213887762d5229550c2b","192.143.69.125","Mozilla/5.0 (Windows NT 10.0; Win64; x64) AppleWebKit/537.36 (KHTML, like Gecko) Chrome/138.0.0.0 Safari/537.36 Edg/138.0.0.0","WebKit","Edge","138.0.0.0","Windows","10.0","https://app.prolific.com/","en-US,en;q=0.9","60c8a4ece55be5a30e0ccc5c","686e379bc37a29ffa5cdc956","6877601f4e150695a39af75d","1","1","60c8a4ece55be5a30e0ccc5c","1","1","2025-07-16T08:24:11.597Z","","","","","","","","","","","AttribQ","","50","","","","","","","","","","","","","","","","","","","","","","","","","","","","",""
"3715","","<div style=""width:500px;"">
  <p>How much control did you have over the ball?</p>
  </div>","48","html-slider-response","31","332530","0.0-5.0-2.4","45","1","2025-07-16 08:18:10","1f75c3e559b7213887762d5229550c2b","192.143.69.125","Mozilla/5.0 (Windows NT 10.0; Win64; x64) AppleWebKit/537.36 (KHTML, like Gecko) Chrome/138.0.0.0 Safari/537.36 Edg/138.0.0.0","WebKit","Edge","138.0.0.0","Windows","10.0","https://app.prolific.com/","en-US,en;q=0.9","60c8a4ece55be5a30e0ccc5c","686e379bc37a29ffa5cdc956","6877601f4e150695a39af75d","1","1","60c8a4ece55be5a30e0ccc5c","1","1","2025-07-16T08:24:15.313Z","","","","","","","","","","","ControlQ","","50","","","","","","","","","","","","","","","","","","","","","","","","","","","","",""
"2929","","<div style=""width:500px;"">
  <p>How would you describe your current emotional state?</p>
  </div>","48","html-slider-response","32","335460","0.0-5.0-3.4","45","1","2025-07-16 08:18:10","1f75c3e559b7213887762d5229550c2b","192.143.69.125","Mozilla/5.0 (Windows NT 10.0; Win64; x64) AppleWebKit/537.36 (KHTML, like Gecko) Chrome/138.0.0.0 Safari/537.36 Edg/138.0.0.0","WebKit","Edge","138.0.0.0","Windows","10.0","https://app.prolific.com/","en-US,en;q=0.9","60c8a4ece55be5a30e0ccc5c","686e379bc37a29ffa5cdc956","6877601f4e150695a39af75d","1","1","60c8a4ece55be5a30e0ccc5c","1","1","2025-07-16T08:24:18.243Z","","","","","","","","","","","StressQ","","50","","","","","","","","","","","","","","","","","","","","","","","","","","","","",""
"4945","","<div style=""width:500px;"">
  <p>What best describes how you currently feel?</p>
  </div>","53","html-slider-response","33","340406","0.0-5.0-4.4","45","1","2025-07-16 08:18:10","1f75c3e559b7213887762d5229550c2b","192.143.69.125","Mozilla/5.0 (Windows NT 10.0; Win64; x64) AppleWebKit/537.36 (KHTML, like Gecko) Chrome/138.0.0.0 Safari/537.36 Edg/138.0.0.0","WebKit","Edge","138.0.0.0","Windows","10.0","https://app.prolific.com/","en-US,en;q=0.9","60c8a4ece55be5a30e0ccc5c","686e379bc37a29ffa5cdc956","6877601f4e150695a39af75d","1","1","60c8a4ece55be5a30e0ccc5c","1","1","2025-07-16T08:24:23.189Z","","","","","","","","","","","MotivationQ","","50","","","","","","","","","","","","","","","","","","","","","","","","","","","","",""
"","","","","ctl-task-cpt","34","375963","0.0-5.0-0.5","45","1","2025-07-16 08:18:10","1f75c3e559b7213887762d5229550c2b","192.143.69.125","Mozilla/5.0 (Windows NT 10.0; Win64; x64) AppleWebKit/537.36 (KHTML, like Gecko) Chrome/138.0.0.0 Safari/537.36 Edg/138.0.0.0","WebKit","Edge","138.0.0.0","Windows","10.0","https://app.prolific.com/","en-US,en;q=0.9","60c8a4ece55be5a30e0ccc5c","686e379bc37a29ffa5cdc956","6877601f4e150695a39af75d","1","1","60c8a4ece55be5a30e0ccc5c","1","1","2025-07-16T08:24:58.746Z","","","","","","","","","","","","","","win-only","3","g1:SW,g2:NE","0.5","6","0","375792.3","1120.8","6121.3","32536.3","1","4","4","6","1","-1","-2","0","1","0","1405.9","3000","-3015","[""down"",""left""]","{""num_key_presses"":7,""num_perfect"":3,""num_errors"":1,""num_randdir"":3,""num_randdir_good_moves"":1,""num_whilered"":0,""num_whileblue"":1,""num_blue"":3,""num_good_moves"":4}","[297.22232142857143,301.12857142857143,0.2,297.22232142857143,301.12857142857143,100.9,297.22232142857143,301.12857142857143,204.5,297.22232142857143,301.12857142857143,304.7,297.22232142857143,301.12857142857143,405.3,297.22232142857143,301.12857142857143,510.6,297.22232142857143,301.12857142857143,610.9,199.22232142857143,405.12857142857143,715.4,138.22232142857143,475.12857142857143,816.4,116.22232142857143,501.12857142857143,920.7,98.22232142857143,522.1285714285714,1020.8,80.22232142857143,535.1285714285714,1124.9,67.22232142857143,542.1285714285714,1227.1,66.22232142857143,542.1285714285714,1331,66.22232142857143,542.1285714285714,1435.8,66.22232142857143,542.1285714285714,1535.8,66.22232142857143,542.1285714285714,1645.2,66.22232142857143,542.1285714285714,1746.9,66.22232142857143,542.1285714285714,1848.1,66.22232142857143,542.1285714285714,1949.9,66.22232142857143,542.1285714285714,2049.9,66.22232142857143,542.1285714285714,2155.9,66.22232142857143,542.1285714285714,2259.6,66.22232142857143,542.1285714285714,2360.4,90.22232142857143,542.1285714285714,2461.7,172.22232142857143,552.1285714285714,2564.7,240.22232142857143,568.1285714285714,2665.5,286.22232142857143,574.1285714285714,2770.2,286.22232142857143,574.1285714285714,2875.1,286.22232142857143,574.1285714285714,2975.2,286.22232142857143,574.1285714285714,3081.1,286.22232142857143,574.1285714285714,3185.1,286.22232142857143,574.1285714285714,3285.3,286.22232142857143,574.1285714285714,3385.8,286.22232142857143,574.1285714285714,3489.9,286.22232142857143,574.1285714285714,3589.9,286.22232142857143,574.1285714285714,3690,286.22232142857143,574.1285714285714,3790.3,286.22232142857143,574.1285714285714,3896,286.22232142857143,574.1285714285714,3999.9,286.22232142857143,574.1285714285714,4105.5,286.22232142857143,574.1285714285714,4205.7,286.22232142857143,574.1285714285714,4310.2,286.22232142857143,574.1285714285714,4410.9,286.22232142857143,574.1285714285714,4511.8,286.22232142857143,574.1285714285714,4615,286.22232142857143,574.1285714285714,4720.2,286.22232142857143,574.1285714285714,4826.4,286.22232142857143,574.1285714285714,4930]","[1395.3,1395.3,1000,0,395.3,""oops"",""down"",""up"",""bad_move"",3754.5,2358.8,1775.3,1395.7,583.5,""oops"",""left"",""right"",""bad_move"",7098.5,3343.6,2780.2,3754.9,563.5,""smooth"",""up"",""up"",""bad_move"",10218.7,3120,2846.1,7098.7,273.9,""while_blue"",""down"",""left"",""good_move"",13235.7,3016.5,2511.2,10219.2,505.3,""smooth"",""down"",""down"",""good_move"",15568.4,2332.2,1763.4,13236.2,568.8,""smooth"",""down"",""down"",""good_move"",24555.8,8986.7,1595,22639.7,321.1,""oops"",""left"",""down"",""good_move""]","",""
"4848","","<div style=""width:500px;"">
  <p>What determined the result of this run?</p>
  </div>","47","html-slider-response","35","380811","0.0-5.0-1.5","45","1","2025-07-16 08:18:10","1f75c3e559b7213887762d5229550c2b","192.143.69.125","Mozilla/5.0 (Windows NT 10.0; Win64; x64) AppleWebKit/537.36 (KHTML, like Gecko) Chrome/138.0.0.0 Safari/537.36 Edg/138.0.0.0","WebKit","Edge","138.0.0.0","Windows","10.0","https://app.prolific.com/","en-US,en;q=0.9","60c8a4ece55be5a30e0ccc5c","686e379bc37a29ffa5cdc956","6877601f4e150695a39af75d","1","1","60c8a4ece55be5a30e0ccc5c","1","1","2025-07-16T08:25:03.594Z","","","","","","","","","","","AttribQ","","50","","","","","","","","","","","","","","","","","","","","","","","","","","","","",""
"5982","","<div style=""width:500px;"">
  <p>How much control did you have over the ball?</p>
  </div>","34","html-slider-response","36","386794","0.0-5.0-2.5","45","1","2025-07-16 08:18:10","1f75c3e559b7213887762d5229550c2b","192.143.69.125","Mozilla/5.0 (Windows NT 10.0; Win64; x64) AppleWebKit/537.36 (KHTML, like Gecko) Chrome/138.0.0.0 Safari/537.36 Edg/138.0.0.0","WebKit","Edge","138.0.0.0","Windows","10.0","https://app.prolific.com/","en-US,en;q=0.9","60c8a4ece55be5a30e0ccc5c","686e379bc37a29ffa5cdc956","6877601f4e150695a39af75d","1","1","60c8a4ece55be5a30e0ccc5c","1","1","2025-07-16T08:25:09.577Z","","","","","","","","","","","ControlQ","","50","","","","","","","","","","","","","","","","","","","","","","","","","","","","",""
"3181","","<div style=""width:500px;"">
  <p>How would you describe your current emotional state?</p>
  </div>","62","html-slider-response","37","389975","0.0-5.0-3.5","45","1","2025-07-16 08:18:10","1f75c3e559b7213887762d5229550c2b","192.143.69.125","Mozilla/5.0 (Windows NT 10.0; Win64; x64) AppleWebKit/537.36 (KHTML, like Gecko) Chrome/138.0.0.0 Safari/537.36 Edg/138.0.0.0","WebKit","Edge","138.0.0.0","Windows","10.0","https://app.prolific.com/","en-US,en;q=0.9","60c8a4ece55be5a30e0ccc5c","686e379bc37a29ffa5cdc956","6877601f4e150695a39af75d","1","1","60c8a4ece55be5a30e0ccc5c","1","1","2025-07-16T08:25:12.759Z","","","","","","","","","","","StressQ","","50","","","","","","","","","","","","","","","","","","","","","","","","","","","","",""
"5205","","<div style=""width:500px;"">
  <p>What best describes how you currently feel?</p>
  </div>","42","html-slider-response","38","395181","0.0-5.0-4.5","45","1","2025-07-16 08:18:10","1f75c3e559b7213887762d5229550c2b","192.143.69.125","Mozilla/5.0 (Windows NT 10.0; Win64; x64) AppleWebKit/537.36 (KHTML, like Gecko) Chrome/138.0.0.0 Safari/537.36 Edg/138.0.0.0","WebKit","Edge","138.0.0.0","Windows","10.0","https://app.prolific.com/","en-US,en;q=0.9","60c8a4ece55be5a30e0ccc5c","686e379bc37a29ffa5cdc956","6877601f4e150695a39af75d","1","1","60c8a4ece55be5a30e0ccc5c","1","1","2025-07-16T08:25:17.964Z","","","","","","","","","","","MotivationQ","","50","","","","","","","","","","","","","","","","","","","","","","","","","","","","",""
"","","","","ctl-task-cpt","39","424454","0.0-5.0-0.6","45","1","2025-07-16 08:18:10","1f75c3e559b7213887762d5229550c2b","192.143.69.125","Mozilla/5.0 (Windows NT 10.0; Win64; x64) AppleWebKit/537.36 (KHTML, like Gecko) Chrome/138.0.0.0 Safari/537.36 Edg/138.0.0.0","WebKit","Edge","138.0.0.0","Windows","10.0","https://app.prolific.com/","en-US,en;q=0.9","60c8a4ece55be5a30e0ccc5c","686e379bc37a29ffa5cdc956","6877601f4e150695a39af75d","1","1","60c8a4ece55be5a30e0ccc5c","1","1","2025-07-16T08:25:47.237Z","","","","","","","","","","","","","","win-only","2","g1:SE,g2:NW","0.4","7","0","430567.7","1162.4","6167.9","26255.5","1","4","8","6","1","-1","-1","0","0","0","1510.9","3000","-3010","[""down"",""right""]","{""num_key_presses"":5,""num_perfect"":1,""num_errors"":0,""num_randdir"":4,""num_randdir_good_moves"":0,""num_whilered"":0,""num_whileblue"":0,""num_blue"":1,""num_good_moves"":1}","[300.22232142857143,295.12857142857143,0.2,300.22232142857143,295.12857142857143,104.7,300.22232142857143,295.12857142857143,208.2,300.22232142857143,295.12857142857143,310,300.22232142857143,295.12857142857143,413.6,300.22232142857143,295.12857142857143,514.3,300.22232142857143,295.12857142857143,618.3,360.22232142857143,328.12857142857143,720.3,444.22232142857143,440.12857142857143,825.7,453.22232142857143,464.12857142857143,928.4,468.22232142857143,493.12857142857143,1029.9,518.2223214285714,522.1285714285714,1131.1,526.2223214285714,533.1285714285714,1233.4,531.2223214285714,535.1285714285714,1333.8,531.2223214285714,535.1285714285714,1434.5,531.2223214285714,535.1285714285714,1534.5,531.2223214285714,535.1285714285714,1638.4,531.2223214285714,535.1285714285714,1741.4,531.2223214285714,535.1285714285714,1844.6,531.2223214285714,535.1285714285714,1949.7,531.2223214285714,535.1285714285714,2049.8,531.2223214285714,535.1285714285714,2154.1,531.2223214285714,535.1285714285714,2259.6,531.2223214285714,535.1285714285714,2364.6,531.2223214285714,535.1285714285714,2469.8,531.2223214285714,535.1285714285714,2570.2,487.22232142857143,561.1285714285714,2670.8,423.22232142857143,598.1285714285714,2773.5,410.22232142857143,604.1285714285714,2875.6,410.22232142857143,604.1285714285714,2978.7,410.22232142857143,604.1285714285714,3079.5,410.22232142857143,604.1285714285714,3183.4,410.22232142857143,604.1285714285714,3283.4,410.22232142857143,604.1285714285714,3383.7,410.22232142857143,604.1285714285714,3484,410.22232142857143,604.1285714285714,3589.4,410.22232142857143,604.1285714285714,3690,410.22232142857143,604.1285714285714,3794.2,410.22232142857143,604.1285714285714,3899.1,410.22232142857143,604.1285714285714,4003.5,410.22232142857143,604.1285714285714,4109.4,410.22232142857143,604.1285714285714,4209.7,410.22232142857143,604.1285714285714,4312.9,410.22232142857143,604.1285714285714,4414.2,410.22232142857143,604.1285714285714,4521.2,410.22232142857143,604.1285714285714,4624.4,410.22232142857143,604.1285714285714,4727.3,410.22232142857143,604.1285714285714,4828.3,410.22232142857143,604.1285714285714,4933.4]","[5212.4,5212.4,2668.4,2004,540,""oops"",""down"",""up"",""bad_move"",8390.7,3177.1,2687.3,5213.7,489.8,""oops"",""right"",""up"",""bad_move"",11003.9,2612.5,2275.2,8391.4,337.4,""oops"",""down"",""left"",""bad_move"",15286.3,4282.1,3134.4,11004.2,1147.7,""smooth"",""right"",""right"",""good_move"",18423.2,3136.1,2760.2,15287.1,375.9,""oops"",""down"",""up"",""bad_move""]","",""
"5288","","<div style=""width:500px;"">
  <p>What determined the result of this run?</p>
  </div>","34","html-slider-response","40","429743","0.0-5.0-1.6","45","1","2025-07-16 08:18:10","1f75c3e559b7213887762d5229550c2b","192.143.69.125","Mozilla/5.0 (Windows NT 10.0; Win64; x64) AppleWebKit/537.36 (KHTML, like Gecko) Chrome/138.0.0.0 Safari/537.36 Edg/138.0.0.0","WebKit","Edge","138.0.0.0","Windows","10.0","https://app.prolific.com/","en-US,en;q=0.9","60c8a4ece55be5a30e0ccc5c","686e379bc37a29ffa5cdc956","6877601f4e150695a39af75d","1","1","60c8a4ece55be5a30e0ccc5c","1","1","2025-07-16T08:25:52.526Z","","","","","","","","","","","AttribQ","","50","","","","","","","","","","","","","","","","","","","","","","","","","","","","",""
"4035","","<div style=""width:500px;"">
  <p>How much control did you have over the ball?</p>
  </div>","21","html-slider-response","41","433778","0.0-5.0-2.6","45","1","2025-07-16 08:18:10","1f75c3e559b7213887762d5229550c2b","192.143.69.125","Mozilla/5.0 (Windows NT 10.0; Win64; x64) AppleWebKit/537.36 (KHTML, like Gecko) Chrome/138.0.0.0 Safari/537.36 Edg/138.0.0.0","WebKit","Edge","138.0.0.0","Windows","10.0","https://app.prolific.com/","en-US,en;q=0.9","60c8a4ece55be5a30e0ccc5c","686e379bc37a29ffa5cdc956","6877601f4e150695a39af75d","1","1","60c8a4ece55be5a30e0ccc5c","1","1","2025-07-16T08:25:56.561Z","","","","","","","","","","","ControlQ","","50","","","","","","","","","","","","","","","","","","","","","","","","","","","","",""
"3311","","<div style=""width:500px;"">
  <p>How would you describe your current emotional state?</p>
  </div>","67","html-slider-response","42","437090","0.0-5.0-3.6","45","1","2025-07-16 08:18:10","1f75c3e559b7213887762d5229550c2b","192.143.69.125","Mozilla/5.0 (Windows NT 10.0; Win64; x64) AppleWebKit/537.36 (KHTML, like Gecko) Chrome/138.0.0.0 Safari/537.36 Edg/138.0.0.0","WebKit","Edge","138.0.0.0","Windows","10.0","https://app.prolific.com/","en-US,en;q=0.9","60c8a4ece55be5a30e0ccc5c","686e379bc37a29ffa5cdc956","6877601f4e150695a39af75d","1","1","60c8a4ece55be5a30e0ccc5c","1","1","2025-07-16T08:25:59.873Z","","","","","","","","","","","StressQ","","50","","","","","","","","","","","","","","","","","","","","","","","","","","","","",""
"3132","","<div style=""width:500px;"">
  <p>What best describes how you currently feel?</p>
  </div>","39","html-slider-response","43","440223","0.0-5.0-4.6","45","1","2025-07-16 08:18:10","1f75c3e559b7213887762d5229550c2b","192.143.69.125","Mozilla/5.0 (Windows NT 10.0; Win64; x64) AppleWebKit/537.36 (KHTML, like Gecko) Chrome/138.0.0.0 Safari/537.36 Edg/138.0.0.0","WebKit","Edge","138.0.0.0","Windows","10.0","https://app.prolific.com/","en-US,en;q=0.9","60c8a4ece55be5a30e0ccc5c","686e379bc37a29ffa5cdc956","6877601f4e150695a39af75d","1","1","60c8a4ece55be5a30e0ccc5c","1","1","2025-07-16T08:26:03.006Z","","","","","","","","","","","MotivationQ","","50","","","","","","","","","","","","","","","","","","","","","","","","","","","","",""
"","","","","ctl-task-cpt","44","474821","0.0-5.0-0.7","45","1","2025-07-16 08:18:10","1f75c3e559b7213887762d5229550c2b","192.143.69.125","Mozilla/5.0 (Windows NT 10.0; Win64; x64) AppleWebKit/537.36 (KHTML, like Gecko) Chrome/138.0.0.0 Safari/537.36 Edg/138.0.0.0","WebKit","Edge","138.0.0.0","Windows","10.0","https://app.prolific.com/","en-US,en;q=0.9","60c8a4ece55be5a30e0ccc5c","686e379bc37a29ffa5cdc956","6877601f4e150695a39af75d","1","1","60c8a4ece55be5a30e0ccc5c","1","1","2025-07-16T08:26:37.604Z","","","","","","","","","","","","","","win-only","0","g1:NW,g2:SE","0.3","8","0","475609.7","1063.9","6065.3","31581.3","1","4","4","6","1","-1","-1","0","0","0","1288.8","3000","-2990","[""left"",""up""]","{""num_key_presses"":7,""num_perfect"":2,""num_errors"":0,""num_randdir"":5,""num_randdir_good_moves"":2,""num_whilered"":0,""num_whileblue"":0,""num_blue"":1,""num_good_moves"":4}","[294.22232142857143,300.12857142857143,0.2,294.22232142857143,300.12857142857143,101.6,294.22232142857143,300.12857142857143,201.7,294.22232142857143,300.12857142857143,303.1,294.22232142857143,300.12857142857143,409.1,294.22232142857143,300.12857142857143,513.1,294.22232142857143,300.12857142857143,616.6,170.22232142857143,164.12857142857143,718.2,62.222321428571426,98.12857142857143,823.3,52.222321428571426,84.12857142857143,930,48.222321428571426,77.12857142857143,1034.2,48.222321428571426,74.12857142857143,1137.5,48.222321428571426,74.12857142857143,1238.3,48.222321428571426,74.12857142857143,1342.5,48.222321428571426,74.12857142857143,1443.1,48.222321428571426,74.12857142857143,1543.8,48.222321428571426,74.12857142857143,1649,48.222321428571426,74.12857142857143,1752.3,48.222321428571426,74.12857142857143,1858.4,48.222321428571426,74.12857142857143,1958.5,48.222321428571426,74.12857142857143,2062.1,48.222321428571426,74.12857142857143,2165.4,48.222321428571426,74.12857142857143,2266.3,50.222321428571426,90.12857142857143,2366.7,66.22232142857143,138.12857142857143,2468.3,82.22232142857143,173.12857142857143,2571.7,93.22232142857143,210.12857142857143,2677.7,93.22232142857143,210.12857142857143,2782.8,93.22232142857143,210.12857142857143,2883.4,93.22232142857143,210.12857142857143,2986.5,93.22232142857143,210.12857142857143,3088.4,93.22232142857143,210.12857142857143,3191.7,93.22232142857143,210.12857142857143,3292.9,93.22232142857143,210.12857142857143,3398.7,93.22232142857143,210.12857142857143,3501.9,93.22232142857143,210.12857142857143,3607.9,93.22232142857143,210.12857142857143,3714.2,93.22232142857143,210.12857142857143,3816.9,93.22232142857143,210.12857142857143,3918.6,93.22232142857143,210.12857142857143,4021.5,93.22232142857143,210.12857142857143,4122,93.22232142857143,210.12857142857143,4222.1,93.22232142857143,210.12857142857143,4326.5,93.22232142857143,210.12857142857143,4426.6,93.22232142857143,210.12857142857143,4530.2,93.22232142857143,210.12857142857143,4632.2,93.22232142857143,210.12857142857143,4739.1,93.22232142857143,210.12857142857143,4842.7,93.22232142857143,210.12857142857143,4943.3]","[4793.9,4793.9,2321.6,2001.5,470.8,""smooth"",""left"",""left"",""good_move"",8501.1,3705.5,3275.5,4795.6,430,""oops"",""up"",""left"",""good_move"",11448.1,2946.8,2589.8,8501.3,357,""oops"",""up"",""down"",""bad_move"",13827.9,2379.5,1977.3,11448.4,402.2,""oops"",""down"",""down"",""bad_move"",15902.6,2074.5,1695.9,13828.1,378.6,""smooth"",""up"",""up"",""good_move"",18959.2,3055.3,2747.2,15903.9,308.1,""oops"",""up"",""up"",""good_move"",22693.8,3734.1,3158.1,18959.7,576,""oops"",""up"",""down"",""bad_move""]","",""
"2810","","<div style=""width:500px;"">
  <p>What determined the result of this run?</p>
  </div>","27","html-slider-response","45","477634","0.0-5.0-1.7","45","1","2025-07-16 08:18:10","1f75c3e559b7213887762d5229550c2b","192.143.69.125","Mozilla/5.0 (Windows NT 10.0; Win64; x64) AppleWebKit/537.36 (KHTML, like Gecko) Chrome/138.0.0.0 Safari/537.36 Edg/138.0.0.0","WebKit","Edge","138.0.0.0","Windows","10.0","https://app.prolific.com/","en-US,en;q=0.9","60c8a4ece55be5a30e0ccc5c","686e379bc37a29ffa5cdc956","6877601f4e150695a39af75d","1","1","60c8a4ece55be5a30e0ccc5c","1","1","2025-07-16T08:26:40.417Z","","","","","","","","","","","AttribQ","","50","","","","","","","","","","","","","","","","","","","","","","","","","","","","",""
"2831","","<div style=""width:500px;"">
  <p>How much control did you have over the ball?</p>
  </div>","7","html-slider-response","46","480465","0.0-5.0-2.7","45","1","2025-07-16 08:18:10","1f75c3e559b7213887762d5229550c2b","192.143.69.125","Mozilla/5.0 (Windows NT 10.0; Win64; x64) AppleWebKit/537.36 (KHTML, like Gecko) Chrome/138.0.0.0 Safari/537.36 Edg/138.0.0.0","WebKit","Edge","138.0.0.0","Windows","10.0","https://app.prolific.com/","en-US,en;q=0.9","60c8a4ece55be5a30e0ccc5c","686e379bc37a29ffa5cdc956","6877601f4e150695a39af75d","1","1","60c8a4ece55be5a30e0ccc5c","1","1","2025-07-16T08:26:43.248Z","","","","","","","","","","","ControlQ","","50","","","","","","","","","","","","","","","","","","","","","","","","","","","","",""
"3078","","<div style=""width:500px;"">
  <p>How would you describe your current emotional state?</p>
  </div>","91","html-slider-response","47","483544","0.0-5.0-3.7","45","1","2025-07-16 08:18:10","1f75c3e559b7213887762d5229550c2b","192.143.69.125","Mozilla/5.0 (Windows NT 10.0; Win64; x64) AppleWebKit/537.36 (KHTML, like Gecko) Chrome/138.0.0.0 Safari/537.36 Edg/138.0.0.0","WebKit","Edge","138.0.0.0","Windows","10.0","https://app.prolific.com/","en-US,en;q=0.9","60c8a4ece55be5a30e0ccc5c","686e379bc37a29ffa5cdc956","6877601f4e150695a39af75d","1","1","60c8a4ece55be5a30e0ccc5c","1","1","2025-07-16T08:26:46.327Z","","","","","","","","","","","StressQ","","50","","","","","","","","","","","","","","","","","","","","","","","","","","","","",""
"6224","","<div style=""width:500px;"">
  <p>What best describes how you currently feel?</p>
  </div>","22","html-slider-response","48","489769","0.0-5.0-4.7","45","1","2025-07-16 08:18:10","1f75c3e559b7213887762d5229550c2b","192.143.69.125","Mozilla/5.0 (Windows NT 10.0; Win64; x64) AppleWebKit/537.36 (KHTML, like Gecko) Chrome/138.0.0.0 Safari/537.36 Edg/138.0.0.0","WebKit","Edge","138.0.0.0","Windows","10.0","https://app.prolific.com/","en-US,en;q=0.9","60c8a4ece55be5a30e0ccc5c","686e379bc37a29ffa5cdc956","6877601f4e150695a39af75d","1","1","60c8a4ece55be5a30e0ccc5c","1","1","2025-07-16T08:26:52.552Z","","","","","","","","","","","MotivationQ","","50","","","","","","","","","","","","","","","","","","","","","","","","","","","","",""
"","","","","ctl-task-cpt","49","527175","0.0-5.0-0.8","45","1","2025-07-16 08:18:10","1f75c3e559b7213887762d5229550c2b","192.143.69.125","Mozilla/5.0 (Windows NT 10.0; Win64; x64) AppleWebKit/537.36 (KHTML, like Gecko) Chrome/138.0.0.0 Safari/537.36 Edg/138.0.0.0","WebKit","Edge","138.0.0.0","Windows","10.0","https://app.prolific.com/","en-US,en;q=0.9","60c8a4ece55be5a30e0ccc5c","686e379bc37a29ffa5cdc956","6877601f4e150695a39af75d","1","1","60c8a4ece55be5a30e0ccc5c","1","1","2025-07-16T08:27:29.959Z","","","","","","","","","","","","","","win-only","2","g1:SE,g2:NW","0.2","9","0","525157","1829.4","6831.5","34385.3","1","4","8","6","1","-1","-2","0","0","0","1418.8","3000","-3010","[""down"",""right""]","{""num_key_presses"":7,""num_perfect"":1,""num_errors"":1,""num_randdir"":5,""num_randdir_good_moves"":1,""num_whilered"":0,""num_whileblue"":0,""num_blue"":1,""num_good_moves"":1}","[294.22232142857143,288.12857142857143,0.2,294.22232142857143,288.12857142857143,101.1,294.22232142857143,288.12857142857143,201.5,294.22232142857143,288.12857142857143,302.3,294.22232142857143,288.12857142857143,407.1,294.22232142857143,288.12857142857143,511.1,294.22232142857143,288.12857142857143,611.9,346.22232142857143,326.12857142857143,717.8,438.22232142857143,439.12857142857143,818.2,443.22232142857143,447.12857142857143,921.4,488.22232142857143,486.12857142857143,1022.3,512.2223214285714,502.12857142857143,1126.2,531.2223214285714,518.1285714285714,1226.7,531.2223214285714,518.1285714285714,1332.5,531.2223214285714,518.1285714285714,1436.2,531.2223214285714,518.1285714285714,1537.6,531.2223214285714,518.1285714285714,1638,531.2223214285714,518.1285714285714,1741.4,531.2223214285714,518.1285714285714,1847.8,531.2223214285714,518.1285714285714,1950.9,531.2223214285714,518.1285714285714,2051.9,531.2223214285714,518.1285714285714,2156.9,531.2223214285714,518.1285714285714,2257.5,531.2223214285714,518.1285714285714,2357.9,531.2223214285714,518.1285714285714,2461.2,455.22232142857143,549.1285714285714,2561.4,340.22232142857143,596.1285714285714,2661.8,340.22232142857143,596.1285714285714,2765.2,340.22232142857143,596.1285714285714,2866.7,340.22232142857143,596.1285714285714,2971.5,340.22232142857143,596.1285714285714,3075.8,340.22232142857143,596.1285714285714,3177.8,340.22232142857143,596.1285714285714,3282.1,340.22232142857143,596.1285714285714,3385.8,340.22232142857143,596.1285714285714,3486,340.22232142857143,596.1285714285714,3591.5,340.22232142857143,596.1285714285714,3698,340.22232142857143,596.1285714285714,3802.9,340.22232142857143,596.1285714285714,3908,340.22232142857143,596.1285714285714,4012.1,340.22232142857143,596.1285714285714,4112.2,340.22232142857143,596.1285714285714,4216.2,340.22232142857143,596.1285714285714,4316.9,340.22232142857143,596.1285714285714,4421.4,340.22232142857143,596.1285714285714,4526.7,340.22232142857143,596.1285714285714,4631.4,340.22232142857143,596.1285714285714,4731.9,340.22232142857143,596.1285714285714,4837.5,340.22232142857143,596.1285714285714,4938.1]","[1410,1410,1000,0,410,""oops"",""down"",""down"",""good_move"",4769.2,3358.1,2881.9,1411.2,476.1,""smooth"",""left"",""left"",""bad_move"",7763.6,2994.1,2654.9,4769.5,339.2,""oops"",""right"",""up"",""bad_move"",10526.6,2762.6,2287.6,7764,475,""oops"",""down"",""left"",""bad_move"",17500.2,6972.2,2968.9,14108.9,422.4,""oops"",""left"",""up"",""bad_move"",20123.3,2622.7,1822.7,17500.6,800,""oops"",""down"",""up"",""bad_move"",23751.3,3627.8,3687.7,20123.5,-59.9,""error"",""-"",""-"",""no_move""]","",""
"6021","","<div style=""width:500px;"">
  <p>What determined the result of this run?</p>
  </div>","19","html-slider-response","50","533197","0.0-5.0-1.8","45","1","2025-07-16 08:18:10","1f75c3e559b7213887762d5229550c2b","192.143.69.125","Mozilla/5.0 (Windows NT 10.0; Win64; x64) AppleWebKit/537.36 (KHTML, like Gecko) Chrome/138.0.0.0 Safari/537.36 Edg/138.0.0.0","WebKit","Edge","138.0.0.0","Windows","10.0","https://app.prolific.com/","en-US,en;q=0.9","60c8a4ece55be5a30e0ccc5c","686e379bc37a29ffa5cdc956","6877601f4e150695a39af75d","1","1","60c8a4ece55be5a30e0ccc5c","1","1","2025-07-16T08:27:35.980Z","","","","","","","","","","","AttribQ","","50","","","","","","","","","","","","","","","","","","","","","","","","","","","","",""
"2886","","<div style=""width:500px;"">
  <p>How much control did you have over the ball?</p>
  </div>","20","html-slider-response","51","536084","0.0-5.0-2.8","45","1","2025-07-16 08:18:10","1f75c3e559b7213887762d5229550c2b","192.143.69.125","Mozilla/5.0 (Windows NT 10.0; Win64; x64) AppleWebKit/537.36 (KHTML, like Gecko) Chrome/138.0.0.0 Safari/537.36 Edg/138.0.0.0","WebKit","Edge","138.0.0.0","Windows","10.0","https://app.prolific.com/","en-US,en;q=0.9","60c8a4ece55be5a30e0ccc5c","686e379bc37a29ffa5cdc956","6877601f4e150695a39af75d","1","1","60c8a4ece55be5a30e0ccc5c","1","1","2025-07-16T08:27:38.867Z","","","","","","","","","","","ControlQ","","50","","","","","","","","","","","","","","","","","","","","","","","","","","","","",""
"3378","","<div style=""width:500px;"">
  <p>How would you describe your current emotional state?</p>
  </div>","74","html-slider-response","52","539463","0.0-5.0-3.8","45","1","2025-07-16 08:18:10","1f75c3e559b7213887762d5229550c2b","192.143.69.125","Mozilla/5.0 (Windows NT 10.0; Win64; x64) AppleWebKit/537.36 (KHTML, like Gecko) Chrome/138.0.0.0 Safari/537.36 Edg/138.0.0.0","WebKit","Edge","138.0.0.0","Windows","10.0","https://app.prolific.com/","en-US,en;q=0.9","60c8a4ece55be5a30e0ccc5c","686e379bc37a29ffa5cdc956","6877601f4e150695a39af75d","1","1","60c8a4ece55be5a30e0ccc5c","1","1","2025-07-16T08:27:42.246Z","","","","","","","","","","","StressQ","","50","","","","","","","","","","","","","","","","","","","","","","","","","","","","",""
"2420","","<div style=""width:500px;"">
  <p>What best describes how you currently feel?</p>
  </div>","27","html-slider-response","53","541884","0.0-5.0-4.8","45","1","2025-07-16 08:18:10","1f75c3e559b7213887762d5229550c2b","192.143.69.125","Mozilla/5.0 (Windows NT 10.0; Win64; x64) AppleWebKit/537.36 (KHTML, like Gecko) Chrome/138.0.0.0 Safari/537.36 Edg/138.0.0.0","WebKit","Edge","138.0.0.0","Windows","10.0","https://app.prolific.com/","en-US,en;q=0.9","60c8a4ece55be5a30e0ccc5c","686e379bc37a29ffa5cdc956","6877601f4e150695a39af75d","1","1","60c8a4ece55be5a30e0ccc5c","1","1","2025-07-16T08:27:44.667Z","","","","","","","","","","","MotivationQ","","50","","","","","","","","","","","","","","","","","","","","","","","","","","","","",""
"","","","","ctl-task-cpt","54","573889","0.0-5.0-0.9","45","1","2025-07-16 08:18:10","1f75c3e559b7213887762d5229550c2b","192.143.69.125","Mozilla/5.0 (Windows NT 10.0; Win64; x64) AppleWebKit/537.36 (KHTML, like Gecko) Chrome/138.0.0.0 Safari/537.36 Edg/138.0.0.0","WebKit","Edge","138.0.0.0","Windows","10.0","https://app.prolific.com/","en-US,en;q=0.9","60c8a4ece55be5a30e0ccc5c","686e379bc37a29ffa5cdc956","6877601f4e150695a39af75d","1","1","60c8a4ece55be5a30e0ccc5c","1","1","2025-07-16T08:28:16.672Z","","","","","","","","","","","","","","win-only","3","g1:SW,g2:NE","0.4","10","0","577270.9","1316","6320.5","28986.6","1","4","4","6","1","-1","-1","0","0","0","1747.6","3000","-2890","[""down"",""left""]","{""num_key_presses"":5,""num_perfect"":2,""num_errors"":0,""num_randdir"":3,""num_randdir_good_moves"":0,""num_whilered"":0,""num_whileblue"":0,""num_blue"":2,""num_good_moves"":2}","[296.22232142857143,303.12857142857143,0.2,296.22232142857143,303.12857142857143,105.1,296.22232142857143,303.12857142857143,210.7,296.22232142857143,303.12857142857143,313.7,296.22232142857143,303.12857142857143,414.3,296.22232142857143,303.12857142857143,515.5,296.22232142857143,303.12857142857143,621.3,296.22232142857143,303.12857142857143,725,296.22232142857143,303.12857142857143,825.6,169.22232142857143,446.12857142857143,931.9,100.22232142857143,503.12857142857143,1035.4,80.22232142857143,520.1285714285714,1139.9,65.22232142857143,530.1285714285714,1240.2,62.222321428571426,532.1285714285714,1341.7,40.222321428571426,551.1285714285714,1448.5,37.222321428571426,553.1285714285714,1549.7,37.222321428571426,553.1285714285714,1650.4,37.222321428571426,553.1285714285714,1760.9,37.222321428571426,553.1285714285714,1861.2,37.222321428571426,553.1285714285714,1974.9,37.222321428571426,553.1285714285714,2075,37.222321428571426,553.1285714285714,2181.2,37.222321428571426,553.1285714285714,2284.4,37.222321428571426,553.1285714285714,2384.9,37.222321428571426,553.1285714285714,2489.6,37.222321428571426,553.1285714285714,2589.7,37.222321428571426,553.1285714285714,2691.3,37.222321428571426,553.1285714285714,2794.8,37.222321428571426,553.1285714285714,2895.2,37.222321428571426,553.1285714285714,3000,37.222321428571426,553.1285714285714,3104.2,37.222321428571426,553.1285714285714,3204.5,37.222321428571426,553.1285714285714,3305.5,37.222321428571426,553.1285714285714,3406,37.222321428571426,553.1285714285714,3509.4,37.222321428571426,553.1285714285714,3610.1,37.222321428571426,553.1285714285714,3712.4,37.222321428571426,553.1285714285714,3814.8,37.222321428571426,553.1285714285714,3921.1,37.222321428571426,553.1285714285714,4021.2,37.222321428571426,553.1285714285714,4124.4,37.222321428571426,553.1285714285714,4225.8,37.222321428571426,553.1285714285714,4326.3,37.222321428571426,553.1285714285714,4431.1,37.222321428571426,553.1285714285714,4534.3,37.222321428571426,553.1285714285714,4635.8,37.222321428571426,553.1285714285714,4742.5,37.222321428571426,553.1285714285714,4845.1,37.222321428571426,553.1285714285714,4945.5]","[1427.7,1427.7,1000,0,427.7,""oops"",""down"",""up"",""bad_move"",4528.9,3100.9,2392.8,1428,708.1,""smooth"",""down"",""down"",""good_move"",7160.6,2630.5,2224,4530.2,406.4,""smooth"",""left"",""left"",""good_move"",9834.4,2673.5,2345.8,7160.9,327.7,""oops"",""left"",""right"",""bad_move"",19987.5,10152.5,2261.3,16815.5,910.7,""oops"",""down"",""up"",""bad_move""]","",""
"8841","","<div style=""width:500px;"">
  <p>What determined the result of this run?</p>
  </div>","71","html-slider-response","55","582731","0.0-5.0-1.9","45","1","2025-07-16 08:18:10","1f75c3e559b7213887762d5229550c2b","192.143.69.125","Mozilla/5.0 (Windows NT 10.0; Win64; x64) AppleWebKit/537.36 (KHTML, like Gecko) Chrome/138.0.0.0 Safari/537.36 Edg/138.0.0.0","WebKit","Edge","138.0.0.0","Windows","10.0","https://app.prolific.com/","en-US,en;q=0.9","60c8a4ece55be5a30e0ccc5c","686e379bc37a29ffa5cdc956","6877601f4e150695a39af75d","1","1","60c8a4ece55be5a30e0ccc5c","1","1","2025-07-16T08:28:25.514Z","","","","","","","","","","","AttribQ","","50","","","","","","","","","","","","","","","","","","","","","","","","","","","","",""
"3082","","<div style=""width:500px;"">
  <p>How much control did you have over the ball?</p>
  </div>","19","html-slider-response","56","585814","0.0-5.0-2.9","45","1","2025-07-16 08:18:10","1f75c3e559b7213887762d5229550c2b","192.143.69.125","Mozilla/5.0 (Windows NT 10.0; Win64; x64) AppleWebKit/537.36 (KHTML, like Gecko) Chrome/138.0.0.0 Safari/537.36 Edg/138.0.0.0","WebKit","Edge","138.0.0.0","Windows","10.0","https://app.prolific.com/","en-US,en;q=0.9","60c8a4ece55be5a30e0ccc5c","686e379bc37a29ffa5cdc956","6877601f4e150695a39af75d","1","1","60c8a4ece55be5a30e0ccc5c","1","1","2025-07-16T08:28:28.597Z","","","","","","","","","","","ControlQ","","50","","","","","","","","","","","","","","","","","","","","","","","","","","","","",""
"2783","","<div style=""width:500px;"">
  <p>How would you describe your current emotional state?</p>
  </div>","46","html-slider-response","57","588598","0.0-5.0-3.9","45","1","2025-07-16 08:18:10","1f75c3e559b7213887762d5229550c2b","192.143.69.125","Mozilla/5.0 (Windows NT 10.0; Win64; x64) AppleWebKit/537.36 (KHTML, like Gecko) Chrome/138.0.0.0 Safari/537.36 Edg/138.0.0.0","WebKit","Edge","138.0.0.0","Windows","10.0","https://app.prolific.com/","en-US,en;q=0.9","60c8a4ece55be5a30e0ccc5c","686e379bc37a29ffa5cdc956","6877601f4e150695a39af75d","1","1","60c8a4ece55be5a30e0ccc5c","1","1","2025-07-16T08:28:31.381Z","","","","","","","","","","","StressQ","","50","","","","","","","","","","","","","","","","","","","","","","","","","","","","",""
"3697","","<div style=""width:500px;"">
  <p>What best describes how you currently feel?</p>
  </div>","44","html-slider-response","58","592296","0.0-5.0-4.9","45","1","2025-07-16 08:18:10","1f75c3e559b7213887762d5229550c2b","192.143.69.125","Mozilla/5.0 (Windows NT 10.0; Win64; x64) AppleWebKit/537.36 (KHTML, like Gecko) Chrome/138.0.0.0 Safari/537.36 Edg/138.0.0.0","WebKit","Edge","138.0.0.0","Windows","10.0","https://app.prolific.com/","en-US,en;q=0.9","60c8a4ece55be5a30e0ccc5c","686e379bc37a29ffa5cdc956","6877601f4e150695a39af75d","1","1","60c8a4ece55be5a30e0ccc5c","1","1","2025-07-16T08:28:35.079Z","","","","","","","","","","","MotivationQ","","50","","","","","","","","","","","","","","","","","","","","","","","","","","","","",""
"","","","","ctl-task-cpt","59","635381","0.0-5.0-0.10","45","1","2025-07-16 08:18:10","1f75c3e559b7213887762d5229550c2b","192.143.69.125","Mozilla/5.0 (Windows NT 10.0; Win64; x64) AppleWebKit/537.36 (KHTML, like Gecko) Chrome/138.0.0.0 Safari/537.36 Edg/138.0.0.0","WebKit","Edge","138.0.0.0","Windows","10.0","https://app.prolific.com/","en-US,en;q=0.9","60c8a4ece55be5a30e0ccc5c","686e379bc37a29ffa5cdc956","6877601f4e150695a39af75d","1","1","60c8a4ece55be5a30e0ccc5c","1","1","2025-07-16T08:29:18.164Z","","","","","","","","","","","","","","win-only","0","g1:NW,g2:SE","0.5","11","0","627682.4","3896.4","8897.3","40066","1","4","4","6","1","-1","-1","0","0","0","1383.8","3000","-2930","[""left"",""up""]","{""num_key_presses"":7,""num_perfect"":2,""num_errors"":0,""num_randdir"":5,""num_randdir_good_moves"":1,""num_whilered"":0,""num_whileblue"":0,""num_blue"":3,""num_good_moves"":3}","[297.22232142857143,297.12857142857143,0.7,297.22232142857143,297.12857142857143,100.2,297.22232142857143,297.12857142857143,204.5,297.22232142857143,297.12857142857143,309.7,297.22232142857143,297.12857142857143,410,297.22232142857143,297.12857142857143,514,237.22232142857143,238.12857142857143,616.3,154.22232142857143,146.12857142857143,718.9,133.22232142857143,129.12857142857143,819.5,131.22232142857143,126.12857142857143,919.7,108.22232142857143,105.12857142857143,1019.8,85.22232142857143,83.12857142857143,1120.4,76.22232142857143,74.12857142857143,1220.4,76.22232142857143,74.12857142857143,1325,76.22232142857143,74.12857142857143,1425.1,76.22232142857143,74.12857142857143,1530,76.22232142857143,74.12857142857143,1630.3,76.22232142857143,74.12857142857143,1730.3,76.22232142857143,74.12857142857143,1835.3,76.22232142857143,74.12857142857143,1935.9,76.22232142857143,74.12857142857143,2042.5,76.22232142857143,74.12857142857143,2144.1,76.22232142857143,74.12857142857143,2244.5,76.22232142857143,74.12857142857143,2346.8,76.22232142857143,74.12857142857143,2450,76.22232142857143,74.12857142857143,2551,76.22232142857143,74.12857142857143,2651.1,76.22232142857143,74.12857142857143,2751.6,76.22232142857143,74.12857142857143,2854.9,76.22232142857143,74.12857142857143,2960.5,76.22232142857143,74.12857142857143,3065.6,76.22232142857143,74.12857142857143,3166.9,76.22232142857143,74.12857142857143,3269.4,76.22232142857143,74.12857142857143,3375.6,76.22232142857143,74.12857142857143,3479.4,76.22232142857143,74.12857142857143,3584.7,76.22232142857143,74.12857142857143,3684.7,76.22232142857143,74.12857142857143,3785.1,76.22232142857143,74.12857142857143,3888.7,76.22232142857143,74.12857142857143,3990.3,76.22232142857143,74.12857142857143,4094,76.22232142857143,74.12857142857143,4194.3,76.22232142857143,74.12857142857143,4294.4,76.22232142857143,74.12857142857143,4395.1,76.22232142857143,74.12857142857143,4496,76.22232142857143,74.12857142857143,4600,76.22232142857143,74.12857142857143,4704.7,76.22232142857143,74.12857142857143,4804.9,76.22232142857143,74.12857142857143,4910.5]","[1473.8,1473.8,1000,0,473.8,""smooth"",""up"",""up"",""good_move"",3623.1,2149,1698.9,1474.1,450.1,""oops"",""left"",""down"",""bad_move"",7113,3489.5,2974.2,3623.5,515.3,""smooth"",""left"",""left"",""good_move"",10363.9,3250.7,2907.6,7113.2,343.1,""oops"",""up"",""down"",""bad_move"",20415.7,10051.1,2866.6,17153.9,395.2,""oops"",""left"",""left"",""good_move"",23339.6,2923.6,2497.4,20416,426.2,""oops"",""up"",""down"",""bad_move"",29438.6,6098.4,2634.8,26424.1,379.7,""oops"",""up"",""right"",""bad_move""]","",""
"3178","","<div style=""width:500px;"">
  <p>What determined the result of this run?</p>
  </div>","59","html-slider-response","60","638560","0.0-5.0-1.10","45","1","2025-07-16 08:18:10","1f75c3e559b7213887762d5229550c2b","192.143.69.125","Mozilla/5.0 (Windows NT 10.0; Win64; x64) AppleWebKit/537.36 (KHTML, like Gecko) Chrome/138.0.0.0 Safari/537.36 Edg/138.0.0.0","WebKit","Edge","138.0.0.0","Windows","10.0","https://app.prolific.com/","en-US,en;q=0.9","60c8a4ece55be5a30e0ccc5c","686e379bc37a29ffa5cdc956","6877601f4e150695a39af75d","1","1","60c8a4ece55be5a30e0ccc5c","1","1","2025-07-16T08:29:21.343Z","","","","","","","","","","","AttribQ","","50","","","","","","","","","","","","","","","","","","","","","","","","","","","","",""
"2741","","<div style=""width:500px;"">
  <p>How much control did you have over the ball?</p>
  </div>","30","html-slider-response","61","641301","0.0-5.0-2.10","45","1","2025-07-16 08:18:10","1f75c3e559b7213887762d5229550c2b","192.143.69.125","Mozilla/5.0 (Windows NT 10.0; Win64; x64) AppleWebKit/537.36 (KHTML, like Gecko) Chrome/138.0.0.0 Safari/537.36 Edg/138.0.0.0","WebKit","Edge","138.0.0.0","Windows","10.0","https://app.prolific.com/","en-US,en;q=0.9","60c8a4ece55be5a30e0ccc5c","686e379bc37a29ffa5cdc956","6877601f4e150695a39af75d","1","1","60c8a4ece55be5a30e0ccc5c","1","1","2025-07-16T08:29:24.084Z","","","","","","","","","","","ControlQ","","50","","","","","","","","","","","","","","","","","","","","","","","","","","","","",""
"3090","","<div style=""width:500px;"">
  <p>How would you describe your current emotional state?</p>
  </div>","55","html-slider-response","62","644393","0.0-5.0-3.10","45","1","2025-07-16 08:18:10","1f75c3e559b7213887762d5229550c2b","192.143.69.125","Mozilla/5.0 (Windows NT 10.0; Win64; x64) AppleWebKit/537.36 (KHTML, like Gecko) Chrome/138.0.0.0 Safari/537.36 Edg/138.0.0.0","WebKit","Edge","138.0.0.0","Windows","10.0","https://app.prolific.com/","en-US,en;q=0.9","60c8a4ece55be5a30e0ccc5c","686e379bc37a29ffa5cdc956","6877601f4e150695a39af75d","1","1","60c8a4ece55be5a30e0ccc5c","1","1","2025-07-16T08:29:27.176Z","","","","","","","","","","","StressQ","","50","","","","","","","","","","","","","","","","","","","","","","","","","","","","",""
"2978","","<div style=""width:500px;"">
  <p>What best describes how you currently feel?</p>
  </div>","40","html-slider-response","63","647372","0.0-5.0-4.10","45","1","2025-07-16 08:18:10","1f75c3e559b7213887762d5229550c2b","192.143.69.125","Mozilla/5.0 (Windows NT 10.0; Win64; x64) AppleWebKit/537.36 (KHTML, like Gecko) Chrome/138.0.0.0 Safari/537.36 Edg/138.0.0.0","WebKit","Edge","138.0.0.0","Windows","10.0","https://app.prolific.com/","en-US,en;q=0.9","60c8a4ece55be5a30e0ccc5c","686e379bc37a29ffa5cdc956","6877601f4e150695a39af75d","1","1","60c8a4ece55be5a30e0ccc5c","1","1","2025-07-16T08:29:30.155Z","","","","","","","","","","","MotivationQ","","50","","","","","","","","","","","","","","","","","","","","","","","","","","","","",""
"","","","","ctl-task-cpt","64","688921","0.0-5.0-0.11","45","1","2025-07-16 08:18:10","1f75c3e559b7213887762d5229550c2b","192.143.69.125","Mozilla/5.0 (Windows NT 10.0; Win64; x64) AppleWebKit/537.36 (KHTML, like Gecko) Chrome/138.0.0.0 Safari/537.36 Edg/138.0.0.0","WebKit","Edge","138.0.0.0","Windows","10.0","https://app.prolific.com/","en-US,en;q=0.9","60c8a4ece55be5a30e0ccc5c","686e379bc37a29ffa5cdc956","6877601f4e150695a39af75d","1","1","60c8a4ece55be5a30e0ccc5c","1","1","2025-07-16T08:30:11.704Z","","","","","","","","","","","","","","win-only","0","g1:NW,g2:SE","0.6","12","0","682758.8","1110.3","6111.1","38530.4","1","4","8","6","1","-1","-1","0","0","0","1366.6","3000","-2965","[""left"",""up""]","{""num_key_presses"":6,""num_perfect"":3,""num_errors"":0,""num_randdir"":3,""num_randdir_good_moves"":0,""num_whilered"":0,""num_whileblue"":0,""num_blue"":4,""num_good_moves"":0}","[297.22232142857143,305.12857142857143,0.3,297.22232142857143,305.12857142857143,101.1,297.22232142857143,305.12857142857143,207.7,297.22232142857143,305.12857142857143,310.8,297.22232142857143,305.12857142857143,410.9,297.22232142857143,305.12857142857143,512.6,297.22232142857143,305.12857142857143,615,240.22232142857143,260.12857142857143,715.2,153.22232142857143,156.12857142857143,815.7,113.22232142857143,103.12857142857143,915.7,98.22232142857143,77.12857142857143,1016.9,84.22232142857143,55.128571428571426,1124.3,75.22232142857143,45.128571428571426,1226.1,75.22232142857143,45.128571428571426,1329.1,75.22232142857143,45.128571428571426,1430.9,75.22232142857143,45.128571428571426,1538.6,75.22232142857143,45.128571428571426,1640.2,75.22232142857143,45.128571428571426,1741.9,75.22232142857143,45.128571428571426,1844.6,75.22232142857143,45.128571428571426,1944.9,84.22232142857143,58.128571428571426,2049.3,105.22232142857143,121.12857142857143,2151,142.22232142857143,192.12857142857143,2257.4,142.22232142857143,192.12857142857143,2358.2,142.22232142857143,192.12857142857143,2458.4,142.22232142857143,192.12857142857143,2560.8,142.22232142857143,192.12857142857143,2661.5,142.22232142857143,192.12857142857143,2767.2,142.22232142857143,192.12857142857143,2870.9,142.22232142857143,192.12857142857143,2971.3,142.22232142857143,192.12857142857143,3073,142.22232142857143,192.12857142857143,3174.6,142.22232142857143,192.12857142857143,3276.4,142.22232142857143,192.12857142857143,3378.8,142.22232142857143,192.12857142857143,3480.6,142.22232142857143,192.12857142857143,3581.4,142.22232142857143,192.12857142857143,3686.3,142.22232142857143,192.12857142857143,3788.7,142.22232142857143,192.12857142857143,3891.8,142.22232142857143,192.12857142857143,3993.2,142.22232142857143,192.12857142857143,4096.7,142.22232142857143,192.12857142857143,4196.7,142.22232142857143,192.12857142857143,4296.9,142.22232142857143,192.12857142857143,4396.9,142.22232142857143,192.12857142857143,4501.6,142.22232142857143,192.12857142857143,4601.7,142.22232142857143,192.12857142857143,4702,142.22232142857143,192.12857142857143,4807,142.22232142857143,192.12857142857143,4907.4]","[4938.1,4938.1,2466.2,2006.8,465.1,""oops"",""left"",""down"",""bad_move"",10542.2,5603.6,1717.1,8325.8,499.3,""smooth"",""down"",""down"",""bad_move"",21538.8,10996.3,2626,18526.9,385.9,""smooth"",""right"",""right"",""bad_move"",24342.7,2803.1,2315.9,21539.6,487.2,""oops"",""left"",""right"",""bad_move"",27166.6,2823.1,2409.7,24343.5,413.4,""smooth"",""down"",""down"",""bad_move"",29609.1,2441.8,1990.8,27167.3,451,""oops"",""up"",""right"",""bad_move""]","",""
"2993","","<div style=""width:500px;"">
  <p>What determined the result of this run?</p>
  </div>","56","html-slider-response","65","691915","0.0-5.0-1.11","45","1","2025-07-16 08:18:10","1f75c3e559b7213887762d5229550c2b","192.143.69.125","Mozilla/5.0 (Windows NT 10.0; Win64; x64) AppleWebKit/537.36 (KHTML, like Gecko) Chrome/138.0.0.0 Safari/537.36 Edg/138.0.0.0","WebKit","Edge","138.0.0.0","Windows","10.0","https://app.prolific.com/","en-US,en;q=0.9","60c8a4ece55be5a30e0ccc5c","686e379bc37a29ffa5cdc956","6877601f4e150695a39af75d","1","1","60c8a4ece55be5a30e0ccc5c","1","1","2025-07-16T08:30:14.698Z","","","","","","","","","","","AttribQ","","50","","","","","","","","","","","","","","","","","","","","","","","","","","","","",""
"4793","","<div style=""width:500px;"">
  <p>How much control did you have over the ball?</p>
  </div>","17","html-slider-response","66","696709","0.0-5.0-2.11","45","1","2025-07-16 08:18:10","1f75c3e559b7213887762d5229550c2b","192.143.69.125","Mozilla/5.0 (Windows NT 10.0; Win64; x64) AppleWebKit/537.36 (KHTML, like Gecko) Chrome/138.0.0.0 Safari/537.36 Edg/138.0.0.0","WebKit","Edge","138.0.0.0","Windows","10.0","https://app.prolific.com/","en-US,en;q=0.9","60c8a4ece55be5a30e0ccc5c","686e379bc37a29ffa5cdc956","6877601f4e150695a39af75d","1","1","60c8a4ece55be5a30e0ccc5c","1","1","2025-07-16T08:30:19.492Z","","","","","","","","","","","ControlQ","","50","","","","","","","","","","","","","","","","","","","","","","","","","","","","",""
"3612","","<div style=""width:500px;"">
  <p>How would you describe your current emotional state?</p>
  </div>","34","html-slider-response","67","700322","0.0-5.0-3.11","45","1","2025-07-16 08:18:10","1f75c3e559b7213887762d5229550c2b","192.143.69.125","Mozilla/5.0 (Windows NT 10.0; Win64; x64) AppleWebKit/537.36 (KHTML, like Gecko) Chrome/138.0.0.0 Safari/537.36 Edg/138.0.0.0","WebKit","Edge","138.0.0.0","Windows","10.0","https://app.prolific.com/","en-US,en;q=0.9","60c8a4ece55be5a30e0ccc5c","686e379bc37a29ffa5cdc956","6877601f4e150695a39af75d","1","1","60c8a4ece55be5a30e0ccc5c","1","1","2025-07-16T08:30:23.105Z","","","","","","","","","","","StressQ","","50","","","","","","","","","","","","","","","","","","","","","","","","","","","","",""
"3781","","<div style=""width:500px;"">
  <p>What best describes how you currently feel?</p>
  </div>","66","html-slider-response","68","704104","0.0-5.0-4.11","45","1","2025-07-16 08:18:10","1f75c3e559b7213887762d5229550c2b","192.143.69.125","Mozilla/5.0 (Windows NT 10.0; Win64; x64) AppleWebKit/537.36 (KHTML, like Gecko) Chrome/138.0.0.0 Safari/537.36 Edg/138.0.0.0","WebKit","Edge","138.0.0.0","Windows","10.0","https://app.prolific.com/","en-US,en;q=0.9","60c8a4ece55be5a30e0ccc5c","686e379bc37a29ffa5cdc956","6877601f4e150695a39af75d","1","1","60c8a4ece55be5a30e0ccc5c","1","1","2025-07-16T08:30:26.887Z","","","","","","","","","","","MotivationQ","","50","","","","","","","","","","","","","","","","","","","","","","","","","","","","",""
"","","","","ctl-task-cpt","69","740446","0.0-5.0-0.12","45","1","2025-07-16 08:18:10","1f75c3e559b7213887762d5229550c2b","192.143.69.125","Mozilla/5.0 (Windows NT 10.0; Win64; x64) AppleWebKit/537.36 (KHTML, like Gecko) Chrome/138.0.0.0 Safari/537.36 Edg/138.0.0.0","WebKit","Edge","138.0.0.0","Windows","10.0","https://app.prolific.com/","en-US,en;q=0.9","60c8a4ece55be5a30e0ccc5c","686e379bc37a29ffa5cdc956","6877601f4e150695a39af75d","1","1","60c8a4ece55be5a30e0ccc5c","1","1","2025-07-16T08:31:03.229Z","","","","","","","","","","","","","","win-only","0","g1:NW,g2:SE","0.7","13","0","739490.7","1873.7","6882.8","33320.8","1","4","4","6","1","1","0","0","0","0","1247.2","3000","360","[""left"",""up""]","{""num_key_presses"":8,""num_perfect"":5,""num_errors"":1,""num_randdir"":2,""num_randdir_good_moves"":0,""num_whilered"":0,""num_whileblue"":1,""num_blue"":2,""num_good_moves"":6}","[293.22232142857143,292.12857142857143,0.4,293.22232142857143,292.12857142857143,109.4,293.22232142857143,292.12857142857143,209.4,293.22232142857143,292.12857142857143,309.6,293.22232142857143,292.12857142857143,412.3,293.22232142857143,292.12857142857143,512.5,279.22232142857143,282.12857142857143,613.3,139.22232142857143,124.12857142857143,716.9,102.22232142857143,78.12857142857143,817.6,91.22232142857143,62.128571428571426,927.2,85.22232142857143,58.128571428571426,1032,82.22232142857143,55.128571428571426,1138.8,82.22232142857143,55.128571428571426,1239.1,82.22232142857143,55.128571428571426,1340.9,82.22232142857143,55.128571428571426,1442.6,82.22232142857143,55.128571428571426,1542.6,82.22232142857143,55.128571428571426,1646.6,82.22232142857143,55.128571428571426,1758.9,82.22232142857143,55.128571428571426,1859,82.22232142857143,55.128571428571426,1960.5,84.22232142857143,71.12857142857143,2061.8,98.22232142857143,127.12857142857143,2161.8,104.22232142857143,150.12857142857143,2267.6,104.22232142857143,150.12857142857143,2368.6,104.22232142857143,150.12857142857143,2477.3,104.22232142857143,150.12857142857143,2583.4,104.22232142857143,150.12857142857143,2690.9,104.22232142857143,150.12857142857143,2793.9,104.22232142857143,150.12857142857143,2896.6,104.22232142857143,150.12857142857143,2996.7,104.22232142857143,150.12857142857143,3097.6,104.22232142857143,150.12857142857143,3207.4,104.22232142857143,150.12857142857143,3309.2,104.22232142857143,150.12857142857143,3411.7,104.22232142857143,150.12857142857143,3512.4,104.22232142857143,150.12857142857143,3617.5,104.22232142857143,150.12857142857143,3731.2,104.22232142857143,150.12857142857143,3831.7,104.22232142857143,150.12857142857143,3932.1,104.22232142857143,150.12857142857143,4033.1,104.22232142857143,150.12857142857143,4140.9,104.22232142857143,150.12857142857143,4242.3,104.22232142857143,150.12857142857143,4343.3,104.22232142857143,150.12857142857143,4447.2,104.22232142857143,150.12857142857143,4558.4,104.22232142857143,150.12857142857143,4659.2,104.22232142857143,150.12857142857143,4762.3,104.22232142857143,150.12857142857143,4862.5,104.22232142857143,150.12857142857143,4962.9]","[4686.1,4686.1,2224.3,2003.5,458.3,""smooth"",""left"",""left"",""good_move"",8463.4,3776.6,3264.2,4686.8,512.4,""smooth"",""up"",""up"",""good_move"",10301.8,1837.9,1364.4,8463.9,473.5,""smooth"",""left"",""left"",""good_move"",13314.4,3012.3,2553,10302.1,459.3,""oops"",""up"",""down"",""bad_move"",16606,3291.3,2864.7,13314.7,426.6,""oops"",""up"",""right"",""bad_move"",19409.4,2802.8,2448.4,16606.6,354.4,""smooth"",""up"",""up"",""good_move"",23025.4,3615.6,3278.9,19409.8,336.7,""while_blue"",""left"",""left"",""good_move"",26335.8,3310,2722.8,23025.8,587.2,""smooth"",""up"",""up"",""good_move""]","",""
"3650","","<div style=""width:500px;"">
  <p>What determined the result of this run?</p>
  </div>","68","html-slider-response","70","744097","0.0-5.0-1.12","45","1","2025-07-16 08:18:10","1f75c3e559b7213887762d5229550c2b","192.143.69.125","Mozilla/5.0 (Windows NT 10.0; Win64; x64) AppleWebKit/537.36 (KHTML, like Gecko) Chrome/138.0.0.0 Safari/537.36 Edg/138.0.0.0","WebKit","Edge","138.0.0.0","Windows","10.0","https://app.prolific.com/","en-US,en;q=0.9","60c8a4ece55be5a30e0ccc5c","686e379bc37a29ffa5cdc956","6877601f4e150695a39af75d","1","1","60c8a4ece55be5a30e0ccc5c","1","1","2025-07-16T08:31:06.880Z","","","","","","","","","","","AttribQ","","50","","","","","","","","","","","","","","","","","","","","","","","","","","","","",""
"3575","","<div style=""width:500px;"">
  <p>How much control did you have over the ball?</p>
  </div>","42","html-slider-response","71","747673","0.0-5.0-2.12","45","1","2025-07-16 08:18:10","1f75c3e559b7213887762d5229550c2b","192.143.69.125","Mozilla/5.0 (Windows NT 10.0; Win64; x64) AppleWebKit/537.36 (KHTML, like Gecko) Chrome/138.0.0.0 Safari/537.36 Edg/138.0.0.0","WebKit","Edge","138.0.0.0","Windows","10.0","https://app.prolific.com/","en-US,en;q=0.9","60c8a4ece55be5a30e0ccc5c","686e379bc37a29ffa5cdc956","6877601f4e150695a39af75d","1","1","60c8a4ece55be5a30e0ccc5c","1","1","2025-07-16T08:31:10.456Z","","","","","","","","","","","ControlQ","","50","","","","","","","","","","","","","","","","","","","","","","","","","","","","",""
"2571","","<div style=""width:500px;"">
  <p>How would you describe your current emotional state?</p>
  </div>","41","html-slider-response","72","750245","0.0-5.0-3.12","45","1","2025-07-16 08:18:10","1f75c3e559b7213887762d5229550c2b","192.143.69.125","Mozilla/5.0 (Windows NT 10.0; Win64; x64) AppleWebKit/537.36 (KHTML, like Gecko) Chrome/138.0.0.0 Safari/537.36 Edg/138.0.0.0","WebKit","Edge","138.0.0.0","Windows","10.0","https://app.prolific.com/","en-US,en;q=0.9","60c8a4ece55be5a30e0ccc5c","686e379bc37a29ffa5cdc956","6877601f4e150695a39af75d","1","1","60c8a4ece55be5a30e0ccc5c","1","1","2025-07-16T08:31:13.028Z","","","","","","","","","","","StressQ","","50","","","","","","","","","","","","","","","","","","","","","","","","","","","","",""
"5636","","<div style=""width:500px;"">
  <p>What best describes how you currently feel?</p>
  </div>","59","html-slider-response","73","755882","0.0-5.0-4.12","45","1","2025-07-16 08:18:10","1f75c3e559b7213887762d5229550c2b","192.143.69.125","Mozilla/5.0 (Windows NT 10.0; Win64; x64) AppleWebKit/537.36 (KHTML, like Gecko) Chrome/138.0.0.0 Safari/537.36 Edg/138.0.0.0","WebKit","Edge","138.0.0.0","Windows","10.0","https://app.prolific.com/","en-US,en;q=0.9","60c8a4ece55be5a30e0ccc5c","686e379bc37a29ffa5cdc956","6877601f4e150695a39af75d","1","1","60c8a4ece55be5a30e0ccc5c","1","1","2025-07-16T08:31:18.665Z","","","","","","","","","","","MotivationQ","","50","","","","","","","","","","","","","","","","","","","","","","","","","","","","",""
"","","","","ctl-task-cpt","74","790460","0.0-5.0-0.13","45","1","2025-07-16 08:18:10","1f75c3e559b7213887762d5229550c2b","192.143.69.125","Mozilla/5.0 (Windows NT 10.0; Win64; x64) AppleWebKit/537.36 (KHTML, like Gecko) Chrome/138.0.0.0 Safari/537.36 Edg/138.0.0.0","WebKit","Edge","138.0.0.0","Windows","10.0","https://app.prolific.com/","en-US,en;q=0.9","60c8a4ece55be5a30e0ccc5c","686e379bc37a29ffa5cdc956","6877601f4e150695a39af75d","1","1","60c8a4ece55be5a30e0ccc5c","1","1","2025-07-16T08:31:53.243Z","","","","","","","","","","","","","","win-only","0","g1:NW,g2:SE","0.8","14","0","791269.9","5480.7","10482.8","31555.7","1","4","8","6","1","1","1","1","0","0.007575757575757576","1387.1","3000","700","[""left"",""up""]","{""num_key_presses"":6,""num_perfect"":4,""num_errors"":0,""num_randdir"":2,""num_randdir_good_moves"":1,""num_whilered"":0,""num_whileblue"":0,""num_blue"":1,""num_good_moves"":5}","[294.22232142857143,292.12857142857143,0.3,294.22232142857143,292.12857142857143,103.5,294.22232142857143,292.12857142857143,204.8,294.22232142857143,292.12857142857143,305.1,294.22232142857143,292.12857142857143,409.5,294.22232142857143,292.12857142857143,517.4,294.22232142857143,292.12857142857143,617.5,243.22232142857143,257.12857142857143,718.5,142.22232142857143,155.12857142857143,819.5,121.22232142857143,119.12857142857143,921,97.22232142857143,98.12857142857143,1025.2,61.222321428571426,73.12857142857143,1135.5,45.222321428571426,64.12857142857143,1238.4,45.222321428571426,64.12857142857143,1340,45.222321428571426,64.12857142857143,1451.1,45.222321428571426,64.12857142857143,1552.9,45.222321428571426,64.12857142857143,1654.9,45.222321428571426,64.12857142857143,1755.4,45.222321428571426,64.12857142857143,1867.3,45.222321428571426,64.12857142857143,1969.3,45.222321428571426,64.12857142857143,2069.7,45.222321428571426,64.12857142857143,2175.4,45.222321428571426,64.12857142857143,2287.3,45.222321428571426,64.12857142857143,2389.4,45.222321428571426,64.12857142857143,2489.7,45.222321428571426,64.12857142857143,2590.4,45.222321428571426,64.12857142857143,2690.5,45.222321428571426,64.12857142857143,2797.7,45.222321428571426,64.12857142857143,2902.7,45.222321428571426,64.12857142857143,3004.9,45.222321428571426,64.12857142857143,3116.9,45.222321428571426,64.12857142857143,3219.3,45.222321428571426,64.12857142857143,3320,45.222321428571426,64.12857142857143,3424.5,45.222321428571426,64.12857142857143,3524.9,45.222321428571426,64.12857142857143,3625.4,45.222321428571426,64.12857142857143,3725.8,45.222321428571426,64.12857142857143,3835.8,45.222321428571426,64.12857142857143,3936.6,45.222321428571426,64.12857142857143,4040.3,45.222321428571426,64.12857142857143,4142,45.222321428571426,64.12857142857143,4252,45.222321428571426,64.12857142857143,4354.5,45.222321428571426,64.12857142857143,4456,45.222321428571426,64.12857142857143,4556.3,45.222321428571426,64.12857142857143,4659.8,45.222321428571426,64.12857142857143,4767.4,45.222321428571426,64.12857142857143,4868.7,45.222321428571426,64.12857142857143,4969.7]","[4727.2,4727.2,2137.1,2011.6,578.5,""smooth"",""left"",""left"",""good_move"",8403.6,3676,3339,4727.6,337.1,""smooth"",""up"",""up"",""good_move"",11168.2,2763.5,2249.2,8404.7,514.3,""oops"",""up"",""right"",""bad_move"",14393.4,3224.6,2889.9,11168.8,334.7,""smooth"",""up"",""up"",""good_move"",17504.3,3110.3,2627.9,14394,482.4,""smooth"",""left"",""left"",""good_move"",20968.6,3463.8,2726.6,17504.8,737.2,""oops"",""left"",""left"",""good_move""]","",""
"3283","","<div style=""width:500px;"">
  <p>What determined the result of this run?</p>
  </div>","81","html-slider-response","75","793744","0.0-5.0-1.13","45","1","2025-07-16 08:18:10","1f75c3e559b7213887762d5229550c2b","192.143.69.125","Mozilla/5.0 (Windows NT 10.0; Win64; x64) AppleWebKit/537.36 (KHTML, like Gecko) Chrome/138.0.0.0 Safari/537.36 Edg/138.0.0.0","WebKit","Edge","138.0.0.0","Windows","10.0","https://app.prolific.com/","en-US,en;q=0.9","60c8a4ece55be5a30e0ccc5c","686e379bc37a29ffa5cdc956","6877601f4e150695a39af75d","1","1","60c8a4ece55be5a30e0ccc5c","1","1","2025-07-16T08:31:56.527Z","","","","","","","","","","","AttribQ","","50","","","","","","","","","","","","","","","","","","","","","","","","","","","","",""
"5215","","<div style=""width:500px;"">
  <p>How much control did you have over the ball?</p>
  </div>","84","html-slider-response","76","798961","0.0-5.0-2.13","45","1","2025-07-16 08:18:10","1f75c3e559b7213887762d5229550c2b","192.143.69.125","Mozilla/5.0 (Windows NT 10.0; Win64; x64) AppleWebKit/537.36 (KHTML, like Gecko) Chrome/138.0.0.0 Safari/537.36 Edg/138.0.0.0","WebKit","Edge","138.0.0.0","Windows","10.0","https://app.prolific.com/","en-US,en;q=0.9","60c8a4ece55be5a30e0ccc5c","686e379bc37a29ffa5cdc956","6877601f4e150695a39af75d","1","1","60c8a4ece55be5a30e0ccc5c","1","1","2025-07-16T08:32:01.744Z","","","","","","","","","","","ControlQ","","50","","","","","","","","","","","","","","","","","","","","","","","","","","","","",""
"2987","","<div style=""width:500px;"">
  <p>How would you describe your current emotional state?</p>
  </div>","32","html-slider-response","77","801949","0.0-5.0-3.13","45","1","2025-07-16 08:18:10","1f75c3e559b7213887762d5229550c2b","192.143.69.125","Mozilla/5.0 (Windows NT 10.0; Win64; x64) AppleWebKit/537.36 (KHTML, like Gecko) Chrome/138.0.0.0 Safari/537.36 Edg/138.0.0.0","WebKit","Edge","138.0.0.0","Windows","10.0","https://app.prolific.com/","en-US,en;q=0.9","60c8a4ece55be5a30e0ccc5c","686e379bc37a29ffa5cdc956","6877601f4e150695a39af75d","1","1","60c8a4ece55be5a30e0ccc5c","1","1","2025-07-16T08:32:04.732Z","","","","","","","","","","","StressQ","","50","","","","","","","","","","","","","","","","","","","","","","","","","","","","",""
"3015","","<div style=""width:500px;"">
  <p>What best describes how you currently feel?</p>
