"rt","response_timestamp","stimulus","response","trial_type","trial_index","time_elapsed","internal_node_id","run_id","condition","recorded_at","source_code_version","ip","user_agent","device","browser","browser_version","platform","platform_version","referer","accept_language","PROLIFIC_PID","STUDY_ID","SESSION_ID","WEEK","BATCH","prolific_id","week","batch","realtime","success","responses","item_order","radio_event_ids","radio_event_times","key_event_times","mouse_event_times","straightlining","zigzagging","honeypot","eventType","view_history","slider_start","which_type","canvas_config","goals_layout","control_level","trial_number","tutorial_trial_number","trial_start_time","phase1_start_time","phase2_start_time","phase3_start_time","goal_1_value","goal_1_distance","goal_2_value","goal_2_distance","goal_selected","outcome","outcome_total","participant_final_score","participant_initial_score","participant_final_score_prop","goal_choice_rt","allocated_time","allocated_time_remaining","goal_direction","counts","mouse_movements","key_presses","question_order","question_id"
"19184","1753940286773","<p style='font-size:40px;line-height:1.25'><strong>Welcome to the experiment!</strong></p><p style='font-size:1.1em;line-height:1.25'>Thank you for participanting in our experiment again! You will be asked to play the Dysfunctional Ball Game again. We will briefly recap the rules before we start.</p><p style='font-size:1.1em;line-height:1.25'>Press <strong>Next</strong> to continue.</p>","0","custom-html-button-response","0","19202","0.0-0.0","303","1","2025-07-31 05:37:47","1f75c3e559b7213887762d5229550c2b","87.123.247.154","Mozilla/5.0 (Windows NT 10.0; Win64; x64; rv:141.0) Gecko/20100101 Firefox/141.0","","Firefox","141.0","Windows","10.0","https://app.prolific.com/","de,en-US;q=0.7,en;q=0.3","66ebc8c5e5b772065830754d","6877631c9844ddd5501205fc","688b011da571f109cb488370","3","1","66ebc8c5e5b772065830754d","3","1","2025-07-31T05:38:06.773Z","","","","","","","","","","","","","","","","","","","","","","","","","","","","","","","","","","","","","","","","","",""
"5203","","","","fullscreen","1","25417","0.0-1.0","303","1","2025-07-31 05:37:47","1f75c3e559b7213887762d5229550c2b","87.123.247.154","Mozilla/5.0 (Windows NT 10.0; Win64; x64; rv:141.0) Gecko/20100101 Firefox/141.0","","Firefox","141.0","Windows","10.0","https://app.prolific.com/","de,en-US;q=0.7,en;q=0.3","66ebc8c5e5b772065830754d","6877631c9844ddd5501205fc","688b011da571f109cb488370","3","1","66ebc8c5e5b772065830754d","3","1","","true","","","","","","","","","","","","","","","","","","","","","","","","","","","","","","","","","","","","","","","","",""
"1348","1753940294340","<p style='font-size:1.1em;line-height:1.25'>In the following, we will ask you a few questions relating to your feelings in the last 24 hours.<br></p><p style='font-size:1.1em;line-height:1.25'>Press the <strong>Next</strong> button to continue.</p>","0","custom-html-button-response","2","26770","0.0-2.0-0.0","303","1","2025-07-31 05:37:47","1f75c3e559b7213887762d5229550c2b","87.123.247.154","Mozilla/5.0 (Windows NT 10.0; Win64; x64; rv:141.0) Gecko/20100101 Firefox/141.0","","Firefox","141.0","Windows","10.0","https://app.prolific.com/","de,en-US;q=0.7,en;q=0.3","66ebc8c5e5b772065830754d","6877631c9844ddd5501205fc","688b011da571f109cb488370","3","1","66ebc8c5e5b772065830754d","3","1","2025-07-31T05:38:14.341Z","","","","","","","","","","","","","","","","","","","","","","","","","","","","","","","","","","","","","","","","","",""
"59122","","","","survey-template","3","85897","0.0-2.0-1.0","303","1","2025-07-31 05:37:47","1f75c3e559b7213887762d5229550c2b","87.123.247.154","Mozilla/5.0 (Windows NT 10.0; Win64; x64; rv:141.0) Gecko/20100101 Firefox/141.0","","Firefox","141.0","Windows","10.0","https://app.prolific.com/","de,en-US;q=0.7,en;q=0.3","66ebc8c5e5b772065830754d","6877631c9844ddd5501205fc","688b011da571f109cb488370","3","1","66ebc8c5e5b772065830754d","3","1","2025-07-31T05:39:13.468Z","","{""Q01"":""3"",""Q02"":""3"",""Q03"":""3"",""Q04"":""3"",""Q05"":""4"",""Q06"":""3"",""Q07"":""4"",""Q08"":""3"",""Q09"":""4"",""Q10"":""3"",""Q11"":""3"",""Q12"":""1"",""Q13"":""5"",""Q14"":""1"",""Q15"":""2"",""Q16"":""3"",""Q17"":""4"",""Q18"":""3"",""Q19"":""3"",""Q20"":""2"",""Q21"":""2"",""Q22"":""3""}","[0,1,2,3,4,5,6,7,8,9,10,11,12,13,14,15,16,17,18,19,20,21]","[""Q01"",""Q02"",""Q03"",""Q03"",""Q04"",""Q05"",""Q07"",""Q06"",""Q08"",""Q09"",""Q10"",""Q11"",""Q12"",""Q13"",""Q12"",""Q12"",""Q14"",""Q15"",""Q16"",""Q17"",""Q18"",""Q19"",""Q20"",""Q21"",""Q22""]","[1926,2938,4056,6343,6959,8315,12591,13790,16454,17518,19211,20555,22745,24409,25244,26203,29083,29960,45013,47113,49302,53563,55266,56939,58500]","[]","[0,1926,2938,4056,5278,5908,6343,6959,7798,8315,9494,9921,11825,12200,12591,13423,13790,15402,16079,16454,17518,19211,20555,21584,22745,23884,24409,25244,25761,26203,28279,29083,29960,45013,45785,47113,49302,50766,51809,53563,55266,56939,58500,59120]","0.5454545454545454","0.5714285714285714","0","drsp","","","","","","","","","","","","","","","","","","","","","","","","","","","","","","",""
"6481","","","","survey-template","4","92381","0.0-2.0-2.0","303","1","2025-07-31 05:37:47","1f75c3e559b7213887762d5229550c2b","87.123.247.154","Mozilla/5.0 (Windows NT 10.0; Win64; x64; rv:141.0) Gecko/20100101 Firefox/141.0","","Firefox","141.0","Windows","10.0","https://app.prolific.com/","de,en-US;q=0.7,en;q=0.3","66ebc8c5e5b772065830754d","6877631c9844ddd5501205fc","688b011da571f109cb488370","3","1","66ebc8c5e5b772065830754d","3","1","2025-07-31T05:39:19.952Z","","{""Q01"":""3"",""Q02"":""1"",""Q03"":""4""}","[0,1,2]","[""Q01"",""Q02"",""Q03""]","[3307,4133,6030]","[]","[1905,2672,2932,3307,4133,5588,6030,6481]","0.6666666666666666","0.5","0","stress","","","","","","","","","","","","","","","","","","","","","","","","","","","","","","",""
"10827","","","","instructions","5","103212","0.0-3.0-0.0","303","1","2025-07-31 05:37:47","1f75c3e559b7213887762d5229550c2b","87.123.247.154","Mozilla/5.0 (Windows NT 10.0; Win64; x64; rv:141.0) Gecko/20100101 Firefox/141.0","","Firefox","141.0","Windows","10.0","https://app.prolific.com/","de,en-US;q=0.7,en;q=0.3","66ebc8c5e5b772065830754d","6877631c9844ddd5501205fc","688b011da571f109cb488370","3","1","66ebc8c5e5b772065830754d","3","1","","","","","","","","","","","","","[{""page_index"":0,""viewing_time"":10827}]","","","","","","","","","","","","","","","","","","","","","","","","","","","","","",""
"3987","","<p>Before you start with this game please answer the following three questions yourself. </p>
  <p>Through this game, we measure several aspects of your cognitive performance, such as reaction times, multi-tasking capabilities </p>
  <p>and the ability to assess the situation you are in.</p>
  <p></p>
  <p><b>How good do you usually are in such tasks?</b></p>","57","html-slider-response","6","107201","0.0-4.0-0.0","303","1","2025-07-31 05:37:47","1f75c3e559b7213887762d5229550c2b","87.123.247.154","Mozilla/5.0 (Windows NT 10.0; Win64; x64; rv:141.0) Gecko/20100101 Firefox/141.0","","Firefox","141.0","Windows","10.0","https://app.prolific.com/","de,en-US;q=0.7,en;q=0.3","66ebc8c5e5b772065830754d","6877631c9844ddd5501205fc","688b011da571f109cb488370","3","1","66ebc8c5e5b772065830754d","3","1","2025-07-31T05:39:34.772Z","","","","","","","","","","","PreSkillQ","","50","","","","","","","","","","","","","","","","","","","","","","","","","","","","",""
"7033","","<div style=""width:500px;"">
  <p>How well do you think you will perform in this task compared to other participants?</p>
  </div>","59","html-slider-response","7","114236","0.0-4.0-1.0","303","1","2025-07-31 05:37:47","1f75c3e559b7213887762d5229550c2b","87.123.247.154","Mozilla/5.0 (Windows NT 10.0; Win64; x64; rv:141.0) Gecko/20100101 Firefox/141.0","","Firefox","141.0","Windows","10.0","https://app.prolific.com/","de,en-US;q=0.7,en;q=0.3","66ebc8c5e5b772065830754d","6877631c9844ddd5501205fc","688b011da571f109cb488370","3","1","66ebc8c5e5b772065830754d","3","1","2025-07-31T05:39:41.807Z","","","","","","","","","","","PrePerfQ","","50","","","","","","","","","","","","","","","","","","","","","","","","","","","","",""
"1468","","<div style=""width:500px;"">
  <p>What best describes how you currently feel?</p>
  </div>","63","html-slider-response","8","115706","0.0-4.0-2.0","303","1","2025-07-31 05:37:47","1f75c3e559b7213887762d5229550c2b","87.123.247.154","Mozilla/5.0 (Windows NT 10.0; Win64; x64; rv:141.0) Gecko/20100101 Firefox/141.0","","Firefox","141.0","Windows","10.0","https://app.prolific.com/","de,en-US;q=0.7,en;q=0.3","66ebc8c5e5b772065830754d","6877631c9844ddd5501205fc","688b011da571f109cb488370","3","1","66ebc8c5e5b772065830754d","3","1","2025-07-31T05:39:43.277Z","","","","","","","","","","","PreMotivationQ","","50","","","","","","","","","","","","","","","","","","","","","","","","","","","","",""
"","","","","ctl-task-cpt","9","148725","0.0-5.0-0.0","303","1","2025-07-31 05:37:47","1f75c3e559b7213887762d5229550c2b","87.123.247.154","Mozilla/5.0 (Windows NT 10.0; Win64; x64; rv:141.0) Gecko/20100101 Firefox/141.0","","Firefox","141.0","Windows","10.0","https://app.prolific.com/","de,en-US;q=0.7,en;q=0.3","66ebc8c5e5b772065830754d","6877631c9844ddd5501205fc","688b011da571f109cb488370","3","1","66ebc8c5e5b772065830754d","3","1","2025-07-31T05:40:16.296Z","","","","","","","","","","","","","","win-only","1","g1:NE,g2:SW","1","1","0","117215","1098","6100","30004","1","4","8","6","2","8","8","8","0","0.06060606060606061","5002","3000","2020","[""down"",""left""]","{""num_key_presses"":6,""num_perfect"":6,""num_errors"":0,""num_randdir"":0,""num_randdir_good_moves"":0,""num_whilered"":0,""num_whileblue"":0,""num_blue"":2,""num_good_moves"":6}","[419.57142857142856,411.62142399379184,0,419.57142857142856,411.62142399379184,112,985.0714285714286,524.1214239937918,222,1367.5714285714287,636.6214239937918,328,1367.5714285714287,636.6214239937918,438,1367.5714285714287,636.6214239937918,548,1367.5714285714287,636.6214239937918,658,1367.5714285714287,636.6214239937918,768,1367.5714285714287,636.6214239937918,876,1367.5714285714287,636.6214239937918,986,1367.5714285714287,636.6214239937918,1096,1367.5714285714287,636.6214239937918,1206,1367.5714285714287,636.6214239937918,1317,1367.5714285714287,636.6214239937918,1426,1367.5714285714287,636.6214239937918,1535,1367.5714285714287,636.6214239937918,1644,1367.5714285714287,636.6214239937918,1752,1367.5714285714287,636.6214239937918,1862,1367.5714285714287,636.6214239937918,1972,1367.5714285714287,636.6214239937918,2080,1367.5714285714287,636.6214239937918,2189,1367.5714285714287,636.6214239937918,2300,1367.5714285714287,636.6214239937918,2409,1367.5714285714287,636.6214239937918,2518,1367.5714285714287,636.6214239937918,2628,1367.5714285714287,636.6214239937918,2737,1367.5714285714287,636.6214239937918,2845,1367.5714285714287,636.6214239937918,2956,1367.5714285714287,636.6214239937918,3064,1367.5714285714287,636.6214239937918,3174,1367.5714285714287,636.6214239937918,3284,1367.5714285714287,636.6214239937918,3393,1367.5714285714287,636.6214239937918,3502,1367.5714285714287,636.6214239937918,3611,1367.5714285714287,636.6214239937918,3722,1367.5714285714287,636.6214239937918,3830,1367.5714285714287,636.6214239937918,3940,1367.5714285714287,636.6214239937918,4049,1367.5714285714287,636.6214239937918,4155,1367.5714285714287,636.6214239937918,4265,1367.5714285714287,636.6214239937918,4376,1367.5714285714287,636.6214239937918,4485,1367.5714285714287,636.6214239937918,4596,1367.5714285714287,636.6214239937918,4705,1367.5714285714287,636.6214239937918,4814,1139.5714285714287,693.6214239937918,4923]","[2230,2230,1000,0,1230,""smooth"",""left"",""left"",""good_move"",5262,3032,2443.1,2230,588.9,""smooth"",""down"",""down"",""good_move"",15027,9765,2511.5,12103,412.5,""smooth"",""left"",""left"",""good_move"",18065,3038,1832.5,15027,1205.5,""smooth"",""down"",""down"",""good_move"",21107,3042,2661,18065,381,""smooth"",""down"",""down"",""good_move"",23620,2513,2160.1,21107,352.9,""smooth"",""left"",""left"",""good_move""]","",""
"2484","","<div style=""width:500px;"">
  <p>What determined the result of this run?</p>
  </div>","100","html-slider-response","10","151210","0.0-5.0-1.0","303","1","2025-07-31 05:37:47","1f75c3e559b7213887762d5229550c2b","87.123.247.154","Mozilla/5.0 (Windows NT 10.0; Win64; x64; rv:141.0) Gecko/20100101 Firefox/141.0","","Firefox","141.0","Windows","10.0","https://app.prolific.com/","de,en-US;q=0.7,en;q=0.3","66ebc8c5e5b772065830754d","6877631c9844ddd5501205fc","688b011da571f109cb488370","3","1","66ebc8c5e5b772065830754d","3","1","2025-07-31T05:40:18.781Z","","","","","","","","","","","AttribQ","","50","","","","","","","","","","","","","","","","","","","","","","","","","","","","",""
"1709","","<div style=""width:500px;"">
  <p>How much control did you have over the ball?</p>
  </div>","100","html-slider-response","11","152920","0.0-5.0-2.0","303","1","2025-07-31 05:37:47","1f75c3e559b7213887762d5229550c2b","87.123.247.154","Mozilla/5.0 (Windows NT 10.0; Win64; x64; rv:141.0) Gecko/20100101 Firefox/141.0","","Firefox","141.0","Windows","10.0","https://app.prolific.com/","de,en-US;q=0.7,en;q=0.3","66ebc8c5e5b772065830754d","6877631c9844ddd5501205fc","688b011da571f109cb488370","3","1","66ebc8c5e5b772065830754d","3","1","2025-07-31T05:40:20.491Z","","","","","","","","","","","ControlQ","","50","","","","","","","","","","","","","","","","","","","","","","","","","","","","",""
"2347","","<div style=""width:500px;"">
  <p>How would you describe your current emotional state?</p>
  </div>","32","html-slider-response","12","155268","0.0-5.0-3.0","303","1","2025-07-31 05:37:47","1f75c3e559b7213887762d5229550c2b","87.123.247.154","Mozilla/5.0 (Windows NT 10.0; Win64; x64; rv:141.0) Gecko/20100101 Firefox/141.0","","Firefox","141.0","Windows","10.0","https://app.prolific.com/","de,en-US;q=0.7,en;q=0.3","66ebc8c5e5b772065830754d","6877631c9844ddd5501205fc","688b011da571f109cb488370","3","1","66ebc8c5e5b772065830754d","3","1","2025-07-31T05:40:22.839Z","","","","","","","","","","","StressQ","","50","","","","","","","","","","","","","","","","","","","","","","","","","","","","",""
"2032","","<div style=""width:500px;"">
  <p>What best describes how you currently feel?</p>
  </div>","65","html-slider-response","13","157302","0.0-5.0-4.0","303","1","2025-07-31 05:37:47","1f75c3e559b7213887762d5229550c2b","87.123.247.154","Mozilla/5.0 (Windows NT 10.0; Win64; x64; rv:141.0) Gecko/20100101 Firefox/141.0","","Firefox","141.0","Windows","10.0","https://app.prolific.com/","de,en-US;q=0.7,en;q=0.3","66ebc8c5e5b772065830754d","6877631c9844ddd5501205fc","688b011da571f109cb488370","3","1","66ebc8c5e5b772065830754d","3","1","2025-07-31T05:40:24.873Z","","","","","","","","","","","MotivationQ","","50","","","","","","","","","","","","","","","","","","","","","","","","","","","","",""
"","","","","ctl-task-cpt","14","192023","0.0-5.0-0.1","303","1","2025-07-31 05:37:47","1f75c3e559b7213887762d5229550c2b","87.123.247.154","Mozilla/5.0 (Windows NT 10.0; Win64; x64; rv:141.0) Gecko/20100101 Firefox/141.0","","Firefox","141.0","Windows","10.0","https://app.prolific.com/","de,en-US;q=0.7,en;q=0.3","66ebc8c5e5b772065830754d","6877631c9844ddd5501205fc","688b011da571f109cb488370","3","1","66ebc8c5e5b772065830754d","3","1","2025-07-31T05:40:59.595Z","","","","","","","","","","","","","","win-only","1","g1:NE,g2:SW","0.9","2","0","158808","1619","6626","31706","1","4","4","6","2","4","4","12","8","0.09090909090909091","898","3000","2065","[""down"",""left""]","{""num_key_presses"":8,""num_perfect"":7,""num_errors"":0,""num_randdir"":1,""num_randdir_good_moves"":0,""num_whilered"":0,""num_whileblue"":0,""num_blue"":1,""num_good_moves"":7}","[419.57142857142856,417.62142399379184,0,419.57142857142856,417.62142399379184,103,422.57142857142856,417.62142399379184,213,433.07142857142856,414.62142399379184,323,406.07142857142856,399.62142399379184,432,131.57142857142856,630.6214239937918,541,115.07142857142857,672.6214239937918,650,91.07142857142857,726.6214239937918,759,88.07142857142857,738.6214239937918,869,86.57142857142857,741.6214239937918,977,328.07142857142856,654.6214239937918,1086,923.5714285714286,486.62142399379184,1195,1094.5714285714287,477.62142399379184,1307,1123.0714285714287,477.62142399379184,1417,1123.0714285714287,479.12142399379184,1526,1123.0714285714287,479.12142399379184,1636,1123.0714285714287,479.12142399379184,1743,1123.0714285714287,479.12142399379184,1852,1123.0714285714287,479.12142399379184,1961,1123.0714285714287,479.12142399379184,2071,1123.0714285714287,479.12142399379184,2180,1123.0714285714287,479.12142399379184,2289,1123.0714285714287,479.12142399379184,2398,1123.0714285714287,479.12142399379184,2508,1123.0714285714287,479.12142399379184,2617,1123.0714285714287,479.12142399379184,2726,1123.0714285714287,479.12142399379184,2836,1123.0714285714287,479.12142399379184,2945,1123.0714285714287,479.12142399379184,3054,1123.0714285714287,479.12142399379184,3164,1123.0714285714287,479.12142399379184,3272,1123.0714285714287,479.12142399379184,3382,1123.0714285714287,479.12142399379184,3491,1123.0714285714287,479.12142399379184,3600,1123.0714285714287,479.12142399379184,3709,1123.0714285714287,479.12142399379184,3819,1123.0714285714287,479.12142399379184,3927,1123.0714285714287,479.12142399379184,4036,1123.0714285714287,479.12142399379184,4146,1123.0714285714287,479.12142399379184,4255,1123.0714285714287,479.12142399379184,4366,1123.0714285714287,479.12142399379184,4476,1123.0714285714287,479.12142399379184,4586,1123.0714285714287,479.12142399379184,4696,1123.0714285714287,479.12142399379184,4803,1123.0714285714287,479.12142399379184,4912]","[1378,1378,1000,0,378,""smooth"",""left"",""left"",""good_move"",4390,3012,2116.4,1378,895.6,""smooth"",""down"",""down"",""good_move"",6909,2519,2087,4390,432,""smooth"",""left"",""left"",""good_move"",9905,2996,2225.5,6909,770.5,""oops"",""down"",""up"",""bad_move"",13244,3339,2990.1,9905,348.9,""smooth"",""down"",""down"",""good_move"",15948,2704,2334.5,13244,369.5,""smooth"",""down"",""down"",""good_move"",22164,6216,2276.1,19523,364.9,""smooth"",""down"",""down"",""good_move"",24795,2631,2198.7,22164,432.3,""smooth"",""left"",""left"",""good_move""]","",""
"2290","","<div style=""width:500px;"">
  <p>What determined the result of this run?</p>
  </div>","82","html-slider-response","15","194315","0.0-5.0-1.1","303","1","2025-07-31 05:37:47","1f75c3e559b7213887762d5229550c2b","87.123.247.154","Mozilla/5.0 (Windows NT 10.0; Win64; x64; rv:141.0) Gecko/20100101 Firefox/141.0","","Firefox","141.0","Windows","10.0","https://app.prolific.com/","de,en-US;q=0.7,en;q=0.3","66ebc8c5e5b772065830754d","6877631c9844ddd5501205fc","688b011da571f109cb488370","3","1","66ebc8c5e5b772065830754d","3","1","2025-07-31T05:41:01.886Z","","","","","","","","","","","AttribQ","","50","","","","","","","","","","","","","","","","","","","","","","","","","","","","",""
"2024","","<div style=""width:500px;"">
  <p>How much control did you have over the ball?</p>
  </div>","66","html-slider-response","16","196339","0.0-5.0-2.1","303","1","2025-07-31 05:37:47","1f75c3e559b7213887762d5229550c2b","87.123.247.154","Mozilla/5.0 (Windows NT 10.0; Win64; x64; rv:141.0) Gecko/20100101 Firefox/141.0","","Firefox","141.0","Windows","10.0","https://app.prolific.com/","de,en-US;q=0.7,en;q=0.3","66ebc8c5e5b772065830754d","6877631c9844ddd5501205fc","688b011da571f109cb488370","3","1","66ebc8c5e5b772065830754d","3","1","2025-07-31T05:41:03.910Z","","","","","","","","","","","ControlQ","","50","","","","","","","","","","","","","","","","","","","","","","","","","","","","",""
"2393","","<div style=""width:500px;"">
  <p>How would you describe your current emotional state?</p>
  </div>","51","html-slider-response","17","198732","0.0-5.0-3.1","303","1","2025-07-31 05:37:47","1f75c3e559b7213887762d5229550c2b","87.123.247.154","Mozilla/5.0 (Windows NT 10.0; Win64; x64; rv:141.0) Gecko/20100101 Firefox/141.0","","Firefox","141.0","Windows","10.0","https://app.prolific.com/","de,en-US;q=0.7,en;q=0.3","66ebc8c5e5b772065830754d","6877631c9844ddd5501205fc","688b011da571f109cb488370","3","1","66ebc8c5e5b772065830754d","3","1","2025-07-31T05:41:06.303Z","","","","","","","","","","","StressQ","","50","","","","","","","","","","","","","","","","","","","","","","","","","","","","",""
"1598","","<div style=""width:500px;"">
  <p>What best describes how you currently feel?</p>
  </div>","57","html-slider-response","18","200331","0.0-5.0-4.1","303","1","2025-07-31 05:37:47","1f75c3e559b7213887762d5229550c2b","87.123.247.154","Mozilla/5.0 (Windows NT 10.0; Win64; x64; rv:141.0) Gecko/20100101 Firefox/141.0","","Firefox","141.0","Windows","10.0","https://app.prolific.com/","de,en-US;q=0.7,en;q=0.3","66ebc8c5e5b772065830754d","6877631c9844ddd5501205fc","688b011da571f109cb488370","3","1","66ebc8c5e5b772065830754d","3","1","2025-07-31T05:41:07.902Z","","","","","","","","","","","MotivationQ","","50","","","","","","","","","","","","","","","","","","","","","","","","","","","","",""
"","","","","ctl-task-cpt","19","238607","0.0-5.0-0.2","303","1","2025-07-31 05:37:47","1f75c3e559b7213887762d5229550c2b","87.123.247.154","Mozilla/5.0 (Windows NT 10.0; Win64; x64; rv:141.0) Gecko/20100101 Firefox/141.0","","Firefox","141.0","Windows","10.0","https://app.prolific.com/","de,en-US;q=0.7,en;q=0.3","66ebc8c5e5b772065830754d","6877631c9844ddd5501205fc","688b011da571f109cb488370","3","1","66ebc8c5e5b772065830754d","3","1","2025-07-31T05:41:46.178Z","","","","","","","","","","","","","","win-only","1","g1:NE,g2:SW","0.8","3","0","201837","1114","6125","35274","1","4","8","6","2","8","8","20","12","0.15151515151515152","1038","3000","2290","[""down"",""left""]","{""num_key_presses"":6,""num_perfect"":4,""num_errors"":0,""num_randdir"":2,""num_randdir_good_moves"":2,""num_whilered"":0,""num_whileblue"":0,""num_blue"":4,""num_good_moves"":6}","[425.57142857142856,422.12142399379184,0,425.57142857142856,422.12142399379184,110,425.57142857142856,422.12142399379184,220,425.57142857142856,422.12142399379184,329,265.07142857142856,492.62142399379184,439,172.07142857142856,603.6214239937918,548,160.07142857142856,693.6214239937918,655,149.57142857142856,714.6214239937918,765,133.07142857142856,726.6214239937918,874,128.57142857142856,729.6214239937918,984,124.07142857142857,732.6214239937918,1094,173.57142857142856,726.6214239937918,1204,556.0714285714286,654.6214239937918,1314,874.0714285714286,593.1214239937918,1421,1010.5714285714286,579.6214239937918,1529,1109.5714285714287,573.6214239937918,1639,1135.0714285714287,573.6214239937918,1747,1135.0714285714287,573.6214239937918,1857,1135.0714285714287,573.6214239937918,1966,1135.0714285714287,573.6214239937918,2075,1135.0714285714287,573.6214239937918,2184,1135.0714285714287,573.6214239937918,2294,1135.0714285714287,573.6214239937918,2404,1135.0714285714287,573.6214239937918,2513,1135.0714285714287,573.6214239937918,2622,1135.0714285714287,573.6214239937918,2730,1135.0714285714287,573.6214239937918,2840,1135.0714285714287,573.6214239937918,2950,1135.0714285714287,573.6214239937918,3059,1135.0714285714287,573.6214239937918,3168,1135.0714285714287,573.6214239937918,3277,1135.0714285714287,573.6214239937918,3385,1135.0714285714287,573.6214239937918,3495,1135.0714285714287,573.6214239937918,3605,1135.0714285714287,573.6214239937918,3713,1135.0714285714287,573.6214239937918,3823,1135.0714285714287,573.6214239937918,3932,1135.0714285714287,573.6214239937918,4042,1135.0714285714287,573.6214239937918,4151,1135.0714285714287,573.6214239937918,4259,1135.0714285714287,573.6214239937918,4369,1135.0714285714287,573.6214239937918,4479,1135.0714285714287,573.6214239937918,4588,1135.0714285714287,573.6214239937918,4698,1135.0714285714287,573.6214239937918,4808,1135.0714285714287,573.6214239937918,4918]","[1401,1401,1000,0,401,""oops"",""left"",""down"",""good_move"",7368,5967,2709.5,4287,371.5,""oops"",""left"",""down"",""good_move"",10450,3082,2710.1,7368,371.9,""smooth"",""left"",""left"",""good_move"",16720,6270,2280.4,14095,344.6,""smooth"",""left"",""left"",""good_move"",26277,9557,2574.6,23370,332.4,""smooth"",""down"",""down"",""good_move"",28882,2605,2107.3,26277,497.7,""smooth"",""left"",""left"",""good_move""]","",""
"2470","","<div style=""width:500px;"">
  <p>What determined the result of this run?</p>
  </div>","60","html-slider-response","20","241078","0.0-5.0-1.2","303","1","2025-07-31 05:37:47","1f75c3e559b7213887762d5229550c2b","87.123.247.154","Mozilla/5.0 (Windows NT 10.0; Win64; x64; rv:141.0) Gecko/20100101 Firefox/141.0","","Firefox","141.0","Windows","10.0","https://app.prolific.com/","de,en-US;q=0.7,en;q=0.3","66ebc8c5e5b772065830754d","6877631c9844ddd5501205fc","688b011da571f109cb488370","3","1","66ebc8c5e5b772065830754d","3","1","2025-07-31T05:41:48.649Z","","","","","","","","","","","AttribQ","","50","","","","","","","","","","","","","","","","","","","","","","","","","","","","",""
"1920","","<div style=""width:500px;"">
  <p>How much control did you have over the ball?</p>
  </div>","63","html-slider-response","21","242998","0.0-5.0-2.2","303","1","2025-07-31 05:37:47","1f75c3e559b7213887762d5229550c2b","87.123.247.154","Mozilla/5.0 (Windows NT 10.0; Win64; x64; rv:141.0) Gecko/20100101 Firefox/141.0","","Firefox","141.0","Windows","10.0","https://app.prolific.com/","de,en-US;q=0.7,en;q=0.3","66ebc8c5e5b772065830754d","6877631c9844ddd5501205fc","688b011da571f109cb488370","3","1","66ebc8c5e5b772065830754d","3","1","2025-07-31T05:41:50.569Z","","","","","","","","","","","ControlQ","","50","","","","","","","","","","","","","","","","","","","","","","","","","","","","",""
"1991","","<div style=""width:500px;"">
  <p>How would you describe your current emotional state?</p>
  </div>","37","html-slider-response","22","244991","0.0-5.0-3.2","303","1","2025-07-31 05:37:47","1f75c3e559b7213887762d5229550c2b","87.123.247.154","Mozilla/5.0 (Windows NT 10.0; Win64; x64; rv:141.0) Gecko/20100101 Firefox/141.0","","Firefox","141.0","Windows","10.0","https://app.prolific.com/","de,en-US;q=0.7,en;q=0.3","66ebc8c5e5b772065830754d","6877631c9844ddd5501205fc","688b011da571f109cb488370","3","1","66ebc8c5e5b772065830754d","3","1","2025-07-31T05:41:52.562Z","","","","","","","","","","","StressQ","","50","","","","","","","","","","","","","","","","","","","","","","","","","","","","",""
"1290","","<div style=""width:500px;"">
  <p>What best describes how you currently feel?</p>
  </div>","65","html-slider-response","23","246282","0.0-5.0-4.2","303","1","2025-07-31 05:37:47","1f75c3e559b7213887762d5229550c2b","87.123.247.154","Mozilla/5.0 (Windows NT 10.0; Win64; x64; rv:141.0) Gecko/20100101 Firefox/141.0","","Firefox","141.0","Windows","10.0","https://app.prolific.com/","de,en-US;q=0.7,en;q=0.3","66ebc8c5e5b772065830754d","6877631c9844ddd5501205fc","688b011da571f109cb488370","3","1","66ebc8c5e5b772065830754d","3","1","2025-07-31T05:41:53.853Z","","","","","","","","","","","MotivationQ","","50","","","","","","","","","","","","","","","","","","","","","","","","","","","","",""
"","","","","ctl-task-cpt","24","283787","0.0-5.0-0.3","303","1","2025-07-31 05:37:47","1f75c3e559b7213887762d5229550c2b","87.123.247.154","Mozilla/5.0 (Windows NT 10.0; Win64; x64; rv:141.0) Gecko/20100101 Firefox/141.0","","Firefox","141.0","Windows","10.0","https://app.prolific.com/","de,en-US;q=0.7,en;q=0.3","66ebc8c5e5b772065830754d","6877631c9844ddd5501205fc","688b011da571f109cb488370","3","1","66ebc8c5e5b772065830754d","3","1","2025-07-31T05:42:31.358Z","","","","","","","","","","","","","","win-only","2","g1:SE,g2:NW","0.7","4","0","247789","1130","6135","34497","1","4","4","6","2","4","4","24","20","0.18181818181818182","840","3000","2115","[""left"",""up""]","{""num_key_presses"":8,""num_perfect"":5,""num_errors"":0,""num_randdir"":3,""num_randdir_good_moves"":2,""num_whilered"":0,""num_whileblue"":0,""num_blue"":1,""num_good_moves"":7}","[421.07142857142856,417.62142399379184,0,421.07142857142856,417.62142399379184,101,421.07142857142856,417.62142399379184,210,413.57142857142856,438.62142399379184,319,380.57142857142856,524.1214239937918,427,169.07142857142856,255.62142399379184,535,137.57142857142856,156.62142399379184,645,80.57142857142857,105.62142399379185,754,80.57142857142857,102.62142399379185,864,88.07142857142857,102.62142399379185,972,662.5714285714286,221.12142399379184,1081,985.0714285714286,303.62142399379184,1191,977.5714285714286,309.62142399379184,1300,977.5714285714286,309.62142399379184,1409,977.5714285714286,309.62142399379184,1518,977.5714285714286,309.62142399379184,1627,977.5714285714286,309.62142399379184,1738,977.5714285714286,309.62142399379184,1847,977.5714285714286,309.62142399379184,1957,977.5714285714286,309.62142399379184,2068,977.5714285714286,309.62142399379184,2182,977.5714285714286,309.62142399379184,2288,977.5714285714286,309.62142399379184,2396,977.5714285714286,309.62142399379184,2505,977.5714285714286,309.62142399379184,2614,977.5714285714286,309.62142399379184,2723,977.5714285714286,309.62142399379184,2832,977.5714285714286,309.62142399379184,2943,977.5714285714286,309.62142399379184,3052,977.5714285714286,309.62142399379184,3161,977.5714285714286,309.62142399379184,3269,977.5714285714286,309.62142399379184,3377,977.5714285714286,309.62142399379184,3486,977.5714285714286,309.62142399379184,3596,977.5714285714286,309.62142399379184,3706,977.5714285714286,309.62142399379184,3814,977.5714285714286,309.62142399379184,3924,977.5714285714286,309.62142399379184,4035,977.5714285714286,309.62142399379184,4144,977.5714285714286,309.62142399379184,4254,977.5714285714286,309.62142399379184,4363,977.5714285714286,309.62142399379184,4473,977.5714285714286,309.62142399379184,4583,977.5714285714286,309.62142399379184,4691,977.5714285714286,309.62142399379184,4800,977.5714285714286,309.62142399379184,4910]","[1391,1391,1000,0,391,""oops"",""up"",""right"",""bad_move"",3860,2469,2035.5,1391,433.5,""oops"",""up"",""left"",""good_move"",6821,2961,2224.6,3860,736.4,""oops"",""up"",""left"",""good_move"",10498,3677,3348.9,6821,328.1,""smooth"",""up"",""up"",""good_move"",18374,7876,3239.8,14750,384.2,""smooth"",""up"",""up"",""good_move"",21753,3379,3037.3,18374,341.7,""smooth"",""up"",""up"",""good_move"",24719,2966,2295.4,21753,670.6,""smooth"",""left"",""left"",""good_move"",28088,3369,3003.4,24719,365.6,""smooth"",""left"",""left"",""good_move""]","",""
"27707","","<div style=""width:500px;"">
  <p>What determined the result of this run?</p>
  </div>","60","html-slider-response","25","311496","0.0-5.0-1.3","303","1","2025-07-31 05:37:47","1f75c3e559b7213887762d5229550c2b","87.123.247.154","Mozilla/5.0 (Windows NT 10.0; Win64; x64; rv:141.0) Gecko/20100101 Firefox/141.0","","Firefox","141.0","Windows","10.0","https://app.prolific.com/","de,en-US;q=0.7,en;q=0.3","66ebc8c5e5b772065830754d","6877631c9844ddd5501205fc","688b011da571f109cb488370","3","1","66ebc8c5e5b772065830754d","3","1","2025-07-31T05:42:59.067Z","","","","","","","","","","","AttribQ","","50","","","","","","","","","","","","","","","","","","","","","","","","","","","","",""
"1977","","<div style=""width:500px;"">
  <p>How much control did you have over the ball?</p>
  </div>","59","html-slider-response","26","313475","0.0-5.0-2.3","303","1","2025-07-31 05:37:47","1f75c3e559b7213887762d5229550c2b","87.123.247.154","Mozilla/5.0 (Windows NT 10.0; Win64; x64; rv:141.0) Gecko/20100101 Firefox/141.0","","Firefox","141.0","Windows","10.0","https://app.prolific.com/","de,en-US;q=0.7,en;q=0.3","66ebc8c5e5b772065830754d","6877631c9844ddd5501205fc","688b011da571f109cb488370","3","1","66ebc8c5e5b772065830754d","3","1","2025-07-31T05:43:01.046Z","","","","","","","","","","","ControlQ","","50","","","","","","","","","","","","","","","","","","","","","","","","","","","","",""
"1688","","<div style=""width:500px;"">
  <p>How would you describe your current emotional state?</p>
  </div>","58","html-slider-response","27","315164","0.0-5.0-3.3","303","1","2025-07-31 05:37:47","1f75c3e559b7213887762d5229550c2b","87.123.247.154","Mozilla/5.0 (Windows NT 10.0; Win64; x64; rv:141.0) Gecko/20100101 Firefox/141.0","","Firefox","141.0","Windows","10.0","https://app.prolific.com/","de,en-US;q=0.7,en;q=0.3","66ebc8c5e5b772065830754d","6877631c9844ddd5501205fc","688b011da571f109cb488370","3","1","66ebc8c5e5b772065830754d","3","1","2025-07-31T05:43:02.735Z","","","","","","","","","","","StressQ","","50","","","","","","","","","","","","","","","","","","","","","","","","","","","","",""
"1499","","<div style=""width:500px;"">
  <p>What best describes how you currently feel?</p>
  </div>","58","html-slider-response","28","316665","0.0-5.0-4.3","303","1","2025-07-31 05:37:47","1f75c3e559b7213887762d5229550c2b","87.123.247.154","Mozilla/5.0 (Windows NT 10.0; Win64; x64; rv:141.0) Gecko/20100101 Firefox/141.0","","Firefox","141.0","Windows","10.0","https://app.prolific.com/","de,en-US;q=0.7,en;q=0.3","66ebc8c5e5b772065830754d","6877631c9844ddd5501205fc","688b011da571f109cb488370","3","1","66ebc8c5e5b772065830754d","3","1","2025-07-31T05:43:04.236Z","","","","","","","","","","","MotivationQ","","50","","","","","","","","","","","","","","","","","","","","","","","","","","","","",""
"","","","","ctl-task-cpt","29","344255","0.0-5.0-0.4","303","1","2025-07-31 05:37:47","1f75c3e559b7213887762d5229550c2b","87.123.247.154","Mozilla/5.0 (Windows NT 10.0; Win64; x64; rv:141.0) Gecko/20100101 Firefox/141.0","","Firefox","141.0","Windows","10.0","https://app.prolific.com/","de,en-US;q=0.7,en;q=0.3","66ebc8c5e5b772065830754d","6877631c9844ddd5501205fc","688b011da571f109cb488370","3","1","66ebc8c5e5b772065830754d","3","1","2025-07-31T05:43:31.826Z","","","","","","","","","","","","","","win-only","0","g1:NW,g2:SE","0.6","5","0","318173","1234","6238","24586","1","4","4","6","2","4","4","28","24","0.21212121212121213","876","3000","2190","[""down"",""right""]","{""num_key_presses"":6,""num_perfect"":5,""num_errors"":0,""num_randdir"":1,""num_randdir_good_moves"":1,""num_whilered"":0,""num_whileblue"":0,""num_blue"":1,""num_good_moves"":6}","[421.07142857142856,420.62142399379184,0,421.07142857142856,420.62142399379184,104,421.07142857142856,420.62142399379184,214,377.57142857142856,456.62142399379184,322,370.07142857142856,492.62142399379184,431,463.07142857142856,557.1214239937918,538,719.5714285714286,708.6214239937918,650,743.5714285714286,720.6214239937918,758,782.5714285714286,765.6214239937918,868,782.5714285714286,765.6214239937918,977,1189.0714285714287,746.1214239937918,1085,1375.0714285714287,693.6214239937918,1195,1375.0714285714287,687.6214239937918,1305,1375.0714285714287,687.6214239937918,1413,1375.0714285714287,687.6214239937918,1521,1375.0714285714287,687.6214239937918,1631,1375.0714285714287,687.6214239937918,1741,1375.0714285714287,687.6214239937918,1849,1375.0714285714287,687.6214239937918,1958,1375.0714285714287,687.6214239937918,2068,1375.0714285714287,687.6214239937918,2178,1375.0714285714287,687.6214239937918,2287,1375.0714285714287,687.6214239937918,2397,1375.0714285714287,687.6214239937918,2507,1375.0714285714287,687.6214239937918,2616,1375.0714285714287,687.6214239937918,2725,1375.0714285714287,687.6214239937918,2835,1375.0714285714287,687.6214239937918,2946,1375.0714285714287,687.6214239937918,3054,1375.0714285714287,687.6214239937918,3165,1375.0714285714287,687.6214239937918,3273,1375.0714285714287,687.6214239937918,3383,1375.0714285714287,687.6214239937918,3493,1375.0714285714287,687.6214239937918,3603,1375.0714285714287,687.6214239937918,3710,1375.0714285714287,687.6214239937918,3820,1375.0714285714287,687.6214239937918,3931,1375.0714285714287,687.6214239937918,4038,1375.0714285714287,687.6214239937918,4149,1375.0714285714287,687.6214239937918,4258,1375.0714285714287,687.6214239937918,4365,1375.0714285714287,687.6214239937918,4472,1375.0714285714287,687.6214239937918,4581,1375.0714285714287,687.6214239937918,4691,1375.0714285714287,687.6214239937918,4800,1375.0714285714287,687.6214239937918,4909]","[1414,1414,1000,0,414,""smooth"",""right"",""right"",""good_move"",7379,5964,2471.9,4500,407.1,""smooth"",""down"",""down"",""good_move"",9921,2542,2107.5,7379,434.5,""smooth"",""down"",""down"",""good_move"",13183,3262,2875,9921,387,""oops"",""right"",""down"",""good_move"",15571,2388,1760.6,13183,627.4,""smooth"",""right"",""right"",""good_move"",18065,2494,2142.5,15571,351.5,""smooth"",""right"",""right"",""good_move""]","",""
"2648","","<div style=""width:500px;"">
  <p>What determined the result of this run?</p>
  </div>","60","html-slider-response","30","346903","0.0-5.0-1.4","303","1","2025-07-31 05:37:47","1f75c3e559b7213887762d5229550c2b","87.123.247.154","Mozilla/5.0 (Windows NT 10.0; Win64; x64; rv:141.0) Gecko/20100101 Firefox/141.0","","Firefox","141.0","Windows","10.0","https://app.prolific.com/","de,en-US;q=0.7,en;q=0.3","66ebc8c5e5b772065830754d","6877631c9844ddd5501205fc","688b011da571f109cb488370","3","1","66ebc8c5e5b772065830754d","3","1","2025-07-31T05:43:34.474Z","","","","","","","","","","","AttribQ","","50","","","","","","","","","","","","","","","","","","","","","","","","","","","","",""
"1373","","<div style=""width:500px;"">
  <p>How much control did you have over the ball?</p>
  </div>","62","html-slider-response","31","348278","0.0-5.0-2.4","303","1","2025-07-31 05:37:47","1f75c3e559b7213887762d5229550c2b","87.123.247.154","Mozilla/5.0 (Windows NT 10.0; Win64; x64; rv:141.0) Gecko/20100101 Firefox/141.0","","Firefox","141.0","Windows","10.0","https://app.prolific.com/","de,en-US;q=0.7,en;q=0.3","66ebc8c5e5b772065830754d","6877631c9844ddd5501205fc","688b011da571f109cb488370","3","1","66ebc8c5e5b772065830754d","3","1","2025-07-31T05:43:35.849Z","","","","","","","","","","","ControlQ","","50","","","","","","","","","","","","","","","","","","","","","","","","","","","","",""
"2478","","<div style=""width:500px;"">
  <p>How would you describe your current emotional state?</p>
  </div>","24","html-slider-response","32","350757","0.0-5.0-3.4","303","1","2025-07-31 05:37:47","1f75c3e559b7213887762d5229550c2b","87.123.247.154","Mozilla/5.0 (Windows NT 10.0; Win64; x64; rv:141.0) Gecko/20100101 Firefox/141.0","","Firefox","141.0","Windows","10.0","https://app.prolific.com/","de,en-US;q=0.7,en;q=0.3","66ebc8c5e5b772065830754d","6877631c9844ddd5501205fc","688b011da571f109cb488370","3","1","66ebc8c5e5b772065830754d","3","1","2025-07-31T05:43:38.328Z","","","","","","","","","","","StressQ","","50","","","","","","","","","","","","","","","","","","","","","","","","","","","","",""
"1350","","<div style=""width:500px;"">
  <p>What best describes how you currently feel?</p>
  </div>","63","html-slider-response","33","352108","0.0-5.0-4.4","303","1","2025-07-31 05:37:47","1f75c3e559b7213887762d5229550c2b","87.123.247.154","Mozilla/5.0 (Windows NT 10.0; Win64; x64; rv:141.0) Gecko/20100101 Firefox/141.0","","Firefox","141.0","Windows","10.0","https://app.prolific.com/","de,en-US;q=0.7,en;q=0.3","66ebc8c5e5b772065830754d","6877631c9844ddd5501205fc","688b011da571f109cb488370","3","1","66ebc8c5e5b772065830754d","3","1","2025-07-31T05:43:39.679Z","","","","","","","","","","","MotivationQ","","50","","","","","","","","","","","","","","","","","","","","","","","","","","","","",""
"","","","","ctl-task-cpt","34","422077","0.0-5.0-0.5","303","1","2025-07-31 05:37:47","1f75c3e559b7213887762d5229550c2b","87.123.247.154","Mozilla/5.0 (Windows NT 10.0; Win64; x64; rv:141.0) Gecko/20100101 Firefox/141.0","","Firefox","141.0","Windows","10.0","https://app.prolific.com/","de,en-US;q=0.7,en;q=0.3","66ebc8c5e5b772065830754d","6877631c9844ddd5501205fc","688b011da571f109cb488370","3","1","66ebc8c5e5b772065830754d","3","1","2025-07-31T05:44:49.649Z","","","","","","","","","","","","","","win-only","2","g1:SE,g2:NW","0.5","6","0","353614","839","5840","66956","1","4","8","6","2","8","7","35","28","0.26515151515151514","877","3000","1195","[""left"",""up""]","{""num_key_presses"":16,""num_perfect"":8,""num_errors"":1,""num_randdir"":7,""num_randdir_good_moves"":3,""num_whilered"":0,""num_whileblue"":1,""num_blue"":4,""num_good_moves"":11}","[421.07142857142856,411.62142399379184,0,421.07142857142856,411.62142399379184,107,416.57142857142856,420.62142399379184,216,403.07142857142856,483.62142399379184,325,482.57142857142856,531.6214239937918,433,175.07142857142856,204.62142399379184,544,89.57142857142857,114.62142399379185,653,89.57142857142857,113.12142399379185,762,91.07142857142857,110.12142399379185,873,97.07142857142857,110.12142399379185,981,646.0714285714286,317.12142399379184,1090,800.5714285714286,392.12142399379184,1201,799.0714285714286,396.62142399379184,1312,799.0714285714286,396.62142399379184,1422,799.0714285714286,396.62142399379184,1532,799.0714285714286,396.62142399379184,1643,799.0714285714286,396.62142399379184,1753,799.0714285714286,396.62142399379184,1861,799.0714285714286,396.62142399379184,1970,799.0714285714286,396.62142399379184,2079,799.0714285714286,396.62142399379184,2189,799.0714285714286,396.62142399379184,2296,799.0714285714286,396.62142399379184,2405,799.0714285714286,396.62142399379184,2513,799.0714285714286,396.62142399379184,2624,799.0714285714286,396.62142399379184,2733,799.0714285714286,396.62142399379184,2842,799.0714285714286,396.62142399379184,2952,799.0714285714286,396.62142399379184,3063,799.0714285714286,396.62142399379184,3172,799.0714285714286,396.62142399379184,3281,799.0714285714286,396.62142399379184,3391,799.0714285714286,396.62142399379184,3501,799.0714285714286,396.62142399379184,3611,799.0714285714286,396.62142399379184,3720,799.0714285714286,396.62142399379184,3830,799.0714285714286,396.62142399379184,3939,799.0714285714286,396.62142399379184,4050,799.0714285714286,396.62142399379184,4159,799.0714285714286,396.62142399379184,4268,799.0714285714286,396.62142399379184,4377,799.0714285714286,396.62142399379184,4487,799.0714285714286,396.62142399379184,4596,799.0714285714286,396.62142399379184,4706,799.0714285714286,396.62142399379184,4815,799.0714285714286,396.62142399379184,4923]","[1377,1377,1000,0,377,""smooth"",""up"",""up"",""good_move"",4358,2981,2651,1377,330,""while_blue"",""left"",""down"",""bad_move"",7590,3232,2863,4358,369,""smooth"",""up"",""up"",""good_move"",11264,3673,3264.2,7591,408.8,""smooth"",""up"",""up"",""good_move"",14754,3490,3061.6,11264,428.4,""smooth"",""left"",""left"",""good_move"",21993,7239,3025.5,18577,390.5,""smooth"",""up"",""up"",""good_move"",29816,7823,3109.7,26292,414.3,""oops"",""left"",""down"",""bad_move"",33034,3218,2802.8,29816,415.2,""oops"",""left"",""right"",""bad_move"",36929,3895,3500.6,33034,394.4,""oops"",""left"",""left"",""good_move"",40007,3078,2450.4,36929,627.6,""oops"",""left"",""up"",""good_move"",43022,3015,2341.1,40007,673.9,""oops"",""left"",""right"",""bad_move"",45657,2635,2240.9,43022,394.1,""oops"",""left"",""left"",""good_move"",48669,3011,2475.6,45658,535.4,""oops"",""left"",""right"",""bad_move"",54815,6146,2142.1,52270,402.9,""smooth"",""left"",""left"",""good_move"",57867,3051,2624,54816,427,""smooth"",""left"",""left"",""good_move"",60839,2972,2288.9,57867,683.1,""smooth"",""left"",""left"",""good_move""]","",""
"1619","","<div style=""width:500px;"">
  <p>What determined the result of this run?</p>
  </div>","65","html-slider-response","35","423697","0.0-5.0-1.5","303","1","2025-07-31 05:37:47","1f75c3e559b7213887762d5229550c2b","87.123.247.154","Mozilla/5.0 (Windows NT 10.0; Win64; x64; rv:141.0) Gecko/20100101 Firefox/141.0","","Firefox","141.0","Windows","10.0","https://app.prolific.com/","de,en-US;q=0.7,en;q=0.3","66ebc8c5e5b772065830754d","6877631c9844ddd5501205fc","688b011da571f109cb488370","3","1","66ebc8c5e5b772065830754d","3","1","2025-07-31T05:44:51.268Z","","","","","","","","","","","AttribQ","","50","","","","","","","","","","","","","","","","","","","","","","","","","","","","",""
"1237","","<div style=""width:500px;"">
  <p>How much control did you have over the ball?</p>
  </div>","61","html-slider-response","36","424936","0.0-5.0-2.5","303","1","2025-07-31 05:37:47","1f75c3e559b7213887762d5229550c2b","87.123.247.154","Mozilla/5.0 (Windows NT 10.0; Win64; x64; rv:141.0) Gecko/20100101 Firefox/141.0","","Firefox","141.0","Windows","10.0","https://app.prolific.com/","de,en-US;q=0.7,en;q=0.3","66ebc8c5e5b772065830754d","6877631c9844ddd5501205fc","688b011da571f109cb488370","3","1","66ebc8c5e5b772065830754d","3","1","2025-07-31T05:44:52.507Z","","","","","","","","","","","ControlQ","","50","","","","","","","","","","","","","","","","","","","","","","","","","","","","",""
"1364","","<div style=""width:500px;"">
  <p>How would you describe your current emotional state?</p>
  </div>","59","html-slider-response","37","426300","0.0-5.0-3.5","303","1","2025-07-31 05:37:47","1f75c3e559b7213887762d5229550c2b","87.123.247.154","Mozilla/5.0 (Windows NT 10.0; Win64; x64; rv:141.0) Gecko/20100101 Firefox/141.0","","Firefox","141.0","Windows","10.0","https://app.prolific.com/","de,en-US;q=0.7,en;q=0.3","66ebc8c5e5b772065830754d","6877631c9844ddd5501205fc","688b011da571f109cb488370","3","1","66ebc8c5e5b772065830754d","3","1","2025-07-31T05:44:53.871Z","","","","","","","","","","","StressQ","","50","","","","","","","","","","","","","","","","","","","","","","","","","","","","",""
"1444","","<div style=""width:500px;"">
  <p>What best describes how you currently feel?</p>
  </div>","82","html-slider-response","38","427745","0.0-5.0-4.5","303","1","2025-07-31 05:37:47","1f75c3e559b7213887762d5229550c2b","87.123.247.154","Mozilla/5.0 (Windows NT 10.0; Win64; x64; rv:141.0) Gecko/20100101 Firefox/141.0","","Firefox","141.0","Windows","10.0","https://app.prolific.com/","de,en-US;q=0.7,en;q=0.3","66ebc8c5e5b772065830754d","6877631c9844ddd5501205fc","688b011da571f109cb488370","3","1","66ebc8c5e5b772065830754d","3","1","2025-07-31T05:44:55.316Z","","","","","","","","","","","MotivationQ","","50","","","","","","","","","","","","","","","","","","","","","","","","","","","","",""
"","","","","ctl-task-cpt","39","486800","0.0-5.0-0.6","303","1","2025-07-31 05:37:47","1f75c3e559b7213887762d5229550c2b","87.123.247.154","Mozilla/5.0 (Windows NT 10.0; Win64; x64; rv:141.0) Gecko/20100101 Firefox/141.0","","Firefox","141.0","Windows","10.0","https://app.prolific.com/","de,en-US;q=0.7,en;q=0.3","66ebc8c5e5b772065830754d","6877631c9844ddd5501205fc","688b011da571f109cb488370","3","1","66ebc8c5e5b772065830754d","3","1","2025-07-31T05:45:54.371Z","","","","","","","","","","","","","","win-only","1","g1:NE,g2:SW","0.4","7","0","429252","908","5910","56050","1","4","4","6","2","4","4","39","35","0.29545454545454547","892","3000","1565","[""down"",""left""]","{""num_key_presses"":12,""num_perfect"":6,""num_errors"":0,""num_randdir"":6,""num_randdir_good_moves"":3,""num_whilered"":0,""num_whileblue"":0,""num_blue"":5,""num_good_moves"":9}","[412.07142857142856,419.12142399379184,0,412.07142857142856,419.12142399379184,107,412.07142857142856,419.12142399379184,216,407.57142857142856,444.62142399379184,326,301.07142857142856,597.6214239937918,435,220.07142857142856,705.6214239937918,545,202.07142857142856,722.1214239937918,655,145.07142857142856,741.6214239937918,762,109.07142857142857,752.1214239937918,872,109.07142857142857,752.1214239937918,982,274.07142857142856,737.1214239937918,1091,724.0714285714286,729.6214239937918,1199,767.5714285714286,726.6214239937918,1308,767.5714285714286,726.6214239937918,1418,767.5714285714286,725.1214239937918,1525,767.5714285714286,725.1214239937918,1635,767.5714285714286,725.1214239937918,1744,767.5714285714286,725.1214239937918,1852,767.5714285714286,725.1214239937918,1964,767.5714285714286,725.1214239937918,2074,767.5714285714286,725.1214239937918,2184,767.5714285714286,725.1214239937918,2296,767.5714285714286,725.1214239937918,2404,767.5714285714286,725.1214239937918,2511,767.5714285714286,725.1214239937918,2622,767.5714285714286,725.1214239937918,2732,767.5714285714286,725.1214239937918,2841,767.5714285714286,725.1214239937918,2950,767.5714285714286,725.1214239937918,3060,767.5714285714286,725.1214239937918,3168,767.5714285714286,725.1214239937918,3277,767.5714285714286,725.1214239937918,3388,767.5714285714286,725.1214239937918,3496,767.5714285714286,725.1214239937918,3606,767.5714285714286,725.1214239937918,3715,767.5714285714286,725.1214239937918,3823,767.5714285714286,725.1214239937918,3931,767.5714285714286,725.1214239937918,4040,767.5714285714286,725.1214239937918,4149,767.5714285714286,725.1214239937918,4258,767.5714285714286,725.1214239937918,4366,767.5714285714286,725.1214239937918,4474,767.5714285714286,725.1214239937918,4580,767.5714285714286,725.1214239937918,4689,767.5714285714286,725.1214239937918,4799,767.5714285714286,725.1214239937918,4908]","[1373,1373,1000,0,373,""smooth"",""down"",""down"",""good_move"",7773,6400,2709.9,4701,362.1,""smooth"",""left"",""left"",""good_move"",10800,3027,2493.7,7773,533.3,""oops"",""down"",""up"",""bad_move"",13796,2996,2023,10800,973,""oops"",""down"",""left"",""good_move"",16802,3006,1956.4,13796,1049.6,""oops"",""down"",""up"",""bad_move"",19863,3061,2444.4,16802,616.6,""smooth"",""down"",""down"",""good_move"",25279,5416,2683.6,22186,409.4,""oops"",""down"",""down"",""good_move"",28656,3377,2989.2,25279,387.8,""smooth"",""down"",""down"",""good_move"",30912,2256,1849.8,28656,406.2,""oops"",""down"",""up"",""bad_move"",44275,13363,2054.5,41776,444.5,""oops"",""down"",""down"",""good_move"",47220,2945,2558.3,44275,386.7,""smooth"",""down"",""down"",""good_move"",49850,2630,2231.9,47220,398.1,""smooth"",""left"",""left"",""good_move""]","",""
"3206","","<div style=""width:500px;"">
  <p>What determined the result of this run?</p>
  </div>","59","html-slider-response","40","490006","0.0-5.0-1.6","303","1","2025-07-31 05:37:47","1f75c3e559b7213887762d5229550c2b","87.123.247.154","Mozilla/5.0 (Windows NT 10.0; Win64; x64; rv:141.0) Gecko/20100101 Firefox/141.0","","Firefox","141.0","Windows","10.0","https://app.prolific.com/","de,en-US;q=0.7,en;q=0.3","66ebc8c5e5b772065830754d","6877631c9844ddd5501205fc","688b011da571f109cb488370","3","1","66ebc8c5e5b772065830754d","3","1","2025-07-31T05:45:57.577Z","","","","","","","","","","","AttribQ","","50","","","","","","","","","","","","","","","","","","","","","","","","","","","","",""
"1550","","<div style=""width:500px;"">
  <p>How much control did you have over the ball?</p>
  </div>","67","html-slider-response","41","491558","0.0-5.0-2.6","303","1","2025-07-31 05:37:47","1f75c3e559b7213887762d5229550c2b","87.123.247.154","Mozilla/5.0 (Windows NT 10.0; Win64; x64; rv:141.0) Gecko/20100101 Firefox/141.0","","Firefox","141.0","Windows","10.0","https://app.prolific.com/","de,en-US;q=0.7,en;q=0.3","66ebc8c5e5b772065830754d","6877631c9844ddd5501205fc","688b011da571f109cb488370","3","1","66ebc8c5e5b772065830754d","3","1","2025-07-31T05:45:59.129Z","","","","","","","","","","","ControlQ","","50","","","","","","","","","","","","","","","","","","","","","","","","","","","","",""
"1492","","<div style=""width:500px;"">
  <p>How would you describe your current emotional state?</p>
  </div>","69","html-slider-response","42","493051","0.0-5.0-3.6","303","1","2025-07-31 05:37:47","1f75c3e559b7213887762d5229550c2b","87.123.247.154","Mozilla/5.0 (Windows NT 10.0; Win64; x64; rv:141.0) Gecko/20100101 Firefox/141.0","","Firefox","141.0","Windows","10.0","https://app.prolific.com/","de,en-US;q=0.7,en;q=0.3","66ebc8c5e5b772065830754d","6877631c9844ddd5501205fc","688b011da571f109cb488370","3","1","66ebc8c5e5b772065830754d","3","1","2025-07-31T05:46:00.622Z","","","","","","","","","","","StressQ","","50","","","","","","","","","","","","","","","","","","","","","","","","","","","","",""
"1649","","<div style=""width:500px;"">
  <p>What best describes how you currently feel?</p>
  </div>","67","html-slider-response","43","494701","0.0-5.0-4.6","303","1","2025-07-31 05:37:47","1f75c3e559b7213887762d5229550c2b","87.123.247.154","Mozilla/5.0 (Windows NT 10.0; Win64; x64; rv:141.0) Gecko/20100101 Firefox/141.0","","Firefox","141.0","Windows","10.0","https://app.prolific.com/","de,en-US;q=0.7,en;q=0.3","66ebc8c5e5b772065830754d","6877631c9844ddd5501205fc","688b011da571f109cb488370","3","1","66ebc8c5e5b772065830754d","3","1","2025-07-31T05:46:02.272Z","","","","","","","","","","","MotivationQ","","50","","","","","","","","","","","","","","","","","","","","","","","","","","","","",""
"","","","","ctl-task-cpt","44","541353","0.0-5.0-0.7","303","1","2025-07-31 05:37:47","1f75c3e559b7213887762d5229550c2b","87.123.247.154","Mozilla/5.0 (Windows NT 10.0; Win64; x64; rv:141.0) Gecko/20100101 Firefox/141.0","","Firefox","141.0","Windows","10.0","https://app.prolific.com/","de,en-US;q=0.7,en;q=0.3","66ebc8c5e5b772065830754d","6877631c9844ddd5501205fc","688b011da571f109cb488370","3","1","66ebc8c5e5b772065830754d","3","1","2025-07-31T05:46:48.924Z","","","","","","","","","","","","","","win-only","3","g1:SW,g2:NE","0.3","8","0","496208","1026","6034","43641","1","4","8","6","2","8","8","47","39","0.3560606060606061","755","3000","1990","[""up"",""right""]","{""num_key_presses"":8,""num_perfect"":3,""num_errors"":0,""num_randdir"":5,""num_randdir_good_moves"":4,""num_whilered"":0,""num_whileblue"":0,""num_blue"":4,""num_good_moves"":7}","[421.07142857142856,411.62142399379184,0,421.07142857142856,411.62142399379184,114,418.07142857142856,413.12142399379184,223,410.57142857142856,419.12142399379184,339,560.5714285714286,254.12142399379184,440,716.5714285714286,77.12142399379185,547,724.0714285714286,63.62142399379185,657,730.0714285714286,60.62142399379185,767,731.5714285714286,60.62142399379185,877,850.0714285714286,98.12142399379185,986,1093.0714285714287,180.62142399379184,1095,1277.5714285714287,228.62142399379184,1204,1286.5714285714287,243.62142399379184,1313,1285.0714285714287,251.12142399379184,1424,1283.5714285714287,257.12142399379184,1536,1270.0714285714287,263.12142399379184,1647,1270.0714285714287,263.12142399379184,1756,1270.0714285714287,263.12142399379184,1865,1270.0714285714287,263.12142399379184,1976,1270.0714285714287,263.12142399379184,2084,1270.0714285714287,263.12142399379184,2197,1270.0714285714287,263.12142399379184,2303,1270.0714285714287,263.12142399379184,2412,1270.0714285714287,263.12142399379184,2522,1270.0714285714287,263.12142399379184,2631,1270.0714285714287,263.12142399379184,2740,1270.0714285714287,263.12142399379184,2851,1270.0714285714287,263.12142399379184,2960,1270.0714285714287,263.12142399379184,3069,1270.0714285714287,263.12142399379184,3177,1270.0714285714287,263.12142399379184,3288,1270.0714285714287,263.12142399379184,3396,1270.0714285714287,263.12142399379184,3505,1270.0714285714287,263.12142399379184,3616,1270.0714285714287,263.12142399379184,3726,1270.0714285714287,263.12142399379184,3835,1270.0714285714287,263.12142399379184,3945,1270.0714285714287,263.12142399379184,4053,1270.0714285714287,263.12142399379184,4165,1270.0714285714287,263.12142399379184,4275,1270.0714285714287,263.12142399379184,4385,1270.0714285714287,263.12142399379184,4493,1270.0714285714287,263.12142399379184,4602,1270.0714285714287,263.12142399379184,4712,1270.0714285714287,263.12142399379184,4822,1270.0714285714287,263.12142399379184,4930]","[4708,4708,2264.5,2028,415.5,""oops"",""up"",""up"",""good_move"",7769,3061,2592.3,4708,468.7,""oops"",""up"",""up"",""good_move"",17938,10169,2294.6,15219,424.4,""oops"",""right"",""up"",""good_move"",21578,3640,3238.5,17938,401.5,""oops"",""right"",""right"",""good_move"",24585,3006,2616.3,21579,389.7,""oops"",""right"",""down"",""bad_move"",27716,3131,2760,24585,371,""smooth"",""right"",""right"",""good_move"",34200,6484,2739.4,31079,381.6,""smooth"",""up"",""up"",""good_move"",37333,3133,2138.7,34200,994.3,""smooth"",""right"",""right"",""good_move""]","",""
"2182","","<div style=""width:500px;"">
  <p>What determined the result of this run?</p>
  </div>","66","html-slider-response","45","543536","0.0-5.0-1.7","303","1","2025-07-31 05:37:47","1f75c3e559b7213887762d5229550c2b","87.123.247.154","Mozilla/5.0 (Windows NT 10.0; Win64; x64; rv:141.0) Gecko/20100101 Firefox/141.0","","Firefox","141.0","Windows","10.0","https://app.prolific.com/","de,en-US;q=0.7,en;q=0.3","66ebc8c5e5b772065830754d","6877631c9844ddd5501205fc","688b011da571f109cb488370","3","1","66ebc8c5e5b772065830754d","3","1","2025-07-31T05:46:51.107Z","","","","","","","","","","","AttribQ","","50","","","","","","","","","","","","","","","","","","","","","","","","","","","","",""
"1797","","<div style=""width:500px;"">
  <p>How much control did you have over the ball?</p>
  </div>","68","html-slider-response","46","545334","0.0-5.0-2.7","303","1","2025-07-31 05:37:47","1f75c3e559b7213887762d5229550c2b","87.123.247.154","Mozilla/5.0 (Windows NT 10.0; Win64; x64; rv:141.0) Gecko/20100101 Firefox/141.0","","Firefox","141.0","Windows","10.0","https://app.prolific.com/","de,en-US;q=0.7,en;q=0.3","66ebc8c5e5b772065830754d","6877631c9844ddd5501205fc","688b011da571f109cb488370","3","1","66ebc8c5e5b772065830754d","3","1","2025-07-31T05:46:52.905Z","","","","","","","","","","","ControlQ","","50","","","","","","","","","","","","","","","","","","","","","","","","","","","","",""
"1579","","<div style=""width:500px;"">
  <p>How would you describe your current emotional state?</p>
  </div>","69","html-slider-response","47","546915","0.0-5.0-3.7","303","1","2025-07-31 05:37:47","1f75c3e559b7213887762d5229550c2b","87.123.247.154","Mozilla/5.0 (Windows NT 10.0; Win64; x64; rv:141.0) Gecko/20100101 Firefox/141.0","","Firefox","141.0","Windows","10.0","https://app.prolific.com/","de,en-US;q=0.7,en;q=0.3","66ebc8c5e5b772065830754d","6877631c9844ddd5501205fc","688b011da571f109cb488370","3","1","66ebc8c5e5b772065830754d","3","1","2025-07-31T05:46:54.486Z","","","","","","","","","","","StressQ","","50","","","","","","","","","","","","","","","","","","","","","","","","","","","","",""
"1283","","<div style=""width:500px;"">
  <p>What best describes how you currently feel?</p>
  </div>","68","html-slider-response","48","548198","0.0-5.0-4.7","303","1","2025-07-31 05:37:47","1f75c3e559b7213887762d5229550c2b","87.123.247.154","Mozilla/5.0 (Windows NT 10.0; Win64; x64; rv:141.0) Gecko/20100101 Firefox/141.0","","Firefox","141.0","Windows","10.0","https://app.prolific.com/","de,en-US;q=0.7,en;q=0.3","66ebc8c5e5b772065830754d","6877631c9844ddd5501205fc","688b011da571f109cb488370","3","1","66ebc8c5e5b772065830754d","3","1","2025-07-31T05:46:55.769Z","","","","","","","","","","","MotivationQ","","50","","","","","","","","","","","","","","","","","","","","","","","","","","","","",""
"","","","","ctl-task-cpt","49","587880","0.0-5.0-0.8","303","1","2025-07-31 05:37:47","1f75c3e559b7213887762d5229550c2b","87.123.247.154","Mozilla/5.0 (Windows NT 10.0; Win64; x64; rv:141.0) Gecko/20100101 Firefox/141.0","","Firefox","141.0","Windows","10.0","https://app.prolific.com/","de,en-US;q=0.7,en;q=0.3","66ebc8c5e5b772065830754d","6877631c9844ddd5501205fc","688b011da571f109cb488370","3","1","66ebc8c5e5b772065830754d","3","1","2025-07-31T05:47:35.451Z","","","","","","","","","","","","","","win-only","0","g1:NW,g2:SE","0.2","9","0","549706","739","5748","36665","1","4","8","6","2","8","8","55","47","0.4166666666666667","803","3000","1815","[""down"",""right""]","{""num_key_presses"":10,""num_perfect"":2,""num_errors"":0,""num_randdir"":8,""num_randdir_good_moves"":6,""num_whilered"":0,""num_whileblue"":0,""num_blue"":1,""num_good_moves"":8}","[415.07142857142856,417.62142399379184,0,415.07142857142856,417.62142399379184,106,415.07142857142856,417.62142399379184,216,398.57142857142856,428.12142399379184,323,335.57142857142856,560.1214239937918,432,628.0714285714286,813.6214239937918,541,712.0714285714286,794.1214239937918,646,733.0714285714286,774.6214239937918,756,737.5714285714286,770.1214239937918,865,794.5714285714286,759.6214239937918,965,1027.0714285714287,744.6214239937918,1066,1078.0714285714287,738.6214239937918,1174,1078.0714285714287,738.6214239937918,1284,1078.0714285714287,738.6214239937918,1394,1078.0714285714287,738.6214239937918,1505,1078.0714285714287,738.6214239937918,1613,1078.0714285714287,738.6214239937918,1723,1078.0714285714287,738.6214239937918,1833,1078.0714285714287,738.6214239937918,1943,1078.0714285714287,738.6214239937918,2051,1078.0714285714287,738.6214239937918,2162,1078.0714285714287,738.6214239937918,2274,1078.0714285714287,738.6214239937918,2381,1078.0714285714287,738.6214239937918,2491,1078.0714285714287,738.6214239937918,2600,1078.0714285714287,738.6214239937918,2709,1078.0714285714287,738.6214239937918,2818,1078.0714285714287,738.6214239937918,2926,1078.0714285714287,738.6214239937918,3036,1078.0714285714287,738.6214239937918,3144,1078.0714285714287,738.6214239937918,3255,1078.0714285714287,738.6214239937918,3362,1078.0714285714287,738.6214239937918,3472,1078.0714285714287,738.6214239937918,3580,1078.0714285714287,738.6214239937918,3690,1078.0714285714287,738.6214239937918,3798,1078.0714285714287,738.6214239937918,3905,1078.0714285714287,738.6214239937918,4014,1078.0714285714287,738.6214239937918,4123,1078.0714285714287,738.6214239937918,4232,1078.0714285714287,738.6214239937918,4341,1078.0714285714287,738.6214239937918,4452,1078.0714285714287,738.6214239937918,4559,1078.0714285714287,738.6214239937918,4668,1078.0714285714287,738.6214239937918,4776,1078.0714285714287,738.6214239937918,4885,1078.0714285714287,738.6214239937918,4994]","[1428,1428,1000,0,428,""oops"",""right"",""left"",""bad_move"",4464,3036,2488.1,1428,547.9,""oops"",""right"",""down"",""good_move"",6816,2352,1948.8,4464,403.2,""oops"",""right"",""down"",""good_move"",9389,2573,2194.1,6816,378.9,""smooth"",""right"",""right"",""good_move"",15980,6591,2164.7,13420,395.3,""oops"",""right"",""up"",""bad_move"",19002,3021,2370.2,15981,650.8,""smooth"",""right"",""right"",""good_move"",21572,2570,2144.5,19002,425.5,""oops"",""right"",""right"",""good_move"",24977,3406,3048,21572,358,""oops"",""down"",""right"",""good_move"",27722,2744,2392.8,24978,351.2,""oops"",""down"",""down"",""good_move"",30624,2902,2557.2,27722,344.8,""oops"",""down"",""down"",""good_move""]","",""
"2612","","<div style=""width:500px;"">
  <p>What determined the result of this run?</p>
  </div>","31","html-slider-response","50","590492","0.0-5.0-1.8","303","1","2025-07-31 05:37:47","1f75c3e559b7213887762d5229550c2b","87.123.247.154","Mozilla/5.0 (Windows NT 10.0; Win64; x64; rv:141.0) Gecko/20100101 Firefox/141.0","","Firefox","141.0","Windows","10.0","https://app.prolific.com/","de,en-US;q=0.7,en;q=0.3","66ebc8c5e5b772065830754d","6877631c9844ddd5501205fc","688b011da571f109cb488370","3","1","66ebc8c5e5b772065830754d","3","1","2025-07-31T05:47:38.064Z","","","","","","","","","","","AttribQ","","50","","","","","","","","","","","","","","","","","","","","","","","","","","","","",""
"1609","","<div style=""width:500px;"">
  <p>How much control did you have over the ball?</p>
  </div>","31","html-slider-response","51","592104","0.0-5.0-2.8","303","1","2025-07-31 05:37:47","1f75c3e559b7213887762d5229550c2b","87.123.247.154","Mozilla/5.0 (Windows NT 10.0; Win64; x64; rv:141.0) Gecko/20100101 Firefox/141.0","","Firefox","141.0","Windows","10.0","https://app.prolific.com/","de,en-US;q=0.7,en;q=0.3","66ebc8c5e5b772065830754d","6877631c9844ddd5501205fc","688b011da571f109cb488370","3","1","66ebc8c5e5b772065830754d","3","1","2025-07-31T05:47:39.675Z","","","","","","","","","","","ControlQ","","50","","","","","","","","","","","","","","","","","","","","","","","","","","","","",""
"1800","","<div style=""width:500px;"">
  <p>How would you describe your current emotional state?</p>
  </div>","64","html-slider-response","52","593905","0.0-5.0-3.8","303","1","2025-07-31 05:37:47","1f75c3e559b7213887762d5229550c2b","87.123.247.154","Mozilla/5.0 (Windows NT 10.0; Win64; x64; rv:141.0) Gecko/20100101 Firefox/141.0","","Firefox","141.0","Windows","10.0","https://app.prolific.com/","de,en-US;q=0.7,en;q=0.3","66ebc8c5e5b772065830754d","6877631c9844ddd5501205fc","688b011da571f109cb488370","3","1","66ebc8c5e5b772065830754d","3","1","2025-07-31T05:47:41.476Z","","","","","","","","","","","StressQ","","50","","","","","","","","","","","","","","","","","","","","","","","","","","","","",""
"1410","","<div style=""width:500px;"">
  <p>What best describes how you currently feel?</p>
  </div>","68","html-slider-response","53","595315","0.0-5.0-4.8","303","1","2025-07-31 05:37:47","1f75c3e559b7213887762d5229550c2b","87.123.247.154","Mozilla/5.0 (Windows NT 10.0; Win64; x64; rv:141.0) Gecko/20100101 Firefox/141.0","","Firefox","141.0","Windows","10.0","https://app.prolific.com/","de,en-US;q=0.7,en;q=0.3","66ebc8c5e5b772065830754d","6877631c9844ddd5501205fc","688b011da571f109cb488370","3","1","66ebc8c5e5b772065830754d","3","1","2025-07-31T05:47:42.886Z","","","","","","","","","","","MotivationQ","","50","","","","","","","","","","","","","","","","","","","","","","","","","","","","",""
"","","","","ctl-task-cpt","54","633046","0.0-5.0-0.9","303","1","2025-07-31 05:37:47","1f75c3e559b7213887762d5229550c2b","87.123.247.154","Mozilla/5.0 (Windows NT 10.0; Win64; x64; rv:141.0) Gecko/20100101 Firefox/141.0","","Firefox","141.0","Windows","10.0","https://app.prolific.com/","de,en-US;q=0.7,en;q=0.3","66ebc8c5e5b772065830754d","6877631c9844ddd5501205fc","688b011da571f109cb488370","3","1","66ebc8c5e5b772065830754d","3","1","2025-07-31T05:48:20.617Z","","","","","","","","","","","","","","win-only","1","g1:NE,g2:SW","0.4","10","0","596822","980","5985","34722","1","4","4","6","2","4","4","59","55","0.44696969696969696","1064","3000","2000","[""down"",""left""]","{""num_key_presses"":8,""num_perfect"":4,""num_errors"":0,""num_randdir"":4,""num_randdir_good_moves"":3,""num_whilered"":0,""num_whileblue"":0,""num_blue"":2,""num_good_moves"":7}","[418.07142857142856,414.62142399379184,0,418.07142857142856,414.62142399379184,110,418.07142857142856,414.62142399379184,219,520.0714285714286,417.62142399379184,330,509.57142857142856,435.62142399379184,439,166.07142857142856,642.6214239937918,547,116.57142857142857,672.6214239937918,656,112.07142857142857,684.6214239937918,766,58.07142857142857,767.1214239937918,876,58.07142857142857,767.1214239937918,984,58.07142857142857,767.1214239937918,1093,58.07142857142857,767.1214239937918,1201,652.0714285714286,669.6214239937918,1310,1184.5714285714287,564.6214239937918,1419,1198.0714285714287,555.6214239937918,1528,1198.0714285714287,555.6214239937918,1637,1198.0714285714287,555.6214239937918,1746,1198.0714285714287,555.6214239937918,1854,1198.0714285714287,555.6214239937918,1963,1198.0714285714287,555.6214239937918,2073,1198.0714285714287,555.6214239937918,2181,1198.0714285714287,555.6214239937918,2289,1198.0714285714287,555.6214239937918,2397,1198.0714285714287,555.6214239937918,2509,1198.0714285714287,555.6214239937918,2614,1198.0714285714287,555.6214239937918,2723,1198.0714285714287,555.6214239937918,2830,1198.0714285714287,555.6214239937918,2939,1198.0714285714287,555.6214239937918,3047,1198.0714285714287,555.6214239937918,3157,1198.0714285714287,555.6214239937918,3266,1198.0714285714287,555.6214239937918,3375,1198.0714285714287,555.6214239937918,3484,1198.0714285714287,555.6214239937918,3593,1198.0714285714287,555.6214239937918,3703,1198.0714285714287,555.6214239937918,3810,1198.0714285714287,555.6214239937918,3919,1198.0714285714287,555.6214239937918,4026,1198.0714285714287,555.6214239937918,4134,1198.0714285714287,555.6214239937918,4247,1198.0714285714287,555.6214239937918,4351,1198.0714285714287,555.6214239937918,4460,1198.0714285714287,555.6214239937918,4570,1198.0714285714287,555.6214239937918,4677,1198.0714285714287,555.6214239937918,4788,1198.0714285714287,555.6214239937918,4896]","[5261,5261,2792.2,2028,440.8,""oops"",""down"",""left"",""good_move"",8262,3001,2351.7,5261,649.3,""oops"",""down"",""up"",""bad_move"",11253,2991,2580.9,8262,410.1,""smooth"",""down"",""down"",""good_move"",14385,3132,2747.5,11253,384.5,""smooth"",""down"",""down"",""good_move"",17023,2638,2285.1,14385,352.9,""smooth"",""down"",""down"",""good_move"",19024,2001,1361.7,17023,639.3,""smooth"",""left"",""left"",""good_move"",22302,3277,2942.6,19025,334.4,""oops"",""down"",""left"",""good_move"",28450,6148,2037.5,25982,430.5,""oops"",""down"",""down"",""good_move""]","",""
"3474","","<div style=""width:500px;"">
  <p>What determined the result of this run?</p>
  </div>","53","html-slider-response","55","636520","0.0-5.0-1.9","303","1","2025-07-31 05:37:47","1f75c3e559b7213887762d5229550c2b","87.123.247.154","Mozilla/5.0 (Windows NT 10.0; Win64; x64; rv:141.0) Gecko/20100101 Firefox/141.0","","Firefox","141.0","Windows","10.0","https://app.prolific.com/","de,en-US;q=0.7,en;q=0.3","66ebc8c5e5b772065830754d","6877631c9844ddd5501205fc","688b011da571f109cb488370","3","1","66ebc8c5e5b772065830754d","3","1","2025-07-31T05:48:24.091Z","","","","","","","","","","","AttribQ","","50","","","","","","","","","","","","","","","","","","","","","","","","","","","","",""
"1669","","<div style=""width:500px;"">
  <p>How much control did you have over the ball?</p>
  </div>","54","html-slider-response","56","638192","0.0-5.0-2.9","303","1","2025-07-31 05:37:47","1f75c3e559b7213887762d5229550c2b","87.123.247.154","Mozilla/5.0 (Windows NT 10.0; Win64; x64; rv:141.0) Gecko/20100101 Firefox/141.0","","Firefox","141.0","Windows","10.0","https://app.prolific.com/","de,en-US;q=0.7,en;q=0.3","66ebc8c5e5b772065830754d","6877631c9844ddd5501205fc","688b011da571f109cb488370","3","1","66ebc8c5e5b772065830754d","3","1","2025-07-31T05:48:25.763Z","","","","","","","","","","","ControlQ","","50","","","","","","","","","","","","","","","","","","","","","","","","","","","","",""
"1605","","<div style=""width:500px;"">
  <p>How would you describe your current emotional state?</p>
  </div>","56","html-slider-response","57","639798","0.0-5.0-3.9","303","1","2025-07-31 05:37:47","1f75c3e559b7213887762d5229550c2b","87.123.247.154","Mozilla/5.0 (Windows NT 10.0; Win64; x64; rv:141.0) Gecko/20100101 Firefox/141.0","","Firefox","141.0","Windows","10.0","https://app.prolific.com/","de,en-US;q=0.7,en;q=0.3","66ebc8c5e5b772065830754d","6877631c9844ddd5501205fc","688b011da571f109cb488370","3","1","66ebc8c5e5b772065830754d","3","1","2025-07-31T05:48:27.369Z","","","","","","","","","","","StressQ","","50","","","","","","","","","","","","","","","","","","","","","","","","","","","","",""
"1513","","<div style=""width:500px;"">
  <p>What best describes how you currently feel?</p>
  </div>","74","html-slider-response","58","641313","0.0-5.0-4.9","303","1","2025-07-31 05:37:47","1f75c3e559b7213887762d5229550c2b","87.123.247.154","Mozilla/5.0 (Windows NT 10.0; Win64; x64; rv:141.0) Gecko/20100101 Firefox/141.0","","Firefox","141.0","Windows","10.0","https://app.prolific.com/","de,en-US;q=0.7,en;q=0.3","66ebc8c5e5b772065830754d","6877631c9844ddd5501205fc","688b011da571f109cb488370","3","1","66ebc8c5e5b772065830754d","3","1","2025-07-31T05:48:28.884Z","","","","","","","","","","","MotivationQ","","50","","","","","","","","","","","","","","","","","","","","","","","","","","","","",""
"","","","","ctl-task-cpt","59","712248","0.0-5.0-0.10","303","1","2025-07-31 05:37:47","1f75c3e559b7213887762d5229550c2b","87.123.247.154","Mozilla/5.0 (Windows NT 10.0; Win64; x64; rv:141.0) Gecko/20100101 Firefox/141.0","","Firefox","141.0","Windows","10.0","https://app.prolific.com/","de,en-US;q=0.7,en;q=0.3","66ebc8c5e5b772065830754d","6877631c9844ddd5501205fc","688b011da571f109cb488370","3","1","66ebc8c5e5b772065830754d","3","1","2025-07-31T05:49:39.819Z","","","","","","","","","","","","","","win-only","3","g1:SW,g2:NE","0.5","11","0","642820","807","5816","67933","1","4","8","6","2","8","8","67","59","0.5075757575757576","975","3000","965","[""up"",""right""]","{""num_key_presses"":16,""num_perfect"":10,""num_errors"":0,""num_randdir"":6,""num_randdir_good_moves"":1,""num_whilered"":0,""num_whileblue"":0,""num_blue"":4,""num_good_moves"":11}","[421.07142857142856,420.62142399379184,0,421.07142857142856,420.62142399379184,101,418.07142857142856,420.62142399379184,212,350.57142857142856,513.6214239937918,319,155.57142857142856,612.6214239937918,431,442.07142857142856,440.12142399379184,538,703.0714285714286,207.62142399379184,648,703.0714285714286,189.62142399379184,758,731.5714285714286,132.62142399379184,864,748.0714285714286,104.12142399379185,974,748.0714285714286,104.12142399379185,1080,1033.0714285714287,144.62142399379184,1189,1226.5714285714287,225.62142399379184,1298,1226.5714285714287,225.62142399379184,1407,1226.5714285714287,225.62142399379184,1517,1226.5714285714287,225.62142399379184,1626,1226.5714285714287,225.62142399379184,1737,1226.5714285714287,225.62142399379184,1848,1226.5714285714287,225.62142399379184,1957,1226.5714285714287,225.62142399379184,2068,1226.5714285714287,225.62142399379184,2183,1226.5714285714287,225.62142399379184,2288,1226.5714285714287,225.62142399379184,2398,1226.5714285714287,225.62142399379184,2507,1226.5714285714287,225.62142399379184,2617,1226.5714285714287,225.62142399379184,2727,1226.5714285714287,225.62142399379184,2836,1226.5714285714287,225.62142399379184,2944,1226.5714285714287,225.62142399379184,3054,1226.5714285714287,225.62142399379184,3163,1226.5714285714287,225.62142399379184,3274,1226.5714285714287,225.62142399379184,3383,1226.5714285714287,225.62142399379184,3492,1226.5714285714287,225.62142399379184,3602,1226.5714285714287,225.62142399379184,3711,1226.5714285714287,225.62142399379184,3820,1226.5714285714287,225.62142399379184,3931,1226.5714285714287,225.62142399379184,4040,1226.5714285714287,225.62142399379184,4148,1226.5714285714287,225.62142399379184,4257,1226.5714285714287,225.62142399379184,4368,1226.5714285714287,225.62142399379184,4479,1226.5714285714287,225.62142399379184,4587,1226.5714285714287,225.62142399379184,4696,1226.5714285714287,225.62142399379184,4806,1226.5714285714287,225.62142399379184,4915]","[1415,1415,1000,0,415,""smooth"",""up"",""up"",""good_move"",4757,3342,2978.9,1415,363.1,""oops"",""right"",""down"",""bad_move"",11573,6816,2213.6,8991,368.4,""oops"",""right"",""left"",""bad_move"",14644,3071,2451.4,11573,619.6,""smooth"",""up"",""up"",""good_move"",21551,6907,2845.3,18313,392.7,""smooth"",""right"",""right"",""good_move"",24390,2839,2301,21551,538,""smooth"",""right"",""right"",""good_move"",26803,2412,1898.2,24391,513.8,""oops"",""up"",""left"",""bad_move"",29854,3051,2600,26803,451,""oops"",""up"",""right"",""good_move"",32478,2624,2270.4,29855,352.6,""oops"",""up"",""down"",""bad_move"",36298,3820,3430.1,32478,389.9,""smooth"",""up"",""up"",""good_move"",42743,6445,2341.3,40028,373.7,""smooth"",""up"",""up"",""good_move"",45943,3200,2829.2,42743,370.8,""smooth"",""right"",""right"",""good_move"",49150,3206,2801.5,45944,404.5,""oops"",""up"",""left"",""bad_move"",52353,3203,2766.1,49150,436.9,""smooth"",""up"",""up"",""good_move"",55485,3132,2707.9,52353,424.1,""smooth"",""right"",""right"",""good_move"",61822,6337,2576.6,58863,382.4,""smooth"",""right"",""right"",""good_move""]","",""
"2848","","<div style=""width:500px;"">
  <p>What determined the result of this run?</p>
  </div>","56","html-slider-response","60","715098","0.0-5.0-1.10","303","1","2025-07-31 05:37:47","1f75c3e559b7213887762d5229550c2b","87.123.247.154","Mozilla/5.0 (Windows NT 10.0; Win64; x64; rv:141.0) Gecko/20100101 Firefox/141.0","","Firefox","141.0","Windows","10.0","https://app.prolific.com/","de,en-US;q=0.7,en;q=0.3","66ebc8c5e5b772065830754d","6877631c9844ddd5501205fc","688b011da571f109cb488370","3","1","66ebc8c5e5b772065830754d","3","1","2025-07-31T05:49:42.669Z","","","","","","","","","","","AttribQ","","50","","","","","","","","","","","","","","","","","","","","","","","","","","","","",""
"1215","","<div style=""width:500px;"">
  <p>How much control did you have over the ball?</p>
  </div>","56","html-slider-response","61","716314","0.0-5.0-2.10","303","1","2025-07-31 05:37:47","1f75c3e559b7213887762d5229550c2b","87.123.247.154","Mozilla/5.0 (Windows NT 10.0; Win64; x64; rv:141.0) Gecko/20100101 Firefox/141.0","","Firefox","141.0","Windows","10.0","https://app.prolific.com/","de,en-US;q=0.7,en;q=0.3","66ebc8c5e5b772065830754d","6877631c9844ddd5501205fc","688b011da571f109cb488370","3","1","66ebc8c5e5b772065830754d","3","1","2025-07-31T05:49:43.885Z","","","","","","","","","","","ControlQ","","50","","","","","","","","","","","","","","","","","","","","","","","","","","","","",""
"1611","","<div style=""width:500px;"">
  <p>How would you describe your current emotional state?</p>
  </div>","65","html-slider-response","62","717924","0.0-5.0-3.10","303","1","2025-07-31 05:37:47","1f75c3e559b7213887762d5229550c2b","87.123.247.154","Mozilla/5.0 (Windows NT 10.0; Win64; x64; rv:141.0) Gecko/20100101 Firefox/141.0","","Firefox","141.0","Windows","10.0","https://app.prolific.com/","de,en-US;q=0.7,en;q=0.3","66ebc8c5e5b772065830754d","6877631c9844ddd5501205fc","688b011da571f109cb488370","3","1","66ebc8c5e5b772065830754d","3","1","2025-07-31T05:49:45.495Z","","","","","","","","","","","StressQ","","50","","","","","","","","","","","","","","","","","","","","","","","","","","","","",""
"1163","","<div style=""width:500px;"">
  <p>What best describes how you currently feel?</p>
  </div>","81","html-slider-response","63","719088","0.0-5.0-4.10","303","1","2025-07-31 05:37:47","1f75c3e559b7213887762d5229550c2b","87.123.247.154","Mozilla/5.0 (Windows NT 10.0; Win64; x64; rv:141.0) Gecko/20100101 Firefox/141.0","","Firefox","141.0","Windows","10.0","https://app.prolific.com/","de,en-US;q=0.7,en;q=0.3","66ebc8c5e5b772065830754d","6877631c9844ddd5501205fc","688b011da571f109cb488370","3","1","66ebc8c5e5b772065830754d","3","1","2025-07-31T05:49:46.659Z","","","","","","","","","","","MotivationQ","","50","","","","","","","","","","","","","","","","","","","","","","","","","","","","",""
"","","","","ctl-task-cpt","64","778239","0.0-5.0-0.11","303","1","2025-07-31 05:37:47","1f75c3e559b7213887762d5229550c2b","87.123.247.154","Mozilla/5.0 (Windows NT 10.0; Win64; x64; rv:141.0) Gecko/20100101 Firefox/141.0","","Firefox","141.0","Windows","10.0","https://app.prolific.com/","de,en-US;q=0.7,en;q=0.3","66ebc8c5e5b772065830754d","6877631c9844ddd5501205fc","688b011da571f109cb488370","3","1","66ebc8c5e5b772065830754d","3","1","2025-07-31T05:50:45.810Z","","","","","","","","","","","","","","win-only","2","g1:SE,g2:NW","0.6","12","0","720595","1065","6077","56138","1","4","4","6","2","4","4","71","67","0.5378787878787878","823","3000","1455","[""left"",""up""]","{""num_key_presses"":12,""num_perfect"":8,""num_errors"":0,""num_randdir"":4,""num_randdir_good_moves"":1,""num_whilered"":0,""num_whileblue"":0,""num_blue"":4,""num_good_moves"":9}","[419.57142857142856,420.62142399379184,0,418.07142857142856,420.62142399379184,116,434.57142857142856,414.62142399379184,229,481.07142857142856,383.12142399379184,333,382.07142857142856,342.62142399379184,444,140.57142857142856,126.62142399379185,552,137.57142857142856,99.62142399379185,660,116.57142857142857,96.62142399379185,769,112.07142857142857,95.12142399379185,878,232.07142857142856,129.62142399379184,989,983.5714285714286,351.62142399379184,1100,985.0714285714286,360.62142399379184,1210,985.0714285714286,360.62142399379184,1318,985.0714285714286,360.62142399379184,1428,985.0714285714286,360.62142399379184,1538,985.0714285714286,360.62142399379184,1647,985.0714285714286,360.62142399379184,1758,985.0714285714286,360.62142399379184,1866,985.0714285714286,360.62142399379184,1976,985.0714285714286,360.62142399379184,2084,985.0714285714286,360.62142399379184,2196,985.0714285714286,360.62142399379184,2306,985.0714285714286,360.62142399379184,2416,985.0714285714286,360.62142399379184,2524,985.0714285714286,360.62142399379184,2634,985.0714285714286,360.62142399379184,2743,985.0714285714286,360.62142399379184,2855,985.0714285714286,360.62142399379184,2966,985.0714285714286,360.62142399379184,3076,985.0714285714286,360.62142399379184,3186,985.0714285714286,360.62142399379184,3296,985.0714285714286,360.62142399379184,3404,985.0714285714286,360.62142399379184,3513,985.0714285714286,360.62142399379184,3623,985.0714285714286,360.62142399379184,3732,985.0714285714286,360.62142399379184,3842,985.0714285714286,360.62142399379184,3950,985.0714285714286,360.62142399379184,4059,985.0714285714286,360.62142399379184,4168,985.0714285714286,360.62142399379184,4279,985.0714285714286,360.62142399379184,4387,985.0714285714286,360.62142399379184,4496,985.0714285714286,360.62142399379184,4606,985.0714285714286,360.62142399379184,4716,985.0714285714286,360.62142399379184,4826,985.0714285714286,360.62142399379184,4935]","[1395,1395,1000,0,395,""oops"",""up"",""left"",""good_move"",4450,3055,2501.9,1395,553.1,""smooth"",""up"",""up"",""good_move"",7476,3026,2071.7,4450,954.3,""oops"",""up"",""down"",""bad_move"",10890,3414,2991.9,7476,422.1,""smooth"",""up"",""up"",""good_move"",13961,3071,2142.7,10890,928.3,""smooth"",""up"",""up"",""good_move"",31766,17805,2834.9,28471,460.1,""smooth"",""left"",""left"",""good_move"",34867,3101,2596.2,31766,504.8,""smooth"",""up"",""up"",""good_move"",37978,3111,2701.9,34867,409.1,""oops"",""left"",""right"",""bad_move"",40315,2337,1903.6,37978,433.4,""oops"",""left"",""down"",""bad_move"",43220,2904,2523.2,40316,380.8,""smooth"",""left"",""left"",""good_move"",46660,3440,3044.1,43220,395.9,""smooth"",""left"",""left"",""good_move"",49785,3125,2700.5,46660,424.5,""smooth"",""up"",""up"",""good_move""]","",""
"4899","","<div style=""width:500px;"">
  <p>What determined the result of this run?</p>
  </div>","63","html-slider-response","65","783139","0.0-5.0-1.11","303","1","2025-07-31 05:37:47","1f75c3e559b7213887762d5229550c2b","87.123.247.154","Mozilla/5.0 (Windows NT 10.0; Win64; x64; rv:141.0) Gecko/20100101 Firefox/141.0","","Firefox","141.0","Windows","10.0","https://app.prolific.com/","de,en-US;q=0.7,en;q=0.3","66ebc8c5e5b772065830754d","6877631c9844ddd5501205fc","688b011da571f109cb488370","3","1","66ebc8c5e5b772065830754d","3","1","2025-07-31T05:50:50.710Z","","","","","","","","","","","AttribQ","","50","","","","","","","","","","","","","","","","","","","","","","","","","","","","",""
"2002","","<div style=""width:500px;"">
  <p>How much control did you have over the ball?</p>
  </div>","66","html-slider-response","66","785142","0.0-5.0-2.11","303","1","2025-07-31 05:37:47","1f75c3e559b7213887762d5229550c2b","87.123.247.154","Mozilla/5.0 (Windows NT 10.0; Win64; x64; rv:141.0) Gecko/20100101 Firefox/141.0","","Firefox","141.0","Windows","10.0","https://app.prolific.com/","de,en-US;q=0.7,en;q=0.3","66ebc8c5e5b772065830754d","6877631c9844ddd5501205fc","688b011da571f109cb488370","3","1","66ebc8c5e5b772065830754d","3","1","2025-07-31T05:50:52.713Z","","","","","","","","","","","ControlQ","","50","","","","","","","","","","","","","","","","","","","","","","","","","","","","",""
"1345","","<div style=""width:500px;"">
  <p>How would you describe your current emotional state?</p>
  </div>","69","html-slider-response","67","786489","0.0-5.0-3.11","303","1","2025-07-31 05:37:47","1f75c3e559b7213887762d5229550c2b","87.123.247.154","Mozilla/5.0 (Windows NT 10.0; Win64; x64; rv:141.0) Gecko/20100101 Firefox/141.0","","Firefox","141.0","Windows","10.0","https://app.prolific.com/","de,en-US;q=0.7,en;q=0.3","66ebc8c5e5b772065830754d","6877631c9844ddd5501205fc","688b011da571f109cb488370","3","1","66ebc8c5e5b772065830754d","3","1","2025-07-31T05:50:54.060Z","","","","","","","","","","","StressQ","","50","","","","","","","","","","","","","","","","","","","","","","","","","","","","",""
"1728","","<div style=""width:500px;"">
  <p>What best describes how you currently feel?</p>
  </div>","69","html-slider-response","68","788219","0.0-5.0-4.11","303","1","2025-07-31 05:37:47","1f75c3e559b7213887762d5229550c2b","87.123.247.154","Mozilla/5.0 (Windows NT 10.0; Win64; x64; rv:141.0) Gecko/20100101 Firefox/141.0","","Firefox","141.0","Windows","10.0","https://app.prolific.com/","de,en-US;q=0.7,en;q=0.3","66ebc8c5e5b772065830754d","6877631c9844ddd5501205fc","688b011da571f109cb488370","3","1","66ebc8c5e5b772065830754d","3","1","2025-07-31T05:50:55.790Z","","","","","","","","","","","MotivationQ","","50","","","","","","","","","","","","","","","","","","","","","","","","","","","","",""
"","","","","ctl-task-cpt","69","833476","0.0-5.0-0.12","303","1","2025-07-31 05:37:47","1f75c3e559b7213887762d5229550c2b","87.123.247.154","Mozilla/5.0 (Windows NT 10.0; Win64; x64; rv:141.0) Gecko/20100101 Firefox/141.0","","Firefox","141.0","Windows","10.0","https://app.prolific.com/","de,en-US;q=0.7,en;q=0.3","66ebc8c5e5b772065830754d","6877631c9844ddd5501205fc","688b011da571f109cb488370","3","1","66ebc8c5e5b772065830754d","3","1","2025-07-31T05:51:41.047Z","","","","","","","","","","","","","","win-only","3","g1:SW,g2:NE","0.7","13","0","789726","1196","6202","42245","1","4","4","6","2","4","4","75","71","0.5681818181818182","862","3000","2180","[""up"",""right""]","{""num_key_presses"":6,""num_perfect"":5,""num_errors"":0,""num_randdir"":1,""num_randdir_good_moves"":1,""num_whilered"":0,""num_whileblue"":0,""num_blue"":5,""num_good_moves"":6}","[415.07142857142856,417.62142399379184,0,415.07142857142856,417.62142399379184,102,415.07142857142856,417.62142399379184,211,415.07142857142856,417.62142399379184,320,451.07142857142856,362.12142399379184,429,619.0714285714286,183.62142399379184,538,676.0714285714286,147.62142399379184,648,733.0714285714286,123.62142399379185,758,782.5714285714286,99.62142399379185,867,790.0714285714286,96.62142399379185,977,985.0714285714286,195.62142399379184,1087,1060.0714285714287,270.62142399379184,1195,1054.0714285714287,272.12142399379184,1305,1054.0714285714287,272.12142399379184,1417,1054.0714285714287,272.12142399379184,1526,1054.0714285714287,272.12142399379184,1635,1054.0714285714287,272.12142399379184,1746,1054.0714285714287,272.12142399379184,1856,1054.0714285714287,272.12142399379184,1967,1054.0714285714287,272.12142399379184,2074,1054.0714285714287,272.12142399379184,2183,1054.0714285714287,272.12142399379184,2294,1054.0714285714287,272.12142399379184,2401,1054.0714285714287,272.12142399379184,2510,1054.0714285714287,272.12142399379184,2619,1054.0714285714287,272.12142399379184,2728,1054.0714285714287,272.12142399379184,2836,1054.0714285714287,272.12142399379184,2947,1054.0714285714287,272.12142399379184,3054,1054.0714285714287,272.12142399379184,3164,1054.0714285714287,272.12142399379184,3274,1054.0714285714287,272.12142399379184,3382,1054.0714285714287,272.12142399379184,3490,1054.0714285714287,272.12142399379184,3599,1054.0714285714287,272.12142399379184,3708,1054.0714285714287,272.12142399379184,3816,1054.0714285714287,272.12142399379184,3926,1054.0714285714287,272.12142399379184,4034,1054.0714285714287,272.12142399379184,4140,1054.0714285714287,272.12142399379184,4250,1054.0714285714287,272.12142399379184,4358,1054.0714285714287,272.12142399379184,4465,1054.0714285714287,272.12142399379184,4571,1054.0714285714287,272.12142399379184,4678,1054.0714285714287,272.12142399379184,4786,1054.0714285714287,272.12142399379184,4896]","[8413,8413,2120.2,5874,418.8,""smooth"",""up"",""up"",""good_move"",12021,3608,3219.8,8413,388.2,""smooth"",""up"",""up"",""good_move"",15395,3374,2926.8,12021,447.2,""smooth"",""up"",""up"",""good_move"",21817,6422,2314.4,19058,444.6,""smooth"",""right"",""right"",""good_move"",24702,2884,2448.7,21818,435.3,""smooth"",""right"",""right"",""good_move"",35751,11048,2549.2,32690,511.8,""oops"",""right"",""right"",""good_move""]","",""
"8031","","<div style=""width:500px;"">
  <p>What determined the result of this run?</p>
  </div>","63","html-slider-response","70","841513","0.0-5.0-1.12","303","1","2025-07-31 05:37:47","1f75c3e559b7213887762d5229550c2b","87.123.247.154","Mozilla/5.0 (Windows NT 10.0; Win64; x64; rv:141.0) Gecko/20100101 Firefox/141.0","","Firefox","141.0","Windows","10.0","https://app.prolific.com/","de,en-US;q=0.7,en;q=0.3","66ebc8c5e5b772065830754d","6877631c9844ddd5501205fc","688b011da571f109cb488370","3","1","66ebc8c5e5b772065830754d","3","1","2025-07-31T05:51:49.084Z","","","","","","","","","","","AttribQ","","50","","","","","","","","","","","","","","","","","","","","","","","","","","","","",""
"2219","","<div style=""width:500px;"">
  <p>How much control did you have over the ball?</p>
  </div>","64","html-slider-response","71","843733","0.0-5.0-2.12","303","1","2025-07-31 05:37:47","1f75c3e559b7213887762d5229550c2b","87.123.247.154","Mozilla/5.0 (Windows NT 10.0; Win64; x64; rv:141.0) Gecko/20100101 Firefox/141.0","","Firefox","141.0","Windows","10.0","https://app.prolific.com/","de,en-US;q=0.7,en;q=0.3","66ebc8c5e5b772065830754d","6877631c9844ddd5501205fc","688b011da571f109cb488370","3","1","66ebc8c5e5b772065830754d","3","1","2025-07-31T05:51:51.305Z","","","","","","","","","","","ControlQ","","50","","","","","","","","","","","","","","","","","","","","","","","","","","","","",""
"34551","","<div style=""width:500px;"">
  <p>How would you describe your current emotional state?</p>
  </div>","64","html-slider-response","72","878287","0.0-5.0-3.12","303","1","2025-07-31 05:37:47","1f75c3e559b7213887762d5229550c2b","87.123.247.154","Mozilla/5.0 (Windows NT 10.0; Win64; x64; rv:141.0) Gecko/20100101 Firefox/141.0","","Firefox","141.0","Windows","10.0","https://app.prolific.com/","de,en-US;q=0.7,en;q=0.3","66ebc8c5e5b772065830754d","6877631c9844ddd5501205fc","688b011da571f109cb488370","3","1","66ebc8c5e5b772065830754d","3","1","2025-07-31T05:52:25.858Z","","","","","","","","","","","StressQ","","50","","","","","","","","","","","","","","","","","","","","","","","","","","","","",""
"13690","","<div style=""width:500px;"">
  <p>What best describes how you currently feel?</p>
  </div>","70","html-slider-response","73","891982","0.0-5.0-4.12","303","1","2025-07-31 05:37:47","1f75c3e559b7213887762d5229550c2b","87.123.247.154","Mozilla/5.0 (Windows NT 10.0; Win64; x64; rv:141.0) Gecko/20100101 Firefox/141.0","","Firefox","141.0","Windows","10.0","https://app.prolific.com/","de,en-US;q=0.7,en;q=0.3","66ebc8c5e5b772065830754d","6877631c9844ddd5501205fc","688b011da571f109cb488370","3","1","66ebc8c5e5b772065830754d","3","1","2025-07-31T05:52:39.553Z","","","","","","","","","","","MotivationQ","","50","","","","","","","","","","","","","","","","","","","","","","","","","","","","",""
"","","","","ctl-task-cpt","74","932805","0.0-5.0-0.13","303","1","2025-07-31 05:37:47","1f75c3e559b7213887762d5229550c2b","87.123.247.154","Mozilla/5.0 (Windows NT 10.0; Win64; x64; rv:141.0) Gecko/20100101 Firefox/141.0","","Firefox","141.0","Windows","10.0","https://app.prolific.com/","de,en-US;q=0.7,en;q=0.3","66ebc8c5e5b772065830754d","6877631c9844ddd5501205fc","688b011da571f109cb488370","3","1","66ebc8c5e5b772065830754d","3","1","2025-07-31T05:53:20.376Z","","","","","","","","","","","","","","win-only","1","g1:NE,g2:SW","0.8","14","0","893491","2755","7763","37805","1","4","8","6","2","8","8","83","75","0.6287878787878788","921","3000","2020","[""down"",""left""]","{""num_key_presses"":8,""num_perfect"":6,""num_errors"":0,""num_randdir"":2,""num_randdir_good_moves"":1,""num_whilered"":0,""num_whileblue"":0,""num_blue"":2,""num_good_moves"":7}","[424.07142857142856,417.62142399379184,0,424.07142857142856,417.62142399379184,100,424.07142857142856,417.62142399379184,210,424.07142857142856,417.62142399379184,318,320.57142857142856,471.62142399379184,426,152.57142857142856,689.1214239937918,534,143.57142857142856,723.6214239937918,643,143.57142857142856,723.6214239937918,752,116.57142857142857,732.6214239937918,863,107.57142857142857,735.6214239937918,971,130.07142857142856,732.6214239937918,1082,611.5714285714286,722.1214239937918,1190,770.5714285714286,717.6214239937918,1301,770.5714285714286,717.6214239937918,1412,770.5714285714286,717.6214239937918,1522,770.5714285714286,717.6214239937918,1633,770.5714285714286,717.6214239937918,1741,770.5714285714286,717.6214239937918,1850,770.5714285714286,717.6214239937918,1959,770.5714285714286,717.6214239937918,2071,770.5714285714286,717.6214239937918,2184,770.5714285714286,717.6214239937918,2289,770.5714285714286,717.6214239937918,2400,770.5714285714286,717.6214239937918,2508,770.5714285714286,717.6214239937918,2620,770.5714285714286,717.6214239937918,2729,770.5714285714286,717.6214239937918,2839,770.5714285714286,717.6214239937918,2949,770.5714285714286,717.6214239937918,3059,770.5714285714286,717.6214239937918,3167,770.5714285714286,717.6214239937918,3276,770.5714285714286,717.6214239937918,3385,770.5714285714286,717.6214239937918,3495,770.5714285714286,717.6214239937918,3603,770.5714285714286,717.6214239937918,3712,770.5714285714286,717.6214239937918,3821,770.5714285714286,717.6214239937918,3931,770.5714285714286,717.6214239937918,4039,770.5714285714286,717.6214239937918,4149,770.5714285714286,717.6214239937918,4257,770.5714285714286,717.6214239937918,4366,770.5714285714286,717.6214239937918,4476,770.5714285714286,717.6214239937918,4585,770.5714285714286,717.6214239937918,4694,770.5714285714286,717.6214239937918,4804,770.5714285714286,717.6214239937918,4914]","[5148,5148,2701,2009,438,""smooth"",""left"",""left"",""good_move"",8184,3036,2660.6,5148,375.4,""oops"",""down"",""left"",""good_move"",15246,7061,2532.5,12338,375.5,""smooth"",""down"",""down"",""good_move"",17878,2632,2213.5,15246,418.5,""oops"",""down"",""right"",""bad_move"",20700,2822,2434,17879,387,""smooth"",""down"",""down"",""good_move"",23696,2996,2553.8,20700,442.2,""smooth"",""left"",""left"",""good_move"",26726,3030,1582.3,23696,1447.7,""smooth"",""left"",""left"",""good_move"",29746,3020,2145.1,26726,874.9,""smooth"",""down"",""down"",""good_move""]","",""
"1968","","<div style=""width:500px;"">
  <p>What determined the result of this run?</p>
  </div>","69","html-slider-response","75","934777","0.0-5.0-1.13","303","1","2025-07-31 05:37:47","1f75c3e559b7213887762d5229550c2b","87.123.247.154","Mozilla/5.0 (Windows NT 10.0; Win64; x64; rv:141.0) Gecko/20100101 Firefox/141.0","","Firefox","141.0","Windows","10.0","https://app.prolific.com/","de,en-US;q=0.7,en;q=0.3","66ebc8c5e5b772065830754d","6877631c9844ddd5501205fc","688b011da571f109cb488370","3","1","66ebc8c5e5b772065830754d","3","1","2025-07-31T05:53:22.348Z","","","","","","","","","","","AttribQ","","50","","","","","","","","","","","","","","","","","","","","","","","","","","","","",""
"1851","","<div style=""width:500px;"">
  <p>How much control did you have over the ball?</p>
  </div>","68","html-slider-response","76","936630","0.0-5.0-2.13","303","1","2025-07-31 05:37:47","1f75c3e559b7213887762d5229550c2b","87.123.247.154","Mozilla/5.0 (Windows NT 10.0; Win64; x64; rv:141.0) Gecko/20100101 Firefox/141.0","","Firefox","141.0","Windows","10.0","https://app.prolific.com/","de,en-US;q=0.7,en;q=0.3","66ebc8c5e5b772065830754d","6877631c9844ddd5501205fc","688b011da571f109cb488370","3","1","66ebc8c5e5b772065830754d","3","1","2025-07-31T05:53:24.201Z","","","","","","","","","","","ControlQ","","50","","","","","","","","","","","","","","","","","","","","","","","","","","","","",""
"1611","","<div style=""width:500px;"">
  <p>How would you describe your current emotional state?</p>
  </div>","66","html-slider-response","77","938242","0.0-5.0-3.13","303","1","2025-07-31 05:37:47","1f75c3e559b7213887762d5229550c2b","87.123.247.154","Mozilla/5.0 (Windows NT 10.0; Win64; x64; rv:141.0) Gecko/20100101 Firefox/141.0","","Firefox","141.0","Windows","10.0","https://app.prolific.com/","de,en-US;q=0.7,en;q=0.3","66ebc8c5e5b772065830754d","6877631c9844ddd5501205fc","688b011da571f109cb488370","3","1","66ebc8c5e5b772065830754d","3","1","2025-07-31T05:53:25.813Z","","","","","","","","","","","StressQ","","50","","","","","","","","","","","","","","","","","","","","","","","","","","","","",""
"1259","","<div style=""width:500px;"">
  <p>What best describes how you currently feel?</p>
  </div>","72","html-slider-response","78","939501","0.0-5.0-4.13","303","1","2025-07-31 05:37:47","1f75c3e559b7213887762d5229550c2b","87.123.247.154","Mozilla/5.0 (Windows NT 10.0; Win64; x64; rv:141.0) Gecko/20100101 Firefox/141.0","","Firefox","141.0","Windows","10.0","https://app.prolific.com/","de,en-US;q=0.7,en;q=0.3","66ebc8c5e5b772065830754d","6877631c9844ddd5501205fc","688b011da571f109cb488370","3","1","66ebc8c5e5b772065830754d","3","1","2025-07-31T05:53:27.072Z","","","","","","","","","","","MotivationQ","","50","","","","","","","","","","","","","","","","","","","","","","","","","","","","",""
