"rt","response_timestamp","stimulus","response","trial_type","trial_index","time_elapsed","internal_node_id","run_id","condition","recorded_at","source_code_version","ip","user_agent","device","browser","browser_version","platform","platform_version","referer","accept_language","PROLIFIC_PID","STUDY_ID","SESSION_ID","WEEK","BATCH","prolific_id","week","batch","realtime","success","responses","item_order","radio_event_ids","radio_event_times","key_event_times","mouse_event_times","straightlining","zigzagging","honeypot","eventType","view_history","slider_start","which_type","canvas_config","goals_layout","control_level","trial_number","tutorial_trial_number","trial_start_time","phase1_start_time","phase2_start_time","phase3_start_time","goal_1_value","goal_1_distance","goal_2_value","goal_2_distance","goal_selected","outcome","outcome_total","participant_final_score","participant_initial_score","participant_final_score_prop","goal_choice_rt","allocated_time","allocated_time_remaining","goal_direction","counts","mouse_movements","key_presses","question_order","question_id"
"87951","1753278305559","<p style='font-size:40px;line-height:1.25'><strong>Welcome to the experiment!</strong></p><p style='font-size:1.1em;line-height:1.25'>Thank you for participanting in our experiment again! You will be asked to play the Dysfunctional Ball Game again. We will briefly recap the rules before we start.</p><p style='font-size:1.1em;line-height:1.25'>Press <strong>Next</strong> to continue.</p>","0","custom-html-button-response","0","87954","0.0-0.0","223","1","2025-07-23 13:43:34","1f75c3e559b7213887762d5229550c2b","173.21.92.193","Mozilla/5.0 (Windows NT 10.0; Win64; x64) AppleWebKit/537.36 (KHTML, like Gecko) Chrome/138.0.0.0 Safari/537.36","WebKit","Chrome","138.0.0.0","Windows","10.0","https://app.prolific.com/","en-US,en;q=0.9","66f4c82536b5c8271f53564c","683db9eb0562dbf637994deb","6880e6f7817689b3ae3598d1","2","1","66f4c82536b5c8271f53564c","2","1","2025-07-23T13:45:05.561Z","","","","","","","","","","","","","","","","","","","","","","","","","","","","","","","","","","","","","","","","","",""
"24190","","","","fullscreen","1","113191","0.0-1.0","223","1","2025-07-23 13:43:34","1f75c3e559b7213887762d5229550c2b","173.21.92.193","Mozilla/5.0 (Windows NT 10.0; Win64; x64) AppleWebKit/537.36 (KHTML, like Gecko) Chrome/138.0.0.0 Safari/537.36","WebKit","Chrome","138.0.0.0","Windows","10.0","https://app.prolific.com/","en-US,en;q=0.9","66f4c82536b5c8271f53564c","683db9eb0562dbf637994deb","6880e6f7817689b3ae3598d1","2","1","66f4c82536b5c8271f53564c","2","1","","true","","","","","","","","","","","","","","","","","","","","","","","","","","","","","","","","","","","","","","","","",""
"2023","1753278332827","<p style='font-size:1.1em;line-height:1.25'>In the following, we will ask you a few questions relating to your feelings in the last 24 hours.<br></p><p style='font-size:1.1em;line-height:1.25'>Press the <strong>Next</strong> button to continue.</p>","0","custom-html-button-response","2","115220","0.0-2.0-0.0","223","1","2025-07-23 13:43:34","1f75c3e559b7213887762d5229550c2b","173.21.92.193","Mozilla/5.0 (Windows NT 10.0; Win64; x64) AppleWebKit/537.36 (KHTML, like Gecko) Chrome/138.0.0.0 Safari/537.36","WebKit","Chrome","138.0.0.0","Windows","10.0","https://app.prolific.com/","en-US,en;q=0.9","66f4c82536b5c8271f53564c","683db9eb0562dbf637994deb","6880e6f7817689b3ae3598d1","2","1","66f4c82536b5c8271f53564c","2","1","2025-07-23T13:45:32.827Z","","","","","","","","","","","","","","","","","","","","","","","","","","","","","","","","","","","","","","","","","",""
"86184.10000002384","","","","survey-template","3","201408","0.0-2.0-1.0","223","1","2025-07-23 13:43:34","1f75c3e559b7213887762d5229550c2b","173.21.92.193","Mozilla/5.0 (Windows NT 10.0; Win64; x64) AppleWebKit/537.36 (KHTML, like Gecko) Chrome/138.0.0.0 Safari/537.36","WebKit","Chrome","138.0.0.0","Windows","10.0","https://app.prolific.com/","en-US,en;q=0.9","66f4c82536b5c8271f53564c","683db9eb0562dbf637994deb","6880e6f7817689b3ae3598d1","2","1","66f4c82536b5c8271f53564c","2","1","2025-07-23T13:46:59.015Z","","{""Q01"":""5"",""Q02"":""5"",""Q03"":""5"",""Q04"":""5"",""Q05"":""4"",""Q06"":""5"",""Q07"":""5"",""Q08"":""5"",""Q09"":""5"",""Q10"":""5"",""Q11"":""5"",""Q12"":""3"",""Q13"":""5"",""Q14"":""3"",""Q15"":""5"",""Q16"":""5"",""Q17"":""5"",""Q18"":""0"",""Q19"":""5"",""Q20"":""5"",""Q21"":""5"",""Q22"":""5""}","[0,1,2,3,4,5,6,7,8,9,10,11,12,13,14,15,16,17,18,19,20,21]","[""Q01"",""Q02"",""Q03"",""Q04"",""Q05"",""Q06"",""Q07"",""Q09"",""Q08"",""Q10"",""Q11"",""Q12"",""Q13"",""Q14"",""Q14"",""Q15"",""Q16"",""Q17"",""Q18"",""Q18"",""Q19"",""Q20"",""Q21"",""Q22""]","[2557.199999988079,3650.300000011921,7223.5,8371.899999976158,11354.800000011921,12938,14484.100000023842,18329.80000001192,19395.30000001192,20746,23190.399999976158,26313.5,28516.100000023842,37735.5,40467.60000002384,45593.30000001192,48953.30000001192,51174.19999998808,55907.19999998808,60442.19999998808,70820.5,79239.39999997616,80333.39999997616,84435.5]","[]","[0.19999998807907104,2557.199999988079,3650.300000011921,5052.899999976158,5980.600000023842,7223.5,8371.899999976158,11354.800000011921,12938,14484.100000023842,16041.800000011921,18329.80000001192,19395.30000001192,20746,22075,23190.399999976158,24304.899999976158,26313.5,28516.100000023842,37735.5,39415.69999998808,40467.60000002384,45593.30000001192,47740.39999997616,48953.30000001192,49939.19999998808,51174.19999998808,55907.19999998808,60442.19999998808,67087.60000002384,68955.10000002384,69963.60000002384,70820.5,73297.80000001192,74562.89999997616,76792.60000002384,79239.39999997616,80333.39999997616,82612.89999997616,84435.5,86181.5]","0.8181818181818182","0.19047619047619047","0","drsp","","","","","","","","","","","","","","","","","","","","","","","","","","","","","","",""
"15543.200000047684","","","","survey-template","4","216953","0.0-2.0-2.0","223","1","2025-07-23 13:43:34","1f75c3e559b7213887762d5229550c2b","173.21.92.193","Mozilla/5.0 (Windows NT 10.0; Win64; x64) AppleWebKit/537.36 (KHTML, like Gecko) Chrome/138.0.0.0 Safari/537.36","WebKit","Chrome","138.0.0.0","Windows","10.0","https://app.prolific.com/","en-US,en;q=0.9","66f4c82536b5c8271f53564c","683db9eb0562dbf637994deb","6880e6f7817689b3ae3598d1","2","1","66f4c82536b5c8271f53564c","2","1","2025-07-23T13:47:14.560Z","","{""Q01"":""5"",""Q02"":""5"",""Q03"":""5""}","[0,1,2]","[""Q01"",""Q02"",""Q03""]","[7153.400000035763,13196.5,14628.400000035763]","[]","[6072.5,7153.400000035763,10090.700000047684,11663.400000035763,13196.5,14628.400000035763,15542.600000023842]","0.6666666666666666","1","0","stress","","","","","","","","","","","","","","","","","","","","","","","","","","","","","","",""
"11072","","","","instructions","5","228026","0.0-3.0-0.0","223","1","2025-07-23 13:43:34","1f75c3e559b7213887762d5229550c2b","173.21.92.193","Mozilla/5.0 (Windows NT 10.0; Win64; x64) AppleWebKit/537.36 (KHTML, like Gecko) Chrome/138.0.0.0 Safari/537.36","WebKit","Chrome","138.0.0.0","Windows","10.0","https://app.prolific.com/","en-US,en;q=0.9","66f4c82536b5c8271f53564c","683db9eb0562dbf637994deb","6880e6f7817689b3ae3598d1","2","1","66f4c82536b5c8271f53564c","2","1","","","","","","","","","","","","","[{""page_index"":0,""viewing_time"":11072}]","","","","","","","","","","","","","","","","","","","","","","","","","","","","","",""
"3900","","<p>Before you start with this game please answer the following three questions yourself. </p>
  <p>Through this game, we measure several aspects of your cognitive performance, such as reaction times, multi-tasking capabilities </p>
  <p>and the ability to assess the situation you are in.</p>
  <p></p>
  <p><b>How good do you usually are in such tasks?</b></p>","11","html-slider-response","6","231963","0.0-4.0-0.0","223","1","2025-07-23 13:43:34","1f75c3e559b7213887762d5229550c2b","173.21.92.193","Mozilla/5.0 (Windows NT 10.0; Win64; x64) AppleWebKit/537.36 (KHTML, like Gecko) Chrome/138.0.0.0 Safari/537.36","WebKit","Chrome","138.0.0.0","Windows","10.0","https://app.prolific.com/","en-US,en;q=0.9","66f4c82536b5c8271f53564c","683db9eb0562dbf637994deb","6880e6f7817689b3ae3598d1","2","1","66f4c82536b5c8271f53564c","2","1","2025-07-23T13:47:29.570Z","","","","","","","","","","","PreSkillQ","","50","","","","","","","","","","","","","","","","","","","","","","","","","","","","",""
"6896","","<div style=""width:500px;"">
  <p>How well do you think you will perform in this task compared to other participants?</p>
  </div>","11","html-slider-response","7","238860","0.0-4.0-1.0","223","1","2025-07-23 13:43:34","1f75c3e559b7213887762d5229550c2b","173.21.92.193","Mozilla/5.0 (Windows NT 10.0; Win64; x64) AppleWebKit/537.36 (KHTML, like Gecko) Chrome/138.0.0.0 Safari/537.36","WebKit","Chrome","138.0.0.0","Windows","10.0","https://app.prolific.com/","en-US,en;q=0.9","66f4c82536b5c8271f53564c","683db9eb0562dbf637994deb","6880e6f7817689b3ae3598d1","2","1","66f4c82536b5c8271f53564c","2","1","2025-07-23T13:47:36.467Z","","","","","","","","","","","PrePerfQ","","50","","","","","","","","","","","","","","","","","","","","","","","","","","","","",""
"3192","","<div style=""width:500px;"">
  <p>What best describes how you currently feel?</p>
  </div>","13","html-slider-response","8","242053","0.0-4.0-2.0","223","1","2025-07-23 13:43:34","1f75c3e559b7213887762d5229550c2b","173.21.92.193","Mozilla/5.0 (Windows NT 10.0; Win64; x64) AppleWebKit/537.36 (KHTML, like Gecko) Chrome/138.0.0.0 Safari/537.36","WebKit","Chrome","138.0.0.0","Windows","10.0","https://app.prolific.com/","en-US,en;q=0.9","66f4c82536b5c8271f53564c","683db9eb0562dbf637994deb","6880e6f7817689b3ae3598d1","2","1","66f4c82536b5c8271f53564c","2","1","2025-07-23T13:47:39.660Z","","","","","","","","","","","PreMotivationQ","","50","","","","","","","","","","","","","","","","","","","","","","","","","","","","",""
"","","","","ctl-task-cpt","9","273087","0.0-5.0-0.0","223","1","2025-07-23 13:43:34","1f75c3e559b7213887762d5229550c2b","173.21.92.193","Mozilla/5.0 (Windows NT 10.0; Win64; x64) AppleWebKit/537.36 (KHTML, like Gecko) Chrome/138.0.0.0 Safari/537.36","WebKit","Chrome","138.0.0.0","Windows","10.0","https://app.prolific.com/","en-US,en;q=0.9","66f4c82536b5c8271f53564c","683db9eb0562dbf637994deb","6880e6f7817689b3ae3598d1","2","1","66f4c82536b5c8271f53564c","2","1","2025-07-23T13:48:10.694Z","","","","","","","","","","","","","","win-only","3","g1:SW,g2:NE","1","1","0","245170.9","1277.9","6278.6","28026.4","1","4","4","6","2","4","3","3","0","0.022727272727272728","1548.4","3000","1485","[""up"",""right""]","{""num_key_presses"":7,""num_perfect"":6,""num_errors"":1,""num_randdir"":0,""num_randdir_good_moves"":0,""num_whilered"":0,""num_whileblue"":0,""num_blue"":1,""num_good_moves"":6}","[460.8571428571429,467.7633928571429,0.2,460.8571428571429,467.7633928571429,106,460.8571428571429,467.7633928571429,213,460.8571428571429,467.7633928571429,313.6,460.8571428571429,467.7633928571429,421.8,460.8571428571429,467.7633928571429,529.3,460.8571428571429,467.7633928571429,632.7,460.8571428571429,467.7633928571429,732.9,460.8571428571429,467.7633928571429,834.2,722.8571428571429,179.76339285714286,937.6,828.8571428571429,108.76339285714286,1043.7,837.8571428571429,67.76339285714286,1148.8,842.8571428571429,62.76339285714286,1259.5,842.8571428571429,62.76339285714286,1359.9,842.8571428571429,62.76339285714286,1464.7,842.8571428571429,62.76339285714286,1584.3,842.8571428571429,62.76339285714286,1694.7,842.8571428571429,62.76339285714286,1794.9,842.8571428571429,62.76339285714286,1898,842.8571428571429,62.76339285714286,1998.1,842.8571428571429,62.76339285714286,2106.5,842.8571428571429,62.76339285714286,2213.1,842.8571428571429,62.76339285714286,2321.5,842.8571428571429,62.76339285714286,2421.6,842.8571428571429,62.76339285714286,2529.6,842.8571428571429,62.76339285714286,2631.2,842.8571428571429,62.76339285714286,2734.6,842.8571428571429,62.76339285714286,2841.5,842.8571428571429,62.76339285714286,2943.2,842.8571428571429,62.76339285714286,3046.8,842.8571428571429,62.76339285714286,3147.9,842.8571428571429,62.76339285714286,3259.2,842.8571428571429,62.76339285714286,3359.4,842.8571428571429,62.76339285714286,3464.4,842.8571428571429,62.76339285714286,3564.6,842.8571428571429,62.76339285714286,3671.2,842.8571428571429,62.76339285714286,3777,842.8571428571429,62.76339285714286,3881.2,842.8571428571429,62.76339285714286,3987.1,842.8571428571429,62.76339285714286,4094.6,842.8571428571429,62.76339285714286,4198.2,842.8571428571429,62.76339285714286,4315.3,842.8571428571429,62.76339285714286,4416.8,842.8571428571429,62.76339285714286,4525.4,842.8571428571429,62.76339285714286,4626,842.8571428571429,62.76339285714286,4726,842.8571428571429,62.76339285714286,4828.5,842.8571428571429,62.76339285714286,4935.7]","[668.5,668.5,1000,0,-331.5,""error"",""-"",""-"",""no_move"",8353.8,7685.2,2321.4,5660.9,371.5,""smooth"",""up"",""up"",""good_move"",11014.7,2660.6,2285.5,8354.1,375.1,""smooth"",""up"",""up"",""good_move"",14243.6,3228.7,2889.1,11015,339.6,""smooth"",""right"",""right"",""good_move"",16784,2540.1,2178.8,14243.9,361.3,""smooth"",""right"",""right"",""good_move"",18978.1,2193.9,1835.2,16784.3,358.7,""smooth"",""up"",""up"",""good_move"",21616.4,2638,2317.5,18978.5,320.4,""smooth"",""right"",""right"",""good_move""]","",""
"4936","","<div style=""width:500px;"">
  <p>What determined the result of this run?</p>
  </div>","25","html-slider-response","10","278024","0.0-5.0-1.0","223","1","2025-07-23 13:43:34","1f75c3e559b7213887762d5229550c2b","173.21.92.193","Mozilla/5.0 (Windows NT 10.0; Win64; x64) AppleWebKit/537.36 (KHTML, like Gecko) Chrome/138.0.0.0 Safari/537.36","WebKit","Chrome","138.0.0.0","Windows","10.0","https://app.prolific.com/","en-US,en;q=0.9","66f4c82536b5c8271f53564c","683db9eb0562dbf637994deb","6880e6f7817689b3ae3598d1","2","1","66f4c82536b5c8271f53564c","2","1","2025-07-23T13:48:15.631Z","","","","","","","","","","","AttribQ","","50","","","","","","","","","","","","","","","","","","","","","","","","","","","","",""
"3597","","<div style=""width:500px;"">
  <p>How much control did you have over the ball?</p>
  </div>","100","html-slider-response","11","281622","0.0-5.0-2.0","223","1","2025-07-23 13:43:34","1f75c3e559b7213887762d5229550c2b","173.21.92.193","Mozilla/5.0 (Windows NT 10.0; Win64; x64) AppleWebKit/537.36 (KHTML, like Gecko) Chrome/138.0.0.0 Safari/537.36","WebKit","Chrome","138.0.0.0","Windows","10.0","https://app.prolific.com/","en-US,en;q=0.9","66f4c82536b5c8271f53564c","683db9eb0562dbf637994deb","6880e6f7817689b3ae3598d1","2","1","66f4c82536b5c8271f53564c","2","1","2025-07-23T13:48:19.230Z","","","","","","","","","","","ControlQ","","50","","","","","","","","","","","","","","","","","","","","","","","","","","","","",""
"37651","","<div style=""width:500px;"">
  <p>How would you describe your current emotional state?</p>
  </div>","9","html-slider-response","12","319275","0.0-5.0-3.0","223","1","2025-07-23 13:43:34","1f75c3e559b7213887762d5229550c2b","173.21.92.193","Mozilla/5.0 (Windows NT 10.0; Win64; x64) AppleWebKit/537.36 (KHTML, like Gecko) Chrome/138.0.0.0 Safari/537.36","WebKit","Chrome","138.0.0.0","Windows","10.0","https://app.prolific.com/","en-US,en;q=0.9","66f4c82536b5c8271f53564c","683db9eb0562dbf637994deb","6880e6f7817689b3ae3598d1","2","1","66f4c82536b5c8271f53564c","2","1","2025-07-23T13:48:56.882Z","","","","","","","","","","","StressQ","","50","","","","","","","","","","","","","","","","","","","","","","","","","","","","",""
"6800","","<div style=""width:500px;"">
  <p>What best describes how you currently feel?</p>
  </div>","20","html-slider-response","13","326076","0.0-5.0-4.0","223","1","2025-07-23 13:43:34","1f75c3e559b7213887762d5229550c2b","173.21.92.193","Mozilla/5.0 (Windows NT 10.0; Win64; x64) AppleWebKit/537.36 (KHTML, like Gecko) Chrome/138.0.0.0 Safari/537.36","WebKit","Chrome","138.0.0.0","Windows","10.0","https://app.prolific.com/","en-US,en;q=0.9","66f4c82536b5c8271f53564c","683db9eb0562dbf637994deb","6880e6f7817689b3ae3598d1","2","1","66f4c82536b5c8271f53564c","2","1","2025-07-23T13:49:03.683Z","","","","","","","","","","","MotivationQ","","50","","","","","","","","","","","","","","","","","","","","","","","","","","","","",""
"","","","","ctl-task-cpt","14","350771","0.0-5.0-0.1","223","1","2025-07-23 13:43:34","1f75c3e559b7213887762d5229550c2b","173.21.92.193","Mozilla/5.0 (Windows NT 10.0; Win64; x64) AppleWebKit/537.36 (KHTML, like Gecko) Chrome/138.0.0.0 Safari/537.36","WebKit","Chrome","138.0.0.0","Windows","10.0","https://app.prolific.com/","en-US,en;q=0.9","66f4c82536b5c8271f53564c","683db9eb0562dbf637994deb","6880e6f7817689b3ae3598d1","2","1","66f4c82536b5c8271f53564c","2","1","2025-07-23T13:49:28.378Z","","","","","","","","","","","","","","win-only","3","g1:SW,g2:NE","0.9","2","0","329191.9","1038.7","6043","21685.6","1","4","8","6","2","8","8","11","3","0.08333333333333333","1114.1","3000","1390","[""up"",""right""]","{""num_key_presses"":6,""num_perfect"":6,""num_errors"":0,""num_randdir"":0,""num_randdir_good_moves"":0,""num_whilered"":0,""num_whileblue"":0,""num_blue"":0,""num_good_moves"":6}","[463.8571428571429,473.7633928571429,0.2,463.8571428571429,473.7633928571429,100.8,463.8571428571429,473.7633928571429,201.5,463.8571428571429,473.7633928571429,303.2,463.8571428571429,473.7633928571429,403.8,463.8571428571429,473.7633928571429,504,463.8571428571429,473.7633928571429,604.5,590.8571428571429,314.7633928571429,710.6,797.8571428571429,91.76339285714286,811.4,794.8571428571429,89.76339285714286,914.9,793.8571428571429,88.76339285714286,1022,793.8571428571429,88.76339285714286,1122.6,793.8571428571429,88.76339285714286,1228.9,793.8571428571429,88.76339285714286,1329.2,793.8571428571429,88.76339285714286,1431.4,793.8571428571429,88.76339285714286,1531.4,793.8571428571429,88.76339285714286,1631.6,793.8571428571429,88.76339285714286,1735.5,793.8571428571429,88.76339285714286,1836.7,793.8571428571429,88.76339285714286,1937.8,793.8571428571429,88.76339285714286,2047.7,793.8571428571429,88.76339285714286,2158.8,793.8571428571429,88.76339285714286,2259.2,793.8571428571429,88.76339285714286,2364.1,793.8571428571429,88.76339285714286,2464.4,793.8571428571429,88.76339285714286,2566.9,793.8571428571429,88.76339285714286,2674.2,793.8571428571429,88.76339285714286,2780.8,793.8571428571429,88.76339285714286,2880.9,793.8571428571429,88.76339285714286,2981.4,793.8571428571429,88.76339285714286,3089.6,793.8571428571429,88.76339285714286,3200,793.8571428571429,88.76339285714286,3300.9,793.8571428571429,88.76339285714286,3401.9,793.8571428571429,88.76339285714286,3507.2,793.8571428571429,88.76339285714286,3608.9,793.8571428571429,88.76339285714286,3713.5,793.8571428571429,88.76339285714286,3820.3,793.8571428571429,88.76339285714286,3927.3,793.8571428571429,88.76339285714286,4034.3,793.8571428571429,88.76339285714286,4138.6,793.8571428571429,88.76339285714286,4241.6,793.8571428571429,88.76339285714286,4347.1,793.8571428571429,88.76339285714286,4450.6,793.8571428571429,88.76339285714286,4553.4,793.8571428571429,88.76339285714286,4657.1,793.8571428571429,88.76339285714286,4763.3,793.8571428571429,88.76339285714286,4870.5,793.8571428571429,88.76339285714286,4970.5]","[1471.1,1471.1,1000,0,471.1,""smooth"",""up"",""up"",""good_move"",4207.1,2735.8,2354.5,1471.4,381.3,""smooth"",""up"",""up"",""good_move"",7499.3,3291.8,2937,4207.5,354.8,""smooth"",""right"",""right"",""good_move"",10212.2,2712.5,2297.6,7499.7,414.9,""smooth"",""right"",""right"",""good_move"",12715.4,2502.9,2141.1,10212.5,361.8,""smooth"",""right"",""right"",""good_move"",15526.1,2810.5,2468.7,12715.6,341.8,""smooth"",""up"",""up"",""good_move""]","",""
"31332","","<div style=""width:500px;"">
  <p>What determined the result of this run?</p>
  </div>","26","html-slider-response","15","382104","0.0-5.0-1.1","223","1","2025-07-23 13:43:34","1f75c3e559b7213887762d5229550c2b","173.21.92.193","Mozilla/5.0 (Windows NT 10.0; Win64; x64) AppleWebKit/537.36 (KHTML, like Gecko) Chrome/138.0.0.0 Safari/537.36","WebKit","Chrome","138.0.0.0","Windows","10.0","https://app.prolific.com/","en-US,en;q=0.9","66f4c82536b5c8271f53564c","683db9eb0562dbf637994deb","6880e6f7817689b3ae3598d1","2","1","66f4c82536b5c8271f53564c","2","1","2025-07-23T13:49:59.711Z","","","","","","","","","","","AttribQ","","50","","","","","","","","","","","","","","","","","","","","","","","","","","","","",""
"3363","","<div style=""width:500px;"">
  <p>How much control did you have over the ball?</p>
  </div>","100","html-slider-response","16","385468","0.0-5.0-2.1","223","1","2025-07-23 13:43:34","1f75c3e559b7213887762d5229550c2b","173.21.92.193","Mozilla/5.0 (Windows NT 10.0; Win64; x64) AppleWebKit/537.36 (KHTML, like Gecko) Chrome/138.0.0.0 Safari/537.36","WebKit","Chrome","138.0.0.0","Windows","10.0","https://app.prolific.com/","en-US,en;q=0.9","66f4c82536b5c8271f53564c","683db9eb0562dbf637994deb","6880e6f7817689b3ae3598d1","2","1","66f4c82536b5c8271f53564c","2","1","2025-07-23T13:50:03.075Z","","","","","","","","","","","ControlQ","","50","","","","","","","","","","","","","","","","","","","","","","","","","","","","",""
"9541","","<div style=""width:500px;"">
  <p>How would you describe your current emotional state?</p>
  </div>","16","html-slider-response","17","395011","0.0-5.0-3.1","223","1","2025-07-23 13:43:34","1f75c3e559b7213887762d5229550c2b","173.21.92.193","Mozilla/5.0 (Windows NT 10.0; Win64; x64) AppleWebKit/537.36 (KHTML, like Gecko) Chrome/138.0.0.0 Safari/537.36","WebKit","Chrome","138.0.0.0","Windows","10.0","https://app.prolific.com/","en-US,en;q=0.9","66f4c82536b5c8271f53564c","683db9eb0562dbf637994deb","6880e6f7817689b3ae3598d1","2","1","66f4c82536b5c8271f53564c","2","1","2025-07-23T13:50:12.618Z","","","","","","","","","","","StressQ","","50","","","","","","","","","","","","","","","","","","","","","","","","","","","","",""
"3324","","<div style=""width:500px;"">
  <p>What best describes how you currently feel?</p>
  </div>","16","html-slider-response","18","398335","0.0-5.0-4.1","223","1","2025-07-23 13:43:34","1f75c3e559b7213887762d5229550c2b","173.21.92.193","Mozilla/5.0 (Windows NT 10.0; Win64; x64) AppleWebKit/537.36 (KHTML, like Gecko) Chrome/138.0.0.0 Safari/537.36","WebKit","Chrome","138.0.0.0","Windows","10.0","https://app.prolific.com/","en-US,en;q=0.9","66f4c82536b5c8271f53564c","683db9eb0562dbf637994deb","6880e6f7817689b3ae3598d1","2","1","66f4c82536b5c8271f53564c","2","1","2025-07-23T13:50:15.942Z","","","","","","","","","","","MotivationQ","","50","","","","","","","","","","","","","","","","","","","","","","","","","","","","",""
"","","","","ctl-task-cpt","19","424427","0.0-5.0-0.2","223","1","2025-07-23 13:43:34","1f75c3e559b7213887762d5229550c2b","173.21.92.193","Mozilla/5.0 (Windows NT 10.0; Win64; x64) AppleWebKit/537.36 (KHTML, like Gecko) Chrome/138.0.0.0 Safari/537.36","WebKit","Chrome","138.0.0.0","Windows","10.0","https://app.prolific.com/","en-US,en;q=0.9","66f4c82536b5c8271f53564c","683db9eb0562dbf637994deb","6880e6f7817689b3ae3598d1","2","1","66f4c82536b5c8271f53564c","2","1","2025-07-23T13:50:42.034Z","","","","","","","","","","","","","","win-only","3","g1:SW,g2:NE","0.8","3","0","401451.8","1100.5","6107.2","23087.9","1","4","8","6","2","8","8","19","11","0.14393939393939395","1283.9","3000","1565","[""up"",""right""]","{""num_key_presses"":6,""num_perfect"":5,""num_errors"":0,""num_randdir"":1,""num_randdir_good_moves"":1,""num_whilered"":0,""num_whileblue"":0,""num_blue"":0,""num_good_moves"":6}","[457.8571428571429,471.7633928571429,0.2,457.8571428571429,471.7633928571429,104.6,457.8571428571429,471.7633928571429,209.7,457.8571428571429,471.7633928571429,313.4,457.8571428571429,471.7633928571429,421.1,457.8571428571429,471.7633928571429,529,457.8571428571429,471.7633928571429,629.9,457.8571428571429,471.7633928571429,736.4,457.8571428571429,471.7633928571429,840,755.8571428571429,164.76339285714286,942.1,833.8571428571429,71.76339285714286,1050.1,835.8571428571429,56.76339285714286,1155.5,835.8571428571429,56.76339285714286,1258.2,835.8571428571429,56.76339285714286,1361.4,835.8571428571429,56.76339285714286,1467.1,835.8571428571429,56.76339285714286,1572.3,835.8571428571429,56.76339285714286,1675.1,835.8571428571429,56.76339285714286,1780.5,835.8571428571429,56.76339285714286,1885.8,835.8571428571429,56.76339285714286,1988.7,835.8571428571429,56.76339285714286,2092.7,835.8571428571429,56.76339285714286,2198.1,835.8571428571429,56.76339285714286,2303.6,835.8571428571429,56.76339285714286,2405.5,835.8571428571429,56.76339285714286,2509.8,835.8571428571429,56.76339285714286,2610.8,835.8571428571429,56.76339285714286,2717.6,835.8571428571429,56.76339285714286,2825.4,835.8571428571429,56.76339285714286,2935.8,835.8571428571429,56.76339285714286,3038.8,835.8571428571429,56.76339285714286,3138.8,835.8571428571429,56.76339285714286,3242.2,835.8571428571429,56.76339285714286,3349.8,835.8571428571429,56.76339285714286,3459.4,835.8571428571429,56.76339285714286,3562.5,835.8571428571429,56.76339285714286,3668.4,835.8571428571429,56.76339285714286,3776.6,835.8571428571429,56.76339285714286,3880.6,835.8571428571429,56.76339285714286,3982.4,835.8571428571429,56.76339285714286,4089.1,835.8571428571429,56.76339285714286,4191.6,835.8571428571429,56.76339285714286,4296.1,835.8571428571429,56.76339285714286,4403.9,835.8571428571429,56.76339285714286,4509,835.8571428571429,56.76339285714286,4611.2,835.8571428571429,56.76339285714286,4715.6,835.8571428571429,56.76339285714286,4822.2,835.8571428571429,56.76339285714286,4922.6]","[1394.7,1394.7,1000,0,394.7,""smooth"",""up"",""up"",""good_move"",4436.8,3041.7,2692.2,1395.1,349.5,""smooth"",""right"",""right"",""good_move"",7547.1,3110,2783.1,4437.1,326.9,""smooth"",""right"",""right"",""good_move"",10816,3268.7,2941,7547.3,327.7,""oops"",""up"",""right"",""good_move"",14336.3,3519.8,3178.8,10816.5,341,""smooth"",""up"",""up"",""good_move"",16858.3,2521.8,2190,14336.5,331.8,""smooth"",""up"",""up"",""good_move""]","",""
"3199","","<div style=""width:500px;"">
  <p>What determined the result of this run?</p>
  </div>","17","html-slider-response","20","427627","0.0-5.0-1.2","223","1","2025-07-23 13:43:34","1f75c3e559b7213887762d5229550c2b","173.21.92.193","Mozilla/5.0 (Windows NT 10.0; Win64; x64) AppleWebKit/537.36 (KHTML, like Gecko) Chrome/138.0.0.0 Safari/537.36","WebKit","Chrome","138.0.0.0","Windows","10.0","https://app.prolific.com/","en-US,en;q=0.9","66f4c82536b5c8271f53564c","683db9eb0562dbf637994deb","6880e6f7817689b3ae3598d1","2","1","66f4c82536b5c8271f53564c","2","1","2025-07-23T13:50:45.234Z","","","","","","","","","","","AttribQ","","50","","","","","","","","","","","","","","","","","","","","","","","","","","","","",""
"5537","","<div style=""width:500px;"">
  <p>How much control did you have over the ball?</p>
  </div>","99","html-slider-response","21","433164","0.0-5.0-2.2","223","1","2025-07-23 13:43:34","1f75c3e559b7213887762d5229550c2b","173.21.92.193","Mozilla/5.0 (Windows NT 10.0; Win64; x64) AppleWebKit/537.36 (KHTML, like Gecko) Chrome/138.0.0.0 Safari/537.36","WebKit","Chrome","138.0.0.0","Windows","10.0","https://app.prolific.com/","en-US,en;q=0.9","66f4c82536b5c8271f53564c","683db9eb0562dbf637994deb","6880e6f7817689b3ae3598d1","2","1","66f4c82536b5c8271f53564c","2","1","2025-07-23T13:50:50.771Z","","","","","","","","","","","ControlQ","","50","","","","","","","","","","","","","","","","","","","","","","","","","","","","",""
"3585","","<div style=""width:500px;"">
  <p>How would you describe your current emotional state?</p>
  </div>","15","html-slider-response","22","436749","0.0-5.0-3.2","223","1","2025-07-23 13:43:34","1f75c3e559b7213887762d5229550c2b","173.21.92.193","Mozilla/5.0 (Windows NT 10.0; Win64; x64) AppleWebKit/537.36 (KHTML, like Gecko) Chrome/138.0.0.0 Safari/537.36","WebKit","Chrome","138.0.0.0","Windows","10.0","https://app.prolific.com/","en-US,en;q=0.9","66f4c82536b5c8271f53564c","683db9eb0562dbf637994deb","6880e6f7817689b3ae3598d1","2","1","66f4c82536b5c8271f53564c","2","1","2025-07-23T13:50:54.357Z","","","","","","","","","","","StressQ","","50","","","","","","","","","","","","","","","","","","","","","","","","","","","","",""
"2364","","<div style=""width:500px;"">
  <p>What best describes how you currently feel?</p>
  </div>","12","html-slider-response","23","439114","0.0-5.0-4.2","223","1","2025-07-23 13:43:34","1f75c3e559b7213887762d5229550c2b","173.21.92.193","Mozilla/5.0 (Windows NT 10.0; Win64; x64) AppleWebKit/537.36 (KHTML, like Gecko) Chrome/138.0.0.0 Safari/537.36","WebKit","Chrome","138.0.0.0","Windows","10.0","https://app.prolific.com/","en-US,en;q=0.9","66f4c82536b5c8271f53564c","683db9eb0562dbf637994deb","6880e6f7817689b3ae3598d1","2","1","66f4c82536b5c8271f53564c","2","1","2025-07-23T13:50:56.721Z","","","","","","","","","","","MotivationQ","","50","","","","","","","","","","","","","","","","","","","","","","","","","","","","",""
"","","","","ctl-task-cpt","24","482937","0.0-5.0-0.3","223","1","2025-07-23 13:43:34","1f75c3e559b7213887762d5229550c2b","173.21.92.193","Mozilla/5.0 (Windows NT 10.0; Win64; x64) AppleWebKit/537.36 (KHTML, like Gecko) Chrome/138.0.0.0 Safari/537.36","WebKit","Chrome","138.0.0.0","Windows","10.0","https://app.prolific.com/","en-US,en;q=0.9","66f4c82536b5c8271f53564c","683db9eb0562dbf637994deb","6880e6f7817689b3ae3598d1","2","1","66f4c82536b5c8271f53564c","2","1","2025-07-23T13:51:40.544Z","","","","","","","","","","","","","","win-only","3","g1:SW,g2:NE","0.7","4","0","442230.9","960.8","5961.8","40813.9","1","4","4","6","2","4","3","22","19","0.16666666666666666","931.9","3000","300","[""up"",""right""]","{""num_key_presses"":12,""num_perfect"":8,""num_errors"":1,""num_randdir"":3,""num_randdir_good_moves"":0,""num_whilered"":0,""num_whileblue"":1,""num_blue"":1,""num_good_moves"":9}","[462.8571428571429,464.7633928571429,0.1,462.8571428571429,464.7633928571429,102.2,462.8571428571429,464.7633928571429,211.2,462.8571428571429,464.7633928571429,316.7,462.8571428571429,464.7633928571429,417.1,462.8571428571429,464.7633928571429,522.2,597.8571428571429,306.7633928571429,629.1,866.8571428571429,52.76339285714286,729.7,866.8571428571429,52.76339285714286,832.2,866.8571428571429,52.76339285714286,935,866.8571428571429,52.76339285714286,1040.9,866.8571428571429,52.76339285714286,1147.2,866.8571428571429,52.76339285714286,1253.1,866.8571428571429,52.76339285714286,1358,866.8571428571429,52.76339285714286,1464.3,866.8571428571429,52.76339285714286,1566.6,866.8571428571429,52.76339285714286,1666.7,866.8571428571429,52.76339285714286,1776.9,866.8571428571429,52.76339285714286,1878.1,866.8571428571429,52.76339285714286,1983,866.8571428571429,52.76339285714286,2083.4,866.8571428571429,52.76339285714286,2186.1,866.8571428571429,52.76339285714286,2289.9,866.8571428571429,52.76339285714286,2391.7,866.8571428571429,52.76339285714286,2497.9,866.8571428571429,52.76339285714286,2601.6,866.8571428571429,52.76339285714286,2704.9,866.8571428571429,52.76339285714286,2807.3,866.8571428571429,52.76339285714286,2909.9,866.8571428571429,52.76339285714286,3013.9,866.8571428571429,52.76339285714286,3119.8,866.8571428571429,52.76339285714286,3221.5,866.8571428571429,52.76339285714286,3321.6,866.8571428571429,52.76339285714286,3426.9,866.8571428571429,52.76339285714286,3527.2,866.8571428571429,52.76339285714286,3633,866.8571428571429,52.76339285714286,3741.8,866.8571428571429,52.76339285714286,3841.9,866.8571428571429,52.76339285714286,3942.1,866.8571428571429,52.76339285714286,4050,866.8571428571429,52.76339285714286,4150,866.8571428571429,52.76339285714286,4255.8,866.8571428571429,52.76339285714286,4359.8,866.8571428571429,52.76339285714286,4466.6,866.8571428571429,52.76339285714286,4570.5,866.8571428571429,52.76339285714286,4674.8,866.8571428571429,52.76339285714286,4775.8,866.8571428571429,52.76339285714286,4877,866.8571428571429,52.76339285714286,4988.7]","[1410.9,1410.9,1000,0,410.9,""oops"",""up"",""left"",""bad_move"",4917.5,3506.2,3165.8,1411.3,340.4,""smooth"",""up"",""up"",""good_move"",7887.1,2968.2,2540.9,4918.9,427.3,""smooth"",""right"",""right"",""good_move"",11010.4,3122.9,2775,7887.5,347.9,""smooth"",""right"",""right"",""good_move"",14295.8,3285.2,2940.8,11010.6,344.4,""oops"",""up"",""left"",""bad_move"",17453.2,3157.1,2818.8,14296.1,338.3,""oops"",""right"",""down"",""bad_move"",20384.6,2931,2640.8,17453.6,290.2,""smooth"",""up"",""up"",""good_move"",23318.9,2934.1,2559.9,20384.8,374.2,""smooth"",""right"",""right"",""good_move"",26391,3072,2711.5,23319,360.5,""smooth"",""right"",""right"",""good_move"",29589.7,3198.5,2858,26391.2,340.5,""smooth"",""up"",""up"",""good_move"",31357.7,1767.8,1344.1,29589.9,423.7,""smooth"",""up"",""up"",""good_move"",34750,3392,3091.3,31358,300.7,""while_blue"",""right"",""right"",""good_move""]","",""
"3217","","<div style=""width:500px;"">
  <p>What determined the result of this run?</p>
  </div>","10","html-slider-response","25","486155","0.0-5.0-1.3","223","1","2025-07-23 13:43:34","1f75c3e559b7213887762d5229550c2b","173.21.92.193","Mozilla/5.0 (Windows NT 10.0; Win64; x64) AppleWebKit/537.36 (KHTML, like Gecko) Chrome/138.0.0.0 Safari/537.36","WebKit","Chrome","138.0.0.0","Windows","10.0","https://app.prolific.com/","en-US,en;q=0.9","66f4c82536b5c8271f53564c","683db9eb0562dbf637994deb","6880e6f7817689b3ae3598d1","2","1","66f4c82536b5c8271f53564c","2","1","2025-07-23T13:51:43.762Z","","","","","","","","","","","AttribQ","","50","","","","","","","","","","","","","","","","","","","","","","","","","","","","",""
"3198","","<div style=""width:500px;"">
  <p>How much control did you have over the ball?</p>
  </div>","10","html-slider-response","26","489353","0.0-5.0-2.3","223","1","2025-07-23 13:43:34","1f75c3e559b7213887762d5229550c2b","173.21.92.193","Mozilla/5.0 (Windows NT 10.0; Win64; x64) AppleWebKit/537.36 (KHTML, like Gecko) Chrome/138.0.0.0 Safari/537.36","WebKit","Chrome","138.0.0.0","Windows","10.0","https://app.prolific.com/","en-US,en;q=0.9","66f4c82536b5c8271f53564c","683db9eb0562dbf637994deb","6880e6f7817689b3ae3598d1","2","1","66f4c82536b5c8271f53564c","2","1","2025-07-23T13:51:46.960Z","","","","","","","","","","","ControlQ","","50","","","","","","","","","","","","","","","","","","","","","","","","","","","","",""
"5442","","<div style=""width:500px;"">
  <p>How would you describe your current emotional state?</p>
  </div>","7","html-slider-response","27","494796","0.0-5.0-3.3","223","1","2025-07-23 13:43:34","1f75c3e559b7213887762d5229550c2b","173.21.92.193","Mozilla/5.0 (Windows NT 10.0; Win64; x64) AppleWebKit/537.36 (KHTML, like Gecko) Chrome/138.0.0.0 Safari/537.36","WebKit","Chrome","138.0.0.0","Windows","10.0","https://app.prolific.com/","en-US,en;q=0.9","66f4c82536b5c8271f53564c","683db9eb0562dbf637994deb","6880e6f7817689b3ae3598d1","2","1","66f4c82536b5c8271f53564c","2","1","2025-07-23T13:51:52.403Z","","","","","","","","","","","StressQ","","50","","","","","","","","","","","","","","","","","","","","","","","","","","","","",""
"3449","","<div style=""width:500px;"">
  <p>What best describes how you currently feel?</p>
  </div>","22","html-slider-response","28","498247","0.0-5.0-4.3","223","1","2025-07-23 13:43:34","1f75c3e559b7213887762d5229550c2b","173.21.92.193","Mozilla/5.0 (Windows NT 10.0; Win64; x64) AppleWebKit/537.36 (KHTML, like Gecko) Chrome/138.0.0.0 Safari/537.36","WebKit","Chrome","138.0.0.0","Windows","10.0","https://app.prolific.com/","en-US,en;q=0.9","66f4c82536b5c8271f53564c","683db9eb0562dbf637994deb","6880e6f7817689b3ae3598d1","2","1","66f4c82536b5c8271f53564c","2","1","2025-07-23T13:51:55.854Z","","","","","","","","","","","MotivationQ","","50","","","","","","","","","","","","","","","","","","","","","","","","","","","","",""
"","","","","ctl-task-cpt","29","533212","0.0-5.0-0.4","223","1","2025-07-23 13:43:34","1f75c3e559b7213887762d5229550c2b","173.21.92.193","Mozilla/5.0 (Windows NT 10.0; Win64; x64) AppleWebKit/537.36 (KHTML, like Gecko) Chrome/138.0.0.0 Safari/537.36","WebKit","Chrome","138.0.0.0","Windows","10.0","https://app.prolific.com/","en-US,en;q=0.9","66f4c82536b5c8271f53564c","683db9eb0562dbf637994deb","6880e6f7817689b3ae3598d1","2","1","66f4c82536b5c8271f53564c","2","1","2025-07-23T13:52:30.819Z","","","","","","","","","","","","","","win-only","3","g1:SW,g2:NE","0.6","5","0","501363.4","1062.2","6067","31954","1","4","4","6","2","4","4","26","22","0.19696969696969696","1017.2","3000","895","[""up"",""right""]","{""num_key_presses"":8,""num_perfect"":4,""num_errors"":0,""num_randdir"":4,""num_randdir_good_moves"":3,""num_whilered"":0,""num_whileblue"":0,""num_blue"":1,""num_good_moves"":7}","[460.8571428571429,469.7633928571429,0.4,460.8571428571429,469.7633928571429,106.2,460.8571428571429,469.7633928571429,208.8,460.8571428571429,469.7633928571429,308.8,460.8571428571429,469.7633928571429,413.3,460.8571428571429,469.7633928571429,513.3,605.8571428571429,281.7633928571429,614.1,855.8571428571429,68.76339285714286,718.9,849.8571428571429,60.76339285714286,824.5,847.8571428571429,60.76339285714286,933,847.8571428571429,60.76339285714286,1033,847.8571428571429,60.76339285714286,1133.1,847.8571428571429,60.76339285714286,1234,847.8571428571429,60.76339285714286,1338.1,847.8571428571429,60.76339285714286,1439.8,847.8571428571429,60.76339285714286,1546.2,847.8571428571429,60.76339285714286,1647.3,847.8571428571429,60.76339285714286,1749.4,847.8571428571429,60.76339285714286,1866.5,847.8571428571429,60.76339285714286,1968.6,847.8571428571429,60.76339285714286,2071.7,847.8571428571429,60.76339285714286,2171.8,847.8571428571429,60.76339285714286,2276,847.8571428571429,60.76339285714286,2376.2,847.8571428571429,60.76339285714286,2482.7,847.8571428571429,60.76339285714286,2588,847.8571428571429,60.76339285714286,2699.5,847.8571428571429,60.76339285714286,2803.2,847.8571428571429,60.76339285714286,2908.1,847.8571428571429,60.76339285714286,3008.3,847.8571428571429,60.76339285714286,3114.5,847.8571428571429,60.76339285714286,3218.7,847.8571428571429,60.76339285714286,3318.8,847.8571428571429,60.76339285714286,3426,847.8571428571429,60.76339285714286,3528.5,847.8571428571429,60.76339285714286,3630.4,847.8571428571429,60.76339285714286,3736.2,847.8571428571429,60.76339285714286,3841.5,847.8571428571429,60.76339285714286,3949.4,847.8571428571429,60.76339285714286,4065.3,847.8571428571429,60.76339285714286,4170,847.8571428571429,60.76339285714286,4280.9,847.8571428571429,60.76339285714286,4390.3,847.8571428571429,60.76339285714286,4496.5,847.8571428571429,60.76339285714286,4597.5,847.8571428571429,60.76339285714286,4704.5,847.8571428571429,60.76339285714286,4804.7,847.8571428571429,60.76339285714286,4904.8]","[1390.8,1390.9,1000,0,390.9,""smooth"",""right"",""right"",""good_move"",4922.1,3530.6,3150.8,1391.5,379.8,""oops"",""up"",""left"",""bad_move"",11090.9,6168.4,2586.3,8058.9,445.7,""smooth"",""up"",""up"",""good_move"",14607.8,3516.7,2936.6,11091.1,580.1,""oops"",""right"",""up"",""good_move"",17196.1,2588.1,2237.8,14608,350.3,""smooth"",""right"",""right"",""good_move"",19460.2,2263.2,1943.1,17197,320.1,""oops"",""right"",""right"",""good_move"",22687.6,3226.9,2881.1,19460.7,345.8,""smooth"",""right"",""right"",""good_move"",25751.4,3063.3,2742.8,22688.1,320.5,""oops"",""up"",""up"",""good_move""]","",""
"3590","","<div style=""width:500px;"">
  <p>What determined the result of this run?</p>
  </div>","12","html-slider-response","30","536804","0.0-5.0-1.4","223","1","2025-07-23 13:43:34","1f75c3e559b7213887762d5229550c2b","173.21.92.193","Mozilla/5.0 (Windows NT 10.0; Win64; x64) AppleWebKit/537.36 (KHTML, like Gecko) Chrome/138.0.0.0 Safari/537.36","WebKit","Chrome","138.0.0.0","Windows","10.0","https://app.prolific.com/","en-US,en;q=0.9","66f4c82536b5c8271f53564c","683db9eb0562dbf637994deb","6880e6f7817689b3ae3598d1","2","1","66f4c82536b5c8271f53564c","2","1","2025-07-23T13:52:34.411Z","","","","","","","","","","","AttribQ","","50","","","","","","","","","","","","","","","","","","","","","","","","","","","","",""
"4971","","<div style=""width:500px;"">
  <p>How much control did you have over the ball?</p>
  </div>","87","html-slider-response","31","541776","0.0-5.0-2.4","223","1","2025-07-23 13:43:34","1f75c3e559b7213887762d5229550c2b","173.21.92.193","Mozilla/5.0 (Windows NT 10.0; Win64; x64) AppleWebKit/537.36 (KHTML, like Gecko) Chrome/138.0.0.0 Safari/537.36","WebKit","Chrome","138.0.0.0","Windows","10.0","https://app.prolific.com/","en-US,en;q=0.9","66f4c82536b5c8271f53564c","683db9eb0562dbf637994deb","6880e6f7817689b3ae3598d1","2","1","66f4c82536b5c8271f53564c","2","1","2025-07-23T13:52:39.383Z","","","","","","","","","","","ControlQ","","50","","","","","","","","","","","","","","","","","","","","","","","","","","","","",""
"3121","","<div style=""width:500px;"">
  <p>How would you describe your current emotional state?</p>
  </div>","4","html-slider-response","32","544899","0.0-5.0-3.4","223","1","2025-07-23 13:43:34","1f75c3e559b7213887762d5229550c2b","173.21.92.193","Mozilla/5.0 (Windows NT 10.0; Win64; x64) AppleWebKit/537.36 (KHTML, like Gecko) Chrome/138.0.0.0 Safari/537.36","WebKit","Chrome","138.0.0.0","Windows","10.0","https://app.prolific.com/","en-US,en;q=0.9","66f4c82536b5c8271f53564c","683db9eb0562dbf637994deb","6880e6f7817689b3ae3598d1","2","1","66f4c82536b5c8271f53564c","2","1","2025-07-23T13:52:42.506Z","","","","","","","","","","","StressQ","","50","","","","","","","","","","","","","","","","","","","","","","","","","","","","",""
"3849","","<div style=""width:500px;"">
  <p>What best describes how you currently feel?</p>
  </div>","13","html-slider-response","33","548749","0.0-5.0-4.4","223","1","2025-07-23 13:43:34","1f75c3e559b7213887762d5229550c2b","173.21.92.193","Mozilla/5.0 (Windows NT 10.0; Win64; x64) AppleWebKit/537.36 (KHTML, like Gecko) Chrome/138.0.0.0 Safari/537.36","WebKit","Chrome","138.0.0.0","Windows","10.0","https://app.prolific.com/","en-US,en;q=0.9","66f4c82536b5c8271f53564c","683db9eb0562dbf637994deb","6880e6f7817689b3ae3598d1","2","1","66f4c82536b5c8271f53564c","2","1","2025-07-23T13:52:46.356Z","","","","","","","","","","","MotivationQ","","50","","","","","","","","","","","","","","","","","","","","","","","","","","","","",""
"","","","","ctl-task-cpt","34","581095","0.0-5.0-0.5","223","1","2025-07-23 13:43:34","1f75c3e559b7213887762d5229550c2b","173.21.92.193","Mozilla/5.0 (Windows NT 10.0; Win64; x64) AppleWebKit/537.36 (KHTML, like Gecko) Chrome/138.0.0.0 Safari/537.36","WebKit","Chrome","138.0.0.0","Windows","10.0","https://app.prolific.com/","en-US,en;q=0.9","66f4c82536b5c8271f53564c","683db9eb0562dbf637994deb","6880e6f7817689b3ae3598d1","2","1","66f4c82536b5c8271f53564c","2","1","2025-07-23T13:53:18.702Z","","","","","","","","","","","","","","win-only","1","g1:NE,g2:SW","0.5","6","0","551866.3","1099","6100.3","29336.8","1","4","8","6","2","8","8","34","26","0.25757575757575757","1470.8","3000","1330","[""down"",""left""]","{""num_key_presses"":6,""num_perfect"":5,""num_errors"":0,""num_randdir"":1,""num_randdir_good_moves"":1,""num_whilered"":0,""num_whileblue"":0,""num_blue"":2,""num_good_moves"":6}","[458.8571428571429,448.7633928571429,0.2,458.8571428571429,448.7633928571429,100,458.8571428571429,448.7633928571429,201.3,458.8571428571429,448.7633928571429,309.9,458.8571428571429,448.7633928571429,410.4,458.8571428571429,448.7633928571429,516.5,458.8571428571429,448.7633928571429,617.2,590.8571428571429,305.7633928571429,723.1,477.8571428571429,415.7633928571429,827.2,40.85714285714286,680.7633928571429,936,28.85714285714286,684.7633928571429,1039.3,28.85714285714286,684.7633928571429,1140,51.85714285714286,756.7633928571429,1240,77.85714285714286,815.7633928571429,1345,77.85714285714286,815.7633928571429,1448.4,77.85714285714286,815.7633928571429,1558.3,77.85714285714286,815.7633928571429,1662.6,77.85714285714286,815.7633928571429,1768.9,77.85714285714286,815.7633928571429,1876.7,77.85714285714286,815.7633928571429,1981.3,77.85714285714286,815.7633928571429,2084.4,77.85714285714286,815.7633928571429,2190.8,77.85714285714286,815.7633928571429,2301.4,77.85714285714286,815.7633928571429,2402.9,77.85714285714286,815.7633928571429,2519.8,77.85714285714286,815.7633928571429,2624.4,77.85714285714286,815.7633928571429,2728.1,77.85714285714286,815.7633928571429,2837.4,77.85714285714286,815.7633928571429,2941.3,77.85714285714286,815.7633928571429,3051.2,77.85714285714286,815.7633928571429,3151.3,77.85714285714286,815.7633928571429,3259.3,77.85714285714286,815.7633928571429,3365.4,77.85714285714286,815.7633928571429,3469.7,77.85714285714286,815.7633928571429,3575,77.85714285714286,815.7633928571429,3675.4,77.85714285714286,815.7633928571429,3783.8,77.85714285714286,815.7633928571429,3889.5,77.85714285714286,815.7633928571429,3993.4,77.85714285714286,815.7633928571429,4100.4,77.85714285714286,815.7633928571429,4207,77.85714285714286,815.7633928571429,4307.3,77.85714285714286,815.7633928571429,4407.5,77.85714285714286,815.7633928571429,4536.4,77.85714285714286,815.7633928571429,4637,77.85714285714286,815.7633928571429,4750.2,77.85714285714286,815.7633928571429,4853.8,77.85714285714286,815.7633928571429,4958.3]","[1379,1379,1000,0,379,""smooth"",""down"",""down"",""good_move"",4677,3297.5,2945.6,1379.5,351.9,""smooth"",""down"",""down"",""good_move"",11049.8,6372.6,2438.1,8131.8,479.9,""smooth"",""down"",""down"",""good_move"",14349.8,3299.8,2917.6,11050,382.2,""oops"",""left"",""left"",""good_move"",19969.4,5619.1,2110.2,17452,407.2,""smooth"",""left"",""left"",""good_move"",23096.2,3126.6,2765.6,19969.6,361,""smooth"",""left"",""left"",""good_move""]","",""
"4499","","<div style=""width:500px;"">
  <p>What determined the result of this run?</p>
  </div>","1","html-slider-response","35","585595","0.0-5.0-1.5","223","1","2025-07-23 13:43:34","1f75c3e559b7213887762d5229550c2b","173.21.92.193","Mozilla/5.0 (Windows NT 10.0; Win64; x64) AppleWebKit/537.36 (KHTML, like Gecko) Chrome/138.0.0.0 Safari/537.36","WebKit","Chrome","138.0.0.0","Windows","10.0","https://app.prolific.com/","en-US,en;q=0.9","66f4c82536b5c8271f53564c","683db9eb0562dbf637994deb","6880e6f7817689b3ae3598d1","2","1","66f4c82536b5c8271f53564c","2","1","2025-07-23T13:53:23.202Z","","","","","","","","","","","AttribQ","","50","","","","","","","","","","","","","","","","","","","","","","","","","","","","",""
"29419","","<div style=""width:500px;"">
  <p>How much control did you have over the ball?</p>
  </div>","98","html-slider-response","36","615016","0.0-5.0-2.5","223","1","2025-07-23 13:43:34","1f75c3e559b7213887762d5229550c2b","173.21.92.193","Mozilla/5.0 (Windows NT 10.0; Win64; x64) AppleWebKit/537.36 (KHTML, like Gecko) Chrome/138.0.0.0 Safari/537.36","WebKit","Chrome","138.0.0.0","Windows","10.0","https://app.prolific.com/","en-US,en;q=0.9","66f4c82536b5c8271f53564c","683db9eb0562dbf637994deb","6880e6f7817689b3ae3598d1","2","1","66f4c82536b5c8271f53564c","2","1","2025-07-23T13:53:52.623Z","","","","","","","","","","","ControlQ","","50","","","","","","","","","","","","","","","","","","","","","","","","","","","","",""
"3588","","<div style=""width:500px;"">
  <p>How would you describe your current emotional state?</p>
  </div>","2","html-slider-response","37","618605","0.0-5.0-3.5","223","1","2025-07-23 13:43:34","1f75c3e559b7213887762d5229550c2b","173.21.92.193","Mozilla/5.0 (Windows NT 10.0; Win64; x64) AppleWebKit/537.36 (KHTML, like Gecko) Chrome/138.0.0.0 Safari/537.36","WebKit","Chrome","138.0.0.0","Windows","10.0","https://app.prolific.com/","en-US,en;q=0.9","66f4c82536b5c8271f53564c","683db9eb0562dbf637994deb","6880e6f7817689b3ae3598d1","2","1","66f4c82536b5c8271f53564c","2","1","2025-07-23T13:53:56.212Z","","","","","","","","","","","StressQ","","50","","","","","","","","","","","","","","","","","","","","","","","","","","","","",""
"2775","","<div style=""width:500px;"">
  <p>What best describes how you currently feel?</p>
  </div>","20","html-slider-response","38","621380","0.0-5.0-4.5","223","1","2025-07-23 13:43:34","1f75c3e559b7213887762d5229550c2b","173.21.92.193","Mozilla/5.0 (Windows NT 10.0; Win64; x64) AppleWebKit/537.36 (KHTML, like Gecko) Chrome/138.0.0.0 Safari/537.36","WebKit","Chrome","138.0.0.0","Windows","10.0","https://app.prolific.com/","en-US,en;q=0.9","66f4c82536b5c8271f53564c","683db9eb0562dbf637994deb","6880e6f7817689b3ae3598d1","2","1","66f4c82536b5c8271f53564c","2","1","2025-07-23T13:53:58.988Z","","","","","","","","","","","MotivationQ","","50","","","","","","","","","","","","","","","","","","","","","","","","","","","","",""
"","","","","ctl-task-cpt","39","668872","0.0-5.0-0.6","223","1","2025-07-23 13:43:34","1f75c3e559b7213887762d5229550c2b","173.21.92.193","Mozilla/5.0 (Windows NT 10.0; Win64; x64) AppleWebKit/537.36 (KHTML, like Gecko) Chrome/138.0.0.0 Safari/537.36","WebKit","Chrome","138.0.0.0","Windows","10.0","https://app.prolific.com/","en-US,en;q=0.9","66f4c82536b5c8271f53564c","683db9eb0562dbf637994deb","6880e6f7817689b3ae3598d1","2","1","66f4c82536b5c8271f53564c","2","1","2025-07-23T13:54:46.480Z","","","","","","","","","","","","","","win-only","1","g1:NE,g2:SW","0.4","7","0","624497.2","1080.7","6192.8","44476.5","1","4","8","6","2","-8","-8","26","34","0.19696969696969696","1053.8","3000","-2025","[""down"",""left""]","{""num_key_presses"":9,""num_perfect"":4,""num_errors"":0,""num_randdir"":5,""num_randdir_good_moves"":1,""num_whilered"":0,""num_whileblue"":0,""num_blue"":3,""num_good_moves"":5}","[459.8571428571429,468.7633928571429,0.1,459.8571428571429,468.7633928571429,110.3,459.8571428571429,468.7633928571429,215.1,459.8571428571429,468.7633928571429,327.5,459.8571428571429,468.7633928571429,431.5,154.85714285714286,674.7633928571429,535.4,123.85714285714286,739.7633928571429,635.6,123.85714285714286,739.7633928571429,736.1,123.85714285714286,739.7633928571429,840.2,88.85714285714286,797.7633928571429,941,88.85714285714286,797.7633928571429,1042.8,88.85714285714286,797.7633928571429,1144.8,88.85714285714286,797.7633928571429,1244.8,88.85714285714286,797.7633928571429,1346.8,88.85714285714286,797.7633928571429,1447.5,88.85714285714286,797.7633928571429,1548.5,88.85714285714286,797.7633928571429,1648.6,88.85714285714286,797.7633928571429,1751.7,88.85714285714286,797.7633928571429,1851.8,88.85714285714286,797.7633928571429,1952.2,88.85714285714286,797.7633928571429,2060,88.85714285714286,797.7633928571429,2169.5,88.85714285714286,797.7633928571429,2269.9,88.85714285714286,797.7633928571429,2375.7,88.85714285714286,797.7633928571429,2477.2,88.85714285714286,797.7633928571429,2592.5,88.85714285714286,797.7633928571429,2702.3,88.85714285714286,797.7633928571429,2809.4,88.85714285714286,797.7633928571429,2910.1,88.85714285714286,797.7633928571429,3012,88.85714285714286,797.7633928571429,3117.6,88.85714285714286,797.7633928571429,3219.7,88.85714285714286,797.7633928571429,3327.7,88.85714285714286,797.7633928571429,3428,88.85714285714286,797.7633928571429,3528.4,88.85714285714286,797.7633928571429,3631.3,88.85714285714286,797.7633928571429,3736.8,88.85714285714286,797.7633928571429,3837.4,88.85714285714286,797.7633928571429,3937.6,88.85714285714286,797.7633928571429,4040,88.85714285714286,797.7633928571429,4141.3,88.85714285714286,797.7633928571429,4241.6,88.85714285714286,797.7633928571429,4342.2,88.85714285714286,797.7633928571429,4447.7,88.85714285714286,797.7633928571429,4551.2,88.85714285714286,797.7633928571429,4657.3,88.85714285714286,797.7633928571429,4757.4]","[1464.4,1464.4,1000,0,464.4,""oops"",""left"",""up"",""bad_move"",5162.7,3697.8,3287.9,1464.9,409.9,""smooth"",""down"",""down"",""good_move"",7924.1,2761,2389.3,5163.1,371.7,""smooth"",""down"",""down"",""good_move"",10478.1,2553.8,2174.3,7924.3,379.5,""oops"",""left"",""right"",""bad_move"",19590.9,9112.2,2502.5,16723.1,365.3,""oops"",""down"",""up"",""bad_move"",25688.9,6097.4,2076.6,23115.9,496.4,""oops"",""right"",""right"",""bad_move"",28363.4,2674.1,2248.3,25689.3,425.8,""smooth"",""down"",""down"",""good_move"",32148.7,3784.9,3203.7,28363.8,581.2,""oops"",""left"",""down"",""good_move"",35707,3558.3,2888.6,32148.8,669.7,""smooth"",""left"",""left"",""good_move""]","",""
"5453","","<div style=""width:500px;"">
  <p>What determined the result of this run?</p>
  </div>","0","html-slider-response","40","674327","0.0-5.0-1.6","223","1","2025-07-23 13:43:34","1f75c3e559b7213887762d5229550c2b","173.21.92.193","Mozilla/5.0 (Windows NT 10.0; Win64; x64) AppleWebKit/537.36 (KHTML, like Gecko) Chrome/138.0.0.0 Safari/537.36","WebKit","Chrome","138.0.0.0","Windows","10.0","https://app.prolific.com/","en-US,en;q=0.9","66f4c82536b5c8271f53564c","683db9eb0562dbf637994deb","6880e6f7817689b3ae3598d1","2","1","66f4c82536b5c8271f53564c","2","1","2025-07-23T13:54:51.934Z","","","","","","","","","","","AttribQ","","50","","","","","","","","","","","","","","","","","","","","","","","","","","","","",""
"3899","","<div style=""width:500px;"">
  <p>How much control did you have over the ball?</p>
  </div>","8","html-slider-response","41","678227","0.0-5.0-2.6","223","1","2025-07-23 13:43:34","1f75c3e559b7213887762d5229550c2b","173.21.92.193","Mozilla/5.0 (Windows NT 10.0; Win64; x64) AppleWebKit/537.36 (KHTML, like Gecko) Chrome/138.0.0.0 Safari/537.36","WebKit","Chrome","138.0.0.0","Windows","10.0","https://app.prolific.com/","en-US,en;q=0.9","66f4c82536b5c8271f53564c","683db9eb0562dbf637994deb","6880e6f7817689b3ae3598d1","2","1","66f4c82536b5c8271f53564c","2","1","2025-07-23T13:54:55.835Z","","","","","","","","","","","ControlQ","","50","","","","","","","","","","","","","","","","","","","","","","","","","","","","",""
"2752","","<div style=""width:500px;"">
  <p>How would you describe your current emotional state?</p>
  </div>","8","html-slider-response","42","680981","0.0-5.0-3.6","223","1","2025-07-23 13:43:34","1f75c3e559b7213887762d5229550c2b","173.21.92.193","Mozilla/5.0 (Windows NT 10.0; Win64; x64) AppleWebKit/537.36 (KHTML, like Gecko) Chrome/138.0.0.0 Safari/537.36","WebKit","Chrome","138.0.0.0","Windows","10.0","https://app.prolific.com/","en-US,en;q=0.9","66f4c82536b5c8271f53564c","683db9eb0562dbf637994deb","6880e6f7817689b3ae3598d1","2","1","66f4c82536b5c8271f53564c","2","1","2025-07-23T13:54:58.588Z","","","","","","","","","","","StressQ","","50","","","","","","","","","","","","","","","","","","","","","","","","","","","","",""
"3872","","<div style=""width:500px;"">
  <p>What best describes how you currently feel?</p>
  </div>","15","html-slider-response","43","684854","0.0-5.0-4.6","223","1","2025-07-23 13:43:34","1f75c3e559b7213887762d5229550c2b","173.21.92.193","Mozilla/5.0 (Windows NT 10.0; Win64; x64) AppleWebKit/537.36 (KHTML, like Gecko) Chrome/138.0.0.0 Safari/537.36","WebKit","Chrome","138.0.0.0","Windows","10.0","https://app.prolific.com/","en-US,en;q=0.9","66f4c82536b5c8271f53564c","683db9eb0562dbf637994deb","6880e6f7817689b3ae3598d1","2","1","66f4c82536b5c8271f53564c","2","1","2025-07-23T13:55:02.461Z","","","","","","","","","","","MotivationQ","","50","","","","","","","","","","","","","","","","","","","","","","","","","","","","",""
"","","","","ctl-task-cpt","44","711382","0.0-5.0-0.7","223","1","2025-07-23 13:43:34","1f75c3e559b7213887762d5229550c2b","173.21.92.193","Mozilla/5.0 (Windows NT 10.0; Win64; x64) AppleWebKit/537.36 (KHTML, like Gecko) Chrome/138.0.0.0 Safari/537.36","WebKit","Chrome","138.0.0.0","Windows","10.0","https://app.prolific.com/","en-US,en;q=0.9","66f4c82536b5c8271f53564c","683db9eb0562dbf637994deb","6880e6f7817689b3ae3598d1","2","1","66f4c82536b5c8271f53564c","2","1","2025-07-23T13:55:28.989Z","","","","","","","","","","","","","","win-only","0","g1:NW,g2:SE","0.3","8","0","687970.2","980.8","5985.4","23502","1","4","4","6","2","-4","-4","22","26","0.16666666666666666","1449","3000","-2175","[""down"",""right""]","{""num_key_presses"":5,""num_perfect"":2,""num_errors"":0,""num_randdir"":3,""num_randdir_good_moves"":0,""num_whilered"":0,""num_whileblue"":0,""num_blue"":0,""num_good_moves"":2}","[467.8571428571429,475.7633928571429,0.4,467.8571428571429,475.7633928571429,104.5,467.8571428571429,475.7633928571429,205.8,467.8571428571429,475.7633928571429,310.6,467.8571428571429,475.7633928571429,412.7,467.8571428571429,475.7633928571429,521.6,467.8571428571429,475.7633928571429,625.6,524.8571428571429,543.7633928571429,737.5,858.8571428571429,957.7633928571429,841,846.8571428571429,952.7633928571429,941,846.8571428571429,952.7633928571429,1044.2,846.8571428571429,952.7633928571429,1149.6,840.8571428571429,903.7633928571429,1256.5,833.8571428571429,857.7633928571429,1358.1,833.8571428571429,857.7633928571429,1464.1,833.8571428571429,857.7633928571429,1568.5,833.8571428571429,857.7633928571429,1671.9,833.8571428571429,857.7633928571429,1772.8,833.8571428571429,857.7633928571429,1877.9,833.8571428571429,857.7633928571429,1990.8,833.8571428571429,857.7633928571429,2095.1,833.8571428571429,857.7633928571429,2201.3,833.8571428571429,857.7633928571429,2311.7,833.8571428571429,857.7633928571429,2416.9,833.8571428571429,857.7633928571429,2517.2,833.8571428571429,857.7633928571429,2622.3,833.8571428571429,857.7633928571429,2733.2,833.8571428571429,857.7633928571429,2840.2,833.8571428571429,857.7633928571429,2948.2,833.8571428571429,857.7633928571429,3048.8,833.8571428571429,857.7633928571429,3150.7,833.8571428571429,857.7633928571429,3251.4,833.8571428571429,857.7633928571429,3352.9,833.8571428571429,857.7633928571429,3454.2,833.8571428571429,857.7633928571429,3554.4,833.8571428571429,857.7633928571429,3658.1,833.8571428571429,857.7633928571429,3761.9,833.8571428571429,857.7633928571429,3869.1,833.8571428571429,857.7633928571429,3969.3,833.8571428571429,857.7633928571429,4076.6,833.8571428571429,857.7633928571429,4184,833.8571428571429,857.7633928571429,4284.7,833.8571428571429,857.7633928571429,4390.1,833.8571428571429,857.7633928571429,4495,833.8571428571429,857.7633928571429,4596.8,833.8571428571429,857.7633928571429,4701.9,833.8571428571429,857.7633928571429,4802.9,833.8571428571429,857.7633928571429,4907.5]","[1406.9,1406.9,1000,0,406.9,""smooth"",""right"",""right"",""good_move"",3549.7,2142.4,1771.8,1407.3,370.6,""smooth"",""right"",""right"",""good_move"",7480.5,3930.6,2812.8,3549.9,1117.8,""oops"",""down"",""up"",""bad_move"",10838.7,3358,2256.1,7480.7,1101.9,""oops"",""down"",""up"",""bad_move"",15044.5,4205.5,3103.5,10839,1102,""oops"",""down"",""left"",""bad_move""]","",""
"2636","","<div style=""width:500px;"">
  <p>What determined the result of this run?</p>
  </div>","0","html-slider-response","45","714019","0.0-5.0-1.7","223","1","2025-07-23 13:43:34","1f75c3e559b7213887762d5229550c2b","173.21.92.193","Mozilla/5.0 (Windows NT 10.0; Win64; x64) AppleWebKit/537.36 (KHTML, like Gecko) Chrome/138.0.0.0 Safari/537.36","WebKit","Chrome","138.0.0.0","Windows","10.0","https://app.prolific.com/","en-US,en;q=0.9","66f4c82536b5c8271f53564c","683db9eb0562dbf637994deb","6880e6f7817689b3ae3598d1","2","1","66f4c82536b5c8271f53564c","2","1","2025-07-23T13:55:31.626Z","","","","","","","","","","","AttribQ","","50","","","","","","","","","","","","","","","","","","","","","","","","","","","","",""
"3307","","<div style=""width:500px;"">
  <p>How much control did you have over the ball?</p>
  </div>","36","html-slider-response","46","717328","0.0-5.0-2.7","223","1","2025-07-23 13:43:34","1f75c3e559b7213887762d5229550c2b","173.21.92.193","Mozilla/5.0 (Windows NT 10.0; Win64; x64) AppleWebKit/537.36 (KHTML, like Gecko) Chrome/138.0.0.0 Safari/537.36","WebKit","Chrome","138.0.0.0","Windows","10.0","https://app.prolific.com/","en-US,en;q=0.9","66f4c82536b5c8271f53564c","683db9eb0562dbf637994deb","6880e6f7817689b3ae3598d1","2","1","66f4c82536b5c8271f53564c","2","1","2025-07-23T13:55:34.935Z","","","","","","","","","","","ControlQ","","50","","","","","","","","","","","","","","","","","","","","","","","","","","","","",""
"3615","","<div style=""width:500px;"">
  <p>How would you describe your current emotional state?</p>
  </div>","3","html-slider-response","47","720946","0.0-5.0-3.7","223","1","2025-07-23 13:43:34","1f75c3e559b7213887762d5229550c2b","173.21.92.193","Mozilla/5.0 (Windows NT 10.0; Win64; x64) AppleWebKit/537.36 (KHTML, like Gecko) Chrome/138.0.0.0 Safari/537.36","WebKit","Chrome","138.0.0.0","Windows","10.0","https://app.prolific.com/","en-US,en;q=0.9","66f4c82536b5c8271f53564c","683db9eb0562dbf637994deb","6880e6f7817689b3ae3598d1","2","1","66f4c82536b5c8271f53564c","2","1","2025-07-23T13:55:38.553Z","","","","","","","","","","","StressQ","","50","","","","","","","","","","","","","","","","","","","","","","","","","","","","",""
"2690","","<div style=""width:500px;"">
  <p>What best describes how you currently feel?</p>
  </div>","15","html-slider-response","48","723637","0.0-5.0-4.7","223","1","2025-07-23 13:43:34","1f75c3e559b7213887762d5229550c2b","173.21.92.193","Mozilla/5.0 (Windows NT 10.0; Win64; x64) AppleWebKit/537.36 (KHTML, like Gecko) Chrome/138.0.0.0 Safari/537.36","WebKit","Chrome","138.0.0.0","Windows","10.0","https://app.prolific.com/","en-US,en;q=0.9","66f4c82536b5c8271f53564c","683db9eb0562dbf637994deb","6880e6f7817689b3ae3598d1","2","1","66f4c82536b5c8271f53564c","2","1","2025-07-23T13:55:41.244Z","","","","","","","","","","","MotivationQ","","50","","","","","","","","","","","","","","","","","","","","","","","","","","","","",""
"","","","","ctl-task-cpt","49","775022","0.0-5.0-0.8","223","1","2025-07-23 13:43:34","1f75c3e559b7213887762d5229550c2b","173.21.92.193","Mozilla/5.0 (Windows NT 10.0; Win64; x64) AppleWebKit/537.36 (KHTML, like Gecko) Chrome/138.0.0.0 Safari/537.36","WebKit","Chrome","138.0.0.0","Windows","10.0","https://app.prolific.com/","en-US,en;q=0.9","66f4c82536b5c8271f53564c","683db9eb0562dbf637994deb","6880e6f7817689b3ae3598d1","2","1","66f4c82536b5c8271f53564c","2","1","2025-07-23T13:56:32.630Z","","","","","","","","","","","","","","win-only","3","g1:SW,g2:NE","0.2","9","0","726753.7","1232.1","6234.9","48353.8","1","4","8","6","2","-8","-8","14","22","0.10606060606060606","1318.1","3000","-1925","[""up"",""right""]","{""num_key_presses"":11,""num_perfect"":2,""num_errors"":0,""num_randdir"":9,""num_randdir_good_moves"":4,""num_whilered"":0,""num_whileblue"":0,""num_blue"":3,""num_good_moves"":6}","[465.8571428571429,475.7633928571429,0.3,465.8571428571429,475.7633928571429,103.8,465.8571428571429,475.7633928571429,210.2,465.8571428571429,475.7633928571429,314.5,465.8571428571429,475.7633928571429,419,465.8571428571429,475.7633928571429,519.2,465.8571428571429,475.7633928571429,627.4,950.8571428571429,59.76339285714286,729,977.8571428571429,43.76339285714286,837.6,977.8571428571429,43.76339285714286,944.6,977.8571428571429,43.76339285714286,1052.7,886.8571428571429,58.76339285714286,1158,870.8571428571429,63.76339285714286,1261.3,870.8571428571429,63.76339285714286,1365.4,870.8571428571429,63.76339285714286,1471.6,870.8571428571429,63.76339285714286,1572.5,870.8571428571429,63.76339285714286,1673.1,870.8571428571429,63.76339285714286,1776.8,870.8571428571429,63.76339285714286,1877.1,870.8571428571429,63.76339285714286,1988.3,870.8571428571429,63.76339285714286,2089.9,870.8571428571429,63.76339285714286,2190,870.8571428571429,63.76339285714286,2301.2,870.8571428571429,63.76339285714286,2402.4,870.8571428571429,63.76339285714286,2503.3,870.8571428571429,63.76339285714286,2605,870.8571428571429,63.76339285714286,2707.5,870.8571428571429,63.76339285714286,2815.7,870.8571428571429,63.76339285714286,2919.4,870.8571428571429,63.76339285714286,3027.5,870.8571428571429,63.76339285714286,3127.9,870.8571428571429,63.76339285714286,3230.1,870.8571428571429,63.76339285714286,3335.8,870.8571428571429,63.76339285714286,3441.8,870.8571428571429,63.76339285714286,3544.6,870.8571428571429,63.76339285714286,3653.6,870.8571428571429,63.76339285714286,3754.7,870.8571428571429,63.76339285714286,3858.5,870.8571428571429,63.76339285714286,3975.3,870.8571428571429,63.76339285714286,4075.5,870.8571428571429,63.76339285714286,4179.8,870.8571428571429,63.76339285714286,4285.4,870.8571428571429,63.76339285714286,4390.6,870.8571428571429,63.76339285714286,4491.7,870.8571428571429,63.76339285714286,4593.7,870.8571428571429,63.76339285714286,4694.1,870.8571428571429,63.76339285714286,4795.6,870.8571428571429,63.76339285714286,4896.3]","[1412.9,1412.9,1000,0,412.9,""oops"",""right"",""left"",""bad_move"",5678.9,4265.5,3657.6,1413.4,607.9,""smooth"",""right"",""right"",""good_move"",8594.2,2915,2480.9,5679.2,434.1,""smooth"",""right"",""right"",""good_move"",14381.4,5786.5,2204,11825.2,352.2,""oops"",""right"",""up"",""good_move"",16733.8,2352,1959.7,14381.8,392.3,""oops"",""right"",""up"",""good_move"",19348.1,2613.9,2275.7,16734.2,338.2,""oops"",""right"",""up"",""good_move"",25528.3,6179.9,2178.7,23026.4,323.2,""oops"",""right"",""right"",""good_move"",31638.9,6110.5,2099.1,29171.3,368.5,""oops"",""right"",""down"",""bad_move"",34549.5,2910.2,2355.9,31639.4,554.3,""oops"",""right"",""down"",""bad_move"",37316.6,2766.8,2441,34549.8,325.8,""oops"",""up"",""down"",""bad_move"",39376.1,2059.1,1716.9,37317,342.2,""oops"",""up"",""left"",""bad_move""]","",""
"2675","","<div style=""width:500px;"">
  <p>What determined the result of this run?</p>
  </div>","0","html-slider-response","50","777699","0.0-5.0-1.8","223","1","2025-07-23 13:43:34","1f75c3e559b7213887762d5229550c2b","173.21.92.193","Mozilla/5.0 (Windows NT 10.0; Win64; x64) AppleWebKit/537.36 (KHTML, like Gecko) Chrome/138.0.0.0 Safari/537.36","WebKit","Chrome","138.0.0.0","Windows","10.0","https://app.prolific.com/","en-US,en;q=0.9","66f4c82536b5c8271f53564c","683db9eb0562dbf637994deb","6880e6f7817689b3ae3598d1","2","1","66f4c82536b5c8271f53564c","2","1","2025-07-23T13:56:35.306Z","","","","","","","","","","","AttribQ","","50","","","","","","","","","","","","","","","","","","","","","","","","","","","","",""
"2790","","<div style=""width:500px;"">
  <p>How much control did you have over the ball?</p>
  </div>","50","html-slider-response","51","780491","0.0-5.0-2.8","223","1","2025-07-23 13:43:34","1f75c3e559b7213887762d5229550c2b","173.21.92.193","Mozilla/5.0 (Windows NT 10.0; Win64; x64) AppleWebKit/537.36 (KHTML, like Gecko) Chrome/138.0.0.0 Safari/537.36","WebKit","Chrome","138.0.0.0","Windows","10.0","https://app.prolific.com/","en-US,en;q=0.9","66f4c82536b5c8271f53564c","683db9eb0562dbf637994deb","6880e6f7817689b3ae3598d1","2","1","66f4c82536b5c8271f53564c","2","1","2025-07-23T13:56:38.098Z","","","","","","","","","","","ControlQ","","50","","","","","","","","","","","","","","","","","","","","","","","","","","","","",""
"2400","","<div style=""width:500px;"">
  <p>How would you describe your current emotional state?</p>
  </div>","9","html-slider-response","52","782892","0.0-5.0-3.8","223","1","2025-07-23 13:43:34","1f75c3e559b7213887762d5229550c2b","173.21.92.193","Mozilla/5.0 (Windows NT 10.0; Win64; x64) AppleWebKit/537.36 (KHTML, like Gecko) Chrome/138.0.0.0 Safari/537.36","WebKit","Chrome","138.0.0.0","Windows","10.0","https://app.prolific.com/","en-US,en;q=0.9","66f4c82536b5c8271f53564c","683db9eb0562dbf637994deb","6880e6f7817689b3ae3598d1","2","1","66f4c82536b5c8271f53564c","2","1","2025-07-23T13:56:40.499Z","","","","","","","","","","","StressQ","","50","","","","","","","","","","","","","","","","","","","","","","","","","","","","",""
"2088","","<div style=""width:500px;"">
  <p>What best describes how you currently feel?</p>
  </div>","20","html-slider-response","53","784982","0.0-5.0-4.8","223","1","2025-07-23 13:43:34","1f75c3e559b7213887762d5229550c2b","173.21.92.193","Mozilla/5.0 (Windows NT 10.0; Win64; x64) AppleWebKit/537.36 (KHTML, like Gecko) Chrome/138.0.0.0 Safari/537.36","WebKit","Chrome","138.0.0.0","Windows","10.0","https://app.prolific.com/","en-US,en;q=0.9","66f4c82536b5c8271f53564c","683db9eb0562dbf637994deb","6880e6f7817689b3ae3598d1","2","1","66f4c82536b5c8271f53564c","2","1","2025-07-23T13:56:42.589Z","","","","","","","","","","","MotivationQ","","50","","","","","","","","","","","","","","","","","","","","","","","","","","","","",""
"","","","","ctl-task-cpt","54","841110","0.0-5.0-0.9","223","1","2025-07-23 13:43:34","1f75c3e559b7213887762d5229550c2b","173.21.92.193","Mozilla/5.0 (Windows NT 10.0; Win64; x64) AppleWebKit/537.36 (KHTML, like Gecko) Chrome/138.0.0.0 Safari/537.36","WebKit","Chrome","138.0.0.0","Windows","10.0","https://app.prolific.com/","en-US,en;q=0.9","66f4c82536b5c8271f53564c","683db9eb0562dbf637994deb","6880e6f7817689b3ae3598d1","2","1","66f4c82536b5c8271f53564c","2","1","2025-07-23T13:57:38.717Z","","","","","","","","","","","","","","win-only","3","g1:SW,g2:NE","0.4","10","0","788098.8","1079.4","6080.4","53108.5","1","4","4","6","2","-4","-6","8","14","0.06060606060606061","1731.4","3000","-2005","[""up"",""right""]","{""num_key_presses"":14,""num_perfect"":5,""num_errors"":2,""num_randdir"":7,""num_randdir_good_moves"":3,""num_whilered"":0,""num_whileblue"":1,""num_blue"":2,""num_good_moves"":8}","[462.8571428571429,457.7633928571429,0.3,462.8571428571429,457.7633928571429,100.1,462.8571428571429,457.7633928571429,202.4,462.8571428571429,457.7633928571429,303.3,462.8571428571429,457.7633928571429,407,462.8571428571429,457.7633928571429,507.6,462.8571428571429,457.7633928571429,609.3,303.8571428571429,614.7633928571429,714.4,303.8571428571429,614.7633928571429,816.7,303.8571428571429,614.7633928571429,930.9,210.85714285714286,776.7633928571429,1031,704.8571428571429,189.76339285714286,1133.5,930.8571428571429,-53.23660714285714,1243.7,930.8571428571429,-53.23660714285714,1344.8,930.8571428571429,-53.23660714285714,1447.2,854.8571428571429,42.76339285714286,1552.9,849.8571428571429,43.76339285714286,1662,849.8571428571429,43.76339285714286,1766.3,849.8571428571429,43.76339285714286,1870.1,849.8571428571429,43.76339285714286,1971.3,849.8571428571429,43.76339285714286,2081.5,849.8571428571429,43.76339285714286,2184.5,849.8571428571429,43.76339285714286,2284.8,849.8571428571429,43.76339285714286,2386.6,849.8571428571429,43.76339285714286,2498.9,849.8571428571429,43.76339285714286,2611.2,849.8571428571429,43.76339285714286,2715.9,849.8571428571429,43.76339285714286,2818,849.8571428571429,43.76339285714286,2922,849.8571428571429,43.76339285714286,3022.2,849.8571428571429,43.76339285714286,3124,849.8571428571429,43.76339285714286,3227,849.8571428571429,43.76339285714286,3331.8,849.8571428571429,43.76339285714286,3445,849.8571428571429,43.76339285714286,3546.3,849.8571428571429,43.76339285714286,3652.6,849.8571428571429,43.76339285714286,3756.2,849.8571428571429,43.76339285714286,3865,849.8571428571429,43.76339285714286,3965.6,849.8571428571429,43.76339285714286,4067.3,849.8571428571429,43.76339285714286,4169.6,849.8571428571429,43.76339285714286,4275.9,849.8571428571429,43.76339285714286,4378.9,849.8571428571429,43.76339285714286,4481.7,849.8571428571429,43.76339285714286,4585.3,849.8571428571429,43.76339285714286,4692.3,849.8571428571429,43.76339285714286,4799.9,849.8571428571429,43.76339285714286,4899.9]","[525.2,525.2,1000,0,-474.7,""error"",""-"",""-"",""no_move"",4783.5,4258,2862.7,1527.1,393.7,""oops"",""right"",""left"",""bad_move"",7979,3195.1,2823.4,4783.9,371.7,""smooth"",""up"",""up"",""good_move"",11461,3481.7,3100.1,7979.3,381.6,""smooth"",""right"",""right"",""good_move"",14803.8,3342.5,2913.9,11461.3,428.6,""oops"",""right"",""up"",""good_move"",17194.3,2389.8,1968,14804.6,421.8,""oops"",""right"",""left"",""bad_move"",19871.8,2677.2,2066.6,17194.6,610.6,""smooth"",""right"",""right"",""good_move"",22734.1,2861.6,2524.4,19872.5,337.2,""oops"",""right"",""right"",""good_move"",25444.6,2710.3,2399.4,22734.3,310.9,""oops"",""right"",""left"",""bad_move"",28386.3,2941.1,2582.7,25445.3,358.4,""oops"",""right"",""down"",""bad_move"",32258.3,3871.5,3534.7,28386.9,336.7,""smooth"",""right"",""right"",""good_move"",34975.4,2716.6,2374.7,32258.8,341.9,""oops"",""right"",""right"",""good_move"",37460.9,2484.9,2124.7,34976.1,360.2,""smooth"",""up"",""up"",""good_move"",40111.1,2649.7,2296.7,37461.4,353,""while_blue"",""up"",""left"",""bad_move""]","",""
"5140","","<div style=""width:500px;"">
  <p>What determined the result of this run?</p>
  </div>","0","html-slider-response","55","846252","0.0-5.0-1.9","223","1","2025-07-23 13:43:34","1f75c3e559b7213887762d5229550c2b","173.21.92.193","Mozilla/5.0 (Windows NT 10.0; Win64; x64) AppleWebKit/537.36 (KHTML, like Gecko) Chrome/138.0.0.0 Safari/537.36","WebKit","Chrome","138.0.0.0","Windows","10.0","https://app.prolific.com/","en-US,en;q=0.9","66f4c82536b5c8271f53564c","683db9eb0562dbf637994deb","6880e6f7817689b3ae3598d1","2","1","66f4c82536b5c8271f53564c","2","1","2025-07-23T13:57:43.859Z","","","","","","","","","","","AttribQ","","50","","","","","","","","","","","","","","","","","","","","","","","","","","","","",""
"4178","","<div style=""width:500px;"">
  <p>How much control did you have over the ball?</p>
  </div>","14","html-slider-response","56","850431","0.0-5.0-2.9","223","1","2025-07-23 13:43:34","1f75c3e559b7213887762d5229550c2b","173.21.92.193","Mozilla/5.0 (Windows NT 10.0; Win64; x64) AppleWebKit/537.36 (KHTML, like Gecko) Chrome/138.0.0.0 Safari/537.36","WebKit","Chrome","138.0.0.0","Windows","10.0","https://app.prolific.com/","en-US,en;q=0.9","66f4c82536b5c8271f53564c","683db9eb0562dbf637994deb","6880e6f7817689b3ae3598d1","2","1","66f4c82536b5c8271f53564c","2","1","2025-07-23T13:57:48.038Z","","","","","","","","","","","ControlQ","","50","","","","","","","","","","","","","","","","","","","","","","","","","","","","",""
"2750","","<div style=""width:500px;"">
  <p>How would you describe your current emotional state?</p>
  </div>","8","html-slider-response","57","853182","0.0-5.0-3.9","223","1","2025-07-23 13:43:34","1f75c3e559b7213887762d5229550c2b","173.21.92.193","Mozilla/5.0 (Windows NT 10.0; Win64; x64) AppleWebKit/537.36 (KHTML, like Gecko) Chrome/138.0.0.0 Safari/537.36","WebKit","Chrome","138.0.0.0","Windows","10.0","https://app.prolific.com/","en-US,en;q=0.9","66f4c82536b5c8271f53564c","683db9eb0562dbf637994deb","6880e6f7817689b3ae3598d1","2","1","66f4c82536b5c8271f53564c","2","1","2025-07-23T13:57:50.789Z","","","","","","","","","","","StressQ","","50","","","","","","","","","","","","","","","","","","","","","","","","","","","","",""
"2733","","<div style=""width:500px;"">
  <p>What best describes how you currently feel?</p>
  </div>","11","html-slider-response","58","855917","0.0-5.0-4.9","223","1","2025-07-23 13:43:34","1f75c3e559b7213887762d5229550c2b","173.21.92.193","Mozilla/5.0 (Windows NT 10.0; Win64; x64) AppleWebKit/537.36 (KHTML, like Gecko) Chrome/138.0.0.0 Safari/537.36","WebKit","Chrome","138.0.0.0","Windows","10.0","https://app.prolific.com/","en-US,en;q=0.9","66f4c82536b5c8271f53564c","683db9eb0562dbf637994deb","6880e6f7817689b3ae3598d1","2","1","66f4c82536b5c8271f53564c","2","1","2025-07-23T13:57:53.524Z","","","","","","","","","","","MotivationQ","","50","","","","","","","","","","","","","","","","","","","","","","","","","","","","",""
"","","","","ctl-task-cpt","59","906303","0.0-5.0-0.10","223","1","2025-07-23 13:43:34","1f75c3e559b7213887762d5229550c2b","173.21.92.193","Mozilla/5.0 (Windows NT 10.0; Win64; x64) AppleWebKit/537.36 (KHTML, like Gecko) Chrome/138.0.0.0 Safari/537.36","WebKit","Chrome","138.0.0.0","Windows","10.0","https://app.prolific.com/","en-US,en;q=0.9","66f4c82536b5c8271f53564c","683db9eb0562dbf637994deb","6880e6f7817689b3ae3598d1","2","1","66f4c82536b5c8271f53564c","2","1","2025-07-23T13:58:43.910Z","","","","","","","","","","","","","","win-only","2","g1:SE,g2:NW","0.5","11","0","859033.6","1338.7","6357.3","47365.6","1","4","4","6","2","-4","-5","3","8","0.022727272727272728","1574.8","3000","-2225","[""left"",""up""]","{""num_key_presses"":10,""num_perfect"":5,""num_errors"":1,""num_randdir"":4,""num_randdir_good_moves"":1,""num_whilered"":0,""num_whileblue"":0,""num_blue"":3,""num_good_moves"":6}","[467.8571428571429,461.7633928571429,0.4,467.8571428571429,461.7633928571429,102.6,467.8571428571429,461.7633928571429,221.5,467.8571428571429,461.7633928571429,326.3,467.8571428571429,461.7633928571429,434.5,467.8571428571429,461.7633928571429,541.9,467.8571428571429,461.7633928571429,656.1,467.8571428571429,461.7633928571429,758,467.8571428571429,461.7633928571429,866.9,181.85714285714286,59.76339285714286,966.9,143.85714285714286,-45.23660714285714,1069.1,125.85714285714286,-5.236607142857139,1188,83.85714285714286,75.76339285714286,1293.7,68.85714285714286,99.76339285714286,1400,68.85714285714286,99.76339285714286,1500.2,68.85714285714286,99.76339285714286,1605.4,68.85714285714286,99.76339285714286,1717.8,68.85714285714286,99.76339285714286,1821.5,68.85714285714286,99.76339285714286,1937.5,68.85714285714286,99.76339285714286,2039.6,68.85714285714286,99.76339285714286,2147.1,68.85714285714286,99.76339285714286,2255.9,68.85714285714286,99.76339285714286,2358,68.85714285714286,99.76339285714286,2464.4,68.85714285714286,99.76339285714286,2574,68.85714285714286,99.76339285714286,2675.6,68.85714285714286,99.76339285714286,2781.7,68.85714285714286,99.76339285714286,2881.7,68.85714285714286,99.76339285714286,2984.9,68.85714285714286,99.76339285714286,3090.8,68.85714285714286,99.76339285714286,3191.5,68.85714285714286,99.76339285714286,3291.5,68.85714285714286,99.76339285714286,3399.9,68.85714285714286,99.76339285714286,3504.3,68.85714285714286,99.76339285714286,3613.9,68.85714285714286,99.76339285714286,3718.3,68.85714285714286,99.76339285714286,3836.8,68.85714285714286,99.76339285714286,3937.3,68.85714285714286,99.76339285714286,4038.7,68.85714285714286,99.76339285714286,4141.9,68.85714285714286,99.76339285714286,4244.4,68.85714285714286,99.76339285714286,4346.4,68.85714285714286,99.76339285714286,4446.9,68.85714285714286,99.76339285714286,4548.5,68.85714285714286,99.76339285714286,4658.3,68.85714285714286,99.76339285714286,4762.2,68.85714285714286,99.76339285714286,4868.2,68.85714285714286,99.76339285714286,4970.2]","[1759.7,1759.7,1000,0,759.7,""smooth"",""left"",""left"",""good_move"",7857,6096.7,2500.3,4975.2,381.5,""smooth"",""up"",""up"",""good_move"",11665.4,3807.9,3368.7,7857.5,439.2,""oops"",""left"",""up"",""good_move"",14300.8,2635.2,2200.1,11665.6,435.1,""oops"",""left"",""down"",""bad_move"",18165.9,3864.4,3483.1,14301.5,381.3,""smooth"",""up"",""up"",""good_move"",21145.4,2979.2,2558.8,18166.2,420.4,""oops"",""left"",""down"",""bad_move"",24097.5,2951.7,2570.3,21145.8,381.4,""smooth"",""up"",""up"",""good_move"",26965.3,2867.5,2098.2,24097.8,769.3,""oops"",""left"",""down"",""bad_move"",27154.4,189,2282.7,26965.4,-2093.7,""error"",""-"",""-"",""no_move"",31198.9,4044,2671.5,28160.8,366.6,""smooth"",""left"",""left"",""good_move""]","",""
"3135","","<div style=""width:500px;"">
  <p>What determined the result of this run?</p>
  </div>","0","html-slider-response","60","909439","0.0-5.0-1.10","223","1","2025-07-23 13:43:34","1f75c3e559b7213887762d5229550c2b","173.21.92.193","Mozilla/5.0 (Windows NT 10.0; Win64; x64) AppleWebKit/537.36 (KHTML, like Gecko) Chrome/138.0.0.0 Safari/537.36","WebKit","Chrome","138.0.0.0","Windows","10.0","https://app.prolific.com/","en-US,en;q=0.9","66f4c82536b5c8271f53564c","683db9eb0562dbf637994deb","6880e6f7817689b3ae3598d1","2","1","66f4c82536b5c8271f53564c","2","1","2025-07-23T13:58:47.046Z","","","","","","","","","","","AttribQ","","50","","","","","","","","","","","","","","","","","","","","","","","","","","","","",""
"3779","","<div style=""width:500px;"">
  <p>How much control did you have over the ball?</p>
  </div>","0","html-slider-response","61","913219","0.0-5.0-2.10","223","1","2025-07-23 13:43:34","1f75c3e559b7213887762d5229550c2b","173.21.92.193","Mozilla/5.0 (Windows NT 10.0; Win64; x64) AppleWebKit/537.36 (KHTML, like Gecko) Chrome/138.0.0.0 Safari/537.36","WebKit","Chrome","138.0.0.0","Windows","10.0","https://app.prolific.com/","en-US,en;q=0.9","66f4c82536b5c8271f53564c","683db9eb0562dbf637994deb","6880e6f7817689b3ae3598d1","2","1","66f4c82536b5c8271f53564c","2","1","2025-07-23T13:58:50.826Z","","","","","","","","","","","ControlQ","","50","","","","","","","","","","","","","","","","","","","","","","","","","","","","",""
"4185","","<div style=""width:500px;"">
  <p>How would you describe your current emotional state?</p>
  </div>","13","html-slider-response","62","917405","0.0-5.0-3.10","223","1","2025-07-23 13:43:34","1f75c3e559b7213887762d5229550c2b","173.21.92.193","Mozilla/5.0 (Windows NT 10.0; Win64; x64) AppleWebKit/537.36 (KHTML, like Gecko) Chrome/138.0.0.0 Safari/537.36","WebKit","Chrome","138.0.0.0","Windows","10.0","https://app.prolific.com/","en-US,en;q=0.9","66f4c82536b5c8271f53564c","683db9eb0562dbf637994deb","6880e6f7817689b3ae3598d1","2","1","66f4c82536b5c8271f53564c","2","1","2025-07-23T13:58:55.012Z","","","","","","","","","","","StressQ","","50","","","","","","","","","","","","","","","","","","","","","","","","","","","","",""
"5359","","<div style=""width:500px;"">
  <p>What best describes how you currently feel?</p>
  </div>","10","html-slider-response","63","922766","0.0-5.0-4.10","223","1","2025-07-23 13:43:34","1f75c3e559b7213887762d5229550c2b","173.21.92.193","Mozilla/5.0 (Windows NT 10.0; Win64; x64) AppleWebKit/537.36 (KHTML, like Gecko) Chrome/138.0.0.0 Safari/537.36","WebKit","Chrome","138.0.0.0","Windows","10.0","https://app.prolific.com/","en-US,en;q=0.9","66f4c82536b5c8271f53564c","683db9eb0562dbf637994deb","6880e6f7817689b3ae3598d1","2","1","66f4c82536b5c8271f53564c","2","1","2025-07-23T13:59:00.373Z","","","","","","","","","","","MotivationQ","","50","","","","","","","","","","","","","","","","","","","","","","","","","","","","",""
"","","","","ctl-task-cpt","64","957192","0.0-5.0-0.11","223","1","2025-07-23 13:43:34","1f75c3e559b7213887762d5229550c2b","173.21.92.193","Mozilla/5.0 (Windows NT 10.0; Win64; x64) AppleWebKit/537.36 (KHTML, like Gecko) Chrome/138.0.0.0 Safari/537.36","WebKit","Chrome","138.0.0.0","Windows","10.0","https://app.prolific.com/","en-US,en;q=0.9","66f4c82536b5c8271f53564c","683db9eb0562dbf637994deb","6880e6f7817689b3ae3598d1","2","1","66f4c82536b5c8271f53564c","2","1","2025-07-23T13:59:34.799Z","","","","","","","","","","","","","","win-only","0","g1:NW,g2:SE","0.6","12","0","925883.7","1701.6","6707.3","31404.7","1","4","8","6","2","-8","-8","0","3","0","1331","3000","-1905","[""down"",""right""]","{""num_key_presses"":8,""num_perfect"":4,""num_errors"":0,""num_randdir"":4,""num_randdir_good_moves"":2,""num_whilered"":0,""num_whileblue"":0,""num_blue"":0,""num_good_moves"":5}","[462.8571428571429,460.7633928571429,0.5,462.8571428571429,460.7633928571429,105.3,462.8571428571429,460.7633928571429,206.1,462.8571428571429,460.7633928571429,315.4,462.8571428571429,460.7633928571429,418.4,462.8571428571429,460.7633928571429,566,618.8571428571429,573.7633928571429,670.3,924.8571428571429,843.7633928571429,781.1,924.8571428571429,843.7633928571429,882,924.8571428571429,843.7633928571429,984,839.8571428571429,805.7633928571429,1087,838.8571428571429,805.7633928571429,1190.2,838.8571428571429,805.7633928571429,1300.8,838.8571428571429,805.7633928571429,1405.8,838.8571428571429,805.7633928571429,1510.9,838.8571428571429,805.7633928571429,1613.6,838.8571428571429,805.7633928571429,1715.4,838.8571428571429,805.7633928571429,1817.4,838.8571428571429,805.7633928571429,1921,838.8571428571429,805.7633928571429,2036.7,838.8571428571429,805.7633928571429,2140.9,838.8571428571429,805.7633928571429,2246,838.8571428571429,805.7633928571429,2349.3,838.8571428571429,805.7633928571429,2452.6,838.8571428571429,805.7633928571429,2555.9,838.8571428571429,805.7633928571429,2663.3,838.8571428571429,805.7633928571429,2780.2,838.8571428571429,805.7633928571429,2880.6,838.8571428571429,805.7633928571429,2995.9,838.8571428571429,805.7633928571429,3097.5,838.8571428571429,805.7633928571429,3198.3,838.8571428571429,805.7633928571429,3303.3,838.8571428571429,805.7633928571429,3404.4,838.8571428571429,805.7633928571429,3504.9,838.8571428571429,805.7633928571429,3604.9,838.8571428571429,805.7633928571429,3709.8,838.8571428571429,805.7633928571429,3809.8,838.8571428571429,805.7633928571429,3920.4,838.8571428571429,805.7633928571429,4023.3,838.8571428571429,805.7633928571429,4128.4,838.8571428571429,805.7633928571429,4232,838.8571428571429,805.7633928571429,4332.9,838.8571428571429,805.7633928571429,4435.4,838.8571428571429,805.7633928571429,4543.6,838.8571428571429,805.7633928571429,4644.6,838.8571428571429,805.7633928571429,4747.2,838.8571428571429,805.7633928571429,4851.1,838.8571428571429,805.7633928571429,4955.4]","[1384.1,1384.1,1000,0,384.1,""oops"",""right"",""down"",""good_move"",4622.7,3238.1,2853.4,1384.6,384.7,""smooth"",""right"",""right"",""good_move"",7322.9,2699.7,2297,4623.4,402.6,""oops"",""right"",""up"",""bad_move"",10540,3216.1,2815.9,7323.9,400.2,""smooth"",""right"",""right"",""good_move"",13552.8,3012.6,2279.3,10540.2,733.3,""oops"",""down"",""up"",""bad_move"",16077.9,2524.1,2100.2,13553.8,423.9,""smooth"",""up"",""up"",""bad_move"",19075.7,2997.5,2263,16078.3,734.4,""smooth"",""down"",""down"",""good_move"",21752.5,2676.2,1875.2,19076.3,801,""oops"",""down"",""down"",""good_move""]","",""
"4626","","<div style=""width:500px;"">
  <p>What determined the result of this run?</p>
  </div>","0","html-slider-response","65","961820","0.0-5.0-1.11","223","1","2025-07-23 13:43:34","1f75c3e559b7213887762d5229550c2b","173.21.92.193","Mozilla/5.0 (Windows NT 10.0; Win64; x64) AppleWebKit/537.36 (KHTML, like Gecko) Chrome/138.0.0.0 Safari/537.36","WebKit","Chrome","138.0.0.0","Windows","10.0","https://app.prolific.com/","en-US,en;q=0.9","66f4c82536b5c8271f53564c","683db9eb0562dbf637994deb","6880e6f7817689b3ae3598d1","2","1","66f4c82536b5c8271f53564c","2","1","2025-07-23T13:59:39.428Z","","","","","","","","","","","AttribQ","","50","","","","","","","","","","","","","","","","","","","","","","","","","","","","",""
"4900","","<div style=""width:500px;"">
  <p>How much control did you have over the ball?</p>
  </div>","1","html-slider-response","66","966722","0.0-5.0-2.11","223","1","2025-07-23 13:43:34","1f75c3e559b7213887762d5229550c2b","173.21.92.193","Mozilla/5.0 (Windows NT 10.0; Win64; x64) AppleWebKit/537.36 (KHTML, like Gecko) Chrome/138.0.0.0 Safari/537.36","WebKit","Chrome","138.0.0.0","Windows","10.0","https://app.prolific.com/","en-US,en;q=0.9","66f4c82536b5c8271f53564c","683db9eb0562dbf637994deb","6880e6f7817689b3ae3598d1","2","1","66f4c82536b5c8271f53564c","2","1","2025-07-23T13:59:44.330Z","","","","","","","","","","","ControlQ","","50","","","","","","","","","","","","","","","","","","","","","","","","","","","","",""
"3697","","<div style=""width:500px;"">
  <p>How would you describe your current emotional state?</p>
  </div>","8","html-slider-response","67","970421","0.0-5.0-3.11","223","1","2025-07-23 13:43:34","1f75c3e559b7213887762d5229550c2b","173.21.92.193","Mozilla/5.0 (Windows NT 10.0; Win64; x64) AppleWebKit/537.36 (KHTML, like Gecko) Chrome/138.0.0.0 Safari/537.36","WebKit","Chrome","138.0.0.0","Windows","10.0","https://app.prolific.com/","en-US,en;q=0.9","66f4c82536b5c8271f53564c","683db9eb0562dbf637994deb","6880e6f7817689b3ae3598d1","2","1","66f4c82536b5c8271f53564c","2","1","2025-07-23T13:59:48.029Z","","","","","","","","","","","StressQ","","50","","","","","","","","","","","","","","","","","","","","","","","","","","","","",""
"3452","","<div style=""width:500px;"">
  <p>What best describes how you currently feel?</p>
  </div>","11","html-slider-response","68","973875","0.0-5.0-4.11","223","1","2025-07-23 13:43:34","1f75c3e559b7213887762d5229550c2b","173.21.92.193","Mozilla/5.0 (Windows NT 10.0; Win64; x64) AppleWebKit/537.36 (KHTML, like Gecko) Chrome/138.0.0.0 Safari/537.36","WebKit","Chrome","138.0.0.0","Windows","10.0","https://app.prolific.com/","en-US,en;q=0.9","66f4c82536b5c8271f53564c","683db9eb0562dbf637994deb","6880e6f7817689b3ae3598d1","2","1","66f4c82536b5c8271f53564c","2","1","2025-07-23T13:59:51.482Z","","","","","","","","","","","MotivationQ","","50","","","","","","","","","","","","","","","","","","","","","","","","","","","","",""
"","","","","ctl-task-cpt","69","1014272","0.0-5.0-0.12","223","1","2025-07-23 13:43:34","1f75c3e559b7213887762d5229550c2b","173.21.92.193","Mozilla/5.0 (Windows NT 10.0; Win64; x64) AppleWebKit/537.36 (KHTML, like Gecko) Chrome/138.0.0.0 Safari/537.36","WebKit","Chrome","138.0.0.0","Windows","10.0","https://app.prolific.com/","en-US,en;q=0.9","66f4c82536b5c8271f53564c","683db9eb0562dbf637994deb","6880e6f7817689b3ae3598d1","2","1","66f4c82536b5c8271f53564c","2","1","2025-07-23T14:00:31.879Z","","","","","","","","","","","","","","win-only","3","g1:SW,g2:NE","0.7","13","0","976995.5","1235.2","6235.8","37362.4","1","4","8","6","2","8","7","7","0","0.05303030303030303","1537.9","3000","965","[""up"",""right""]","{""num_key_presses"":9,""num_perfect"":6,""num_errors"":1,""num_randdir"":2,""num_randdir_good_moves"":1,""num_whilered"":0,""num_whileblue"":0,""num_blue"":2,""num_good_moves"":7}","[465.8571428571429,468.7633928571429,0.2,465.8571428571429,468.7633928571429,100.9,465.8571428571429,468.7633928571429,221.7,465.8571428571429,468.7633928571429,324.6,465.8571428571429,468.7633928571429,425.5,465.8571428571429,468.7633928571429,533.6,465.8571428571429,468.7633928571429,636.6,465.8571428571429,468.7633928571429,752.5,728.8571428571429,-66.23660714285714,859,773.8571428571429,-127.23660714285714,961.5,824.8571428571429,-118.23660714285714,1062.5,877.8571428571429,-76.23660714285714,1166.7,864.8571428571429,43.76339285714286,1271.6,834.8571428571429,67.76339285714286,1396.4,834.8571428571429,67.76339285714286,1496.4,834.8571428571429,67.76339285714286,1597,834.8571428571429,67.76339285714286,1698.1,834.8571428571429,67.76339285714286,1798.7,834.8571428571429,67.76339285714286,1898.7,834.8571428571429,67.76339285714286,1999.6,834.8571428571429,67.76339285714286,2102.6,834.8571428571429,67.76339285714286,2208.6,834.8571428571429,67.76339285714286,2311.1,834.8571428571429,67.76339285714286,2414.2,834.8571428571429,67.76339285714286,2517.2,834.8571428571429,67.76339285714286,2630.7,834.8571428571429,67.76339285714286,2734.2,834.8571428571429,67.76339285714286,2835.8,834.8571428571429,67.76339285714286,2944,834.8571428571429,67.76339285714286,3045.4,834.8571428571429,67.76339285714286,3149.1,834.8571428571429,67.76339285714286,3250.9,834.8571428571429,67.76339285714286,3352.4,834.8571428571429,67.76339285714286,3458.7,834.8571428571429,67.76339285714286,3560,834.8571428571429,67.76339285714286,3665.7,834.8571428571429,67.76339285714286,3768.6,834.8571428571429,67.76339285714286,3871.6,834.8571428571429,67.76339285714286,3977.8,834.8571428571429,67.76339285714286,4082.1,834.8571428571429,67.76339285714286,4189,834.8571428571429,67.76339285714286,4292.2,834.8571428571429,67.76339285714286,4395.4,834.8571428571429,67.76339285714286,4499,834.8571428571429,67.76339285714286,4599.1,834.8571428571429,67.76339285714286,4700.6,834.8571428571429,67.76339285714286,4803.1,834.8571428571429,67.76339285714286,4913.2]","[366.2,366.2,1000,0,-633.8,""error"",""-"",""-"",""no_move"",4062.3,3695.8,2233.9,1373.9,454.5,""smooth"",""up"",""up"",""good_move"",7718,3655.1,3233.1,4062.9,422,""smooth"",""right"",""right"",""good_move"",10286.5,2567.8,2119.3,7718.7,448.5,""oops"",""right"",""down"",""bad_move"",13271.6,2984.5,2614.5,10287.1,370,""smooth"",""right"",""right"",""good_move"",15711.2,2439.1,2100.8,13272.1,338.3,""smooth"",""up"",""up"",""good_move"",25578.1,9866.3,2297.8,22918.6,361.7,""smooth"",""up"",""up"",""good_move"",28400.6,2822.1,2450.3,25578.5,371.8,""smooth"",""up"",""up"",""good_move"",31001.8,2600.9,2236.5,28401,364.4,""oops"",""right"",""right"",""good_move""]","",""
"5744","","<div style=""width:500px;"">
  <p>What determined the result of this run?</p>
  </div>","1","html-slider-response","70","1020017","0.0-5.0-1.12","223","1","2025-07-23 13:43:34","1f75c3e559b7213887762d5229550c2b","173.21.92.193","Mozilla/5.0 (Windows NT 10.0; Win64; x64) AppleWebKit/537.36 (KHTML, like Gecko) Chrome/138.0.0.0 Safari/537.36","WebKit","Chrome","138.0.0.0","Windows","10.0","https://app.prolific.com/","en-US,en;q=0.9","66f4c82536b5c8271f53564c","683db9eb0562dbf637994deb","6880e6f7817689b3ae3598d1","2","1","66f4c82536b5c8271f53564c","2","1","2025-07-23T14:00:37.625Z","","","","","","","","","","","AttribQ","","50","","","","","","","","","","","","","","","","","","","","","","","","","","","","",""
"3465","","<div style=""width:500px;"">
  <p>How much control did you have over the ball?</p>
  </div>","0","html-slider-response","71","1023483","0.0-5.0-2.12","223","1","2025-07-23 13:43:34","1f75c3e559b7213887762d5229550c2b","173.21.92.193","Mozilla/5.0 (Windows NT 10.0; Win64; x64) AppleWebKit/537.36 (KHTML, like Gecko) Chrome/138.0.0.0 Safari/537.36","WebKit","Chrome","138.0.0.0","Windows","10.0","https://app.prolific.com/","en-US,en;q=0.9","66f4c82536b5c8271f53564c","683db9eb0562dbf637994deb","6880e6f7817689b3ae3598d1","2","1","66f4c82536b5c8271f53564c","2","1","2025-07-23T14:00:41.091Z","","","","","","","","","","","ControlQ","","50","","","","","","","","","","","","","","","","","","","","","","","","","","","","",""
"2801","","<div style=""width:500px;"">
  <p>How would you describe your current emotional state?</p>
  </div>","5","html-slider-response","72","1026287","0.0-5.0-3.12","223","1","2025-07-23 13:43:34","1f75c3e559b7213887762d5229550c2b","173.21.92.193","Mozilla/5.0 (Windows NT 10.0; Win64; x64) AppleWebKit/537.36 (KHTML, like Gecko) Chrome/138.0.0.0 Safari/537.36","WebKit","Chrome","138.0.0.0","Windows","10.0","https://app.prolific.com/","en-US,en;q=0.9","66f4c82536b5c8271f53564c","683db9eb0562dbf637994deb","6880e6f7817689b3ae3598d1","2","1","66f4c82536b5c8271f53564c","2","1","2025-07-23T14:00:43.894Z","","","","","","","","","","","StressQ","","50","","","","","","","","","","","","","","","","","","","","","","","","","","","","",""
"2602","","<div style=""width:500px;"">
  <p>What best describes how you currently feel?</p>
  </div>","2","html-slider-response","73","1028892","0.0-5.0-4.12","223","1","2025-07-23 13:43:34","1f75c3e559b7213887762d5229550c2b","173.21.92.193","Mozilla/5.0 (Windows NT 10.0; Win64; x64) AppleWebKit/537.36 (KHTML, like Gecko) Chrome/138.0.0.0 Safari/537.36","WebKit","Chrome","138.0.0.0","Windows","10.0","https://app.prolific.com/","en-US,en;q=0.9","66f4c82536b5c8271f53564c","683db9eb0562dbf637994deb","6880e6f7817689b3ae3598d1","2","1","66f4c82536b5c8271f53564c","2","1","2025-07-23T14:00:46.499Z","","","","","","","","","","","MotivationQ","","50","","","","","","","","","","","","","","","","","","","","","","","","","","","","",""
"","","","","ctl-task-cpt","74","1084077","0.0-5.0-0.13","223","1","2025-07-23 13:43:34","1f75c3e559b7213887762d5229550c2b","173.21.92.193","Mozilla/5.0 (Windows NT 10.0; Win64; x64) AppleWebKit/537.36 (KHTML, like Gecko) Chrome/138.0.0.0 Safari/537.36","WebKit","Chrome","138.0.0.0","Windows","10.0","https://app.prolific.com/","en-US,en;q=0.9","66f4c82536b5c8271f53564c","683db9eb0562dbf637994deb","6880e6f7817689b3ae3598d1","2","1","66f4c82536b5c8271f53564c","2","1","2025-07-23T14:01:41.684Z","","","","","","","","","","","","","","win-only","1","g1:NE,g2:SW","0.8","14","0","1032011","2863.6","7868.7","52171.8","1","4","4","6","2","4","4","11","7","0.08333333333333333","1481.7","3000","1395","[""down"",""left""]","{""num_key_presses"":6,""num_perfect"":5,""num_errors"":0,""num_randdir"":1,""num_randdir_good_moves"":1,""num_whilered"":0,""num_whileblue"":0,""num_blue"":8,""num_good_moves"":6}","[463.8571428571429,467.7633928571429,0.5,463.8571428571429,467.7633928571429,107.5,463.8571428571429,467.7633928571429,213.3,463.8571428571429,467.7633928571429,318.8,463.8571428571429,467.7633928571429,423,463.8571428571429,467.7633928571429,525.4,463.8571428571429,467.7633928571429,638.7,484.8571428571429,446.7633928571429,744.5,322.8571428571429,600.7633928571429,849.3,-35.14285714285714,908.7633928571429,953.9,-35.14285714285714,896.7633928571429,1057.8,-12.142857142857139,885.7633928571429,1173.9,50.85714285714286,860.7633928571429,1274.8,52.85714285714286,860.7633928571429,1389.8,52.85714285714286,860.7633928571429,1495.2,52.85714285714286,860.7633928571429,1598.4,52.85714285714286,860.7633928571429,1720.4,52.85714285714286,860.7633928571429,1840.6,52.85714285714286,860.7633928571429,1953.1,52.85714285714286,860.7633928571429,2059.2,52.85714285714286,860.7633928571429,2160.9,52.85714285714286,860.7633928571429,2261.3,52.85714285714286,860.7633928571429,2365.8,75.85714285714286,821.7633928571429,2468.6,164.85714285714286,701.7633928571429,2578.9,179.85714285714286,689.7633928571429,2684.9,179.85714285714286,689.7633928571429,2797.5,179.85714285714286,689.7633928571429,2899,179.85714285714286,689.7633928571429,2999.5,179.85714285714286,689.7633928571429,3106.2,179.85714285714286,689.7633928571429,3206.7,179.85714285714286,689.7633928571429,3316.4,179.85714285714286,689.7633928571429,3422.6,179.85714285714286,689.7633928571429,3524.8,179.85714285714286,689.7633928571429,3627.7,179.85714285714286,689.7633928571429,3728.5,179.85714285714286,689.7633928571429,3833.7,179.85714285714286,689.7633928571429,3935.8,179.85714285714286,689.7633928571429,4040.6,179.85714285714286,689.7633928571429,4141.6,179.85714285714286,689.7633928571429,4245.2,179.85714285714286,689.7633928571429,4352.3,179.85714285714286,689.7633928571429,4460.1,179.85714285714286,689.7633928571429,4578,179.85714285714286,689.7633928571429,4678.8,179.85714285714286,689.7633928571429,4788.7,179.85714285714286,689.7633928571429,4903.7]","[12073.6,12073.7,1962.2,9646.6,464.9,""smooth"",""down"",""down"",""good_move"",17959.9,5885.5,2577.2,14985.7,397,""smooth"",""down"",""down"",""good_move"",20996.7,3036.5,2581.6,17960.2,454.9,""smooth"",""left"",""left"",""good_move"",32115.6,11118.4,3243.6,28514.5,357.5,""oops"",""left"",""down"",""good_move"",37945.9,5829.5,2272.5,35279.6,393.9,""smooth"",""left"",""left"",""good_move"",44160.9,6214.6,2006.7,41677.5,476.7,""smooth"",""left"",""left"",""good_move""]","",""
"4873","","<div style=""width:500px;"">
  <p>What determined the result of this run?</p>
  </div>","3","html-slider-response","75","1088951","0.0-5.0-1.13","223","1","2025-07-23 13:43:34","1f75c3e559b7213887762d5229550c2b","173.21.92.193","Mozilla/5.0 (Windows NT 10.0; Win64; x64) AppleWebKit/537.36 (KHTML, like Gecko) Chrome/138.0.0.0 Safari/537.36","WebKit","Chrome","138.0.0.0","Windows","10.0","https://app.prolific.com/","en-US,en;q=0.9","66f4c82536b5c8271f53564c","683db9eb0562dbf637994deb","6880e6f7817689b3ae3598d1","2","1","66f4c82536b5c8271f53564c","2","1","2025-07-23T14:01:46.558Z","","","","","","","","","","","AttribQ","","50","","","","","","","","","","","","","","","","","","","","","","","","","","","","",""
"6615","","<div style=""width:500px;"">
  <p>How much control did you have over the ball?</p>
  </div>","7","html-slider-response","76","1095569","0.0-5.0-2.13","223","1","2025-07-23 13:43:34","1f75c3e559b7213887762d5229550c2b","173.21.92.193","Mozilla/5.0 (Windows NT 10.0; Win64; x64) AppleWebKit/537.36 (KHTML, like Gecko) Chrome/138.0.0.0 Safari/537.36","WebKit","Chrome","138.0.0.0","Windows","10.0","https://app.prolific.com/","en-US,en;q=0.9","66f4c82536b5c8271f53564c","683db9eb0562dbf637994deb","6880e6f7817689b3ae3598d1","2","1","66f4c82536b5c8271f53564c","2","1","2025-07-23T14:01:53.176Z","","","","","","","","","","","ControlQ","","50","","","","","","","","","","","","","","","","","","","","","","","","","","","","",""
"3603","","<div style=""width:500px;"">
