"rt","response_timestamp","stimulus","response","trial_type","trial_index","time_elapsed","internal_node_id","run_id","condition","recorded_at","source_code_version","ip","user_agent","device","browser","browser_version","platform","platform_version","referer","accept_language","PROLIFIC_PID","STUDY_ID","SESSION_ID","WEEK","BATCH","prolific_id","week","batch","realtime","success","responses","item_order","radio_event_ids","radio_event_times","key_event_times","mouse_event_times","straightlining","zigzagging","honeypot","eventType","view_history","slider_start","which_type","canvas_config","goals_layout","control_level","trial_number","tutorial_trial_number","trial_start_time","phase1_start_time","phase2_start_time","phase3_start_time","goal_1_value","goal_1_distance","goal_2_value","goal_2_distance","goal_selected","outcome","outcome_total","participant_final_score","participant_initial_score","participant_final_score_prop","goal_choice_rt","allocated_time","allocated_time_remaining","goal_direction","counts","mouse_movements","key_presses","question_order","question_id"
"15538","1752654406462","<p style='font-size:40px;line-height:1.25'><strong>Welcome to the experiment!</strong></p><p style='font-size:1.1em;line-height:1.25'>Thank you for participanting in our experiment again! You will be asked to play the Dysfunctional Ball Game again. We will briefly recap the rules before we start.</p><p style='font-size:1.1em;line-height:1.25'>Press <strong>Next</strong> to continue.</p>","0","custom-html-button-response","0","15541","0.0-0.0","51","1","2025-07-16 08:21:13","1f75c3e559b7213887762d5229550c2b","216.120.189.45","Mozilla/5.0 (Windows NT 10.0; Win64; x64) AppleWebKit/537.36 (KHTML, like Gecko) Chrome/138.0.0.0 Safari/537.36","WebKit","Chrome","138.0.0.0","Windows","10.0","https://app.prolific.com/","en-US,en;q=0.9","673594215b1a0b92d5835525","686e379bc37a29ffa5cdc956","68776027a9debb420028fb76","1","1","673594215b1a0b92d5835525","1","1","2025-07-16T08:26:46.463Z","","","","","","","","","","","","","","","","","","","","","","","","","","","","","","","","","","","","","","","","","",""
"700","","","","fullscreen","1","17247","0.0-1.0","51","1","2025-07-16 08:21:13","1f75c3e559b7213887762d5229550c2b","216.120.189.45","Mozilla/5.0 (Windows NT 10.0; Win64; x64) AppleWebKit/537.36 (KHTML, like Gecko) Chrome/138.0.0.0 Safari/537.36","WebKit","Chrome","138.0.0.0","Windows","10.0","https://app.prolific.com/","en-US,en;q=0.9","673594215b1a0b92d5835525","686e379bc37a29ffa5cdc956","68776027a9debb420028fb76","1","1","673594215b1a0b92d5835525","1","1","","true","","","","","","","","","","","","","","","","","","","","","","","","","","","","","","","","","","","","","","","","",""
"1578","1752654409756","<p style='font-size:1.1em;line-height:1.25'>In the following, we will ask you a few questions relating to your feelings in the last 24 hours.<br></p><p style='font-size:1.1em;line-height:1.25'>Press the <strong>Next</strong> button to continue.</p>","0","custom-html-button-response","2","18834","0.0-2.0-0.0","51","1","2025-07-16 08:21:13","1f75c3e559b7213887762d5229550c2b","216.120.189.45","Mozilla/5.0 (Windows NT 10.0; Win64; x64) AppleWebKit/537.36 (KHTML, like Gecko) Chrome/138.0.0.0 Safari/537.36","WebKit","Chrome","138.0.0.0","Windows","10.0","https://app.prolific.com/","en-US,en;q=0.9","673594215b1a0b92d5835525","686e379bc37a29ffa5cdc956","68776027a9debb420028fb76","1","1","673594215b1a0b92d5835525","1","1","2025-07-16T08:26:49.756Z","","","","","","","","","","","","","","","","","","","","","","","","","","","","","","","","","","","","","","","","","",""
"292130.799999997","","","","survey-template","3","310971","0.0-2.0-1.0","51","1","2025-07-16 08:21:13","1f75c3e559b7213887762d5229550c2b","216.120.189.45","Mozilla/5.0 (Windows NT 10.0; Win64; x64) AppleWebKit/537.36 (KHTML, like Gecko) Chrome/138.0.0.0 Safari/537.36","WebKit","Chrome","138.0.0.0","Windows","10.0","https://app.prolific.com/","en-US,en;q=0.9","673594215b1a0b92d5835525","686e379bc37a29ffa5cdc956","68776027a9debb420028fb76","1","1","673594215b1a0b92d5835525","1","1","2025-07-16T08:31:41.893Z","","{""Q01"":""0"",""Q02"":""0"",""Q03"":""0"",""Q04"":""0"",""Q05"":""0"",""Q06"":""0"",""Q07"":""0"",""Q08"":""0"",""Q09"":""0"",""Q10"":""0"",""Q11"":""0"",""Q12"":""1"",""Q13"":""5"",""Q14"":""2"",""Q15"":""0"",""Q16"":""0"",""Q17"":""1"",""Q18"":""0"",""Q19"":""1"",""Q20"":""0"",""Q21"":""0"",""Q22"":""0""}","[0,1,2,3,4,5,6,7,8,9,10,11,12,13,14,15,16,17,18,19,20,21]","[""Q01"",""Q02"",""Q03"",""Q04"",""Q05"",""Q06"",""Q07"",""Q09"",""Q08"",""Q10"",""Q11"",""Q12"",""Q12"",""Q13"",""Q14"",""Q15"",""Q16"",""Q17"",""Q17"",""Q18"",""Q19"",""Q19"",""Q20"",""Q21"",""Q22""]","[68931.89999999851,70003.89999999851,71124.10000000149,71931.79999999702,72923.89999999851,74564.39999999851,76612.5,78372.10000000149,79188.29999999702,82731.5,83748.10000000149,85380.19999999553,91419.89999999851,93851.60000000149,97396.29999999702,100724,103229,104571.89999999851,105963.69999999553,107517.10000000149,113684.10000000149,185315.6000000015,275220.19999999553,276108,290404.1000000015]","[]","[0.10000000149011612,68931.89999999851,70003.89999999851,71124.10000000149,71931.79999999702,72923.89999999851,74564.39999999851,76612.5,77531.79999999702,78372.10000000149,79188.29999999702,82731.5,83748.10000000149,85380.19999999553,91419.89999999851,93851.60000000149,97396.29999999702,100724,103229,104571.89999999851,105963.69999999553,107517.10000000149,113684.10000000149,185315.6000000015,275220.19999999553,276108,290404.1000000015,292124.19999999553]","0.7727272727272727","0.23809523809523808","0","drsp","","","","","","","","","","","","","","","","","","","","","","","","","","","","","","",""
"9214.80000000447","","","","survey-template","4","320188","0.0-2.0-2.0","51","1","2025-07-16 08:21:13","1f75c3e559b7213887762d5229550c2b","216.120.189.45","Mozilla/5.0 (Windows NT 10.0; Win64; x64) AppleWebKit/537.36 (KHTML, like Gecko) Chrome/138.0.0.0 Safari/537.36","WebKit","Chrome","138.0.0.0","Windows","10.0","https://app.prolific.com/","en-US,en;q=0.9","673594215b1a0b92d5835525","686e379bc37a29ffa5cdc956","68776027a9debb420028fb76","1","1","673594215b1a0b92d5835525","1","1","2025-07-16T08:31:51.110Z","","{""Q01"":""0"",""Q02"":""5"",""Q03"":""0""}","[0,1,2]","[""Q01"",""Q02"",""Q03""]","[3373.8000000044703,4677.70000000298,5853.5]","[]","[3373.8000000044703,4677.70000000298,5853.5,9213.80000000447]","1","0","0","stress","","","","","","","","","","","","","","","","","","","","","","","","","","","","","","",""
"40406","","","","instructions","5","360594","0.0-3.0-0.0","51","1","2025-07-16 08:21:13","1f75c3e559b7213887762d5229550c2b","216.120.189.45","Mozilla/5.0 (Windows NT 10.0; Win64; x64) AppleWebKit/537.36 (KHTML, like Gecko) Chrome/138.0.0.0 Safari/537.36","WebKit","Chrome","138.0.0.0","Windows","10.0","https://app.prolific.com/","en-US,en;q=0.9","673594215b1a0b92d5835525","686e379bc37a29ffa5cdc956","68776027a9debb420028fb76","1","1","673594215b1a0b92d5835525","1","1","","","","","","","","","","","","","[{""page_index"":0,""viewing_time"":40406}]","","","","","","","","","","","","","","","","","","","","","","","","","","","","","",""
"6238","","<p>Before you start with this game please answer the following three questions yourself. </p>
  <p>Through this game, we measure several aspects of your cognitive performance, such as reaction times, multi-tasking capabilities </p>
  <p>and the ability to assess the situation you are in.</p>
  <p></p>
  <p><b>How good do you usually are in such tasks?</b></p>","85","html-slider-response","6","366834","0.0-4.0-0.0","51","1","2025-07-16 08:21:13","1f75c3e559b7213887762d5229550c2b","216.120.189.45","Mozilla/5.0 (Windows NT 10.0; Win64; x64) AppleWebKit/537.36 (KHTML, like Gecko) Chrome/138.0.0.0 Safari/537.36","WebKit","Chrome","138.0.0.0","Windows","10.0","https://app.prolific.com/","en-US,en;q=0.9","673594215b1a0b92d5835525","686e379bc37a29ffa5cdc956","68776027a9debb420028fb76","1","1","673594215b1a0b92d5835525","1","1","2025-07-16T08:32:37.757Z","","","","","","","","","","","PreSkillQ","","50","","","","","","","","","","","","","","","","","","","","","","","","","","","","",""
"3703","","<div style=""width:500px;"">
  <p>How well do you think you will perform in this task compared to other participants?</p>
  </div>","88","html-slider-response","7","370539","0.0-4.0-1.0","51","1","2025-07-16 08:21:13","1f75c3e559b7213887762d5229550c2b","216.120.189.45","Mozilla/5.0 (Windows NT 10.0; Win64; x64) AppleWebKit/537.36 (KHTML, like Gecko) Chrome/138.0.0.0 Safari/537.36","WebKit","Chrome","138.0.0.0","Windows","10.0","https://app.prolific.com/","en-US,en;q=0.9","673594215b1a0b92d5835525","686e379bc37a29ffa5cdc956","68776027a9debb420028fb76","1","1","673594215b1a0b92d5835525","1","1","2025-07-16T08:32:41.461Z","","","","","","","","","","","PrePerfQ","","50","","","","","","","","","","","","","","","","","","","","","","","","","","","","",""
"3038","","<div style=""width:500px;"">
  <p>What best describes how you currently feel?</p>
  </div>","100","html-slider-response","8","373578","0.0-4.0-2.0","51","1","2025-07-16 08:21:13","1f75c3e559b7213887762d5229550c2b","216.120.189.45","Mozilla/5.0 (Windows NT 10.0; Win64; x64) AppleWebKit/537.36 (KHTML, like Gecko) Chrome/138.0.0.0 Safari/537.36","WebKit","Chrome","138.0.0.0","Windows","10.0","https://app.prolific.com/","en-US,en;q=0.9","673594215b1a0b92d5835525","686e379bc37a29ffa5cdc956","68776027a9debb420028fb76","1","1","673594215b1a0b92d5835525","1","1","2025-07-16T08:32:44.500Z","","","","","","","","","","","PreMotivationQ","","50","","","","","","","","","","","","","","","","","","","","","","","","","","","","",""
"","","","","ctl-task-cpt","9","1343575","0.0-5.0-0.0","51","1","2025-07-16 08:21:13","1f75c3e559b7213887762d5229550c2b","216.120.189.45","Mozilla/5.0 (Windows NT 10.0; Win64; x64) AppleWebKit/537.36 (KHTML, like Gecko) Chrome/138.0.0.0 Safari/537.36","WebKit","Chrome","138.0.0.0","Windows","10.0","https://app.prolific.com/","en-US,en;q=0.9","673594215b1a0b92d5835525","686e379bc37a29ffa5cdc956","68776027a9debb420028fb76","1","1","673594215b1a0b92d5835525","1","1","2025-07-16T08:48:54.497Z","","","","","","","","","","","","","","win-only","0","g1:NW,g2:SE","1","1","0","692539.8","943439.4","948441.6","966990.4","1","4","4","6","2","-4","-4","0","0","0","3166.2","3000","-2995","[""down"",""right""]","{""num_key_presses"":5,""num_perfect"":5,""num_errors"":0,""num_randdir"":0,""num_randdir_good_moves"":0,""num_whilered"":0,""num_whileblue"":0,""num_blue"":0,""num_good_moves"":5}","[261.896875,262.303125,1.5,261.896875,262.303125,102.4,261.896875,262.303125,213.3,261.896875,262.303125,314,512.896875,600.303125,416.4,512.896875,600.303125,522.8,512.896875,600.303125,624,512.896875,600.303125,726.9,512.896875,600.303125,835.2,512.896875,600.303125,936.8,512.896875,600.303125,1044.4,512.896875,600.303125,1147.4,512.896875,600.303125,1247.8,512.896875,600.303125,1353.2,875.896875,576.303125,1453.8,644.896875,460.303125,1557.6,513.896875,386.303125,1658.3,451.896875,343.303125,1767.7,451.896875,331.303125,1873.3,438.896875,329.303125,1977.4,279.896875,341.303125,2078.7,249.896875,332.303125,2182,197.896875,293.303125,2282,183.896875,284.303125,2386.1,217.896875,298.303125,2487,339.896875,370.303125,2592.4,524.896875,459.303125,2696.3,524.896875,459.303125,2796.5,524.896875,460.303125,2897.1,490.896875,464.303125,3001.6,484.896875,467.303125,3102.1,484.896875,467.303125,3206.4,484.896875,467.303125,3306.6,404.896875,446.303125,3406.9,263.896875,424.303125,3511.3,142.896875,403.303125,3611.3,137.896875,393.303125,3712.2,154.896875,376.303125,3812.4,155.896875,375.303125,3916.2,155.896875,375.303125,4022.3,155.896875,375.303125,4126.1,190.896875,350.303125,4226.1,200.896875,344.303125,4326.1,201.896875,343.303125,4426.2,201.896875,343.303125,4526.2,201.896875,343.303125,4632,203.896875,342.303125,4732,204.896875,341.303125,4835.9,205.896875,341.303125,4936]","[2168.9,2168.9,1000,0,1168.9,""smooth"",""down"",""down"",""good_move"",5882.8,3709.7,3257.5,2173.5,451.8,""smooth"",""right"",""right"",""good_move"",9039.8,3156.5,2706.2,5883.3,450.4,""smooth"",""down"",""down"",""good_move"",12398.1,3357.1,2859.3,9041.1,497.7,""smooth"",""right"",""right"",""good_move"",15527,3128.6,2657.9,12398.4,470.7,""smooth"",""down"",""down"",""good_move""]","",""
"6520","","<div style=""width:500px;"">
  <p>What determined the result of this run?</p>
  </div>","100","html-slider-response","10","1350097","0.0-5.0-1.0","51","1","2025-07-16 08:21:13","1f75c3e559b7213887762d5229550c2b","216.120.189.45","Mozilla/5.0 (Windows NT 10.0; Win64; x64) AppleWebKit/537.36 (KHTML, like Gecko) Chrome/138.0.0.0 Safari/537.36","WebKit","Chrome","138.0.0.0","Windows","10.0","https://app.prolific.com/","en-US,en;q=0.9","673594215b1a0b92d5835525","686e379bc37a29ffa5cdc956","68776027a9debb420028fb76","1","1","673594215b1a0b92d5835525","1","1","2025-07-16T08:49:01.019Z","","","","","","","","","","","AttribQ","","50","","","","","","","","","","","","","","","","","","","","","","","","","","","","",""
"5390","","<div style=""width:500px;"">
  <p>How much control did you have over the ball?</p>
  </div>","84","html-slider-response","11","1355489","0.0-5.0-2.0","51","1","2025-07-16 08:21:13","1f75c3e559b7213887762d5229550c2b","216.120.189.45","Mozilla/5.0 (Windows NT 10.0; Win64; x64) AppleWebKit/537.36 (KHTML, like Gecko) Chrome/138.0.0.0 Safari/537.36","WebKit","Chrome","138.0.0.0","Windows","10.0","https://app.prolific.com/","en-US,en;q=0.9","673594215b1a0b92d5835525","686e379bc37a29ffa5cdc956","68776027a9debb420028fb76","1","1","673594215b1a0b92d5835525","1","1","2025-07-16T08:49:06.411Z","","","","","","","","","","","ControlQ","","50","","","","","","","","","","","","","","","","","","","","","","","","","","","","",""
"4407","","<div style=""width:500px;"">
  <p>How would you describe your current emotional state?</p>
  </div>","0","html-slider-response","12","1359897","0.0-5.0-3.0","51","1","2025-07-16 08:21:13","1f75c3e559b7213887762d5229550c2b","216.120.189.45","Mozilla/5.0 (Windows NT 10.0; Win64; x64) AppleWebKit/537.36 (KHTML, like Gecko) Chrome/138.0.0.0 Safari/537.36","WebKit","Chrome","138.0.0.0","Windows","10.0","https://app.prolific.com/","en-US,en;q=0.9","673594215b1a0b92d5835525","686e379bc37a29ffa5cdc956","68776027a9debb420028fb76","1","1","673594215b1a0b92d5835525","1","1","2025-07-16T08:49:10.819Z","","","","","","","","","","","StressQ","","50","","","","","","","","","","","","","","","","","","","","","","","","","","","","",""
"8600","","<div style=""width:500px;"">
  <p>What best describes how you currently feel?</p>
  </div>","100","html-slider-response","13","1368498","0.0-5.0-4.0","51","1","2025-07-16 08:21:13","1f75c3e559b7213887762d5229550c2b","216.120.189.45","Mozilla/5.0 (Windows NT 10.0; Win64; x64) AppleWebKit/537.36 (KHTML, like Gecko) Chrome/138.0.0.0 Safari/537.36","WebKit","Chrome","138.0.0.0","Windows","10.0","https://app.prolific.com/","en-US,en;q=0.9","673594215b1a0b92d5835525","686e379bc37a29ffa5cdc956","68776027a9debb420028fb76","1","1","673594215b1a0b92d5835525","1","1","2025-07-16T08:49:19.420Z","","","","","","","","","","","MotivationQ","","50","","","","","","","","","","","","","","","","","","","","","","","","","","","","",""
"","","","","ctl-task-cpt","14","1411025","0.0-5.0-0.1","51","1","2025-07-16 08:21:13","1f75c3e559b7213887762d5229550c2b","216.120.189.45","Mozilla/5.0 (Windows NT 10.0; Win64; x64) AppleWebKit/537.36 (KHTML, like Gecko) Chrome/138.0.0.0 Safari/537.36","WebKit","Chrome","138.0.0.0","Windows","10.0","https://app.prolific.com/","en-US,en;q=0.9","673594215b1a0b92d5835525","686e379bc37a29ffa5cdc956","68776027a9debb420028fb76","1","1","673594215b1a0b92d5835525","1","1","2025-07-16T08:50:01.947Z","","","","","","","","","","","","","","win-only","0","g1:NW,g2:SE","0.9","2","0","1687459.3","12726.2","17730.9","39506.3","1","4","8","6","2","-8","-9","0","0","0","978.3","3000","-3000","[""down"",""right""]","{""num_key_presses"":4,""num_perfect"":2,""num_errors"":1,""num_randdir"":1,""num_randdir_good_moves"":0,""num_whilered"":0,""num_whileblue"":1,""num_blue"":3,""num_good_moves"":2}","[261.896875,260.303125,0.5,261.896875,260.303125,104.3,261.896875,260.303125,205.2,261.896875,260.303125,310,261.896875,260.303125,415.2,368.896875,378.303125,519.4,446.896875,440.303125,620.3,457.896875,449.303125,724.3,469.896875,458.303125,824.8,477.896875,463.303125,924.9,478.896875,464.303125,1029.5,478.896875,464.303125,1130.1,476.896875,459.303125,1230.4,465.896875,452.303125,1335,462.896875,451.303125,1436.1,460.896875,449.303125,1540,457.896875,446.303125,1641,456.896875,445.303125,1744,456.896875,445.303125,1845.9,456.896875,445.303125,1949.3,456.896875,445.303125,2050.1,456.896875,445.303125,2155.9,456.896875,445.303125,2259.8,456.896875,445.303125,2364.7,456.896875,445.303125,2464.8,456.896875,445.303125,2565.4,456.896875,445.303125,2669.6,456.896875,445.303125,2769.5,456.896875,445.303125,2870.2,456.896875,445.303125,2971,456.896875,445.303125,3074.2,456.896875,445.303125,3174.7,456.896875,445.303125,3279.8,456.896875,445.303125,3384.2,445.896875,443.303125,3484.4,445.896875,443.303125,3585.4,445.896875,443.303125,3690,444.896875,442.303125,3794,444.896875,442.303125,3894.4,444.896875,442.303125,4000.2,444.896875,442.303125,4104.1,384.896875,421.303125,4204.4,374.896875,412.303125,4310.3,374.896875,412.303125,4414.6,374.896875,412.303125,4514.6,374.896875,412.303125,4619.3,374.896875,412.303125,4720,374.896875,412.303125,4824.3,374.896875,412.303125,4924.6]","[1424.8,1424.8,1000,0,424.8,""smooth"",""down"",""down"",""good_move"",4458.1,3032.2,2654.5,1426,377.6,""while_blue"",""right"",""up"",""bad_move"",12105.5,7646.8,2870.3,8835.6,399.6,""oops"",""right"",""left"",""bad_move"",15587.2,3481.4,1719.3,12105.8,1762.2,""smooth"",""down"",""down"",""good_move""]","",""
"5695","","<div style=""width:500px;"">
  <p>What determined the result of this run?</p>
  </div>","100","html-slider-response","15","1416721","0.0-5.0-1.1","51","1","2025-07-16 08:21:13","1f75c3e559b7213887762d5229550c2b","216.120.189.45","Mozilla/5.0 (Windows NT 10.0; Win64; x64) AppleWebKit/537.36 (KHTML, like Gecko) Chrome/138.0.0.0 Safari/537.36","WebKit","Chrome","138.0.0.0","Windows","10.0","https://app.prolific.com/","en-US,en;q=0.9","673594215b1a0b92d5835525","686e379bc37a29ffa5cdc956","68776027a9debb420028fb76","1","1","673594215b1a0b92d5835525","1","1","2025-07-16T08:50:07.643Z","","","","","","","","","","","AttribQ","","50","","","","","","","","","","","","","","","","","","","","","","","","","","","","",""
"4800","","<div style=""width:500px;"">
  <p>How much control did you have over the ball?</p>
  </div>","76","html-slider-response","16","1421522","0.0-5.0-2.1","51","1","2025-07-16 08:21:13","1f75c3e559b7213887762d5229550c2b","216.120.189.45","Mozilla/5.0 (Windows NT 10.0; Win64; x64) AppleWebKit/537.36 (KHTML, like Gecko) Chrome/138.0.0.0 Safari/537.36","WebKit","Chrome","138.0.0.0","Windows","10.0","https://app.prolific.com/","en-US,en;q=0.9","673594215b1a0b92d5835525","686e379bc37a29ffa5cdc956","68776027a9debb420028fb76","1","1","673594215b1a0b92d5835525","1","1","2025-07-16T08:50:12.444Z","","","","","","","","","","","ControlQ","","50","","","","","","","","","","","","","","","","","","","","","","","","","","","","",""
"3902","","<div style=""width:500px;"">
  <p>How would you describe your current emotional state?</p>
  </div>","0","html-slider-response","17","1425425","0.0-5.0-3.1","51","1","2025-07-16 08:21:13","1f75c3e559b7213887762d5229550c2b","216.120.189.45","Mozilla/5.0 (Windows NT 10.0; Win64; x64) AppleWebKit/537.36 (KHTML, like Gecko) Chrome/138.0.0.0 Safari/537.36","WebKit","Chrome","138.0.0.0","Windows","10.0","https://app.prolific.com/","en-US,en;q=0.9","673594215b1a0b92d5835525","686e379bc37a29ffa5cdc956","68776027a9debb420028fb76","1","1","673594215b1a0b92d5835525","1","1","2025-07-16T08:50:16.347Z","","","","","","","","","","","StressQ","","50","","","","","","","","","","","","","","","","","","","","","","","","","","","","",""
"8735","","<div style=""width:500px;"">
  <p>What best describes how you currently feel?</p>
  </div>","93","html-slider-response","18","1434161","0.0-5.0-4.1","51","1","2025-07-16 08:21:13","1f75c3e559b7213887762d5229550c2b","216.120.189.45","Mozilla/5.0 (Windows NT 10.0; Win64; x64) AppleWebKit/537.36 (KHTML, like Gecko) Chrome/138.0.0.0 Safari/537.36","WebKit","Chrome","138.0.0.0","Windows","10.0","https://app.prolific.com/","en-US,en;q=0.9","673594215b1a0b92d5835525","686e379bc37a29ffa5cdc956","68776027a9debb420028fb76","1","1","673594215b1a0b92d5835525","1","1","2025-07-16T08:50:25.083Z","","","","","","","","","","","MotivationQ","","50","","","","","","","","","","","","","","","","","","","","","","","","","","","","",""
"","","","","ctl-task-cpt","19","1464238","0.0-5.0-0.2","51","1","2025-07-16 08:21:13","1f75c3e559b7213887762d5229550c2b","216.120.189.45","Mozilla/5.0 (Windows NT 10.0; Win64; x64) AppleWebKit/537.36 (KHTML, like Gecko) Chrome/138.0.0.0 Safari/537.36","WebKit","Chrome","138.0.0.0","Windows","10.0","https://app.prolific.com/","en-US,en;q=0.9","673594215b1a0b92d5835525","686e379bc37a29ffa5cdc956","68776027a9debb420028fb76","1","1","673594215b1a0b92d5835525","1","1","2025-07-16T08:50:55.161Z","","","","","","","","","","","","","","win-only","1","g1:NE,g2:SW","0.8","3","0","1753123.7","1717.3","6720.4","27057.8","1","4","8","6","2","8","8","8","0","0.06060606060606061","1080.9","3000","540","[""down"",""left""]","{""num_key_presses"":6,""num_perfect"":6,""num_errors"":0,""num_randdir"":0,""num_randdir_good_moves"":0,""num_whilered"":0,""num_whileblue"":0,""num_blue"":1,""num_good_moves"":6}","[263.896875,258.303125,0.3,263.896875,258.303125,104.4,262.896875,258.303125,209.4,301.896875,289.303125,313.5,333.896875,307.303125,418.1,321.896875,302.303125,518.7,178.896875,389.303125,624.1,120.896875,439.303125,724.9,112.896875,446.303125,828.3,52.896875,469.303125,929.2,47.896875,469.303125,1042.1,47.896875,469.303125,1159.2,52.896875,469.303125,1276.9,191.896875,469.303125,1378.9,260.896875,469.303125,1483.4,266.896875,471.303125,1584.9,271.896875,467.303125,1692.8,271.896875,467.303125,1793.2,271.896875,467.303125,1894,271.896875,467.303125,1997.1,271.896875,467.303125,2098.2,271.896875,467.303125,2203.2,271.896875,467.303125,2318,271.896875,467.303125,2419.8,271.896875,467.303125,2530.7,271.896875,467.303125,2633.6,271.896875,467.303125,2737.9,271.896875,467.303125,2839.9,271.896875,467.303125,2952.9,271.896875,467.303125,3053.5,271.896875,467.303125,3159.4,271.896875,467.303125,3260.9,271.896875,467.303125,3371.9,271.896875,467.303125,3479.4,271.896875,467.303125,3583.6,271.896875,467.303125,3687.3,271.896875,467.303125,3791.2,271.896875,467.303125,3893.5,271.896875,467.303125,3994.2,271.896875,467.303125,4100.2,271.896875,467.303125,4207.7,271.896875,467.303125,4309.5,271.896875,467.303125,4414.2,271.896875,467.303125,4519.2,271.896875,467.303125,4623.4,271.896875,467.303125,4724.3,271.896875,467.303125,4828.4,271.896875,467.303125,4928.6]","[1344.3,1344.3,1000,0,344.3,""smooth"",""down"",""down"",""good_move"",7971.1,6626.2,2043.3,5494.8,433,""smooth"",""down"",""down"",""good_move"",11265.9,3294.5,2777.1,7971.4,517.4,""smooth"",""down"",""down"",""good_move"",14720.8,3454.6,3025,11266.2,429.6,""smooth"",""left"",""left"",""good_move"",17823.1,3101.8,2743.5,14721.3,358.3,""smooth"",""left"",""left"",""good_move"",20245.2,2421.9,1990.9,17823.3,431,""smooth"",""left"",""left"",""good_move""]","",""
"2817","","<div style=""width:500px;"">
  <p>What determined the result of this run?</p>
  </div>","100","html-slider-response","20","1467058","0.0-5.0-1.2","51","1","2025-07-16 08:21:13","1f75c3e559b7213887762d5229550c2b","216.120.189.45","Mozilla/5.0 (Windows NT 10.0; Win64; x64) AppleWebKit/537.36 (KHTML, like Gecko) Chrome/138.0.0.0 Safari/537.36","WebKit","Chrome","138.0.0.0","Windows","10.0","https://app.prolific.com/","en-US,en;q=0.9","673594215b1a0b92d5835525","686e379bc37a29ffa5cdc956","68776027a9debb420028fb76","1","1","673594215b1a0b92d5835525","1","1","2025-07-16T08:50:57.980Z","","","","","","","","","","","AttribQ","","50","","","","","","","","","","","","","","","","","","","","","","","","","","","","",""
"2086","","<div style=""width:500px;"">
  <p>How much control did you have over the ball?</p>
  </div>","100","html-slider-response","21","1469145","0.0-5.0-2.2","51","1","2025-07-16 08:21:13","1f75c3e559b7213887762d5229550c2b","216.120.189.45","Mozilla/5.0 (Windows NT 10.0; Win64; x64) AppleWebKit/537.36 (KHTML, like Gecko) Chrome/138.0.0.0 Safari/537.36","WebKit","Chrome","138.0.0.0","Windows","10.0","https://app.prolific.com/","en-US,en;q=0.9","673594215b1a0b92d5835525","686e379bc37a29ffa5cdc956","68776027a9debb420028fb76","1","1","673594215b1a0b92d5835525","1","1","2025-07-16T08:51:00.067Z","","","","","","","","","","","ControlQ","","50","","","","","","","","","","","","","","","","","","","","","","","","","","","","",""
"3503","","<div style=""width:500px;"">
  <p>How would you describe your current emotional state?</p>
  </div>","0","html-slider-response","22","1472650","0.0-5.0-3.2","51","1","2025-07-16 08:21:13","1f75c3e559b7213887762d5229550c2b","216.120.189.45","Mozilla/5.0 (Windows NT 10.0; Win64; x64) AppleWebKit/537.36 (KHTML, like Gecko) Chrome/138.0.0.0 Safari/537.36","WebKit","Chrome","138.0.0.0","Windows","10.0","https://app.prolific.com/","en-US,en;q=0.9","673594215b1a0b92d5835525","686e379bc37a29ffa5cdc956","68776027a9debb420028fb76","1","1","673594215b1a0b92d5835525","1","1","2025-07-16T08:51:03.572Z","","","","","","","","","","","StressQ","","50","","","","","","","","","","","","","","","","","","","","","","","","","","","","",""
"3814","","<div style=""width:500px;"">
  <p>What best describes how you currently feel?</p>
  </div>","0","html-slider-response","23","1476465","0.0-5.0-4.2","51","1","2025-07-16 08:21:13","1f75c3e559b7213887762d5229550c2b","216.120.189.45","Mozilla/5.0 (Windows NT 10.0; Win64; x64) AppleWebKit/537.36 (KHTML, like Gecko) Chrome/138.0.0.0 Safari/537.36","WebKit","Chrome","138.0.0.0","Windows","10.0","https://app.prolific.com/","en-US,en;q=0.9","673594215b1a0b92d5835525","686e379bc37a29ffa5cdc956","68776027a9debb420028fb76","1","1","673594215b1a0b92d5835525","1","1","2025-07-16T08:51:07.387Z","","","","","","","","","","","MotivationQ","","50","","","","","","","","","","","","","","","","","","","","","","","","","","","","",""
"","","","","ctl-task-cpt","24","1506171","0.0-5.0-0.3","51","1","2025-07-16 08:21:13","1f75c3e559b7213887762d5229550c2b","216.120.189.45","Mozilla/5.0 (Windows NT 10.0; Win64; x64) AppleWebKit/537.36 (KHTML, like Gecko) Chrome/138.0.0.0 Safari/537.36","WebKit","Chrome","138.0.0.0","Windows","10.0","https://app.prolific.com/","en-US,en;q=0.9","673594215b1a0b92d5835525","686e379bc37a29ffa5cdc956","68776027a9debb420028fb76","1","1","673594215b1a0b92d5835525","1","1","2025-07-16T08:51:37.093Z","","","","","","","","","","","","","","win-only","1","g1:NE,g2:SW","0.7","4","0","1795425.5","1649.9","6653.2","26691.2","1","4","4","6","2","-4","-4","4","8","0.030303030303030304","965.5","3000","-3000","[""down"",""left""]","{""num_key_presses"":7,""num_perfect"":5,""num_errors"":0,""num_randdir"":2,""num_randdir_good_moves"":0,""num_whilered"":0,""num_whileblue"":0,""num_blue"":0,""num_good_moves"":5}","[257.896875,262.303125,0.3,257.896875,262.303125,103.5,259.896875,263.303125,205.9,270.896875,288.303125,305.9,283.896875,324.303125,406,279.896875,358.303125,506.1,223.896875,391.303125,608.5,66.896875,451.303125,709.4,50.896875,468.303125,809.4,39.896875,478.303125,910.9,39.896875,479.303125,1011.6,38.896875,479.303125,1112.5,48.896875,463.303125,1217.3,160.896875,446.303125,1325.1,175.896875,442.303125,1427,176.896875,440.303125,1531.8,176.896875,435.303125,1638.3,176.896875,435.303125,1739.4,176.896875,435.303125,1839.4,176.896875,435.303125,1941.9,176.896875,435.303125,2045.3,176.896875,435.303125,2147,176.896875,435.303125,2253.4,176.896875,435.303125,2356.4,176.896875,435.303125,2461.4,176.896875,435.303125,2565.3,176.896875,435.303125,2665.3,176.896875,435.303125,2766.3,176.896875,435.303125,2866.6,176.896875,435.303125,2966.9,176.896875,435.303125,3066.9,176.896875,435.303125,3173.6,176.896875,435.303125,3274.5,176.896875,435.303125,3375.3,176.896875,435.303125,3475.6,176.896875,435.303125,3581.4,176.896875,435.303125,3681.5,176.896875,435.303125,3781.9,176.896875,435.303125,3887.9,176.896875,435.303125,3990.7,176.896875,435.303125,4091.3,176.896875,435.303125,4197.5,176.896875,435.303125,4301.9,176.896875,435.303125,4409.4,176.896875,435.303125,4511.6,176.896875,435.303125,4616.1,176.896875,435.303125,4716.8,176.896875,435.303125,4820.7,176.896875,435.303125,4927.8]","[1410.6,1410.6,1000,0,410.6,""smooth"",""down"",""down"",""good_move"",3669.2,2258.3,1811.3,1410.9,447,""smooth"",""down"",""down"",""good_move"",6155,2485.4,2043.3,3669.6,442.1,""oops"",""down"",""right"",""bad_move"",9361.3,3205.9,2731.3,6155.4,474.6,""smooth"",""left"",""left"",""good_move"",11700.7,2338.8,1968.1,9361.9,370.7,""smooth"",""left"",""left"",""good_move"",15253,3552.1,3150.3,11700.9,401.8,""smooth"",""left"",""left"",""good_move"",17773.6,2520.4,2160.9,15253.2,359.5,""oops"",""left"",""right"",""bad_move""]","",""
"4740","","<div style=""width:500px;"">
  <p>What determined the result of this run?</p>
  </div>","100","html-slider-response","25","1510913","0.0-5.0-1.3","51","1","2025-07-16 08:21:13","1f75c3e559b7213887762d5229550c2b","216.120.189.45","Mozilla/5.0 (Windows NT 10.0; Win64; x64) AppleWebKit/537.36 (KHTML, like Gecko) Chrome/138.0.0.0 Safari/537.36","WebKit","Chrome","138.0.0.0","Windows","10.0","https://app.prolific.com/","en-US,en;q=0.9","673594215b1a0b92d5835525","686e379bc37a29ffa5cdc956","68776027a9debb420028fb76","1","1","673594215b1a0b92d5835525","1","1","2025-07-16T08:51:41.835Z","","","","","","","","","","","AttribQ","","50","","","","","","","","","","","","","","","","","","","","","","","","","","","","",""
"6063","","<div style=""width:500px;"">
  <p>How much control did you have over the ball?</p>
  </div>","100","html-slider-response","26","1516977","0.0-5.0-2.3","51","1","2025-07-16 08:21:13","1f75c3e559b7213887762d5229550c2b","216.120.189.45","Mozilla/5.0 (Windows NT 10.0; Win64; x64) AppleWebKit/537.36 (KHTML, like Gecko) Chrome/138.0.0.0 Safari/537.36","WebKit","Chrome","138.0.0.0","Windows","10.0","https://app.prolific.com/","en-US,en;q=0.9","673594215b1a0b92d5835525","686e379bc37a29ffa5cdc956","68776027a9debb420028fb76","1","1","673594215b1a0b92d5835525","1","1","2025-07-16T08:51:47.899Z","","","","","","","","","","","ControlQ","","50","","","","","","","","","","","","","","","","","","","","","","","","","","","","",""
"4246","","<div style=""width:500px;"">
  <p>How would you describe your current emotional state?</p>
  </div>","90","html-slider-response","27","1521225","0.0-5.0-3.3","51","1","2025-07-16 08:21:13","1f75c3e559b7213887762d5229550c2b","216.120.189.45","Mozilla/5.0 (Windows NT 10.0; Win64; x64) AppleWebKit/537.36 (KHTML, like Gecko) Chrome/138.0.0.0 Safari/537.36","WebKit","Chrome","138.0.0.0","Windows","10.0","https://app.prolific.com/","en-US,en;q=0.9","673594215b1a0b92d5835525","686e379bc37a29ffa5cdc956","68776027a9debb420028fb76","1","1","673594215b1a0b92d5835525","1","1","2025-07-16T08:51:52.147Z","","","","","","","","","","","StressQ","","50","","","","","","","","","","","","","","","","","","","","","","","","","","","","",""
"3695","","<div style=""width:500px;"">
  <p>What best describes how you currently feel?</p>
  </div>","100","html-slider-response","28","1524921","0.0-5.0-4.3","51","1","2025-07-16 08:21:13","1f75c3e559b7213887762d5229550c2b","216.120.189.45","Mozilla/5.0 (Windows NT 10.0; Win64; x64) AppleWebKit/537.36 (KHTML, like Gecko) Chrome/138.0.0.0 Safari/537.36","WebKit","Chrome","138.0.0.0","Windows","10.0","https://app.prolific.com/","en-US,en;q=0.9","673594215b1a0b92d5835525","686e379bc37a29ffa5cdc956","68776027a9debb420028fb76","1","1","673594215b1a0b92d5835525","1","1","2025-07-16T08:51:55.843Z","","","","","","","","","","","MotivationQ","","50","","","","","","","","","","","","","","","","","","","","","","","","","","","","",""
"","","","","ctl-task-cpt","29","1573061","0.0-5.0-0.4","51","1","2025-07-16 08:21:13","1f75c3e559b7213887762d5229550c2b","216.120.189.45","Mozilla/5.0 (Windows NT 10.0; Win64; x64) AppleWebKit/537.36 (KHTML, like Gecko) Chrome/138.0.0.0 Safari/537.36","WebKit","Chrome","138.0.0.0","Windows","10.0","https://app.prolific.com/","en-US,en;q=0.9","673594215b1a0b92d5835525","686e379bc37a29ffa5cdc956","68776027a9debb420028fb76","1","1","673594215b1a0b92d5835525","1","1","2025-07-16T08:52:43.983Z","","","","","","","","","","","","","","win-only","2","g1:SE,g2:NW","0.6","5","0","1843881.7","1487","6491.1","45121.7","1","4","4","6","2","-4","-6","0","4","0","1232","3000","-2985","[""left"",""up""]","{""num_key_presses"":9,""num_perfect"":4,""num_errors"":2,""num_randdir"":3,""num_randdir_good_moves"":2,""num_whilered"":0,""num_whileblue"":1,""num_blue"":4,""num_good_moves"":6}","[260.896875,257.303125,0.2,260.896875,257.303125,100.1,260.896875,257.303125,203.6,259.896875,263.303125,303.6,278.896875,318.303125,410.7,296.896875,329.303125,513.8,300.896875,329.303125,618.4,169.896875,253.303125,719,51.896875,134.303125,820.1,29.896875,103.303125,926.6,28.896875,90.303125,1031.8,33.896875,66.303125,1133.7,33.896875,62.303125,1242.6,33.896875,62.303125,1344.3,33.896875,62.303125,1448.7,59.896875,116.303125,1554.9,133.896875,229.303125,1655.4,190.896875,291.303125,1755.4,225.896875,314.303125,1858.7,225.896875,314.303125,1963.2,225.896875,314.303125,2064.9,225.896875,314.303125,2165.5,225.896875,314.303125,2268.3,225.896875,314.303125,2368.3,225.896875,314.303125,2468.9,225.896875,314.303125,2568.9,225.896875,314.303125,2673.4,225.896875,314.303125,2777,225.896875,314.303125,2879.3,225.896875,314.303125,2979.5,225.896875,314.303125,3084.6,225.896875,314.303125,3185,225.896875,314.303125,3288.8,225.896875,314.303125,3396.8,225.896875,314.303125,3498.4,225.896875,314.303125,3598.8,225.896875,314.303125,3703.4,225.896875,314.303125,3808.2,225.896875,314.303125,3909.2,225.896875,314.303125,4014.2,225.896875,314.303125,4119.3,225.896875,314.303125,4219.7,225.896875,314.303125,4324,225.896875,314.303125,4426.4,225.896875,314.303125,4528.3,225.896875,314.303125,4629.5,225.896875,314.303125,4734.9,225.896875,314.303125,4840.3,225.896875,314.303125,4946.4]","[4649.4,4649.4,2275.3,2004.4,369.7,""while_blue"",""up"",""down"",""bad_move"",4872.1,222.4,2726.8,4649.8,-2504.4,""error"",""-"",""-"",""no_move"",8599.8,3727.5,2108,5875.6,616.2,""oops"",""up"",""up"",""good_move"",11549.3,2949.1,2540.7,8600.2,408.4,""smooth"",""up"",""up"",""good_move"",15181,3631.3,3234.6,11549.7,396.7,""oops"",""up"",""left"",""good_move"",18010.9,2829,2466.6,15181.9,362.4,""smooth"",""up"",""up"",""good_move"",21580.9,3569.7,3182.9,18011.2,386.8,""smooth"",""up"",""up"",""good_move"",32015.5,10434.3,2959.4,28614.1,442,""oops"",""left"",""right"",""bad_move"",35575.5,3559.5,3218.8,32016,340.7,""smooth"",""left"",""left"",""good_move""]","",""
"5426","","<div style=""width:500px;"">
  <p>What determined the result of this run?</p>
  </div>","83","html-slider-response","30","1578489","0.0-5.0-1.4","51","1","2025-07-16 08:21:13","1f75c3e559b7213887762d5229550c2b","216.120.189.45","Mozilla/5.0 (Windows NT 10.0; Win64; x64) AppleWebKit/537.36 (KHTML, like Gecko) Chrome/138.0.0.0 Safari/537.36","WebKit","Chrome","138.0.0.0","Windows","10.0","https://app.prolific.com/","en-US,en;q=0.9","673594215b1a0b92d5835525","686e379bc37a29ffa5cdc956","68776027a9debb420028fb76","1","1","673594215b1a0b92d5835525","1","1","2025-07-16T08:52:49.411Z","","","","","","","","","","","AttribQ","","50","","","","","","","","","","","","","","","","","","","","","","","","","","","","",""
"2151","","<div style=""width:500px;"">
  <p>How much control did you have over the ball?</p>
  </div>","79","html-slider-response","31","1580641","0.0-5.0-2.4","51","1","2025-07-16 08:21:13","1f75c3e559b7213887762d5229550c2b","216.120.189.45","Mozilla/5.0 (Windows NT 10.0; Win64; x64) AppleWebKit/537.36 (KHTML, like Gecko) Chrome/138.0.0.0 Safari/537.36","WebKit","Chrome","138.0.0.0","Windows","10.0","https://app.prolific.com/","en-US,en;q=0.9","673594215b1a0b92d5835525","686e379bc37a29ffa5cdc956","68776027a9debb420028fb76","1","1","673594215b1a0b92d5835525","1","1","2025-07-16T08:52:51.563Z","","","","","","","","","","","ControlQ","","50","","","","","","","","","","","","","","","","","","","","","","","","","","","","",""
"2888","","<div style=""width:500px;"">
  <p>How would you describe your current emotional state?</p>
  </div>","3","html-slider-response","32","1583530","0.0-5.0-3.4","51","1","2025-07-16 08:21:13","1f75c3e559b7213887762d5229550c2b","216.120.189.45","Mozilla/5.0 (Windows NT 10.0; Win64; x64) AppleWebKit/537.36 (KHTML, like Gecko) Chrome/138.0.0.0 Safari/537.36","WebKit","Chrome","138.0.0.0","Windows","10.0","https://app.prolific.com/","en-US,en;q=0.9","673594215b1a0b92d5835525","686e379bc37a29ffa5cdc956","68776027a9debb420028fb76","1","1","673594215b1a0b92d5835525","1","1","2025-07-16T08:52:54.452Z","","","","","","","","","","","StressQ","","50","","","","","","","","","","","","","","","","","","","","","","","","","","","","",""
"4701","","<div style=""width:500px;"">
  <p>What best describes how you currently feel?</p>
  </div>","100","html-slider-response","33","1588233","0.0-5.0-4.4","51","1","2025-07-16 08:21:13","1f75c3e559b7213887762d5229550c2b","216.120.189.45","Mozilla/5.0 (Windows NT 10.0; Win64; x64) AppleWebKit/537.36 (KHTML, like Gecko) Chrome/138.0.0.0 Safari/537.36","WebKit","Chrome","138.0.0.0","Windows","10.0","https://app.prolific.com/","en-US,en;q=0.9","673594215b1a0b92d5835525","686e379bc37a29ffa5cdc956","68776027a9debb420028fb76","1","1","673594215b1a0b92d5835525","1","1","2025-07-16T08:52:59.155Z","","","","","","","","","","","MotivationQ","","50","","","","","","","","","","","","","","","","","","","","","","","","","","","","",""
"","","","","ctl-task-cpt","34","1617885","0.0-5.0-0.5","51","1","2025-07-16 08:21:13","1f75c3e559b7213887762d5229550c2b","216.120.189.45","Mozilla/5.0 (Windows NT 10.0; Win64; x64) AppleWebKit/537.36 (KHTML, like Gecko) Chrome/138.0.0.0 Safari/537.36","WebKit","Chrome","138.0.0.0","Windows","10.0","https://app.prolific.com/","en-US,en;q=0.9","673594215b1a0b92d5835525","686e379bc37a29ffa5cdc956","68776027a9debb420028fb76","1","1","673594215b1a0b92d5835525","1","1","2025-07-16T08:53:28.807Z","","","","","","","","","","","","","","win-only","2","g1:SE,g2:NW","0.5","6","0","1907194.2","1078.8","6081.8","26641","1","4","8","6","2","-8","-8","0","0","0","1120.4","3000","-2830","[""left"",""up""]","{""num_key_presses"":7,""num_perfect"":4,""num_errors"":0,""num_randdir"":3,""num_randdir_good_moves"":2,""num_whilered"":0,""num_whileblue"":0,""num_blue"":0,""num_good_moves"":6}","[261.896875,264.303125,0.6,261.896875,264.303125,107.2,261.896875,264.303125,211.6,261.896875,264.303125,312.9,280.896875,287.303125,422.2,282.896875,279.303125,523.7,120.896875,200.303125,623.8,87.896875,147.303125,727,75.896875,118.303125,832.3,44.896875,65.303125,939.5,35.896875,51.303125,1040.7,35.896875,51.303125,1142.7,35.896875,51.303125,1247,43.896875,64.303125,1347.4,156.896875,248.303125,1452.5,249.896875,338.303125,1553.3,249.896875,338.303125,1656.8,249.896875,338.303125,1757.6,249.896875,338.303125,1862.1,249.896875,338.303125,1970,249.896875,338.303125,2072.6,249.896875,338.303125,2173.2,249.896875,338.303125,2273.3,249.896875,338.303125,2378.1,249.896875,338.303125,2482.1,249.896875,338.303125,2582.1,249.896875,338.303125,2692.3,249.896875,338.303125,2797.1,249.896875,338.303125,2902.7,249.896875,338.303125,3003.6,249.896875,338.303125,3107.8,249.896875,338.303125,3212.4,249.896875,338.303125,3317.3,249.896875,338.303125,3420.9,249.896875,338.303125,3522.5,249.896875,338.303125,3622.7,249.896875,338.303125,3723.3,249.896875,338.303125,3826.4,249.896875,338.303125,3927.2,249.896875,338.303125,4027.4,249.896875,338.303125,4127.7,249.896875,338.303125,4243.2,249.896875,338.303125,4347.1,249.896875,338.303125,4448.7,249.896875,338.303125,4551.7,249.896875,338.303125,4652.5,249.896875,338.303125,4752.7,249.896875,338.303125,4855.3,249.896875,338.303125,4958.1]","[1501.8,1501.8,1000,0,501.8,""smooth"",""up"",""up"",""good_move"",3551.5,2049,1597.8,1502.5,451.2,""smooth"",""up"",""up"",""good_move"",6705.4,3153.6,2725.9,3551.9,427.6,""oops"",""up"",""left"",""good_move"",9816.1,3110.4,2689.6,6705.7,420.8,""smooth"",""up"",""up"",""good_move"",12653.2,2836.7,2411.4,9816.5,425.3,""oops"",""left"",""right"",""bad_move"",15158.3,2504.7,2023.6,12653.6,481.1,""smooth"",""left"",""left"",""good_move"",18560,3401.1,3003.8,15158.9,397.3,""oops"",""left"",""left"",""good_move""]","",""
"4403","","<div style=""width:500px;"">
  <p>What determined the result of this run?</p>
  </div>","86","html-slider-response","35","1622289","0.0-5.0-1.5","51","1","2025-07-16 08:21:13","1f75c3e559b7213887762d5229550c2b","216.120.189.45","Mozilla/5.0 (Windows NT 10.0; Win64; x64) AppleWebKit/537.36 (KHTML, like Gecko) Chrome/138.0.0.0 Safari/537.36","WebKit","Chrome","138.0.0.0","Windows","10.0","https://app.prolific.com/","en-US,en;q=0.9","673594215b1a0b92d5835525","686e379bc37a29ffa5cdc956","68776027a9debb420028fb76","1","1","673594215b1a0b92d5835525","1","1","2025-07-16T08:53:33.211Z","","","","","","","","","","","AttribQ","","50","","","","","","","","","","","","","","","","","","","","","","","","","","","","",""
"2287","","<div style=""width:500px;"">
  <p>How much control did you have over the ball?</p>
  </div>","82","html-slider-response","36","1624577","0.0-5.0-2.5","51","1","2025-07-16 08:21:13","1f75c3e559b7213887762d5229550c2b","216.120.189.45","Mozilla/5.0 (Windows NT 10.0; Win64; x64) AppleWebKit/537.36 (KHTML, like Gecko) Chrome/138.0.0.0 Safari/537.36","WebKit","Chrome","138.0.0.0","Windows","10.0","https://app.prolific.com/","en-US,en;q=0.9","673594215b1a0b92d5835525","686e379bc37a29ffa5cdc956","68776027a9debb420028fb76","1","1","673594215b1a0b92d5835525","1","1","2025-07-16T08:53:35.499Z","","","","","","","","","","","ControlQ","","50","","","","","","","","","","","","","","","","","","","","","","","","","","","","",""
"3447","","<div style=""width:500px;"">
  <p>How would you describe your current emotional state?</p>
  </div>","10","html-slider-response","37","1628025","0.0-5.0-3.5","51","1","2025-07-16 08:21:13","1f75c3e559b7213887762d5229550c2b","216.120.189.45","Mozilla/5.0 (Windows NT 10.0; Win64; x64) AppleWebKit/537.36 (KHTML, like Gecko) Chrome/138.0.0.0 Safari/537.36","WebKit","Chrome","138.0.0.0","Windows","10.0","https://app.prolific.com/","en-US,en;q=0.9","673594215b1a0b92d5835525","686e379bc37a29ffa5cdc956","68776027a9debb420028fb76","1","1","673594215b1a0b92d5835525","1","1","2025-07-16T08:53:38.947Z","","","","","","","","","","","StressQ","","50","","","","","","","","","","","","","","","","","","","","","","","","","","","","",""
"3127","","<div style=""width:500px;"">
  <p>What best describes how you currently feel?</p>
  </div>","100","html-slider-response","38","1631153","0.0-5.0-4.5","51","1","2025-07-16 08:21:13","1f75c3e559b7213887762d5229550c2b","216.120.189.45","Mozilla/5.0 (Windows NT 10.0; Win64; x64) AppleWebKit/537.36 (KHTML, like Gecko) Chrome/138.0.0.0 Safari/537.36","WebKit","Chrome","138.0.0.0","Windows","10.0","https://app.prolific.com/","en-US,en;q=0.9","673594215b1a0b92d5835525","686e379bc37a29ffa5cdc956","68776027a9debb420028fb76","1","1","673594215b1a0b92d5835525","1","1","2025-07-16T08:53:42.075Z","","","","","","","","","","","MotivationQ","","50","","","","","","","","","","","","","","","","","","","","","","","","","","","","",""
"","","","","ctl-task-cpt","39","1663972","0.0-5.0-0.6","51","1","2025-07-16 08:21:13","1f75c3e559b7213887762d5229550c2b","216.120.189.45","Mozilla/5.0 (Windows NT 10.0; Win64; x64) AppleWebKit/537.36 (KHTML, like Gecko) Chrome/138.0.0.0 Safari/537.36","WebKit","Chrome","138.0.0.0","Windows","10.0","https://app.prolific.com/","en-US,en;q=0.9","673594215b1a0b92d5835525","686e379bc37a29ffa5cdc956","68776027a9debb420028fb76","1","1","673594215b1a0b92d5835525","1","1","2025-07-16T08:54:14.895Z","","","","","","","","","","","","","","win-only","3","g1:SW,g2:NE","0.4","7","0","1950114.1","1321.5","6333.3","29800.6","1","4","8","6","2","8","8","8","0","0.06060606060606061","1212.7","3000","725","[""up"",""right""]","{""num_key_presses"":6,""num_perfect"":4,""num_errors"":0,""num_randdir"":2,""num_randdir_good_moves"":2,""num_whilered"":0,""num_whileblue"":0,""num_blue"":2,""num_good_moves"":6}","[257.896875,267.303125,1.9,257.896875,267.303125,105,257.896875,267.303125,205.5,257.896875,267.303125,306.1,240.896875,317.303125,406.2,215.896875,352.303125,512.8,215.896875,351.303125,614.1,307.896875,203.303125,715.1,434.896875,19.303125,815.1,434.896875,18.303125,916.1,439.896875,18.303125,1023.5,467.896875,28.303125,1124.4,469.896875,29.303125,1225.6,469.896875,29.303125,1326.4,469.896875,29.303125,1430.8,469.896875,29.303125,1535.5,469.896875,29.303125,1636.5,469.896875,29.303125,1740.6,470.896875,31.303125,1848.1,471.896875,49.303125,1958.4,473.896875,60.303125,2059.3,474.896875,60.303125,2160.3,474.896875,60.303125,2265.1,474.896875,60.303125,2369.7,474.896875,60.303125,2475.2,474.896875,60.303125,2576.7,474.896875,60.303125,2680.5,474.896875,60.303125,2789.6,474.896875,60.303125,2891.2,474.896875,60.303125,2991.7,474.896875,60.303125,3095.2,474.896875,60.303125,3204.3,474.896875,60.303125,3305.4,474.896875,60.303125,3410.1,474.896875,60.303125,3510.2,474.896875,60.303125,3614.9,474.896875,60.303125,3724.3,474.896875,60.303125,3824.6,474.896875,60.303125,3928.8,474.896875,60.303125,4029.5,474.896875,60.303125,4129.8,474.896875,60.303125,4235.4,474.896875,60.303125,4342.5,474.896875,60.303125,4445.3,474.896875,60.303125,4549,474.896875,60.303125,4649.7,474.896875,60.303125,4762.5,474.896875,60.303125,4866.1,474.896875,60.303125,4970.2]","[1494.5,1494.5,1000,0,494.5,""smooth"",""up"",""up"",""good_move"",4997.5,3502,3094.1,1495.5,407.9,""smooth"",""up"",""up"",""good_move"",7174.7,2177,1768.1,4997.7,408.9,""smooth"",""up"",""up"",""good_move"",14402.2,7226.5,2983.8,10970.3,448.1,""smooth"",""right"",""right"",""good_move"",17315.5,2911.9,2473.7,14403.6,438.2,""oops"",""right"",""right"",""good_move"",23369.3,6053.6,2206.3,20712.3,450.7,""oops"",""right"",""right"",""good_move""]","",""
"5595","","<div style=""width:500px;"">
  <p>What determined the result of this run?</p>
  </div>","100","html-slider-response","40","1669569","0.0-5.0-1.6","51","1","2025-07-16 08:21:13","1f75c3e559b7213887762d5229550c2b","216.120.189.45","Mozilla/5.0 (Windows NT 10.0; Win64; x64) AppleWebKit/537.36 (KHTML, like Gecko) Chrome/138.0.0.0 Safari/537.36","WebKit","Chrome","138.0.0.0","Windows","10.0","https://app.prolific.com/","en-US,en;q=0.9","673594215b1a0b92d5835525","686e379bc37a29ffa5cdc956","68776027a9debb420028fb76","1","1","673594215b1a0b92d5835525","1","1","2025-07-16T08:54:20.491Z","","","","","","","","","","","AttribQ","","50","","","","","","","","","","","","","","","","","","","","","","","","","","","","",""
"3208","","<div style=""width:500px;"">
  <p>How much control did you have over the ball?</p>
  </div>","100","html-slider-response","41","1672778","0.0-5.0-2.6","51","1","2025-07-16 08:21:13","1f75c3e559b7213887762d5229550c2b","216.120.189.45","Mozilla/5.0 (Windows NT 10.0; Win64; x64) AppleWebKit/537.36 (KHTML, like Gecko) Chrome/138.0.0.0 Safari/537.36","WebKit","Chrome","138.0.0.0","Windows","10.0","https://app.prolific.com/","en-US,en;q=0.9","673594215b1a0b92d5835525","686e379bc37a29ffa5cdc956","68776027a9debb420028fb76","1","1","673594215b1a0b92d5835525","1","1","2025-07-16T08:54:23.700Z","","","","","","","","","","","ControlQ","","50","","","","","","","","","","","","","","","","","","","","","","","","","","","","",""
"3334","","<div style=""width:500px;"">
  <p>How would you describe your current emotional state?</p>
  </div>","0","html-slider-response","42","1676113","0.0-5.0-3.6","51","1","2025-07-16 08:21:13","1f75c3e559b7213887762d5229550c2b","216.120.189.45","Mozilla/5.0 (Windows NT 10.0; Win64; x64) AppleWebKit/537.36 (KHTML, like Gecko) Chrome/138.0.0.0 Safari/537.36","WebKit","Chrome","138.0.0.0","Windows","10.0","https://app.prolific.com/","en-US,en;q=0.9","673594215b1a0b92d5835525","686e379bc37a29ffa5cdc956","68776027a9debb420028fb76","1","1","673594215b1a0b92d5835525","1","1","2025-07-16T08:54:27.035Z","","","","","","","","","","","StressQ","","50","","","","","","","","","","","","","","","","","","","","","","","","","","","","",""
"3174","","<div style=""width:500px;"">
  <p>What best describes how you currently feel?</p>
  </div>","100","html-slider-response","43","1679288","0.0-5.0-4.6","51","1","2025-07-16 08:21:13","1f75c3e559b7213887762d5229550c2b","216.120.189.45","Mozilla/5.0 (Windows NT 10.0; Win64; x64) AppleWebKit/537.36 (KHTML, like Gecko) Chrome/138.0.0.0 Safari/537.36","WebKit","Chrome","138.0.0.0","Windows","10.0","https://app.prolific.com/","en-US,en;q=0.9","673594215b1a0b92d5835525","686e379bc37a29ffa5cdc956","68776027a9debb420028fb76","1","1","673594215b1a0b92d5835525","1","1","2025-07-16T08:54:30.211Z","","","","","","","","","","","MotivationQ","","50","","","","","","","","","","","","","","","","","","","","","","","","","","","","",""
"","","","","ctl-task-cpt","44","1708433","0.0-5.0-0.7","51","1","2025-07-16 08:21:13","1f75c3e559b7213887762d5229550c2b","216.120.189.45","Mozilla/5.0 (Windows NT 10.0; Win64; x64) AppleWebKit/537.36 (KHTML, like Gecko) Chrome/138.0.0.0 Safari/537.36","WebKit","Chrome","138.0.0.0","Windows","10.0","https://app.prolific.com/","en-US,en;q=0.9","673594215b1a0b92d5835525","686e379bc37a29ffa5cdc956","68776027a9debb420028fb76","1","1","673594215b1a0b92d5835525","1","1","2025-07-16T08:54:59.355Z","","","","","","","","","","","","","","win-only","1","g1:NE,g2:SW","0.3","8","0","1998249.5","967","5978.9","26132.1","1","4","4","6","2","4","4","12","8","0.09090909090909091","1112.5","3000","875","[""down"",""left""]","{""num_key_presses"":6,""num_perfect"":3,""num_errors"":0,""num_randdir"":3,""num_randdir_good_moves"":3,""num_whilered"":0,""num_whileblue"":0,""num_blue"":1,""num_good_moves"":6}","[262.896875,259.303125,0.2,262.896875,259.303125,105.4,262.896875,259.303125,209.7,262.896875,259.303125,311.2,262.896875,259.303125,413.7,262.896875,259.303125,516.9,262.896875,267.303125,622.5,179.896875,375.303125,724.5,104.896875,434.303125,826.1,83.896875,455.303125,929.9,36.896875,473.303125,1034.8,36.896875,473.303125,1138.1,36.896875,473.303125,1240.9,35.896875,473.303125,1346.5,92.896875,456.303125,1449.9,201.896875,406.303125,1555.2,206.896875,391.303125,1656.4,251.896875,343.303125,1761.5,430.896875,237.303125,1864.2,433.896875,229.303125,1970.2,432.896875,228.303125,2077.7,432.896875,228.303125,2178.6,432.896875,228.303125,2280.5,432.896875,228.303125,2389.2,432.896875,228.303125,2492,432.896875,228.303125,2594.7,432.896875,228.303125,2699.3,432.896875,228.303125,2800.1,432.896875,228.303125,2906.1,432.896875,228.303125,3010.1,432.896875,228.303125,3114.1,432.896875,228.303125,3215.3,432.896875,228.303125,3320.1,432.896875,228.303125,3424.8,432.896875,228.303125,3525.5,432.896875,228.303125,3625.9,432.896875,228.303125,3729.7,432.896875,228.303125,3830.4,432.896875,228.303125,3940.7,432.896875,228.303125,4043.3,432.896875,228.303125,4149.5,432.896875,228.303125,4253.9,432.896875,228.303125,4355.3,432.896875,228.303125,4458.7,432.896875,228.303125,4562.3,432.896875,228.303125,4665.2,432.896875,228.303125,4765.5,432.896875,228.303125,4866.6,432.896875,228.303125,4983.6]","[1550.4,1550.4,1000,0,550.4,""smooth"",""down"",""down"",""good_move"",8893.5,7342.3,2910.4,5553.9,429.2,""oops"",""down"",""down"",""good_move"",11298,2404.1,1893.5,8893.9,510.6,""oops"",""down"",""left"",""good_move"",14824.5,3525.9,3086.8,11298.6,439.1,""smooth"",""down"",""down"",""good_move"",17723.7,2898.7,2519.1,14825.1,379.6,""oops"",""left"",""left"",""good_move"",20036.1,2311.8,1921.1,17724.3,390.7,""smooth"",""left"",""left"",""good_move""]","",""
"3582","","<div style=""width:500px;"">
  <p>What determined the result of this run?</p>
  </div>","100","html-slider-response","45","1712017","0.0-5.0-1.7","51","1","2025-07-16 08:21:13","1f75c3e559b7213887762d5229550c2b","216.120.189.45","Mozilla/5.0 (Windows NT 10.0; Win64; x64) AppleWebKit/537.36 (KHTML, like Gecko) Chrome/138.0.0.0 Safari/537.36","WebKit","Chrome","138.0.0.0","Windows","10.0","https://app.prolific.com/","en-US,en;q=0.9","673594215b1a0b92d5835525","686e379bc37a29ffa5cdc956","68776027a9debb420028fb76","1","1","673594215b1a0b92d5835525","1","1","2025-07-16T08:55:02.939Z","","","","","","","","","","","AttribQ","","50","","","","","","","","","","","","","","","","","","","","","","","","","","","","",""
"2678","","<div style=""width:500px;"">
  <p>How much control did you have over the ball?</p>
  </div>","96","html-slider-response","46","1714697","0.0-5.0-2.7","51","1","2025-07-16 08:21:13","1f75c3e559b7213887762d5229550c2b","216.120.189.45","Mozilla/5.0 (Windows NT 10.0; Win64; x64) AppleWebKit/537.36 (KHTML, like Gecko) Chrome/138.0.0.0 Safari/537.36","WebKit","Chrome","138.0.0.0","Windows","10.0","https://app.prolific.com/","en-US,en;q=0.9","673594215b1a0b92d5835525","686e379bc37a29ffa5cdc956","68776027a9debb420028fb76","1","1","673594215b1a0b92d5835525","1","1","2025-07-16T08:55:05.619Z","","","","","","","","","","","ControlQ","","50","","","","","","","","","","","","","","","","","","","","","","","","","","","","",""
"2912","","<div style=""width:500px;"">
  <p>How would you describe your current emotional state?</p>
  </div>","0","html-slider-response","47","1717610","0.0-5.0-3.7","51","1","2025-07-16 08:21:13","1f75c3e559b7213887762d5229550c2b","216.120.189.45","Mozilla/5.0 (Windows NT 10.0; Win64; x64) AppleWebKit/537.36 (KHTML, like Gecko) Chrome/138.0.0.0 Safari/537.36","WebKit","Chrome","138.0.0.0","Windows","10.0","https://app.prolific.com/","en-US,en;q=0.9","673594215b1a0b92d5835525","686e379bc37a29ffa5cdc956","68776027a9debb420028fb76","1","1","673594215b1a0b92d5835525","1","1","2025-07-16T08:55:08.532Z","","","","","","","","","","","StressQ","","50","","","","","","","","","","","","","","","","","","","","","","","","","","","","",""
"2431","","<div style=""width:500px;"">
  <p>What best describes how you currently feel?</p>
  </div>","100","html-slider-response","48","1720042","0.0-5.0-4.7","51","1","2025-07-16 08:21:13","1f75c3e559b7213887762d5229550c2b","216.120.189.45","Mozilla/5.0 (Windows NT 10.0; Win64; x64) AppleWebKit/537.36 (KHTML, like Gecko) Chrome/138.0.0.0 Safari/537.36","WebKit","Chrome","138.0.0.0","Windows","10.0","https://app.prolific.com/","en-US,en;q=0.9","673594215b1a0b92d5835525","686e379bc37a29ffa5cdc956","68776027a9debb420028fb76","1","1","673594215b1a0b92d5835525","1","1","2025-07-16T08:55:10.964Z","","","","","","","","","","","MotivationQ","","50","","","","","","","","","","","","","","","","","","","","","","","","","","","","",""
"","","","","ctl-task-cpt","49","1757200","0.0-5.0-0.8","51","1","2025-07-16 08:21:13","1f75c3e559b7213887762d5229550c2b","216.120.189.45","Mozilla/5.0 (Windows NT 10.0; Win64; x64) AppleWebKit/537.36 (KHTML, like Gecko) Chrome/138.0.0.0 Safari/537.36","WebKit","Chrome","138.0.0.0","Windows","10.0","https://app.prolific.com/","en-US,en;q=0.9","673594215b1a0b92d5835525","686e379bc37a29ffa5cdc956","68776027a9debb420028fb76","1","1","673594215b1a0b92d5835525","1","1","2025-07-16T08:55:48.122Z","","","","","","","","","","","","","","win-only","3","g1:SW,g2:NE","0.2","9","0","2039003.4","941.9","5943.1","34148.4","1","4","4","6","2","-4","-4","8","12","0.06060606060606061","991.7","3000","-2460","[""up"",""right""]","{""num_key_presses"":7,""num_perfect"":2,""num_errors"":0,""num_randdir"":5,""num_randdir_good_moves"":2,""num_whilered"":0,""num_whileblue"":0,""num_blue"":1,""num_good_moves"":4}","[257.896875,267.303125,0.4,257.896875,267.303125,110.4,257.896875,267.303125,213.3,257.896875,267.303125,315.3,303.896875,245.303125,418.6,368.896875,197.303125,519.4,394.896875,166.303125,619.4,468.896875,80.303125,733.2,488.896875,58.303125,833.8,496.896875,45.303125,933.9,496.896875,45.303125,1034.1,496.896875,45.303125,1140.4,496.896875,45.303125,1244.4,468.896875,114.303125,1344.6,432.896875,208.303125,1450,387.896875,280.303125,1554.7,330.896875,312.303125,1662.2,301.896875,323.303125,1763.9,301.896875,323.303125,1864.9,301.896875,323.303125,1965.1,301.896875,323.303125,2068.5,301.896875,323.303125,2168.9,301.896875,323.303125,2273.3,301.896875,322.303125,2374,389.896875,231.303125,2476.5,414.896875,184.303125,2576.9,455.896875,105.303125,2681,475.896875,72.303125,2788.7,486.896875,57.303125,2894.2,486.896875,57.303125,2994.8,486.896875,57.303125,3100,486.896875,58.303125,3201.2,447.896875,136.303125,3311.7,415.896875,190.303125,3414.8,409.896875,201.303125,3531.5,409.896875,202.303125,3634.5,409.896875,202.303125,3735,409.896875,202.303125,3836,409.896875,202.303125,3945.2,409.896875,202.303125,4045.6,409.896875,202.303125,4148.9,409.896875,202.303125,4249.9,409.896875,202.303125,4354.1,409.896875,202.303125,4460.2,409.896875,202.303125,4563.6,409.896875,202.303125,4668.2,409.896875,202.303125,4773.5,409.896875,202.303125,4880.2,409.896875,202.303125,4984.4]","[1456,1456,1000,0,456,""smooth"",""up"",""up"",""good_move"",8455.7,6999.2,2501.5,5531.5,422.7,""oops"",""up"",""up"",""good_move"",10826.8,2370.6,1761.4,8456.3,609.1,""oops"",""up"",""down"",""bad_move"",14241.4,3413.1,3015.6,10828.3,397.5,""oops"",""right"",""down"",""bad_move"",17524.2,3282.4,2811.6,14241.8,470.8,""oops"",""right"",""up"",""good_move"",21311.4,3786.4,3405.9,17525,380.6,""smooth"",""right"",""right"",""good_move"",24616.9,3304.4,2959.1,21312.5,345.3,""oops"",""right"",""left"",""bad_move""]","",""
"4600","","<div style=""width:500px;"">
  <p>What determined the result of this run?</p>
  </div>","79","html-slider-response","50","1761801","0.0-5.0-1.8","51","1","2025-07-16 08:21:13","1f75c3e559b7213887762d5229550c2b","216.120.189.45","Mozilla/5.0 (Windows NT 10.0; Win64; x64) AppleWebKit/537.36 (KHTML, like Gecko) Chrome/138.0.0.0 Safari/537.36","WebKit","Chrome","138.0.0.0","Windows","10.0","https://app.prolific.com/","en-US,en;q=0.9","673594215b1a0b92d5835525","686e379bc37a29ffa5cdc956","68776027a9debb420028fb76","1","1","673594215b1a0b92d5835525","1","1","2025-07-16T08:55:52.724Z","","","","","","","","","","","AttribQ","","50","","","","","","","","","","","","","","","","","","","","","","","","","","","","",""
"1837","","<div style=""width:500px;"">
  <p>How much control did you have over the ball?</p>
  </div>","69","html-slider-response","51","1763641","0.0-5.0-2.8","51","1","2025-07-16 08:21:13","1f75c3e559b7213887762d5229550c2b","216.120.189.45","Mozilla/5.0 (Windows NT 10.0; Win64; x64) AppleWebKit/537.36 (KHTML, like Gecko) Chrome/138.0.0.0 Safari/537.36","WebKit","Chrome","138.0.0.0","Windows","10.0","https://app.prolific.com/","en-US,en;q=0.9","673594215b1a0b92d5835525","686e379bc37a29ffa5cdc956","68776027a9debb420028fb76","1","1","673594215b1a0b92d5835525","1","1","2025-07-16T08:55:54.563Z","","","","","","","","","","","ControlQ","","50","","","","","","","","","","","","","","","","","","","","","","","","","","","","",""
"2848","","<div style=""width:500px;"">
  <p>How would you describe your current emotional state?</p>
  </div>","13","html-slider-response","52","1766491","0.0-5.0-3.8","51","1","2025-07-16 08:21:13","1f75c3e559b7213887762d5229550c2b","216.120.189.45","Mozilla/5.0 (Windows NT 10.0; Win64; x64) AppleWebKit/537.36 (KHTML, like Gecko) Chrome/138.0.0.0 Safari/537.36","WebKit","Chrome","138.0.0.0","Windows","10.0","https://app.prolific.com/","en-US,en;q=0.9","673594215b1a0b92d5835525","686e379bc37a29ffa5cdc956","68776027a9debb420028fb76","1","1","673594215b1a0b92d5835525","1","1","2025-07-16T08:55:57.413Z","","","","","","","","","","","StressQ","","50","","","","","","","","","","","","","","","","","","","","","","","","","","","","",""
"2557","","<div style=""width:500px;"">
  <p>What best describes how you currently feel?</p>
  </div>","100","html-slider-response","53","1769049","0.0-5.0-4.8","51","1","2025-07-16 08:21:13","1f75c3e559b7213887762d5229550c2b","216.120.189.45","Mozilla/5.0 (Windows NT 10.0; Win64; x64) AppleWebKit/537.36 (KHTML, like Gecko) Chrome/138.0.0.0 Safari/537.36","WebKit","Chrome","138.0.0.0","Windows","10.0","https://app.prolific.com/","en-US,en;q=0.9","673594215b1a0b92d5835525","686e379bc37a29ffa5cdc956","68776027a9debb420028fb76","1","1","673594215b1a0b92d5835525","1","1","2025-07-16T08:55:59.972Z","","","","","","","","","","","MotivationQ","","50","","","","","","","","","","","","","","","","","","","","","","","","","","","","",""
"","","","","ctl-task-cpt","54","1808793","0.0-5.0-0.9","51","1","2025-07-16 08:21:13","1f75c3e559b7213887762d5229550c2b","216.120.189.45","Mozilla/5.0 (Windows NT 10.0; Win64; x64) AppleWebKit/537.36 (KHTML, like Gecko) Chrome/138.0.0.0 Safari/537.36","WebKit","Chrome","138.0.0.0","Windows","10.0","https://app.prolific.com/","en-US,en;q=0.9","673594215b1a0b92d5835525","686e379bc37a29ffa5cdc956","68776027a9debb420028fb76","1","1","673594215b1a0b92d5835525","1","1","2025-07-16T08:56:39.716Z","","","","","","","","","","","","","","win-only","1","g1:NE,g2:SW","0.4","10","0","2088011","1414.1","6417","36722.1","1","4","8","6","2","-8","-9","0","8","0","1104.1","3000","-2320","[""down"",""left""]","{""num_key_presses"":9,""num_perfect"":4,""num_errors"":1,""num_randdir"":4,""num_randdir_good_moves"":3,""num_whilered"":0,""num_whileblue"":1,""num_blue"":2,""num_good_moves"":7}","[258.896875,255.303125,0.2,258.896875,255.303125,109.5,258.896875,255.303125,213.3,258.896875,261.303125,316.2,269.896875,275.303125,418.2,290.896875,277.303125,519.4,283.896875,271.303125,631.8,136.896875,373.303125,732,61.896875,439.303125,836.5,55.896875,444.303125,937.5,52.896875,449.303125,1042.9,50.896875,453.303125,1146,50.896875,454.303125,1259.3,89.896875,461.303125,1365.3,303.896875,482.303125,1466.6,351.896875,482.303125,1569.8,353.896875,481.303125,1672.7,353.896875,481.303125,1780.6,353.896875,481.303125,1884.7,353.896875,481.303125,1988.8,353.896875,481.303125,2098.4,353.896875,481.303125,2200.6,353.896875,481.303125,2303.3,353.896875,481.303125,2409.1,353.896875,481.303125,2509.9,353.896875,481.303125,2613.2,353.896875,481.303125,2720,353.896875,481.303125,2821.4,353.896875,481.303125,2922.1,353.896875,481.303125,3029.6,353.896875,481.303125,3129.6,353.896875,481.303125,3232,353.896875,481.303125,3332.6,353.896875,481.303125,3433.7,353.896875,481.303125,3536.6,353.896875,481.303125,3637.4,353.896875,481.303125,3749.6,353.896875,481.303125,3853.3,353.896875,481.303125,3964.3,353.896875,481.303125,4066.8,353.896875,481.303125,4172.6,353.896875,481.303125,4281.2,353.896875,481.303125,4382.2,353.896875,481.303125,4482.7,353.896875,481.303125,4593.3,353.896875,481.303125,4701.8,353.896875,481.303125,4813,353.896875,481.303125,4917.8]","[5013.3,5013.3,2447,2008.9,557.4,""smooth"",""down"",""down"",""good_move"",8031.2,3017.2,2573.6,5014,443.6,""smooth"",""down"",""down"",""good_move"",10365.7,2333.7,1885.2,8032,448.5,""oops"",""down"",""down"",""good_move"",13111.8,2745.2,2341.6,10366.6,403.6,""smooth"",""left"",""left"",""good_move"",15924.5,2812.3,2377.3,13112.3,434.9,""oops"",""left"",""right"",""bad_move"",18674.6,2749.3,2384.4,15925.4,364.8,""while_blue"",""left"",""right"",""bad_move"",21349,2673.9,2195,18675.1,478.9,""smooth"",""left"",""left"",""good_move"",24847.6,3497.5,3077.2,21350.2,420.3,""oops"",""left"",""left"",""good_move"",27676,2827.6,2363.5,24848.4,464.1,""oops"",""left"",""left"",""good_move""]","",""
"79390","","<div style=""width:500px;"">
  <p>What determined the result of this run?</p>
  </div>","81","html-slider-response","55","1888185","0.0-5.0-1.9","51","1","2025-07-16 08:21:13","1f75c3e559b7213887762d5229550c2b","216.120.189.45","Mozilla/5.0 (Windows NT 10.0; Win64; x64) AppleWebKit/537.36 (KHTML, like Gecko) Chrome/138.0.0.0 Safari/537.36","WebKit","Chrome","138.0.0.0","Windows","10.0","https://app.prolific.com/","en-US,en;q=0.9","673594215b1a0b92d5835525","686e379bc37a29ffa5cdc956","68776027a9debb420028fb76","1","1","673594215b1a0b92d5835525","1","1","2025-07-16T08:57:59.108Z","","","","","","","","","","","AttribQ","","50","","","","","","","","","","","","","","","","","","","","","","","","","","","","",""
"2198","","<div style=""width:500px;"">
  <p>How much control did you have over the ball?</p>
  </div>","75","html-slider-response","56","1890385","0.0-5.0-2.9","51","1","2025-07-16 08:21:13","1f75c3e559b7213887762d5229550c2b","216.120.189.45","Mozilla/5.0 (Windows NT 10.0; Win64; x64) AppleWebKit/537.36 (KHTML, like Gecko) Chrome/138.0.0.0 Safari/537.36","WebKit","Chrome","138.0.0.0","Windows","10.0","https://app.prolific.com/","en-US,en;q=0.9","673594215b1a0b92d5835525","686e379bc37a29ffa5cdc956","68776027a9debb420028fb76","1","1","673594215b1a0b92d5835525","1","1","2025-07-16T08:58:01.308Z","","","","","","","","","","","ControlQ","","50","","","","","","","","","","","","","","","","","","","","","","","","","","","","",""
"4630","","<div style=""width:500px;"">
  <p>How would you describe your current emotional state?</p>
  </div>","19","html-slider-response","57","1895017","0.0-5.0-3.9","51","1","2025-07-16 08:21:13","1f75c3e559b7213887762d5229550c2b","216.120.189.45","Mozilla/5.0 (Windows NT 10.0; Win64; x64) AppleWebKit/537.36 (KHTML, like Gecko) Chrome/138.0.0.0 Safari/537.36","WebKit","Chrome","138.0.0.0","Windows","10.0","https://app.prolific.com/","en-US,en;q=0.9","673594215b1a0b92d5835525","686e379bc37a29ffa5cdc956","68776027a9debb420028fb76","1","1","673594215b1a0b92d5835525","1","1","2025-07-16T08:58:05.939Z","","","","","","","","","","","StressQ","","50","","","","","","","","","","","","","","","","","","","","","","","","","","","","",""
"3367","","<div style=""width:500px;"">
  <p>What best describes how you currently feel?</p>
  </div>","93","html-slider-response","58","1898385","0.0-5.0-4.9","51","1","2025-07-16 08:21:13","1f75c3e559b7213887762d5229550c2b","216.120.189.45","Mozilla/5.0 (Windows NT 10.0; Win64; x64) AppleWebKit/537.36 (KHTML, like Gecko) Chrome/138.0.0.0 Safari/537.36","WebKit","Chrome","138.0.0.0","Windows","10.0","https://app.prolific.com/","en-US,en;q=0.9","673594215b1a0b92d5835525","686e379bc37a29ffa5cdc956","68776027a9debb420028fb76","1","1","673594215b1a0b92d5835525","1","1","2025-07-16T08:58:09.307Z","","","","","","","","","","","MotivationQ","","50","","","","","","","","","","","","","","","","","","","","","","","","","","","","",""
"","","","","ctl-task-cpt","59","1928269","0.0-5.0-0.10","51","1","2025-07-16 08:21:13","1f75c3e559b7213887762d5229550c2b","216.120.189.45","Mozilla/5.0 (Windows NT 10.0; Win64; x64) AppleWebKit/537.36 (KHTML, like Gecko) Chrome/138.0.0.0 Safari/537.36","WebKit","Chrome","138.0.0.0","Windows","10.0","https://app.prolific.com/","en-US,en;q=0.9","673594215b1a0b92d5835525","686e379bc37a29ffa5cdc956","68776027a9debb420028fb76","1","1","673594215b1a0b92d5835525","1","1","2025-07-16T08:58:39.192Z","","","","","","","","","","","","","","win-only","3","g1:SW,g2:NE","0.5","11","0","2217346.4","1632.5","6635.8","26868.3","1","4","4","6","2","4","4","4","0","0.030303030303030304","1302.8","3000","1230","[""up"",""right""]","{""num_key_presses"":6,""num_perfect"":3,""num_errors"":0,""num_randdir"":3,""num_randdir_good_moves"":3,""num_whilered"":0,""num_whileblue"":0,""num_blue"":1,""num_good_moves"":6}","[256.896875,260.303125,0.4,256.896875,260.303125,103.4,256.896875,260.303125,206.1,259.896875,259.303125,307.9,264.896875,259.303125,408.1,269.896875,258.303125,518.8,271.896875,302.303125,620.8,252.896875,346.303125,724,298.896875,293.303125,831.1,405.896875,164.303125,933.1,439.896875,101.303125,1036.6,465.896875,42.303125,1140.1,467.896875,35.303125,1240.7,467.896875,35.303125,1340.8,467.896875,35.303125,1449.6,467.896875,35.303125,1552.4,433.896875,95.303125,1656.3,379.896875,223.303125,1756.6,366.896875,294.303125,1858.4,364.896875,305.303125,1960.5,364.896875,305.303125,2069.4,363.896875,302.303125,2176.2,363.896875,302.303125,2282.8,363.896875,302.303125,2387.8,363.896875,302.303125,2493.4,363.896875,302.303125,2599.1,363.896875,302.303125,2704.7,363.896875,302.303125,2810.6,363.896875,302.303125,2915.1,363.896875,302.303125,3022.1,363.896875,302.303125,3124.7,363.896875,302.303125,3228.9,363.896875,302.303125,3339.9,363.896875,301.303125,3442.7,363.896875,301.303125,3544.2,363.896875,301.303125,3656.8,363.896875,301.303125,3759.5,363.896875,301.303125,3873.1,363.896875,301.303125,3974.4,363.896875,301.303125,4079.8,363.896875,301.303125,4180.7,363.896875,301.303125,4283,363.896875,301.303125,4391.3,363.896875,301.303125,4492.1,363.896875,301.303125,4593.8,363.896875,301.303125,4694.2,363.896875,301.303125,4805.9,363.896875,301.303125,4906.1]","[1482.2,1482.2,1000,0,482.2,""oops"",""up"",""right"",""good_move"",4465.8,2983,2569.5,1482.8,413.5,""smooth"",""up"",""up"",""good_move"",7899.5,3432.6,2930.1,4467,502.4,""smooth"",""up"",""up"",""good_move"",11069.3,3169.2,2812.2,7900.1,357,""oops"",""up"",""up"",""good_move"",14415.5,3345.9,2901,11069.6,445,""oops"",""right"",""right"",""good_move"",20117.8,5701.8,2129.9,17604.4,383.5,""smooth"",""right"",""right"",""good_move""]","",""
"4610","","<div style=""width:500px;"">
  <p>What determined the result of this run?</p>
  </div>","100","html-slider-response","60","1932882","0.0-5.0-1.10","51","1","2025-07-16 08:21:13","1f75c3e559b7213887762d5229550c2b","216.120.189.45","Mozilla/5.0 (Windows NT 10.0; Win64; x64) AppleWebKit/537.36 (KHTML, like Gecko) Chrome/138.0.0.0 Safari/537.36","WebKit","Chrome","138.0.0.0","Windows","10.0","https://app.prolific.com/","en-US,en;q=0.9","673594215b1a0b92d5835525","686e379bc37a29ffa5cdc956","68776027a9debb420028fb76","1","1","673594215b1a0b92d5835525","1","1","2025-07-16T08:58:43.804Z","","","","","","","","","","","AttribQ","","50","","","","","","","","","","","","","","","","","","","","","","","","","","","","",""
"2501","","<div style=""width:500px;"">
  <p>How much control did you have over the ball?</p>
  </div>","100","html-slider-response","61","1935385","0.0-5.0-2.10","51","1","2025-07-16 08:21:13","1f75c3e559b7213887762d5229550c2b","216.120.189.45","Mozilla/5.0 (Windows NT 10.0; Win64; x64) AppleWebKit/537.36 (KHTML, like Gecko) Chrome/138.0.0.0 Safari/537.36","WebKit","Chrome","138.0.0.0","Windows","10.0","https://app.prolific.com/","en-US,en;q=0.9","673594215b1a0b92d5835525","686e379bc37a29ffa5cdc956","68776027a9debb420028fb76","1","1","673594215b1a0b92d5835525","1","1","2025-07-16T08:58:46.307Z","","","","","","","","","","","ControlQ","","50","","","","","","","","","","","","","","","","","","","","","","","","","","","","",""
"1918","","<div style=""width:500px;"">
  <p>How would you describe your current emotional state?</p>
  </div>","0","html-slider-response","62","1937305","0.0-5.0-3.10","51","1","2025-07-16 08:21:13","1f75c3e559b7213887762d5229550c2b","216.120.189.45","Mozilla/5.0 (Windows NT 10.0; Win64; x64) AppleWebKit/537.36 (KHTML, like Gecko) Chrome/138.0.0.0 Safari/537.36","WebKit","Chrome","138.0.0.0","Windows","10.0","https://app.prolific.com/","en-US,en;q=0.9","673594215b1a0b92d5835525","686e379bc37a29ffa5cdc956","68776027a9debb420028fb76","1","1","673594215b1a0b92d5835525","1","1","2025-07-16T08:58:48.227Z","","","","","","","","","","","StressQ","","50","","","","","","","","","","","","","","","","","","","","","","","","","","","","",""
"1983","","<div style=""width:500px;"">
  <p>What best describes how you currently feel?</p>
  </div>","100","html-slider-response","63","1939289","0.0-5.0-4.10","51","1","2025-07-16 08:21:13","1f75c3e559b7213887762d5229550c2b","216.120.189.45","Mozilla/5.0 (Windows NT 10.0; Win64; x64) AppleWebKit/537.36 (KHTML, like Gecko) Chrome/138.0.0.0 Safari/537.36","WebKit","Chrome","138.0.0.0","Windows","10.0","https://app.prolific.com/","en-US,en;q=0.9","673594215b1a0b92d5835525","686e379bc37a29ffa5cdc956","68776027a9debb420028fb76","1","1","673594215b1a0b92d5835525","1","1","2025-07-16T08:58:50.211Z","","","","","","","","","","","MotivationQ","","50","","","","","","","","","","","","","","","","","","","","","","","","","","","","",""
"","","","","ctl-task-cpt","64","1969031","0.0-5.0-0.11","51","1","2025-07-16 08:21:13","1f75c3e559b7213887762d5229550c2b","216.120.189.45","Mozilla/5.0 (Windows NT 10.0; Win64; x64) AppleWebKit/537.36 (KHTML, like Gecko) Chrome/138.0.0.0 Safari/537.36","WebKit","Chrome","138.0.0.0","Windows","10.0","https://app.prolific.com/","en-US,en;q=0.9","673594215b1a0b92d5835525","686e379bc37a29ffa5cdc956","68776027a9debb420028fb76","1","1","673594215b1a0b92d5835525","1","1","2025-07-16T08:59:19.953Z","","","","","","","","","","","","","","win-only","0","g1:NW,g2:SE","0.6","12","0","2258250.9","1310","6313.8","26722.3","1","4","8","6","2","8","8","12","4","0.09090909090909091","857.1","3000","1425","[""down"",""right""]","{""num_key_presses"":6,""num_perfect"":6,""num_errors"":0,""num_randdir"":0,""num_randdir_good_moves"":0,""num_whilered"":0,""num_whileblue"":0,""num_blue"":1,""num_good_moves"":6}","[264.896875,259.303125,0.4,264.896875,259.303125,105.3,264.896875,259.303125,206.1,269.896875,265.303125,312.2,361.896875,365.303125,418.4,418.896875,409.303125,521.1,442.896875,427.303125,628.9,481.896875,454.303125,729.1,496.896875,465.303125,835.5,497.896875,467.303125,940.9,497.896875,467.303125,1041.1,497.896875,465.303125,1141.3,496.896875,459.303125,1242.8,495.896875,442.303125,1343.3,495.896875,442.303125,1448.4,495.896875,442.303125,1550.4,495.896875,442.303125,1654,495.896875,442.303125,1755.8,495.896875,442.303125,1857.8,495.896875,442.303125,1962.2,495.896875,442.303125,2070,495.896875,442.303125,2171.4,495.896875,442.303125,2272.5,495.896875,442.303125,2374.1,495.896875,442.303125,2475.7,495.896875,442.303125,2577.1,495.896875,442.303125,2683.3,495.896875,442.303125,2788.7,495.896875,442.303125,2891.7,495.896875,442.303125,3000.5,495.896875,442.303125,3104.5,495.896875,442.303125,3208.4,495.896875,442.303125,3312.7,495.896875,442.303125,3414.5,495.896875,442.303125,3525.2,495.896875,442.303125,3627.7,495.896875,442.303125,3729.8,495.896875,442.303125,3836.9,495.896875,442.303125,3941.5,495.896875,442.303125,4046.8,495.896875,442.303125,4158.1,495.896875,442.303125,4260.4,495.896875,442.303125,4361.5,495.896875,442.303125,4464.9,495.896875,442.303125,4571.2,495.896875,442.303125,4674.4,495.896875,442.303125,4777.2,495.896875,442.303125,4883.9,495.896875,442.303125,4984.1]","[4564,4564,2079.3,2002.7,482,""smooth"",""right"",""right"",""good_move"",8066.1,3501.4,3079.8,4564.7,421.6,""smooth"",""right"",""right"",""good_move"",10801.2,2734.2,2258.3,8067,475.9,""smooth"",""right"",""right"",""good_move"",14335.4,3533.8,3118,10801.6,415.8,""smooth"",""down"",""down"",""good_move"",17088.7,2752.6,2333,14336.1,419.6,""smooth"",""down"",""down"",""good_move"",20175.3,3086.2,2635.7,17089.1,450.5,""smooth"",""down"",""down"",""good_move""]","",""
"4400","","<div style=""width:500px;"">
  <p>What determined the result of this run?</p>
  </div>","100","html-slider-response","65","1973432","0.0-5.0-1.11","51","1","2025-07-16 08:21:13","1f75c3e559b7213887762d5229550c2b","216.120.189.45","Mozilla/5.0 (Windows NT 10.0; Win64; x64) AppleWebKit/537.36 (KHTML, like Gecko) Chrome/138.0.0.0 Safari/537.36","WebKit","Chrome","138.0.0.0","Windows","10.0","https://app.prolific.com/","en-US,en;q=0.9","673594215b1a0b92d5835525","686e379bc37a29ffa5cdc956","68776027a9debb420028fb76","1","1","673594215b1a0b92d5835525","1","1","2025-07-16T08:59:24.355Z","","","","","","","","","","","AttribQ","","50","","","","","","","","","","","","","","","","","","","","","","","","","","","","",""
"2319","","<div style=""width:500px;"">
  <p>How much control did you have over the ball?</p>
  </div>","100","html-slider-response","66","1975753","0.0-5.0-2.11","51","1","2025-07-16 08:21:13","1f75c3e559b7213887762d5229550c2b","216.120.189.45","Mozilla/5.0 (Windows NT 10.0; Win64; x64) AppleWebKit/537.36 (KHTML, like Gecko) Chrome/138.0.0.0 Safari/537.36","WebKit","Chrome","138.0.0.0","Windows","10.0","https://app.prolific.com/","en-US,en;q=0.9","673594215b1a0b92d5835525","686e379bc37a29ffa5cdc956","68776027a9debb420028fb76","1","1","673594215b1a0b92d5835525","1","1","2025-07-16T08:59:26.675Z","","","","","","","","","","","ControlQ","","50","","","","","","","","","","","","","","","","","","","","","","","","","","","","",""
"3608","","<div style=""width:500px;"">
  <p>How would you describe your current emotional state?</p>
  </div>","0","html-slider-response","67","1979363","0.0-5.0-3.11","51","1","2025-07-16 08:21:13","1f75c3e559b7213887762d5229550c2b","216.120.189.45","Mozilla/5.0 (Windows NT 10.0; Win64; x64) AppleWebKit/537.36 (KHTML, like Gecko) Chrome/138.0.0.0 Safari/537.36","WebKit","Chrome","138.0.0.0","Windows","10.0","https://app.prolific.com/","en-US,en;q=0.9","673594215b1a0b92d5835525","686e379bc37a29ffa5cdc956","68776027a9debb420028fb76","1","1","673594215b1a0b92d5835525","1","1","2025-07-16T08:59:30.285Z","","","","","","","","","","","StressQ","","50","","","","","","","","","","","","","","","","","","","","","","","","","","","","",""
"2786","","<div style=""width:500px;"">
  <p>What best describes how you currently feel?</p>
  </div>","100","html-slider-response","68","1982153","0.0-5.0-4.11","51","1","2025-07-16 08:21:13","1f75c3e559b7213887762d5229550c2b","216.120.189.45","Mozilla/5.0 (Windows NT 10.0; Win64; x64) AppleWebKit/537.36 (KHTML, like Gecko) Chrome/138.0.0.0 Safari/537.36","WebKit","Chrome","138.0.0.0","Windows","10.0","https://app.prolific.com/","en-US,en;q=0.9","673594215b1a0b92d5835525","686e379bc37a29ffa5cdc956","68776027a9debb420028fb76","1","1","673594215b1a0b92d5835525","1","1","2025-07-16T08:59:33.075Z","","","","","","","","","","","MotivationQ","","50","","","","","","","","","","","","","","","","","","","","","","","","","","","","",""
"","","","","ctl-task-cpt","69","2016317","0.0-5.0-0.12","51","1","2025-07-16 08:21:13","1f75c3e559b7213887762d5229550c2b","216.120.189.45","Mozilla/5.0 (Windows NT 10.0; Win64; x64) AppleWebKit/537.36 (KHTML, like Gecko) Chrome/138.0.0.0 Safari/537.36","WebKit","Chrome","138.0.0.0","Windows","10.0","https://app.prolific.com/","en-US,en;q=0.9","673594215b1a0b92d5835525","686e379bc37a29ffa5cdc956","68776027a9debb420028fb76","1","1","673594215b1a0b92d5835525","1","1","2025-07-16T09:00:07.239Z","","","","","","","","","","","","","","win-only","0","g1:NW,g2:SE","0.7","13","0","2301114.9","1166.8","6176.9","31137.3","1","4","4","6","2","4","4","16","12","0.12121212121212122","926.3","3000","2195","[""down"",""right""]","{""num_key_presses"":6,""num_perfect"":5,""num_errors"":0,""num_randdir"":1,""num_randdir_good_moves"":1,""num_whilered"":0,""num_whileblue"":0,""num_blue"":2,""num_good_moves"":6}","[256.896875,264.303125,0.6,256.896875,264.303125,117.3,256.896875,264.303125,224.6,256.896875,264.303125,342.7,297.896875,335.303125,461.7,350.896875,408.303125,580.3,447.896875,465.303125,696.2,500.896875,486.303125,812.3,507.896875,490.303125,922.6,507.896875,490.303125,1037.3,507.896875,490.303125,1149.8,493.896875,483.303125,1263.5,484.896875,480.303125,1375.3,482.896875,478.303125,1484,478.896875,465.303125,1596.4,524.896875,385.303125,1713.6,631.896875,261.303125,1827.1,642.896875,243.303125,1944.1,642.896875,243.303125,2051.3,642.896875,243.303125,2159.9,642.896875,243.303125,2270.1,642.896875,243.303125,2378.9,642.896875,243.303125,2487.2,642.896875,243.303125,2598.5,642.896875,243.303125,2708.9,642.896875,243.303125,2817.3,642.896875,243.303125,2929.1,642.896875,243.303125,3039.6,642.896875,243.303125,3156.1,642.896875,243.303125,3264.1,642.896875,243.303125,3371.7,642.896875,243.303125,3480.9,642.896875,243.303125,3591.6,642.896875,243.303125,3698.5,642.896875,243.303125,3810.6,642.896875,243.303125,3916.5,642.896875,243.303125,4026.3,642.896875,243.303125,4139.4,642.896875,243.303125,4251.5,642.896875,243.303125,4361.7,642.896875,243.303125,4479.4,642.896875,243.303125,4591.4,642.896875,243.303125,4697.9,642.896875,243.303125,4804.1,642.896875,243.303125,4918.3]","[1422.6,1422.6,1000,0,422.6,""smooth"",""down"",""down"",""good_move"",4527.9,3104,2648.4,1423.9,455.6,""smooth"",""down"",""down"",""good_move"",7844.8,3316.3,2878.2,4528.5,438.1,""smooth"",""down"",""down"",""good_move"",14614.5,6769.1,2878.5,11277.4,458.6,""smooth"",""right"",""right"",""good_move"",21843.3,7228.4,2768.3,18530,545,""oops"",""right"",""right"",""good_move"",24520.9,2677.1,1970.5,21843.8,706.6,""smooth"",""right"",""right"",""good_move""]","",""
"6938","","<div style=""width:500px;"">
  <p>What determined the result of this run?</p>
  </div>","100","html-slider-response","70","2023257","0.0-5.0-1.12","51","1","2025-07-16 08:21:13","1f75c3e559b7213887762d5229550c2b","216.120.189.45","Mozilla/5.0 (Windows NT 10.0; Win64; x64) AppleWebKit/537.36 (KHTML, like Gecko) Chrome/138.0.0.0 Safari/537.36","WebKit","Chrome","138.0.0.0","Windows","10.0","https://app.prolific.com/","en-US,en;q=0.9","673594215b1a0b92d5835525","686e379bc37a29ffa5cdc956","68776027a9debb420028fb76","1","1","673594215b1a0b92d5835525","1","1","2025-07-16T09:00:14.179Z","","","","","","","","","","","AttribQ","","50","","","","","","","","","","","","","","","","","","","","","","","","","","","","",""
"3031","","<div style=""width:500px;"">
  <p>How much control did you have over the ball?</p>
  </div>","100","html-slider-response","71","2026289","0.0-5.0-2.12","51","1","2025-07-16 08:21:13","1f75c3e559b7213887762d5229550c2b","216.120.189.45","Mozilla/5.0 (Windows NT 10.0; Win64; x64) AppleWebKit/537.36 (KHTML, like Gecko) Chrome/138.0.0.0 Safari/537.36","WebKit","Chrome","138.0.0.0","Windows","10.0","https://app.prolific.com/","en-US,en;q=0.9","673594215b1a0b92d5835525","686e379bc37a29ffa5cdc956","68776027a9debb420028fb76","1","1","673594215b1a0b92d5835525","1","1","2025-07-16T09:00:17.211Z","","","","","","","","","","","ControlQ","","50","","","","","","","","","","","","","","","","","","","","","","","","","","","","",""
"8535","","<div style=""width:500px;"">
  <p>How would you describe your current emotional state?</p>
  </div>","0","html-slider-response","72","2034825","0.0-5.0-3.12","51","1","2025-07-16 08:21:13","1f75c3e559b7213887762d5229550c2b","216.120.189.45","Mozilla/5.0 (Windows NT 10.0; Win64; x64) AppleWebKit/537.36 (KHTML, like Gecko) Chrome/138.0.0.0 Safari/537.36","WebKit","Chrome","138.0.0.0","Windows","10.0","https://app.prolific.com/","en-US,en;q=0.9","673594215b1a0b92d5835525","686e379bc37a29ffa5cdc956","68776027a9debb420028fb76","1","1","673594215b1a0b92d5835525","1","1","2025-07-16T09:00:25.747Z","","","","","","","","","","","StressQ","","50","","","","","","","","","","","","","","","","","","","","","","","","","","","","",""
"2342","","<div style=""width:500px;"">
  <p>What best describes how you currently feel?</p>
  </div>","100","html-slider-response","73","2037169","0.0-5.0-4.12","51","1","2025-07-16 08:21:13","1f75c3e559b7213887762d5229550c2b","216.120.189.45","Mozilla/5.0 (Windows NT 10.0; Win64; x64) AppleWebKit/537.36 (KHTML, like Gecko) Chrome/138.0.0.0 Safari/537.36","WebKit","Chrome","138.0.0.0","Windows","10.0","https://app.prolific.com/","en-US,en;q=0.9","673594215b1a0b92d5835525","686e379bc37a29ffa5cdc956","68776027a9debb420028fb76","1","1","673594215b1a0b92d5835525","1","1","2025-07-16T09:00:28.091Z","","","","","","","","","","","MotivationQ","","50","","","","","","","","","","","","","","","","","","","","","","","","","","","","",""
"","","","","ctl-task-cpt","74","2068738","0.0-5.0-0.13","51","1","2025-07-16 08:21:13","1f75c3e559b7213887762d5229550c2b","216.120.189.45","Mozilla/5.0 (Windows NT 10.0; Win64; x64) AppleWebKit/537.36 (KHTML, like Gecko) Chrome/138.0.0.0 Safari/537.36","WebKit","Chrome","138.0.0.0","Windows","10.0","https://app.prolific.com/","en-US,en;q=0.9","673594215b1a0b92d5835525","686e379bc37a29ffa5cdc956","68776027a9debb420028fb76","1","1","673594215b1a0b92d5835525","1","1","2025-07-16T09:00:59.660Z","","","","","","","","","","","","","","win-only","3","g1:SW,g2:NE","0.8","14","0","2356130.8","2133.4","7139.1","28538","1","4","8","6","2","8","8","24","16","0.18181818181818182","2523","3000","1910","[""up"",""right""]","{""num_key_presses"":6,""num_perfect"":6,""num_errors"":0,""num_randdir"":0,""num_randdir_good_moves"":0,""num_whilered"":0,""num_whileblue"":0,""num_blue"":1,""num_good_moves"":6}","[260.896875,262.303125,0.3,260.896875,262.303125,112.8,260.896875,262.303125,230.6,318.896875,321.303125,344.1,326.896875,328.303125,457.3,326.896875,328.303125,571.2,350.896875,293.303125,685.8,402.896875,167.303125,804.7,401.896875,167.303125,919.3,390.896875,173.303125,1037.9,390.896875,173.303125,1146.1,399.896875,159.303125,1260.2,440.896875,90.303125,1363.3,458.896875,65.303125,1479.9,463.896875,61.303125,1597.4,463.896875,61.303125,1707.7,463.896875,61.303125,1820.2,464.896875,60.303125,1932.9,464.896875,60.303125,2050.2,464.896875,60.303125,2163.4,464.896875,60.303125,2278.1,464.896875,60.303125,2390.7,464.896875,60.303125,2502.2,464.896875,60.303125,2618,464.896875,60.303125,2731.1,464.896875,60.303125,2858.4,464.896875,65.303125,2960.4,495.896875,186.303125,3080.3,561.896875,280.303125,3200.9,565.896875,282.303125,3317.8,565.896875,282.303125,3420.2,565.896875,282.303125,3528.8,565.896875,282.303125,3635.2,566.896875,282.303125,3742.8,566.896875,282.303125,3843.3,566.896875,282.303125,3947.5,566.896875,282.303125,4052.4,566.896875,282.303125,4158.5,566.896875,282.303125,4261.2,566.896875,282.303125,4364.4,566.896875,282.303125,4466.5,566.896875,282.303125,4575.2,566.896875,282.303125,4684.8,566.896875,282.303125,4786.3,566.896875,282.303125,4894.8,566.896875,282.303125,4999.1]","[5368.8,5368.8,2705.2,2011,652.6,""smooth"",""up"",""up"",""good_move"",8927.1,3557.6,3099.8,5369.5,457.9,""smooth"",""up"",""up"",""good_move"",12143.2,3215.8,1923.9,8927.4,1291.9,""smooth"",""up"",""up"",""good_move"",15388.7,3245.3,2625.5,12143.5,619.7,""smooth"",""right"",""right"",""good_move"",18691.4,3302.3,2740.7,15389.1,561.6,""smooth"",""right"",""right"",""good_move"",21218,2526.2,1947.7,18691.8,578.5,""smooth"",""right"",""right"",""good_move""]","",""
"82402","","<div style=""width:500px;"">
  <p>What determined the result of this run?</p>
  </div>","100","html-slider-response","75","2151142","0.0-5.0-1.13","51","1","2025-07-16 08:21:13","1f75c3e559b7213887762d5229550c2b","216.120.189.45","Mozilla/5.0 (Windows NT 10.0; Win64; x64) AppleWebKit/537.36 (KHTML, like Gecko) Chrome/138.0.0.0 Safari/537.36","WebKit","Chrome","138.0.0.0","Windows","10.0","https://app.prolific.com/","en-US,en;q=0.9","673594215b1a0b92d5835525","686e379bc37a29ffa5cdc956","68776027a9debb420028fb76","1","1","673594215b1a0b92d5835525","1","1","2025-07-16T09:02:22.064Z","","","","","","","","","","","AttribQ","","50","","","","","","","","","","","","","","","","","","","","","","","","","","","","",""
"2680","","<div style=""width:500px;"">
  <p>How much control did you have over the ball?</p>
  </div>","100","html-slider-response","76","2153827","0.0-5.0-2.13","51","1","2025-07-16 08:21:13","1f75c3e559b7213887762d5229550c2b","216.120.189.45","Mozilla/5.0 (Windows NT 10.0; Win64; x64) AppleWebKit/537.36 (KHTML, like Gecko) Chrome/138.0.0.0 Safari/537.36","WebKit","Chrome","138.0.0.0","Windows","10.0","https://app.prolific.com/","en-US,en;q=0.9","673594215b1a0b92d5835525","686e379bc37a29ffa5cdc956","68776027a9debb420028fb76","1","1","673594215b1a0b92d5835525","1","1","2025-07-16T09:02:24.749Z","","","","","","","","","","","ControlQ","","50","","","","","","","","","","","","","","","","","","","","","","","","","","","","",""
"51571","","<div style=""width:500px;"">
  <p>How would you describe your current emotional state?</p>
  </div>","100","html-slider-response","77","2205401","0.0-5.0-3.13","51","1","2025-07-16 08:21:13","1f75c3e559b7213887762d5229550c2b","216.120.189.45","Mozilla/5.0 (Windows NT 10.0; Win64; x64) AppleWebKit/537.36 (KHTML, like Gecko) Chrome/138.0.0.0 Safari/537.36","WebKit","Chrome","138.0.0.0","Windows","10.0","https://app.prolific.com/","en-US,en;q=0.9","673594215b1a0b92d5835525","686e379bc37a29ffa5cdc956","68776027a9debb420028fb76","1","1","673594215b1a0b92d5835525","1","1","2025-07-16T09:03:16.323Z","","","","","","","","","","","StressQ","","50","","","","","","","","","","","","","","","","","","","","","","","","","","","","",""
"6637","","<div style=""width:500px;"">
  <p>What best describes how you currently feel?</p>
  </div>","100","html-slider-response","78","2212041","0.0-5.0-4.13","51","1","2025-07-16 08:21:13","1f75c3e559b7213887762d5229550c2b","216.120.189.45","Mozilla/5.0 (Windows NT 10.0; Win64; x64) AppleWebKit/537.36 (KHTML, like Gecko) Chrome/138.0.0.0 Safari/537.36","WebKit","Chrome","138.0.0.0","Windows","10.0","https://app.prolific.com/","en-US,en;q=0.9","673594215b1a0b92d5835525","686e379bc37a29ffa5cdc956","68776027a9debb420028fb76","1","1","673594215b1a0b92d5835525","1","1","2025-07-16T09:03:22.963Z","","","","","","","","","","","MotivationQ","","50","","","","","","","","","","","","","","","","","","","","","","","","","","","","",""
"","","","","ctl-task-cpt","79","2269770","0.0-5.0-0.14","51","1","2025-07-16 08:21:13","1f75c3e559b7213887762d5229550c2b","216.120.189.45","Mozilla/5.0 (Windows NT 10.0; Win64; x64) AppleWebKit/537.36 (KHTML, like Gecko) Chrome/138.0.0.0 Safari/537.36","WebKit","Chrome","138.0.0.0","Windows","10.0","https://app.prolific.com/","en-US,en;q=0.9","673594215b1a0b92d5835525","686e379bc37a29ffa5cdc956","68776027a9debb420028fb76","1","1","673594215b1a0b92d5835525","1","1","2025-07-16T09:04:20.692Z","","","","","","","","","","","","","","win-only","1","g1:NE,g2:SW","0.9","15","0","2531003.6","9213.5","14224.5","54673.4","1","4","4","6","2","4","3","27","24","0.20454545454545456","1369.2","3000","625","[""down"",""left""]","{""num_key_presses"":12,""num_perfect"":10,""num_errors"":1,""num_randdir"":1,""num_randdir_good_moves"":0,""num_whilered"":0,""num_whileblue"":1,""num_blue"":1,""num_good_moves"":9}","[261.896875,260.303125,0.6,261.896875,260.303125,100.7,261.896875,260.303125,201.2,261.896875,260.303125,301.7,261.896875,260.303125,405,261.896875,260.303125,507.8,261.896875,260.303125,622.4,261.896875,259.303125,730.9,261.896875,259.303125,840,186.896875,408.303125,953,105.896875,475.303125,1055.7,68.896875,493.303125,1163.7,49.896875,498.303125,1266.3,49.896875,498.303125,1368,48.896875,499.303125,1472.8,48.896875,492.303125,1573,48.896875,487.303125,1684,48.896875,487.303125,1788,48.896875,487.303125,1888.5,48.896875,487.303125,1990.3,48.896875,487.303125,2097.6,48.896875,487.303125,2198,48.896875,487.303125,2299.5,48.896875,487.303125,2404.4,48.896875,487.303125,2510.3,48.896875,487.303125,2622.5,48.896875,487.303125,2725.7,48.896875,487.303125,2834.5,48.896875,487.303125,2935.8,48.896875,487.303125,3043.7,48.896875,487.303125,3153.2,48.896875,487.303125,3260.9,48.896875,487.303125,3372.2,48.896875,487.303125,3474.4,48.896875,487.303125,3583.4,48.896875,487.303125,3692.1,48.896875,487.303125,3801.1,48.896875,487.303125,3901.6,49.896875,486.303125,4007.1,49.896875,486.303125,4114.4,49.896875,486.303125,4222,49.896875,486.303125,4322.2,49.896875,486.303125,4429.7,158.896875,602.303125,4532,158.896875,602.303125,4640.4,158.896875,602.303125,4746.8,158.896875,602.303125,4856.8,158.896875,602.303125,4968.3]","[1898.7,1898.7,1000,0,898.7,""smooth"",""up"",""up"",""bad_move"",5487.3,3587.9,3117.6,1899.4,470.3,""smooth"",""down"",""down"",""good_move"",8819.9,3331.8,2894.4,5488.2,437.4,""oops"",""left"",""right"",""bad_move"",11954.9,3134,2665.1,8820.9,468.9,""smooth"",""down"",""down"",""good_move"",15165.5,3209.9,2515.6,11955.6,694.3,""smooth"",""down"",""down"",""good_move"",18583.1,3416.4,2997.6,15166.8,418.7,""smooth"",""down"",""down"",""good_move"",21249.3,2665.8,2141.9,18583.6,523.8,""smooth"",""left"",""left"",""good_move"",24241.1,2990.8,2609.8,21250.4,380.9,""while_blue"",""left"",""right"",""bad_move"",27339.3,3097.8,2650.3,24241.5,447.5,""smooth"",""left"",""left"",""good_move"",30643.2,3303.6,1841.5,27339.6,1462.1,""smooth"",""left"",""left"",""good_move"",35119.9,4476.5,3038.4,30643.4,1438.1,""smooth"",""left"",""left"",""good_move"",39921.1,4800.9,2095.6,35120.2,2705.3,""smooth"",""left"",""left"",""good_move""]","",""
"5452","","<div style=""width:500px;"">
  <p>What determined the result of this run?</p>
  </div>","100","html-slider-response","80","2275224","0.0-5.0-1.14","51","1","2025-07-16 08:21:13","1f75c3e559b7213887762d5229550c2b","216.120.189.45","Mozilla/5.0 (Windows NT 10.0; Win64; x64) AppleWebKit/537.36 (KHTML, like Gecko) Chrome/138.0.0.0 Safari/537.36","WebKit","Chrome","138.0.0.0","Windows","10.0","https://app.prolific.com/","en-US,en;q=0.9","673594215b1a0b92d5835525","686e379bc37a29ffa5cdc956","68776027a9debb420028fb76","1","1","673594215b1a0b92d5835525","1","1","2025-07-16T09:04:26.146Z","","","","","","","","","","","AttribQ","","50","","","","","","","","","","","","","","","","","","","","","","","","","","","","",""
"2175","","<div style=""width:500px;"">
  <p>How much control did you have over the ball?</p>
  </div>","100","html-slider-response","81","2277402","0.0-5.0-2.14","51","1","2025-07-16 08:21:13","1f75c3e559b7213887762d5229550c2b","216.120.189.45","Mozilla/5.0 (Windows NT 10.0; Win64; x64) AppleWebKit/537.36 (KHTML, like Gecko) Chrome/138.0.0.0 Safari/537.36","WebKit","Chrome","138.0.0.0","Windows","10.0","https://app.prolific.com/","en-US,en;q=0.9","673594215b1a0b92d5835525","686e379bc37a29ffa5cdc956","68776027a9debb420028fb76","1","1","673594215b1a0b92d5835525","1","1","2025-07-16T09:04:28.324Z","","","","","","","","","","","ControlQ","","50","","","","","","","","","","","","","","","","","","","","","","","","","","","","",""
"4804","","<div style=""width:500px;"">
  <p>How would you describe your current emotional state?</p>
  </div>","18","html-slider-response","82","2282209","0.0-5.0-3.14","51","1","2025-07-16 08:21:13","1f75c3e559b7213887762d5229550c2b","216.120.189.45","Mozilla/5.0 (Windows NT 10.0; Win64; x64) AppleWebKit/537.36 (KHTML, like Gecko) Chrome/138.0.0.0 Safari/537.36","WebKit","Chrome","138.0.0.0","Windows","10.0","https://app.prolific.com/","en-US,en;q=0.9","673594215b1a0b92d5835525","686e379bc37a29ffa5cdc956","68776027a9debb420028fb76","1","1","673594215b1a0b92d5835525","1","1","2025-07-16T09:04:33.131Z","","","","","","","","","","","StressQ","","50","","","","","","","","","","","","","","","","","","","","","","","","","","","","",""
"30118","","<div style=""width:500px;"">
  <p>What best describes how you currently feel?</p>
  </div>","100","html-slider-response","83","2312329","0.0-5.0-4.14","51","1","2025-07-16 08:21:13","1f75c3e559b7213887762d5229550c2b","216.120.189.45","Mozilla/5.0 (Windows NT 10.0; Win64; x64) AppleWebKit/537.36 (KHTML, like Gecko) Chrome/138.0.0.0 Safari/537.36","WebKit","Chrome","138.0.0.0","Windows","10.0","https://app.prolific.com/","en-US,en;q=0.9","673594215b1a0b92d5835525","686e379bc37a29ffa5cdc956","68776027a9debb420028fb76","1","1","673594215b1a0b92d5835525","1","1","2025-07-16T09:05:03.251Z","","","","","","","","","","","MotivationQ","","50","","","","","","","","","","","","","","","","","","","","","","","","","","","","",""
"","","","","ctl-task-cpt","84","2377775","0.0-5.0-0.15","51","1","2025-07-16 08:21:13","1f75c3e559b7213887762d5229550c2b","216.120.189.45","Mozilla/5.0 (Windows NT 10.0; Win64; x64) AppleWebKit/537.36 (KHTML, like Gecko) Chrome/138.0.0.0 Safari/537.36","WebKit","Chrome","138.0.0.0","Windows","10.0","https://app.prolific.com/","en-US,en;q=0.9","673594215b1a0b92d5835525","686e379bc37a29ffa5cdc956","68776027a9debb420028fb76","1","1","673594215b1a0b92d5835525","1","1","2025-07-16T09:06:08.697Z","","","","","","","","","","","","","","win-only","0","g1:NW,g2:SE","0.8","16","0","2631291.1","1437","6460.4","62385","1","4","8","6","2","8","8","35","27","0.26515151515151514","1024.3","3000","2130","[""down"",""right""]","{""num_key_presses"":10,""num_perfect"":8,""num_errors"":0,""num_randdir"":2,""num_randdir_good_moves"":0,""num_whilered"":0,""num_whileblue"":0,""num_blue"":3,""num_good_moves"":8}","[262.896875,263.303125,0.2,262.896875,263.303125,130.9,262.896875,263.303125,259.1,262.896875,263.303125,388.1,321.896875,338.303125,515.8,419.896875,422.303125,645.9,468.896875,462.303125,773.7,479.896875,468.303125,896.4,492.896875,472.303125,1014.1,494.896875,472.303125,1137,494.896875,472.303125,1252.5,491.896875,470.303125,1378.5,489.896875,468.303125,1497,488.896875,466.303125,1614,486.896875,456.303125,1734.7,486.896875,454.303125,1852.1,486.896875,454.303125,1969.6,486.896875,454.303125,2087.9,486.896875,454.303125,2206.9,486.896875,454.303125,2320.2,486.896875,454.303125,2439.4,486.896875,454.303125,2555.3,486.896875,454.303125,2671.4,486.896875,454.303125,2787.8,486.896875,454.303125,2905,486.896875,454.303125,3022.4,486.896875,454.303125,3142.6,486.896875,454.303125,3263.2,486.896875,454.303125,3381.9,486.896875,454.303125,3499.4,486.896875,454.303125,3617.3,486.896875,454.303125,3734.1,486.896875,454.303125,3853.5,486.896875,454.303125,3955.9,486.896875,454.303125,4081.3,486.896875,454.303125,4201.9,486.896875,454.303125,4323.1,486.896875,454.303125,4444.7,486.896875,454.303125,4549.9,486.896875,454.303125,4665.2,486.896875,454.303125,4786.5,486.896875,454.303125,4904.9]","[1445.2,1445.2,1000,0,445.2,""smooth"",""down"",""down"",""good_move"",4611.6,3166.2,2624.3,1445.5,541.9,""oops"",""down"",""left"",""bad_move"",16939.7,12327.7,3251.8,13119.7,568.2,""smooth"",""down"",""down"",""good_move"",21587.5,4647.5,2297.9,16940,2349.6,""smooth"",""down"",""down"",""good_move"",25340.4,3752.7,2898.6,21587.7,854.1,""oops"",""right"",""up"",""bad_move"",33669.8,8329,1814.5,25340.8,6514.5,""smooth"",""right"",""right"",""good_move"",41160.4,7490.2,2467.2,38145.7,547.5,""smooth"",""right"",""right"",""good_move"",48621.7,7461.1,2558.7,45534.4,528.6,""smooth"",""right"",""right"",""good_move"",51588.4,2966.4,2135.2,48622,831.2,""smooth"",""right"",""right"",""good_move"",54751.3,3162.8,1834,51588.6,1328.8,""smooth"",""down"",""down"",""good_move""]","",""
"67366","","<div style=""width:500px;"">
  <p>What determined the result of this run?</p>
  </div>","100","html-slider-response","85","2445146","0.0-5.0-1.15","51","1","2025-07-16 08:21:13","1f75c3e559b7213887762d5229550c2b","216.120.189.45","Mozilla/5.0 (Windows NT 10.0; Win64; x64) AppleWebKit/537.36 (KHTML, like Gecko) Chrome/138.0.0.0 Safari/537.36","WebKit","Chrome","138.0.0.0","Windows","10.0","https://app.prolific.com/","en-US,en;q=0.9","673594215b1a0b92d5835525","686e379bc37a29ffa5cdc956","68776027a9debb420028fb76","1","1","673594215b1a0b92d5835525","1","1","2025-07-16T09:07:16.068Z","","","","","","","","","","","AttribQ","","50","","","","","","","","","","","","","","","","","","","","","","","","","","","","",""
"2500","","<div style=""width:500px;"">
  <p>How much control did you have over the ball?</p>
