"rt","response_timestamp","stimulus","response","trial_type","trial_index","time_elapsed","internal_node_id","run_id","condition","recorded_at","source_code_version","ip","user_agent","device","browser","browser_version","platform","platform_version","referer","accept_language","PROLIFIC_PID","STUDY_ID","SESSION_ID","WEEK","BATCH","prolific_id","week","batch","realtime","success","responses","item_order","radio_event_ids","radio_event_times","key_event_times","mouse_event_times","straightlining","zigzagging","honeypot","eventType","view_history","slider_start","which_type","canvas_config","goals_layout","control_level","trial_number","tutorial_trial_number","trial_start_time","phase1_start_time","phase2_start_time","phase3_start_time","goal_1_value","goal_1_distance","goal_2_value","goal_2_distance","goal_selected","outcome","outcome_total","participant_final_score","participant_initial_score","participant_final_score_prop","goal_choice_rt","allocated_time","allocated_time_remaining","goal_direction","counts","mouse_movements","key_presses","question_order","question_id"
"15192","1752659560613","<p style='font-size:40px;line-height:1.25'><strong>Welcome to the experiment!</strong></p><p style='font-size:1.1em;line-height:1.25'>Thank you for participanting in our experiment again! You will be asked to play the Dysfunctional Ball Game again. We will briefly recap the rules before we start.</p><p style='font-size:1.1em;line-height:1.25'>Press <strong>Next</strong> to continue.</p>","0","custom-html-button-response","0","15194","0.0-0.0","94","1","2025-07-16 09:52:23","1f75c3e559b7213887762d5229550c2b","93.39.141.5","Mozilla/5.0 (Windows NT 10.0; Win64; x64) AppleWebKit/537.36 (KHTML, like Gecko) Chrome/138.0.0.0 Safari/537.36","WebKit","Chrome","138.0.0.0","Windows","10.0","https://app.prolific.com/","it-IT,it;q=0.9,en-US;q=0.8,en;q=0.7","5daae19f8a06b60016d1bc32","686e379bc37a29ffa5cdc956","6877764ef99ad94248d99458","1","1","5daae19f8a06b60016d1bc32","1","1","2025-07-16T09:52:40.614Z","","","","","","","","","","","","","","","","","","","","","","","","","","","","","","","","","","","","","","","","","",""
"11733","","","","fullscreen","1","27931","0.0-1.0","94","1","2025-07-16 09:52:23","1f75c3e559b7213887762d5229550c2b","93.39.141.5","Mozilla/5.0 (Windows NT 10.0; Win64; x64) AppleWebKit/537.36 (KHTML, like Gecko) Chrome/138.0.0.0 Safari/537.36","WebKit","Chrome","138.0.0.0","Windows","10.0","https://app.prolific.com/","it-IT,it;q=0.9,en-US;q=0.8,en;q=0.7","5daae19f8a06b60016d1bc32","686e379bc37a29ffa5cdc956","6877764ef99ad94248d99458","1","1","5daae19f8a06b60016d1bc32","1","1","","true","","","","","","","","","","","","","","","","","","","","","","","","","","","","","","","","","","","","","","","","",""
"3570","1752659576923","<p style='font-size:1.1em;line-height:1.25'>In the following, we will ask you a few questions relating to your feelings in the last 24 hours.<br></p><p style='font-size:1.1em;line-height:1.25'>Press the <strong>Next</strong> button to continue.</p>","0","custom-html-button-response","2","31503","0.0-2.0-0.0","94","1","2025-07-16 09:52:23","1f75c3e559b7213887762d5229550c2b","93.39.141.5","Mozilla/5.0 (Windows NT 10.0; Win64; x64) AppleWebKit/537.36 (KHTML, like Gecko) Chrome/138.0.0.0 Safari/537.36","WebKit","Chrome","138.0.0.0","Windows","10.0","https://app.prolific.com/","it-IT,it;q=0.9,en-US;q=0.8,en;q=0.7","5daae19f8a06b60016d1bc32","686e379bc37a29ffa5cdc956","6877764ef99ad94248d99458","1","1","5daae19f8a06b60016d1bc32","1","1","2025-07-16T09:52:56.923Z","","","","","","","","","","","","","","","","","","","","","","","","","","","","","","","","","","","","","","","","","",""
"127458","","","","survey-template","3","158964","0.0-2.0-1.0","94","1","2025-07-16 09:52:23","1f75c3e559b7213887762d5229550c2b","93.39.141.5","Mozilla/5.0 (Windows NT 10.0; Win64; x64) AppleWebKit/537.36 (KHTML, like Gecko) Chrome/138.0.0.0 Safari/537.36","WebKit","Chrome","138.0.0.0","Windows","10.0","https://app.prolific.com/","it-IT,it;q=0.9,en-US;q=0.8,en;q=0.7","5daae19f8a06b60016d1bc32","686e379bc37a29ffa5cdc956","6877764ef99ad94248d99458","1","1","5daae19f8a06b60016d1bc32","1","1","2025-07-16T09:55:04.384Z","","{""Q01"":""2"",""Q02"":""1"",""Q03"":""2"",""Q04"":""1"",""Q05"":""1"",""Q06"":""2"",""Q07"":""1"",""Q08"":""1"",""Q09"":""4"",""Q10"":""3"",""Q11"":""3"",""Q12"":""1"",""Q13"":""5"",""Q14"":""0"",""Q15"":""1"",""Q16"":""0"",""Q17"":""2"",""Q18"":""3"",""Q19"":""3"",""Q20"":""1"",""Q21"":""1"",""Q22"":""1""}","[0,1,2,3,4,5,6,7,8,9,10,11,12,13,14,15,16,17,18,19,20,21]","[""Q01"",""Q02"",""Q03"",""Q04"",""Q05"",""Q06"",""Q07"",""Q08"",""Q09"",""Q10"",""Q11"",""Q11"",""Q12"",""Q13"",""Q12"",""Q14"",""Q15"",""Q16"",""Q17"",""Q18"",""Q19"",""Q20"",""Q20"",""Q21"",""Q22""]","[9857.20000076294,11129.5,15448.5,21302.39999961853,24230.60000038147,30854.70000076294,37365.60000038147,40002.30000114441,42799.5,47441.39999961853,50562.20000076294,54354.10000038147,58917,60710.30000114441,66057.89999961853,71055.70000076294,78788.70000076294,82296,86222.10000038147,88884,103372.5,108324.30000114441,111965.60000038147,119189.5,125842.30000114441]","[]","[0,9857.20000076294,11129.5,15448.5,20126,21302.39999961853,24230.60000038147,30854.70000076294,37365.60000038147,40002.30000114441,42799.5,47441.39999961853,50562.20000076294,54354.10000038147,58917,60710.30000114441,66057.89999961853,69686.80000114441,71055.70000076294,78788.70000076294,82296,86222.10000038147,87850,88884,103372.5,108324.30000114441,111965.60000038147,119189.5,125842.30000114441,127456.20000076294]","0.45454545454545453","0.47619047619047616","0","drsp","","","","","","","","","","","","","","","","","","","","","","","","","","","","","","",""
"22449.10000038147","","","","survey-template","4","181414","0.0-2.0-2.0","94","1","2025-07-16 09:52:23","1f75c3e559b7213887762d5229550c2b","93.39.141.5","Mozilla/5.0 (Windows NT 10.0; Win64; x64) AppleWebKit/537.36 (KHTML, like Gecko) Chrome/138.0.0.0 Safari/537.36","WebKit","Chrome","138.0.0.0","Windows","10.0","https://app.prolific.com/","it-IT,it;q=0.9,en-US;q=0.8,en;q=0.7","5daae19f8a06b60016d1bc32","686e379bc37a29ffa5cdc956","6877764ef99ad94248d99458","1","1","5daae19f8a06b60016d1bc32","1","1","2025-07-16T09:55:26.834Z","","{""Q01"":""2"",""Q02"":""5"",""Q03"":""3""}","[0,1,2]","[""Q01"",""Q02"",""Q03"",""Q03""]","[10298.89999961853,13716.60000038147,19439.60000038147,21247.29999923706]","[]","[10298.89999961853,13716.60000038147,19439.60000038147,21247.29999923706,22448.5]","0.3333333333333333","0","0","stress","","","","","","","","","","","","","","","","","","","","","","","","","","","","","","",""
"56329","","","","instructions","5","237744","0.0-3.0-0.0","94","1","2025-07-16 09:52:23","1f75c3e559b7213887762d5229550c2b","93.39.141.5","Mozilla/5.0 (Windows NT 10.0; Win64; x64) AppleWebKit/537.36 (KHTML, like Gecko) Chrome/138.0.0.0 Safari/537.36","WebKit","Chrome","138.0.0.0","Windows","10.0","https://app.prolific.com/","it-IT,it;q=0.9,en-US;q=0.8,en;q=0.7","5daae19f8a06b60016d1bc32","686e379bc37a29ffa5cdc956","6877764ef99ad94248d99458","1","1","5daae19f8a06b60016d1bc32","1","1","","","","","","","","","","","","","[{""page_index"":0,""viewing_time"":56329}]","","","","","","","","","","","","","","","","","","","","","","","","","","","","","",""
"21320","","<p>Before you start with this game please answer the following three questions yourself. </p>
  <p>Through this game, we measure several aspects of your cognitive performance, such as reaction times, multi-tasking capabilities </p>
  <p>and the ability to assess the situation you are in.</p>
  <p></p>
  <p><b>How good do you usually are in such tasks?</b></p>","52","html-slider-response","6","259065","0.0-4.0-0.0","94","1","2025-07-16 09:52:23","1f75c3e559b7213887762d5229550c2b","93.39.141.5","Mozilla/5.0 (Windows NT 10.0; Win64; x64) AppleWebKit/537.36 (KHTML, like Gecko) Chrome/138.0.0.0 Safari/537.36","WebKit","Chrome","138.0.0.0","Windows","10.0","https://app.prolific.com/","it-IT,it;q=0.9,en-US;q=0.8,en;q=0.7","5daae19f8a06b60016d1bc32","686e379bc37a29ffa5cdc956","6877764ef99ad94248d99458","1","1","5daae19f8a06b60016d1bc32","1","1","2025-07-16T09:56:44.485Z","","","","","","","","","","","PreSkillQ","","50","","","","","","","","","","","","","","","","","","","","","","","","","","","","",""
"4325","","<div style=""width:500px;"">
  <p>How well do you think you will perform in this task compared to other participants?</p>
  </div>","50","html-slider-response","7","263391","0.0-4.0-1.0","94","1","2025-07-16 09:52:23","1f75c3e559b7213887762d5229550c2b","93.39.141.5","Mozilla/5.0 (Windows NT 10.0; Win64; x64) AppleWebKit/537.36 (KHTML, like Gecko) Chrome/138.0.0.0 Safari/537.36","WebKit","Chrome","138.0.0.0","Windows","10.0","https://app.prolific.com/","it-IT,it;q=0.9,en-US;q=0.8,en;q=0.7","5daae19f8a06b60016d1bc32","686e379bc37a29ffa5cdc956","6877764ef99ad94248d99458","1","1","5daae19f8a06b60016d1bc32","1","1","2025-07-16T09:56:48.811Z","","","","","","","","","","","PrePerfQ","","50","","","","","","","","","","","","","","","","","","","","","","","","","","","","",""
"14831","","<div style=""width:500px;"">
  <p>What best describes how you currently feel?</p>
  </div>","53","html-slider-response","8","278224","0.0-4.0-2.0","94","1","2025-07-16 09:52:23","1f75c3e559b7213887762d5229550c2b","93.39.141.5","Mozilla/5.0 (Windows NT 10.0; Win64; x64) AppleWebKit/537.36 (KHTML, like Gecko) Chrome/138.0.0.0 Safari/537.36","WebKit","Chrome","138.0.0.0","Windows","10.0","https://app.prolific.com/","it-IT,it;q=0.9,en-US;q=0.8,en;q=0.7","5daae19f8a06b60016d1bc32","686e379bc37a29ffa5cdc956","6877764ef99ad94248d99458","1","1","5daae19f8a06b60016d1bc32","1","1","2025-07-16T09:57:03.644Z","","","","","","","","","","","PreMotivationQ","","50","","","","","","","","","","","","","","","","","","","","","","","","","","","","",""
"","","","","ctl-task-cpt","9","305468","0.0-5.0-0.0","94","1","2025-07-16 09:52:23","1f75c3e559b7213887762d5229550c2b","93.39.141.5","Mozilla/5.0 (Windows NT 10.0; Win64; x64) AppleWebKit/537.36 (KHTML, like Gecko) Chrome/138.0.0.0 Safari/537.36","WebKit","Chrome","138.0.0.0","Windows","10.0","https://app.prolific.com/","it-IT,it;q=0.9,en-US;q=0.8,en;q=0.7","5daae19f8a06b60016d1bc32","686e379bc37a29ffa5cdc956","6877764ef99ad94248d99458","1","1","5daae19f8a06b60016d1bc32","1","1","2025-07-16T09:57:30.888Z","","","","","","","","","","","","","","win-only","2","g1:SE,g2:NW","1","1","0","279615.8","4042.1","9044.2","24237.1","1","4","8","6","2","8","8","8","0","0.06060606060606061","2016.9","3000","735","[""left"",""up""]","{""num_key_presses"":6,""num_perfect"":6,""num_errors"":0,""num_randdir"":0,""num_randdir_good_moves"":0,""num_whilered"":0,""num_whileblue"":0,""num_blue"":0,""num_good_moves"":6}","[415.57142857142856,415.47767857142856,0.1,415.57142857142856,415.47767857142856,104.4,415.57142857142856,415.47767857142856,208.3,415.57142857142856,415.47767857142856,308.9,415.57142857142856,415.47767857142856,409.1,415.57142857142856,415.47767857142856,509.4,415.57142857142856,415.47767857142856,616.6,415.57142857142856,415.47767857142856,718.5,415.57142857142856,415.47767857142856,818.7,415.57142857142856,415.47767857142856,918.9,415.57142857142856,415.47767857142856,1020,415.57142857142856,415.47767857142856,1124.1,415.57142857142856,415.47767857142856,1233.4,196.57142857142856,194.47767857142856,1333.6,98.57142857142857,93.47767857142857,1434.3,81.57142857142857,53.47767857142857,1539.7,76.57142857142857,43.47767857142857,1643.8,75.57142857142857,55.47767857142857,1744,75.57142857142857,72.47767857142857,1844.2,75.57142857142857,72.47767857142857,1945,75.57142857142857,72.47767857142857,2050.8,75.57142857142857,72.47767857142857,2154.2,75.57142857142857,72.47767857142857,2258.7,75.57142857142857,72.47767857142857,2359.1,75.57142857142857,72.47767857142857,2467.2,75.57142857142857,72.47767857142857,2567.8,-89.42857142857143,151.47767857142856,2668.2,-266.42857142857144,241.47767857142856,2768.2,-266.42857142857144,241.47767857142856,2873.6,-266.42857142857144,241.47767857142856,2973.8,-266.42857142857144,241.47767857142856,3074.5,-266.42857142857144,241.47767857142856,3179,-266.42857142857144,241.47767857142856,3285,-266.42857142857144,241.47767857142856,3385.7,-266.42857142857144,241.47767857142856,3488.3,-266.42857142857144,241.47767857142856,3589.6,-266.42857142857144,241.47767857142856,3694.1,-266.42857142857144,241.47767857142856,3794.2,-266.42857142857144,241.47767857142856,3901.9,-266.42857142857144,241.47767857142856,4003.7,-266.42857142857144,241.47767857142856,4108.6,-266.42857142857144,241.47767857142856,4218.3,-266.42857142857144,241.47767857142856,4319.1,-266.42857142857144,241.47767857142856,4424.1,-266.42857142857144,241.47767857142856,4524.4,-266.42857142857144,241.47767857142856,4630,-266.42857142857144,241.47767857142856,4735,-266.42857142857144,241.47767857142856,4835.1,-266.42857142857144,241.47767857142856,4938.6]","[1592.1,1592.1,1000,0,592.1,""smooth"",""left"",""left"",""good_move"",4037.7,2445.2,2057,1592.5,388.2,""smooth"",""up"",""up"",""good_move"",7186.8,3148.8,2676.7,4038,472.1,""smooth"",""left"",""left"",""good_move"",9846.1,2659.1,2260.9,7187,398.2,""smooth"",""up"",""up"",""good_move"",12689.8,2843.4,2467.8,9846.4,375.6,""smooth"",""left"",""left"",""good_move"",15090.6,2400.6,2067,12690,333.6,""smooth"",""up"",""up"",""good_move""]","",""
"4637","","<div style=""width:500px;"">
  <p>What determined the result of this run?</p>
  </div>","100","html-slider-response","10","310106","0.0-5.0-1.0","94","1","2025-07-16 09:52:23","1f75c3e559b7213887762d5229550c2b","93.39.141.5","Mozilla/5.0 (Windows NT 10.0; Win64; x64) AppleWebKit/537.36 (KHTML, like Gecko) Chrome/138.0.0.0 Safari/537.36","WebKit","Chrome","138.0.0.0","Windows","10.0","https://app.prolific.com/","it-IT,it;q=0.9,en-US;q=0.8,en;q=0.7","5daae19f8a06b60016d1bc32","686e379bc37a29ffa5cdc956","6877764ef99ad94248d99458","1","1","5daae19f8a06b60016d1bc32","1","1","2025-07-16T09:57:35.526Z","","","","","","","","","","","AttribQ","","50","","","","","","","","","","","","","","","","","","","","","","","","","","","","",""
"3497","","<div style=""width:500px;"">
  <p>How much control did you have over the ball?</p>
  </div>","100","html-slider-response","11","313604","0.0-5.0-2.0","94","1","2025-07-16 09:52:23","1f75c3e559b7213887762d5229550c2b","93.39.141.5","Mozilla/5.0 (Windows NT 10.0; Win64; x64) AppleWebKit/537.36 (KHTML, like Gecko) Chrome/138.0.0.0 Safari/537.36","WebKit","Chrome","138.0.0.0","Windows","10.0","https://app.prolific.com/","it-IT,it;q=0.9,en-US;q=0.8,en;q=0.7","5daae19f8a06b60016d1bc32","686e379bc37a29ffa5cdc956","6877764ef99ad94248d99458","1","1","5daae19f8a06b60016d1bc32","1","1","2025-07-16T09:57:39.024Z","","","","","","","","","","","ControlQ","","50","","","","","","","","","","","","","","","","","","","","","","","","","","","","",""
"10547","","<div style=""width:500px;"">
  <p>How would you describe your current emotional state?</p>
  </div>","44","html-slider-response","12","324151","0.0-5.0-3.0","94","1","2025-07-16 09:52:23","1f75c3e559b7213887762d5229550c2b","93.39.141.5","Mozilla/5.0 (Windows NT 10.0; Win64; x64) AppleWebKit/537.36 (KHTML, like Gecko) Chrome/138.0.0.0 Safari/537.36","WebKit","Chrome","138.0.0.0","Windows","10.0","https://app.prolific.com/","it-IT,it;q=0.9,en-US;q=0.8,en;q=0.7","5daae19f8a06b60016d1bc32","686e379bc37a29ffa5cdc956","6877764ef99ad94248d99458","1","1","5daae19f8a06b60016d1bc32","1","1","2025-07-16T09:57:49.572Z","","","","","","","","","","","StressQ","","50","","","","","","","","","","","","","","","","","","","","","","","","","","","","",""
"4569","","<div style=""width:500px;"">
  <p>What best describes how you currently feel?</p>
  </div>","67","html-slider-response","13","328722","0.0-5.0-4.0","94","1","2025-07-16 09:52:23","1f75c3e559b7213887762d5229550c2b","93.39.141.5","Mozilla/5.0 (Windows NT 10.0; Win64; x64) AppleWebKit/537.36 (KHTML, like Gecko) Chrome/138.0.0.0 Safari/537.36","WebKit","Chrome","138.0.0.0","Windows","10.0","https://app.prolific.com/","it-IT,it;q=0.9,en-US;q=0.8,en;q=0.7","5daae19f8a06b60016d1bc32","686e379bc37a29ffa5cdc956","6877764ef99ad94248d99458","1","1","5daae19f8a06b60016d1bc32","1","1","2025-07-16T09:57:54.142Z","","","","","","","","","","","MotivationQ","","50","","","","","","","","","","","","","","","","","","","","","","","","","","","","",""
"","","","","ctl-task-cpt","14","348897","0.0-5.0-0.1","94","1","2025-07-16 09:52:23","1f75c3e559b7213887762d5229550c2b","93.39.141.5","Mozilla/5.0 (Windows NT 10.0; Win64; x64) AppleWebKit/537.36 (KHTML, like Gecko) Chrome/138.0.0.0 Safari/537.36","WebKit","Chrome","138.0.0.0","Windows","10.0","https://app.prolific.com/","it-IT,it;q=0.9,en-US;q=0.8,en;q=0.7","5daae19f8a06b60016d1bc32","686e379bc37a29ffa5cdc956","6877764ef99ad94248d99458","1","1","5daae19f8a06b60016d1bc32","1","1","2025-07-16T09:58:14.317Z","","","","","","","","","","","","","","win-only","3","g1:SW,g2:NE","0.9","2","0","330112.5","2563.3","7566.3","17158.4","1","4","4","6","1","1","1","9","8","0.06818181818181818","1864.1","3000","1480","[""down"",""left""]","{""num_key_presses"":4,""num_perfect"":4,""num_errors"":0,""num_randdir"":0,""num_randdir_good_moves"":0,""num_whilered"":0,""num_whileblue"":0,""num_blue"":0,""num_good_moves"":4}","[415.57142857142856,415.47767857142856,0.1,415.57142857142856,415.47767857142856,103,415.57142857142856,415.47767857142856,207.9,415.57142857142856,415.47767857142856,312.2,415.57142857142856,415.47767857142856,412.8,415.57142857142856,415.47767857142856,513,415.57142857142856,415.47767857142856,618,415.57142857142856,415.47767857142856,718.2,415.57142857142856,415.47767857142856,822.5,448.57142857142856,380.47767857142856,928.2,457.57142857142856,369.47767857142856,1028.2,419.57142857142856,410.47767857142856,1128.2,272.57142857142856,612.4776785714286,1232.8,262.57142857142856,624.4776785714286,1333,262.57142857142856,624.4776785714286,1437.7,55.57142857142857,775.4776785714286,1537.7,35.57142857142857,793.4776785714286,1642.1,34.57142857142857,794.4776785714286,1743.1,34.57142857142857,794.4776785714286,1849,34.57142857142857,794.4776785714286,1952.2,34.57142857142857,794.4776785714286,2052.9,34.57142857142857,794.4776785714286,2158,-34.42857142857143,776.4776785714286,2262.4,-172.42857142857144,731.4776785714286,2362.8,-172.42857142857144,731.4776785714286,2467.6,-172.42857142857144,731.4776785714286,2568.2,-172.42857142857144,731.4776785714286,2672.2,-172.42857142857144,731.4776785714286,2777.3,-172.42857142857144,731.4776785714286,2878.1,-172.42857142857144,731.4776785714286,2982.3,-172.42857142857144,731.4776785714286,3088.2,-172.42857142857144,731.4776785714286,3193,-172.42857142857144,731.4776785714286,3293.4,-172.42857142857144,731.4776785714286,3397.8,-172.42857142857144,731.4776785714286,3498.3,-172.42857142857144,731.4776785714286,3603,-172.42857142857144,731.4776785714286,3707.8,-172.42857142857144,731.4776785714286,3807.8,-172.42857142857144,731.4776785714286,3913,-172.42857142857144,731.4776785714286,4017.4,-172.42857142857144,731.4776785714286,4118,-172.42857142857144,731.4776785714286,4218.5,-172.42857142857144,731.4776785714286,4322.4,-172.42857142857144,731.4776785714286,4422.4,-172.42857142857144,731.4776785714286,4522.5,-172.42857142857144,731.4776785714286,4623.1,-172.42857142857144,731.4776785714286,4727.4,-172.42857142857144,731.4776785714286,4832.5,-172.42857142857144,731.4776785714286,4937.7]","[1387.5,1387.5,1000,0,387.5,""smooth"",""down"",""down"",""good_move"",4063.8,2676.1,2337.1,1387.8,338.9,""smooth"",""left"",""left"",""good_move"",6388.3,2324,1857.5,4064.3,466.5,""smooth"",""down"",""down"",""good_move"",9492,3103.5,2753,6388.5,350.5,""smooth"",""left"",""left"",""good_move""]","",""
"3909","","<div style=""width:500px;"">
  <p>What determined the result of this run?</p>
  </div>","100","html-slider-response","15","352806","0.0-5.0-1.1","94","1","2025-07-16 09:52:23","1f75c3e559b7213887762d5229550c2b","93.39.141.5","Mozilla/5.0 (Windows NT 10.0; Win64; x64) AppleWebKit/537.36 (KHTML, like Gecko) Chrome/138.0.0.0 Safari/537.36","WebKit","Chrome","138.0.0.0","Windows","10.0","https://app.prolific.com/","it-IT,it;q=0.9,en-US;q=0.8,en;q=0.7","5daae19f8a06b60016d1bc32","686e379bc37a29ffa5cdc956","6877764ef99ad94248d99458","1","1","5daae19f8a06b60016d1bc32","1","1","2025-07-16T09:58:18.226Z","","","","","","","","","","","AttribQ","","50","","","","","","","","","","","","","","","","","","","","","","","","","","","","",""
"2847","","<div style=""width:500px;"">
  <p>How much control did you have over the ball?</p>
  </div>","100","html-slider-response","16","355654","0.0-5.0-2.1","94","1","2025-07-16 09:52:23","1f75c3e559b7213887762d5229550c2b","93.39.141.5","Mozilla/5.0 (Windows NT 10.0; Win64; x64) AppleWebKit/537.36 (KHTML, like Gecko) Chrome/138.0.0.0 Safari/537.36","WebKit","Chrome","138.0.0.0","Windows","10.0","https://app.prolific.com/","it-IT,it;q=0.9,en-US;q=0.8,en;q=0.7","5daae19f8a06b60016d1bc32","686e379bc37a29ffa5cdc956","6877764ef99ad94248d99458","1","1","5daae19f8a06b60016d1bc32","1","1","2025-07-16T09:58:21.074Z","","","","","","","","","","","ControlQ","","50","","","","","","","","","","","","","","","","","","","","","","","","","","","","",""
"7502","","<div style=""width:500px;"">
  <p>How would you describe your current emotional state?</p>
  </div>","47","html-slider-response","17","363157","0.0-5.0-3.1","94","1","2025-07-16 09:52:23","1f75c3e559b7213887762d5229550c2b","93.39.141.5","Mozilla/5.0 (Windows NT 10.0; Win64; x64) AppleWebKit/537.36 (KHTML, like Gecko) Chrome/138.0.0.0 Safari/537.36","WebKit","Chrome","138.0.0.0","Windows","10.0","https://app.prolific.com/","it-IT,it;q=0.9,en-US;q=0.8,en;q=0.7","5daae19f8a06b60016d1bc32","686e379bc37a29ffa5cdc956","6877764ef99ad94248d99458","1","1","5daae19f8a06b60016d1bc32","1","1","2025-07-16T09:58:28.577Z","","","","","","","","","","","StressQ","","50","","","","","","","","","","","","","","","","","","","","","","","","","","","","",""
"4278","","<div style=""width:500px;"">
  <p>What best describes how you currently feel?</p>
  </div>","71","html-slider-response","18","367436","0.0-5.0-4.1","94","1","2025-07-16 09:52:23","1f75c3e559b7213887762d5229550c2b","93.39.141.5","Mozilla/5.0 (Windows NT 10.0; Win64; x64) AppleWebKit/537.36 (KHTML, like Gecko) Chrome/138.0.0.0 Safari/537.36","WebKit","Chrome","138.0.0.0","Windows","10.0","https://app.prolific.com/","it-IT,it;q=0.9,en-US;q=0.8,en;q=0.7","5daae19f8a06b60016d1bc32","686e379bc37a29ffa5cdc956","6877764ef99ad94248d99458","1","1","5daae19f8a06b60016d1bc32","1","1","2025-07-16T09:58:32.856Z","","","","","","","","","","","MotivationQ","","50","","","","","","","","","","","","","","","","","","","","","","","","","","","","",""
"","","","","ctl-task-cpt","19","396557","0.0-5.0-0.2","94","1","2025-07-16 09:52:23","1f75c3e559b7213887762d5229550c2b","93.39.141.5","Mozilla/5.0 (Windows NT 10.0; Win64; x64) AppleWebKit/537.36 (KHTML, like Gecko) Chrome/138.0.0.0 Safari/537.36","WebKit","Chrome","138.0.0.0","Windows","10.0","https://app.prolific.com/","it-IT,it;q=0.9,en-US;q=0.8,en;q=0.7","5daae19f8a06b60016d1bc32","686e379bc37a29ffa5cdc956","6877764ef99ad94248d99458","1","1","5daae19f8a06b60016d1bc32","1","1","2025-07-16T09:59:01.977Z","","","","","","","","","","","","","","win-only","2","g1:SE,g2:NW","0.8","3","0","368827.9","1789","6790.7","26106.9","1","4","8","6","2","8","8","17","9","0.12878787878787878","1203.2","3000","995","[""left"",""up""]","{""num_key_presses"":6,""num_perfect"":6,""num_errors"":0,""num_randdir"":0,""num_randdir_good_moves"":0,""num_whilered"":0,""num_whileblue"":0,""num_blue"":1,""num_good_moves"":6}","[415.57142857142856,419.47767857142856,0,415.57142857142856,419.47767857142856,100.6,415.57142857142856,419.47767857142856,201.7,415.57142857142856,419.47767857142856,306.6,415.57142857142856,419.47767857142856,407,415.57142857142856,419.47767857142856,508.3,415.57142857142856,419.47767857142856,616.4,415.57142857142856,419.47767857142856,716.9,218.57142857142856,224.47767857142856,817.2,123.57142857142857,113.47767857142857,917.5,108.57142857142857,86.47767857142857,1022.1,108.57142857142857,86.47767857142857,1127.5,108.57142857142857,86.47767857142857,1234.2,108.57142857142857,86.47767857142857,1336.8,108.57142857142857,86.47767857142857,1441.5,108.57142857142857,86.47767857142857,1542.3,23.57142857142857,130.47767857142856,1650.8,-120.42857142857143,216.47767857142856,1752.1,-126.42857142857143,219.47767857142856,1858,-126.42857142857143,219.47767857142856,1967.6,-126.42857142857143,219.47767857142856,2073,-126.42857142857143,219.47767857142856,2176.5,-126.42857142857143,219.47767857142856,2284.1,-126.42857142857143,219.47767857142856,2384.8,-126.42857142857143,219.47767857142856,2487.9,-126.42857142857143,219.47767857142856,2592.2,-126.42857142857143,219.47767857142856,2692.3,-126.42857142857143,219.47767857142856,2801.8,-126.42857142857143,219.47767857142856,2902.2,-126.42857142857143,219.47767857142856,3008.2,-126.42857142857143,219.47767857142856,3112.4,-126.42857142857143,219.47767857142856,3212.4,-126.42857142857143,219.47767857142856,3318,-126.42857142857143,219.47767857142856,3418.5,-126.42857142857143,219.47767857142856,3521.8,-126.42857142857143,219.47767857142856,3622.1,-126.42857142857143,219.47767857142856,3726.2,-126.42857142857143,219.47767857142856,3826.3,-126.42857142857143,219.47767857142856,3926.7,-126.42857142857143,219.47767857142856,4026.7,-126.42857142857143,219.47767857142856,4127.8,-126.42857142857143,219.47767857142856,4235.6,-126.42857142857143,219.47767857142856,4336.9,-126.42857142857143,219.47767857142856,4437,-126.42857142857143,219.47767857142856,4543.3,-126.42857142857143,219.47767857142856,4651.5,-126.42857142857143,219.47767857142856,4751.9,-126.42857142857143,219.47767857142856,4856.9,-126.42857142857143,219.47767857142856,4962.2]","[1406.9,1406.9,1000,0,406.9,""smooth"",""left"",""left"",""good_move"",4135.3,2728.1,2327,1407.2,401.1,""smooth"",""up"",""up"",""good_move"",7342.8,3207.3,2830.5,4135.5,376.9,""smooth"",""left"",""left"",""good_move"",12939.6,5596.4,2346.5,10246.1,347,""smooth"",""up"",""up"",""good_move"",16809.9,3870,3492.4,12939.9,377.6,""smooth"",""left"",""left"",""good_move"",19196.2,2386.2,2052.4,16810,333.8,""smooth"",""up"",""up"",""good_move""]","",""
"3320","","<div style=""width:500px;"">
  <p>What determined the result of this run?</p>
  </div>","100","html-slider-response","20","399877","0.0-5.0-1.2","94","1","2025-07-16 09:52:23","1f75c3e559b7213887762d5229550c2b","93.39.141.5","Mozilla/5.0 (Windows NT 10.0; Win64; x64) AppleWebKit/537.36 (KHTML, like Gecko) Chrome/138.0.0.0 Safari/537.36","WebKit","Chrome","138.0.0.0","Windows","10.0","https://app.prolific.com/","it-IT,it;q=0.9,en-US;q=0.8,en;q=0.7","5daae19f8a06b60016d1bc32","686e379bc37a29ffa5cdc956","6877764ef99ad94248d99458","1","1","5daae19f8a06b60016d1bc32","1","1","2025-07-16T09:59:05.297Z","","","","","","","","","","","AttribQ","","50","","","","","","","","","","","","","","","","","","","","","","","","","","","","",""
"2819","","<div style=""width:500px;"">
  <p>How much control did you have over the ball?</p>
  </div>","100","html-slider-response","21","402697","0.0-5.0-2.2","94","1","2025-07-16 09:52:23","1f75c3e559b7213887762d5229550c2b","93.39.141.5","Mozilla/5.0 (Windows NT 10.0; Win64; x64) AppleWebKit/537.36 (KHTML, like Gecko) Chrome/138.0.0.0 Safari/537.36","WebKit","Chrome","138.0.0.0","Windows","10.0","https://app.prolific.com/","it-IT,it;q=0.9,en-US;q=0.8,en;q=0.7","5daae19f8a06b60016d1bc32","686e379bc37a29ffa5cdc956","6877764ef99ad94248d99458","1","1","5daae19f8a06b60016d1bc32","1","1","2025-07-16T09:59:08.117Z","","","","","","","","","","","ControlQ","","50","","","","","","","","","","","","","","","","","","","","","","","","","","","","",""
"4710","","<div style=""width:500px;"">
  <p>How would you describe your current emotional state?</p>
  </div>","46","html-slider-response","22","407407","0.0-5.0-3.2","94","1","2025-07-16 09:52:23","1f75c3e559b7213887762d5229550c2b","93.39.141.5","Mozilla/5.0 (Windows NT 10.0; Win64; x64) AppleWebKit/537.36 (KHTML, like Gecko) Chrome/138.0.0.0 Safari/537.36","WebKit","Chrome","138.0.0.0","Windows","10.0","https://app.prolific.com/","it-IT,it;q=0.9,en-US;q=0.8,en;q=0.7","5daae19f8a06b60016d1bc32","686e379bc37a29ffa5cdc956","6877764ef99ad94248d99458","1","1","5daae19f8a06b60016d1bc32","1","1","2025-07-16T09:59:12.827Z","","","","","","","","","","","StressQ","","50","","","","","","","","","","","","","","","","","","","","","","","","","","","","",""
"3167","","<div style=""width:500px;"">
  <p>What best describes how you currently feel?</p>
  </div>","76","html-slider-response","23","410575","0.0-5.0-4.2","94","1","2025-07-16 09:52:23","1f75c3e559b7213887762d5229550c2b","93.39.141.5","Mozilla/5.0 (Windows NT 10.0; Win64; x64) AppleWebKit/537.36 (KHTML, like Gecko) Chrome/138.0.0.0 Safari/537.36","WebKit","Chrome","138.0.0.0","Windows","10.0","https://app.prolific.com/","it-IT,it;q=0.9,en-US;q=0.8,en;q=0.7","5daae19f8a06b60016d1bc32","686e379bc37a29ffa5cdc956","6877764ef99ad94248d99458","1","1","5daae19f8a06b60016d1bc32","1","1","2025-07-16T09:59:15.995Z","","","","","","","","","","","MotivationQ","","50","","","","","","","","","","","","","","","","","","","","","","","","","","","","",""
"","","","","ctl-task-cpt","24","459687","0.0-5.0-0.3","94","1","2025-07-16 09:52:23","1f75c3e559b7213887762d5229550c2b","93.39.141.5","Mozilla/5.0 (Windows NT 10.0; Win64; x64) AppleWebKit/537.36 (KHTML, like Gecko) Chrome/138.0.0.0 Safari/537.36","WebKit","Chrome","138.0.0.0","Windows","10.0","https://app.prolific.com/","it-IT,it;q=0.9,en-US;q=0.8,en;q=0.7","5daae19f8a06b60016d1bc32","686e379bc37a29ffa5cdc956","6877764ef99ad94248d99458","1","1","5daae19f8a06b60016d1bc32","1","1","2025-07-16T10:00:05.107Z","","","","","","","","","","","","","","win-only","3","g1:SW,g2:NE","0.7","4","0","411965.6","1624.3","6626.7","46093.3","1","4","4","6","2","-4","-4","13","17","0.09848484848484848","1697.9","3000","-2715","[""up"",""right""]","{""num_key_presses"":8,""num_perfect"":5,""num_errors"":0,""num_randdir"":3,""num_randdir_good_moves"":0,""num_whilered"":0,""num_whileblue"":0,""num_blue"":4,""num_good_moves"":5}","[416.57142857142856,420.47767857142856,0.2,416.57142857142856,420.47767857142856,101.6,416.57142857142856,420.47767857142856,203.2,416.57142857142856,420.47767857142856,306.5,416.57142857142856,420.47767857142856,406.5,416.57142857142856,420.47767857142856,514,416.57142857142856,420.47767857142856,614.8,416.57142857142856,420.47767857142856,715.2,416.57142857142856,420.47767857142856,817.4,416.57142857142856,420.47767857142856,922,416.57142857142856,420.47767857142856,1032.1,416.57142857142856,420.47767857142856,1136.1,669.5714285714286,148.47767857142856,1237.2,699.5714285714286,117.47767857142857,1337.9,723.5714285714286,102.47767857142857,1442.4,767.5714285714286,83.47767857142857,1543,767.5714285714286,83.47767857142857,1648.9,767.5714285714286,83.47767857142857,1751.8,767.5714285714286,83.47767857142857,1852.1,767.5714285714286,83.47767857142857,1956.4,890.5714285714286,166.47767857142856,2056.6,1067.5714285714287,301.47767857142856,2157.1,1067.5714285714287,301.47767857142856,2264.8,1067.5714285714287,301.47767857142856,2366,1067.5714285714287,301.47767857142856,2466.4,1067.5714285714287,301.47767857142856,2568.4,1067.5714285714287,301.47767857142856,2672.2,1067.5714285714287,301.47767857142856,2782.9,1067.5714285714287,301.47767857142856,2887.2,1067.5714285714287,301.47767857142856,2991.6,1067.5714285714287,301.47767857142856,3091.6,1067.5714285714287,301.47767857142856,3192.2,1067.5714285714287,301.47767857142856,3292.2,1067.5714285714287,301.47767857142856,3398.9,1067.5714285714287,301.47767857142856,3499.3,1067.5714285714287,301.47767857142856,3601.3,1067.5714285714287,301.47767857142856,3706.8,1067.5714285714287,301.47767857142856,3815.7,1067.5714285714287,301.47767857142856,3916.1,1067.5714285714287,301.47767857142856,4017.6,1067.5714285714287,301.47767857142856,4121.9,1067.5714285714287,301.47767857142856,4226.8,1067.5714285714287,301.47767857142856,4326.9,1067.5714285714287,301.47767857142856,4428.2,1067.5714285714287,301.47767857142856,4532.7,1067.5714285714287,301.47767857142856,4632.9,1067.5714285714287,301.47767857142856,4733.3,1067.5714285714287,301.47767857142856,4836,1067.5714285714287,301.47767857142856,4936.8]","[5600.1,5600.1,3180.7,2004.5,414.9,""smooth"",""up"",""up"",""good_move"",12178.2,6577.8,2235.9,9574,368.3,""smooth"",""right"",""right"",""good_move"",14687.9,2509.4,2001,12178.5,508.4,""oops"",""right"",""down"",""bad_move"",21007,6319,2783.4,17905.8,317.8,""smooth"",""right"",""right"",""good_move"",23878.5,2871.5,2445.4,21007.1,426.1,""oops"",""right"",""down"",""bad_move"",26559.9,2681.2,2147.4,23878.7,533.8,""smooth"",""up"",""up"",""good_move"",30164.5,3604.3,3190.1,26560.2,414.2,""oops"",""up"",""left"",""bad_move"",36534.3,6369.5,2578.7,33563.3,392.3,""smooth"",""up"",""up"",""good_move""]","",""
"9496","","<div style=""width:500px;"">
  <p>What determined the result of this run?</p>
  </div>","10","html-slider-response","25","469184","0.0-5.0-1.3","94","1","2025-07-16 09:52:23","1f75c3e559b7213887762d5229550c2b","93.39.141.5","Mozilla/5.0 (Windows NT 10.0; Win64; x64) AppleWebKit/537.36 (KHTML, like Gecko) Chrome/138.0.0.0 Safari/537.36","WebKit","Chrome","138.0.0.0","Windows","10.0","https://app.prolific.com/","it-IT,it;q=0.9,en-US;q=0.8,en;q=0.7","5daae19f8a06b60016d1bc32","686e379bc37a29ffa5cdc956","6877764ef99ad94248d99458","1","1","5daae19f8a06b60016d1bc32","1","1","2025-07-16T10:00:14.604Z","","","","","","","","","","","AttribQ","","50","","","","","","","","","","","","","","","","","","","","","","","","","","","","",""
"5089","","<div style=""width:500px;"">
  <p>How much control did you have over the ball?</p>
  </div>","21","html-slider-response","26","474274","0.0-5.0-2.3","94","1","2025-07-16 09:52:23","1f75c3e559b7213887762d5229550c2b","93.39.141.5","Mozilla/5.0 (Windows NT 10.0; Win64; x64) AppleWebKit/537.36 (KHTML, like Gecko) Chrome/138.0.0.0 Safari/537.36","WebKit","Chrome","138.0.0.0","Windows","10.0","https://app.prolific.com/","it-IT,it;q=0.9,en-US;q=0.8,en;q=0.7","5daae19f8a06b60016d1bc32","686e379bc37a29ffa5cdc956","6877764ef99ad94248d99458","1","1","5daae19f8a06b60016d1bc32","1","1","2025-07-16T10:00:19.694Z","","","","","","","","","","","ControlQ","","50","","","","","","","","","","","","","","","","","","","","","","","","","","","","",""
"4683","","<div style=""width:500px;"">
  <p>How would you describe your current emotional state?</p>
  </div>","60","html-slider-response","27","478958","0.0-5.0-3.3","94","1","2025-07-16 09:52:23","1f75c3e559b7213887762d5229550c2b","93.39.141.5","Mozilla/5.0 (Windows NT 10.0; Win64; x64) AppleWebKit/537.36 (KHTML, like Gecko) Chrome/138.0.0.0 Safari/537.36","WebKit","Chrome","138.0.0.0","Windows","10.0","https://app.prolific.com/","it-IT,it;q=0.9,en-US;q=0.8,en;q=0.7","5daae19f8a06b60016d1bc32","686e379bc37a29ffa5cdc956","6877764ef99ad94248d99458","1","1","5daae19f8a06b60016d1bc32","1","1","2025-07-16T10:00:24.378Z","","","","","","","","","","","StressQ","","50","","","","","","","","","","","","","","","","","","","","","","","","","","","","",""
"3403","","<div style=""width:500px;"">
  <p>What best describes how you currently feel?</p>
  </div>","64","html-slider-response","28","482362","0.0-5.0-4.3","94","1","2025-07-16 09:52:23","1f75c3e559b7213887762d5229550c2b","93.39.141.5","Mozilla/5.0 (Windows NT 10.0; Win64; x64) AppleWebKit/537.36 (KHTML, like Gecko) Chrome/138.0.0.0 Safari/537.36","WebKit","Chrome","138.0.0.0","Windows","10.0","https://app.prolific.com/","it-IT,it;q=0.9,en-US;q=0.8,en;q=0.7","5daae19f8a06b60016d1bc32","686e379bc37a29ffa5cdc956","6877764ef99ad94248d99458","1","1","5daae19f8a06b60016d1bc32","1","1","2025-07-16T10:00:27.782Z","","","","","","","","","","","MotivationQ","","50","","","","","","","","","","","","","","","","","","","","","","","","","","","","",""
"","","","","ctl-task-cpt","29","521584","0.0-5.0-0.4","94","1","2025-07-16 09:52:23","1f75c3e559b7213887762d5229550c2b","93.39.141.5","Mozilla/5.0 (Windows NT 10.0; Win64; x64) AppleWebKit/537.36 (KHTML, like Gecko) Chrome/138.0.0.0 Safari/537.36","WebKit","Chrome","138.0.0.0","Windows","10.0","https://app.prolific.com/","it-IT,it;q=0.9,en-US;q=0.8,en;q=0.7","5daae19f8a06b60016d1bc32","686e379bc37a29ffa5cdc956","6877764ef99ad94248d99458","1","1","5daae19f8a06b60016d1bc32","1","1","2025-07-16T10:01:07.004Z","","","","","","","","","","","","","","win-only","1","g1:NE,g2:SW","0.6","5","0","483753","2176.6","7178.4","36201.4","1","4","4","6","1","-1","-1","12","13","0.09090909090909091","1779.6","3000","-3015","[""up"",""right""]","{""num_key_presses"":7,""num_perfect"":3,""num_errors"":0,""num_randdir"":4,""num_randdir_good_moves"":1,""num_whilered"":0,""num_whileblue"":0,""num_blue"":2,""num_good_moves"":4}","[417.57142857142856,412.47767857142856,0.2,417.57142857142856,412.47767857142856,100.3,417.57142857142856,412.47767857142856,204.1,417.57142857142856,412.47767857142856,304.3,417.57142857142856,412.47767857142856,404.5,417.57142857142856,412.47767857142856,504.6,417.57142857142856,412.47767857142856,610.4,417.57142857142856,412.47767857142856,710.5,417.57142857142856,412.47767857142856,815.5,417.57142857142856,412.47767857142856,919.6,417.57142857142856,412.47767857142856,1019.9,417.57142857142856,412.47767857142856,1124.2,417.57142857142856,412.47767857142856,1225.2,517.5714285714286,307.47767857142856,1328.9,673.5714285714286,167.47767857142856,1435.2,743.5714285714286,113.47767857142857,1539.1,761.5714285714286,96.47767857142857,1639.5,761.5714285714286,96.47767857142857,1744.4,761.5714285714286,96.47767857142857,1844.6,761.5714285714286,96.47767857142857,1944.8,761.5714285714286,96.47767857142857,2049,761.5714285714286,96.47767857142857,2149.3,931.5714285714286,209.47767857142856,2250.7,1003.5714285714286,278.47767857142856,2354.1,1003.5714285714286,278.47767857142856,2454.5,1003.5714285714286,278.47767857142856,2559.8,1003.5714285714286,278.47767857142856,2663.9,1003.5714285714286,278.47767857142856,2765,1003.5714285714286,278.47767857142856,2869.2,1003.5714285714286,278.47767857142856,2974.2,1003.5714285714286,278.47767857142856,3075.4,1003.5714285714286,278.47767857142856,3179.3,1003.5714285714286,278.47767857142856,3279.8,1003.5714285714286,278.47767857142856,3384.3,1003.5714285714286,278.47767857142856,3484.4,1003.5714285714286,278.47767857142856,3584.5,1003.5714285714286,278.47767857142856,3684.7,1003.5714285714286,278.47767857142856,3789.4,1003.5714285714286,278.47767857142856,3894,1003.5714285714286,278.47767857142856,3994.1,1003.5714285714286,278.47767857142856,4100.2,1003.5714285714286,278.47767857142856,4205,1003.5714285714286,278.47767857142856,4310.3,1003.5714285714286,278.47767857142856,4413.9,1003.5714285714286,278.47767857142856,4514.2,1003.5714285714286,278.47767857142856,4614.2,1003.5714285714286,278.47767857142856,4719,1003.5714285714286,278.47767857142856,4819.1,1003.5714285714286,278.47767857142856,4924]","[1436.1,1436.1,1000,0,436.1,""oops"",""right"",""down"",""bad_move"",4745.3,3308.8,2853.6,1436.5,455.2,""oops"",""right"",""right"",""good_move"",10811.6,6065.9,2193.6,8252.3,365.7,""oops"",""up"",""down"",""bad_move"",13937.5,3125.8,2737.7,10811.7,388.1,""smooth"",""up"",""up"",""good_move"",16717.2,2779.5,2384.1,13937.8,395.3,""smooth"",""up"",""up"",""good_move"",19696.7,2979.3,2629.6,16717.4,349.7,""smooth"",""up"",""up"",""good_move"",22522.8,2825.9,2514.4,19696.9,311.5,""oops"",""right"",""left"",""bad_move""]","",""
"3785","","<div style=""width:500px;"">
  <p>What determined the result of this run?</p>
  </div>","21","html-slider-response","30","525369","0.0-5.0-1.4","94","1","2025-07-16 09:52:23","1f75c3e559b7213887762d5229550c2b","93.39.141.5","Mozilla/5.0 (Windows NT 10.0; Win64; x64) AppleWebKit/537.36 (KHTML, like Gecko) Chrome/138.0.0.0 Safari/537.36","WebKit","Chrome","138.0.0.0","Windows","10.0","https://app.prolific.com/","it-IT,it;q=0.9,en-US;q=0.8,en;q=0.7","5daae19f8a06b60016d1bc32","686e379bc37a29ffa5cdc956","6877764ef99ad94248d99458","1","1","5daae19f8a06b60016d1bc32","1","1","2025-07-16T10:01:10.789Z","","","","","","","","","","","AttribQ","","50","","","","","","","","","","","","","","","","","","","","","","","","","","","","",""
"4705","","<div style=""width:500px;"">
  <p>How much control did you have over the ball?</p>
  </div>","25","html-slider-response","31","530076","0.0-5.0-2.4","94","1","2025-07-16 09:52:23","1f75c3e559b7213887762d5229550c2b","93.39.141.5","Mozilla/5.0 (Windows NT 10.0; Win64; x64) AppleWebKit/537.36 (KHTML, like Gecko) Chrome/138.0.0.0 Safari/537.36","WebKit","Chrome","138.0.0.0","Windows","10.0","https://app.prolific.com/","it-IT,it;q=0.9,en-US;q=0.8,en;q=0.7","5daae19f8a06b60016d1bc32","686e379bc37a29ffa5cdc956","6877764ef99ad94248d99458","1","1","5daae19f8a06b60016d1bc32","1","1","2025-07-16T10:01:15.496Z","","","","","","","","","","","ControlQ","","50","","","","","","","","","","","","","","","","","","","","","","","","","","","","",""
"3404","","<div style=""width:500px;"">
  <p>How would you describe your current emotional state?</p>
  </div>","71","html-slider-response","32","533481","0.0-5.0-3.4","94","1","2025-07-16 09:52:23","1f75c3e559b7213887762d5229550c2b","93.39.141.5","Mozilla/5.0 (Windows NT 10.0; Win64; x64) AppleWebKit/537.36 (KHTML, like Gecko) Chrome/138.0.0.0 Safari/537.36","WebKit","Chrome","138.0.0.0","Windows","10.0","https://app.prolific.com/","it-IT,it;q=0.9,en-US;q=0.8,en;q=0.7","5daae19f8a06b60016d1bc32","686e379bc37a29ffa5cdc956","6877764ef99ad94248d99458","1","1","5daae19f8a06b60016d1bc32","1","1","2025-07-16T10:01:18.901Z","","","","","","","","","","","StressQ","","50","","","","","","","","","","","","","","","","","","","","","","","","","","","","",""
"4571","","<div style=""width:500px;"">
  <p>What best describes how you currently feel?</p>
  </div>","53","html-slider-response","33","538052","0.0-5.0-4.4","94","1","2025-07-16 09:52:23","1f75c3e559b7213887762d5229550c2b","93.39.141.5","Mozilla/5.0 (Windows NT 10.0; Win64; x64) AppleWebKit/537.36 (KHTML, like Gecko) Chrome/138.0.0.0 Safari/537.36","WebKit","Chrome","138.0.0.0","Windows","10.0","https://app.prolific.com/","it-IT,it;q=0.9,en-US;q=0.8,en;q=0.7","5daae19f8a06b60016d1bc32","686e379bc37a29ffa5cdc956","6877764ef99ad94248d99458","1","1","5daae19f8a06b60016d1bc32","1","1","2025-07-16T10:01:23.472Z","","","","","","","","","","","MotivationQ","","50","","","","","","","","","","","","","","","","","","","","","","","","","","","","",""
"","","","","ctl-task-cpt","34","571226","0.0-5.0-0.5","94","1","2025-07-16 09:52:23","1f75c3e559b7213887762d5229550c2b","93.39.141.5","Mozilla/5.0 (Windows NT 10.0; Win64; x64) AppleWebKit/537.36 (KHTML, like Gecko) Chrome/138.0.0.0 Safari/537.36","WebKit","Chrome","138.0.0.0","Windows","10.0","https://app.prolific.com/","it-IT,it;q=0.9,en-US;q=0.8,en;q=0.7","5daae19f8a06b60016d1bc32","686e379bc37a29ffa5cdc956","6877764ef99ad94248d99458","1","1","5daae19f8a06b60016d1bc32","1","1","2025-07-16T10:01:56.646Z","","","","","","","","","","","","","","win-only","2","g1:SE,g2:NW","0.5","6","0","539443.6","2305.3","7309","30160.4","1","4","8","6","2","8","7","19","12","0.14393939393939395","1267.7","3000","255","[""left"",""up""]","{""num_key_presses"":9,""num_perfect"":4,""num_errors"":1,""num_randdir"":4,""num_randdir_good_moves"":3,""num_whilered"":0,""num_whileblue"":0,""num_blue"":0,""num_good_moves"":7}","[413.57142857142856,416.47767857142856,0,413.57142857142856,416.47767857142856,100.7,413.57142857142856,416.47767857142856,202.1,413.57142857142856,416.47767857142856,305.1,413.57142857142856,416.47767857142856,405.9,413.57142857142856,416.47767857142856,510,413.57142857142856,416.47767857142856,611.4,323.57142857142856,318.47767857142856,719.1,212.57142857142856,185.47767857142856,819.2,172.57142857142856,145.47767857142856,919.8,110.57142857142857,124.47767857142857,1020.2,89.57142857142857,107.47767857142857,1121,89.57142857142857,107.47767857142857,1221.7,89.57142857142857,107.47767857142857,1325.2,89.57142857142857,107.47767857142857,1426.1,89.57142857142857,107.47767857142857,1535.9,-92.42857142857143,154.47767857142856,1636.5,-219.42857142857144,191.47767857142856,1740.4,-219.42857142857144,191.47767857142856,1845,-219.42857142857144,191.47767857142856,1945.8,-219.42857142857144,191.47767857142856,2046.2,-219.42857142857144,191.47767857142856,2152.9,-219.42857142857144,191.47767857142856,2255,-219.42857142857144,191.47767857142856,2355.6,-219.42857142857144,191.47767857142856,2455.6,-219.42857142857144,191.47767857142856,2556.6,-219.42857142857144,191.47767857142856,2660.7,-219.42857142857144,191.47767857142856,2770.2,-219.42857142857144,191.47767857142856,2871.6,-219.42857142857144,191.47767857142856,2974.9,-219.42857142857144,191.47767857142856,3075.8,-219.42857142857144,191.47767857142856,3181.3,-219.42857142857144,191.47767857142856,3285.7,-219.42857142857144,191.47767857142856,3386.6,-219.42857142857144,191.47767857142856,3489.9,-219.42857142857144,191.47767857142856,3589.9,-219.42857142857144,191.47767857142856,3690.2,-219.42857142857144,191.47767857142856,3794.9,-219.42857142857144,191.47767857142856,3895,-219.42857142857144,191.47767857142856,3996.5,-219.42857142857144,191.47767857142856,4103.4,-219.42857142857144,191.47767857142856,4204.3,-219.42857142857144,191.47767857142856,4305.6,-219.42857142857144,191.47767857142856,4410.2,-219.42857142857144,191.47767857142856,4519.7,-219.42857142857144,191.47767857142856,4620.3,-219.42857142857144,191.47767857142856,4720.3,-219.42857142857144,191.47767857142856,4825.6,-219.42857142857144,191.47767857142856,4930.2]","[1433,1433.1,1000,0,433.1,""smooth"",""left"",""left"",""good_move"",4555.9,3122.4,2739.8,1433.5,382.7,""smooth"",""up"",""up"",""good_move"",7919.7,3363.3,2998.6,4556.5,364.6,""oops"",""up"",""left"",""good_move"",8085.9,165.9,1839.5,7920,-1673.6,""error"",""-"",""-"",""no_move"",12610.1,4524,3119.2,9086.9,404,""oops"",""up"",""right"",""bad_move"",15390.4,2780.1,2325.6,12610.3,454.5,""smooth"",""up"",""up"",""good_move"",18226.9,2836.3,2442.2,15390.6,394.1,""oops"",""left"",""left"",""good_move"",20342.5,2115.4,1727.4,18227.1,388,""oops"",""up"",""up"",""good_move"",22759.9,2417.3,2109.4,20342.6,307.9,""smooth"",""left"",""left"",""good_move""]","",""
"6973","","<div style=""width:500px;"">
  <p>What determined the result of this run?</p>
  </div>","54","html-slider-response","35","578199","0.0-5.0-1.5","94","1","2025-07-16 09:52:23","1f75c3e559b7213887762d5229550c2b","93.39.141.5","Mozilla/5.0 (Windows NT 10.0; Win64; x64) AppleWebKit/537.36 (KHTML, like Gecko) Chrome/138.0.0.0 Safari/537.36","WebKit","Chrome","138.0.0.0","Windows","10.0","https://app.prolific.com/","it-IT,it;q=0.9,en-US;q=0.8,en;q=0.7","5daae19f8a06b60016d1bc32","686e379bc37a29ffa5cdc956","6877764ef99ad94248d99458","1","1","5daae19f8a06b60016d1bc32","1","1","2025-07-16T10:02:03.620Z","","","","","","","","","","","AttribQ","","50","","","","","","","","","","","","","","","","","","","","","","","","","","","","",""
"4550","","<div style=""width:500px;"">
  <p>How much control did you have over the ball?</p>
  </div>","57","html-slider-response","36","582750","0.0-5.0-2.5","94","1","2025-07-16 09:52:23","1f75c3e559b7213887762d5229550c2b","93.39.141.5","Mozilla/5.0 (Windows NT 10.0; Win64; x64) AppleWebKit/537.36 (KHTML, like Gecko) Chrome/138.0.0.0 Safari/537.36","WebKit","Chrome","138.0.0.0","Windows","10.0","https://app.prolific.com/","it-IT,it;q=0.9,en-US;q=0.8,en;q=0.7","5daae19f8a06b60016d1bc32","686e379bc37a29ffa5cdc956","6877764ef99ad94248d99458","1","1","5daae19f8a06b60016d1bc32","1","1","2025-07-16T10:02:08.170Z","","","","","","","","","","","ControlQ","","50","","","","","","","","","","","","","","","","","","","","","","","","","","","","",""
"8973","","<div style=""width:500px;"">
  <p>How would you describe your current emotional state?</p>
  </div>","62","html-slider-response","37","591723","0.0-5.0-3.5","94","1","2025-07-16 09:52:23","1f75c3e559b7213887762d5229550c2b","93.39.141.5","Mozilla/5.0 (Windows NT 10.0; Win64; x64) AppleWebKit/537.36 (KHTML, like Gecko) Chrome/138.0.0.0 Safari/537.36","WebKit","Chrome","138.0.0.0","Windows","10.0","https://app.prolific.com/","it-IT,it;q=0.9,en-US;q=0.8,en;q=0.7","5daae19f8a06b60016d1bc32","686e379bc37a29ffa5cdc956","6877764ef99ad94248d99458","1","1","5daae19f8a06b60016d1bc32","1","1","2025-07-16T10:02:17.143Z","","","","","","","","","","","StressQ","","50","","","","","","","","","","","","","","","","","","","","","","","","","","","","",""
"4485","","<div style=""width:500px;"">
  <p>What best describes how you currently feel?</p>
  </div>","57","html-slider-response","38","596209","0.0-5.0-4.5","94","1","2025-07-16 09:52:23","1f75c3e559b7213887762d5229550c2b","93.39.141.5","Mozilla/5.0 (Windows NT 10.0; Win64; x64) AppleWebKit/537.36 (KHTML, like Gecko) Chrome/138.0.0.0 Safari/537.36","WebKit","Chrome","138.0.0.0","Windows","10.0","https://app.prolific.com/","it-IT,it;q=0.9,en-US;q=0.8,en;q=0.7","5daae19f8a06b60016d1bc32","686e379bc37a29ffa5cdc956","6877764ef99ad94248d99458","1","1","5daae19f8a06b60016d1bc32","1","1","2025-07-16T10:02:21.629Z","","","","","","","","","","","MotivationQ","","50","","","","","","","","","","","","","","","","","","","","","","","","","","","","",""
"","","","","ctl-task-cpt","39","633655","0.0-5.0-0.6","94","1","2025-07-16 09:52:23","1f75c3e559b7213887762d5229550c2b","93.39.141.5","Mozilla/5.0 (Windows NT 10.0; Win64; x64) AppleWebKit/537.36 (KHTML, like Gecko) Chrome/138.0.0.0 Safari/537.36","WebKit","Chrome","138.0.0.0","Windows","10.0","https://app.prolific.com/","it-IT,it;q=0.9,en-US;q=0.8,en;q=0.7","5daae19f8a06b60016d1bc32","686e379bc37a29ffa5cdc956","6877764ef99ad94248d99458","1","1","5daae19f8a06b60016d1bc32","1","1","2025-07-16T10:02:59.075Z","","","","","","","","","","","","","","win-only","3","g1:SW,g2:NE","0.4","7","0","597600.4","1258.8","6260.5","34425.9","1","4","4","6","1","-1","-2","17","19","0.12878787878787878","1620.6","3000","-3015","[""down"",""left""]","{""num_key_presses"":9,""num_perfect"":3,""num_errors"":1,""num_randdir"":5,""num_randdir_good_moves"":2,""num_whilered"":0,""num_whileblue"":0,""num_blue"":0,""num_good_moves"":5}","[419.57142857142856,423.47767857142856,0.2,419.57142857142856,423.47767857142856,102.6,419.57142857142856,423.47767857142856,203.1,419.57142857142856,423.47767857142856,307.3,419.57142857142856,423.47767857142856,408.8,419.57142857142856,423.47767857142856,513.2,419.57142857142856,423.47767857142856,616.5,419.57142857142856,423.47767857142856,716.6,419.57142857142856,423.47767857142856,817.3,419.57142857142856,423.47767857142856,922,419.57142857142856,423.47767857142856,1027.4,251.57142857142856,585.4776785714286,1127.6,189.57142857142856,672.4776785714286,1231.8,152.57142857142856,700.4776785714286,1333,117.57142857142857,725.4776785714286,1437.6,117.57142857142857,725.4776785714286,1541.6,117.57142857142857,725.4776785714286,1642.6,117.57142857142857,725.4776785714286,1747.7,117.57142857142857,725.4776785714286,1851.7,104.57142857142857,724.4776785714286,1952.6,-190.42857142857144,663.4776785714286,2052.7,-201.42857142857144,656.4776785714286,2158,-201.42857142857144,656.4776785714286,2262,-201.42857142857144,656.4776785714286,2362.5,-201.42857142857144,656.4776785714286,2467,-201.42857142857144,656.4776785714286,2572.7,-201.42857142857144,656.4776785714286,2676.5,-201.42857142857144,656.4776785714286,2777.5,-201.42857142857144,656.4776785714286,2882.5,-201.42857142857144,656.4776785714286,2983.6,-201.42857142857144,656.4776785714286,3087.1,-201.42857142857144,656.4776785714286,3187.4,-201.42857142857144,656.4776785714286,3288.8,-201.42857142857144,656.4776785714286,3391.9,-201.42857142857144,656.4776785714286,3492.3,-201.42857142857144,656.4776785714286,3592.6,-201.42857142857144,656.4776785714286,3697.4,-201.42857142857144,656.4776785714286,3798.3,-201.42857142857144,656.4776785714286,3902.2,-201.42857142857144,656.4776785714286,4007.6,-201.42857142857144,656.4776785714286,4112,-201.42857142857144,656.4776785714286,4212.5,-201.42857142857144,656.4776785714286,4316.5,-201.42857142857144,656.4776785714286,4416.7,-201.42857142857144,656.4776785714286,4517.1,-201.42857142857144,656.4776785714286,4617.8,-201.42857142857144,656.4776785714286,4722.5,-201.42857142857144,656.4776785714286,4822.9,-201.42857142857144,656.4776785714286,4927.2]","[1451.5,1451.5,1000,0,451.5,""smooth"",""left"",""left"",""good_move"",4762.5,3310.8,2950.3,1451.7,360.5,""oops"",""down"",""down"",""good_move"",8899.1,4136.3,3709.5,4762.8,426.8,""oops"",""down"",""up"",""bad_move"",11195.5,2296.1,1900.4,8899.4,395.7,""smooth"",""down"",""down"",""good_move"",14805.4,3609.8,3294.2,11195.6,315.6,""oops"",""down"",""up"",""bad_move"",17950.3,3144.6,2777.1,14805.7,367.5,""oops"",""down"",""down"",""good_move"",20034.7,2083.9,1694.5,17950.9,389.4,""smooth"",""down"",""down"",""good_move"",22159.3,2124.4,1803.8,20035,320.5,""oops"",""left"",""up"",""bad_move"",24118.5,1958.8,2299.7,22159.7,-340.9,""error"",""-"",""-"",""no_move""]","",""
"4102","","<div style=""width:500px;"">
  <p>What determined the result of this run?</p>
  </div>","5","html-slider-response","40","637758","0.0-5.0-1.6","94","1","2025-07-16 09:52:23","1f75c3e559b7213887762d5229550c2b","93.39.141.5","Mozilla/5.0 (Windows NT 10.0; Win64; x64) AppleWebKit/537.36 (KHTML, like Gecko) Chrome/138.0.0.0 Safari/537.36","WebKit","Chrome","138.0.0.0","Windows","10.0","https://app.prolific.com/","it-IT,it;q=0.9,en-US;q=0.8,en;q=0.7","5daae19f8a06b60016d1bc32","686e379bc37a29ffa5cdc956","6877764ef99ad94248d99458","1","1","5daae19f8a06b60016d1bc32","1","1","2025-07-16T10:03:03.178Z","","","","","","","","","","","AttribQ","","50","","","","","","","","","","","","","","","","","","","","","","","","","","","","",""
"2601","","<div style=""width:500px;"">
  <p>How much control did you have over the ball?</p>
  </div>","7","html-slider-response","41","640360","0.0-5.0-2.6","94","1","2025-07-16 09:52:23","1f75c3e559b7213887762d5229550c2b","93.39.141.5","Mozilla/5.0 (Windows NT 10.0; Win64; x64) AppleWebKit/537.36 (KHTML, like Gecko) Chrome/138.0.0.0 Safari/537.36","WebKit","Chrome","138.0.0.0","Windows","10.0","https://app.prolific.com/","it-IT,it;q=0.9,en-US;q=0.8,en;q=0.7","5daae19f8a06b60016d1bc32","686e379bc37a29ffa5cdc956","6877764ef99ad94248d99458","1","1","5daae19f8a06b60016d1bc32","1","1","2025-07-16T10:03:05.780Z","","","","","","","","","","","ControlQ","","50","","","","","","","","","","","","","","","","","","","","","","","","","","","","",""
"3213","","<div style=""width:500px;"">
  <p>How would you describe your current emotional state?</p>
  </div>","92","html-slider-response","42","643573","0.0-5.0-3.6","94","1","2025-07-16 09:52:23","1f75c3e559b7213887762d5229550c2b","93.39.141.5","Mozilla/5.0 (Windows NT 10.0; Win64; x64) AppleWebKit/537.36 (KHTML, like Gecko) Chrome/138.0.0.0 Safari/537.36","WebKit","Chrome","138.0.0.0","Windows","10.0","https://app.prolific.com/","it-IT,it;q=0.9,en-US;q=0.8,en;q=0.7","5daae19f8a06b60016d1bc32","686e379bc37a29ffa5cdc956","6877764ef99ad94248d99458","1","1","5daae19f8a06b60016d1bc32","1","1","2025-07-16T10:03:08.994Z","","","","","","","","","","","StressQ","","50","","","","","","","","","","","","","","","","","","","","","","","","","","","","",""
"4565","","<div style=""width:500px;"">
  <p>What best describes how you currently feel?</p>
  </div>","48","html-slider-response","43","648140","0.0-5.0-4.6","94","1","2025-07-16 09:52:23","1f75c3e559b7213887762d5229550c2b","93.39.141.5","Mozilla/5.0 (Windows NT 10.0; Win64; x64) AppleWebKit/537.36 (KHTML, like Gecko) Chrome/138.0.0.0 Safari/537.36","WebKit","Chrome","138.0.0.0","Windows","10.0","https://app.prolific.com/","it-IT,it;q=0.9,en-US;q=0.8,en;q=0.7","5daae19f8a06b60016d1bc32","686e379bc37a29ffa5cdc956","6877764ef99ad94248d99458","1","1","5daae19f8a06b60016d1bc32","1","1","2025-07-16T10:03:13.560Z","","","","","","","","","","","MotivationQ","","50","","","","","","","","","","","","","","","","","","","","","","","","","","","","",""
"","","","","ctl-task-cpt","44","686295","0.0-5.0-0.7","94","1","2025-07-16 09:52:23","1f75c3e559b7213887762d5229550c2b","93.39.141.5","Mozilla/5.0 (Windows NT 10.0; Win64; x64) AppleWebKit/537.36 (KHTML, like Gecko) Chrome/138.0.0.0 Safari/537.36","WebKit","Chrome","138.0.0.0","Windows","10.0","https://app.prolific.com/","it-IT,it;q=0.9,en-US;q=0.8,en;q=0.7","5daae19f8a06b60016d1bc32","686e379bc37a29ffa5cdc956","6877764ef99ad94248d99458","1","1","5daae19f8a06b60016d1bc32","1","1","2025-07-16T10:03:51.715Z","","","","","","","","","","","","","","win-only","0","g1:NW,g2:SE","0.3","8","0","649531.4","1655.7","6662.2","35135.7","1","4","8","6","2","-8","-8","9","17","0.06818181818181818","1219.8","3000","-3000","[""down"",""right""]","{""num_key_presses"":7,""num_perfect"":3,""num_errors"":0,""num_randdir"":4,""num_randdir_good_moves"":1,""num_whilered"":0,""num_whileblue"":0,""num_blue"":2,""num_good_moves"":4}","[416.57142857142856,415.47767857142856,0.2,416.57142857142856,415.47767857142856,104.7,416.57142857142856,415.47767857142856,205.2,416.57142857142856,415.47767857142856,309.7,416.57142857142856,415.47767857142856,410.1,416.57142857142856,415.47767857142856,514.4,416.57142857142856,415.47767857142856,615.2,488.57142857142856,479.47767857142856,719.8,720.5714285714286,689.4776785714286,820,761.5714285714286,733.4776785714286,920.9,771.5714285714286,741.4776785714286,1024.9,772.5714285714286,741.4776785714286,1125.3,772.5714285714286,741.4776785714286,1230.8,772.5714285714286,741.4776785714286,1331,772.5714285714286,741.4776785714286,1431.1,772.5714285714286,741.4776785714286,1535.3,969.5714285714286,660.4776785714286,1640.7,1024.5714285714287,641.4776785714286,1741.1,1024.5714285714287,641.4776785714286,1847.8,1024.5714285714287,641.4776785714286,1950.7,1024.5714285714287,641.4776785714286,2054.6,1024.5714285714287,641.4776785714286,2155,1024.5714285714287,641.4776785714286,2255.6,1024.5714285714287,641.4776785714286,2359.5,1024.5714285714287,641.4776785714286,2459.8,1024.5714285714287,641.4776785714286,2559.9,1024.5714285714287,641.4776785714286,2660.1,1024.5714285714287,641.4776785714286,2760.2,1024.5714285714287,641.4776785714286,2864.7,1024.5714285714287,641.4776785714286,2967.8,1024.5714285714287,641.4776785714286,3070.8,1024.5714285714287,641.4776785714286,3174.9,1024.5714285714287,641.4776785714286,3275,1024.5714285714287,641.4776785714286,3379.8,1024.5714285714287,641.4776785714286,3480.1,1024.5714285714287,641.4776785714286,3585.8,1024.5714285714287,641.4776785714286,3685.9,1024.5714285714287,641.4776785714286,3786.6,1024.5714285714287,641.4776785714286,3889.4,1024.5714285714287,641.4776785714286,3991.3,1024.5714285714287,641.4776785714286,4094.8,1024.5714285714287,641.4776785714286,4194.9,1024.5714285714287,641.4776785714286,4296.5,1024.5714285714287,641.4776785714286,4401.4,1024.5714285714287,641.4776785714286,4505,1024.5714285714287,641.4776785714286,4605,1024.5714285714287,641.4776785714286,4705.8,1024.5714285714287,641.4776785714286,4810,1024.5714285714287,641.4776785714286,4910.4]","[1402.2,1402.2,1000,0,402.2,""smooth"",""right"",""right"",""good_move"",7341.2,5938.5,1894.7,5065.1,381.4,""oops"",""right"",""right"",""good_move"",14211.3,6870,2646,11193.8,371.5,""smooth"",""down"",""down"",""good_move"",17144.7,2933.2,2447.5,14211.6,485.7,""smooth"",""down"",""down"",""good_move"",20131.9,2987.1,2612.7,17144.8,374.4,""oops"",""down"",""left"",""bad_move"",23225.5,3093.3,2639.7,20132.2,453.6,""oops"",""down"",""up"",""bad_move"",25552.7,2326.8,1952.1,23225.9,374.7,""oops"",""right"",""up"",""bad_move""]","",""
"4277","","<div style=""width:500px;"">
  <p>What determined the result of this run?</p>
  </div>","4","html-slider-response","45","690573","0.0-5.0-1.7","94","1","2025-07-16 09:52:23","1f75c3e559b7213887762d5229550c2b","93.39.141.5","Mozilla/5.0 (Windows NT 10.0; Win64; x64) AppleWebKit/537.36 (KHTML, like Gecko) Chrome/138.0.0.0 Safari/537.36","WebKit","Chrome","138.0.0.0","Windows","10.0","https://app.prolific.com/","it-IT,it;q=0.9,en-US;q=0.8,en;q=0.7","5daae19f8a06b60016d1bc32","686e379bc37a29ffa5cdc956","6877764ef99ad94248d99458","1","1","5daae19f8a06b60016d1bc32","1","1","2025-07-16T10:03:55.993Z","","","","","","","","","","","AttribQ","","50","","","","","","","","","","","","","","","","","","","","","","","","","","","","",""
"5523","","<div style=""width:500px;"">
  <p>How much control did you have over the ball?</p>
  </div>","9","html-slider-response","46","696097","0.0-5.0-2.7","94","1","2025-07-16 09:52:23","1f75c3e559b7213887762d5229550c2b","93.39.141.5","Mozilla/5.0 (Windows NT 10.0; Win64; x64) AppleWebKit/537.36 (KHTML, like Gecko) Chrome/138.0.0.0 Safari/537.36","WebKit","Chrome","138.0.0.0","Windows","10.0","https://app.prolific.com/","it-IT,it;q=0.9,en-US;q=0.8,en;q=0.7","5daae19f8a06b60016d1bc32","686e379bc37a29ffa5cdc956","6877764ef99ad94248d99458","1","1","5daae19f8a06b60016d1bc32","1","1","2025-07-16T10:04:01.517Z","","","","","","","","","","","ControlQ","","50","","","","","","","","","","","","","","","","","","","","","","","","","","","","",""
"2406","","<div style=""width:500px;"">
  <p>How would you describe your current emotional state?</p>
  </div>","100","html-slider-response","47","698503","0.0-5.0-3.7","94","1","2025-07-16 09:52:23","1f75c3e559b7213887762d5229550c2b","93.39.141.5","Mozilla/5.0 (Windows NT 10.0; Win64; x64) AppleWebKit/537.36 (KHTML, like Gecko) Chrome/138.0.0.0 Safari/537.36","WebKit","Chrome","138.0.0.0","Windows","10.0","https://app.prolific.com/","it-IT,it;q=0.9,en-US;q=0.8,en;q=0.7","5daae19f8a06b60016d1bc32","686e379bc37a29ffa5cdc956","6877764ef99ad94248d99458","1","1","5daae19f8a06b60016d1bc32","1","1","2025-07-16T10:04:03.923Z","","","","","","","","","","","StressQ","","50","","","","","","","","","","","","","","","","","","","","","","","","","","","","",""
"2590","","<div style=""width:500px;"">
  <p>What best describes how you currently feel?</p>
  </div>","42","html-slider-response","48","701093","0.0-5.0-4.7","94","1","2025-07-16 09:52:23","1f75c3e559b7213887762d5229550c2b","93.39.141.5","Mozilla/5.0 (Windows NT 10.0; Win64; x64) AppleWebKit/537.36 (KHTML, like Gecko) Chrome/138.0.0.0 Safari/537.36","WebKit","Chrome","138.0.0.0","Windows","10.0","https://app.prolific.com/","it-IT,it;q=0.9,en-US;q=0.8,en;q=0.7","5daae19f8a06b60016d1bc32","686e379bc37a29ffa5cdc956","6877764ef99ad94248d99458","1","1","5daae19f8a06b60016d1bc32","1","1","2025-07-16T10:04:06.514Z","","","","","","","","","","","MotivationQ","","50","","","","","","","","","","","","","","","","","","","","","","","","","","","","",""
"","","","","ctl-task-cpt","49","729367","0.0-5.0-0.8","94","1","2025-07-16 09:52:23","1f75c3e559b7213887762d5229550c2b","93.39.141.5","Mozilla/5.0 (Windows NT 10.0; Win64; x64) AppleWebKit/537.36 (KHTML, like Gecko) Chrome/138.0.0.0 Safari/537.36","WebKit","Chrome","138.0.0.0","Windows","10.0","https://app.prolific.com/","it-IT,it;q=0.9,en-US;q=0.8,en;q=0.7","5daae19f8a06b60016d1bc32","686e379bc37a29ffa5cdc956","6877764ef99ad94248d99458","1","1","5daae19f8a06b60016d1bc32","1","1","2025-07-16T10:04:34.787Z","","","","","","","","","","","","","","win-only","2","g1:SE,g2:NW","0.2","9","0","702484.6","1273.2","6275.9","25255.4","1","4","4","6","1","1","1","10","9","0.07575757575757576","1995.6","3000","685","[""down"",""right""]","{""num_key_presses"":6,""num_perfect"":2,""num_errors"":0,""num_randdir"":4,""num_randdir_good_moves"":3,""num_whilered"":0,""num_whileblue"":0,""num_blue"":1,""num_good_moves"":5}","[416.57142857142856,416.47767857142856,0.1,416.57142857142856,416.47767857142856,102,416.57142857142856,416.47767857142856,202.3,416.57142857142856,416.47767857142856,302.7,416.57142857142856,416.47767857142856,403.1,416.57142857142856,416.47767857142856,507.4,416.57142857142856,416.47767857142856,608.3,416.57142857142856,416.47767857142856,708.3,416.57142857142856,416.47767857142856,808.7,416.57142857142856,416.47767857142856,913.7,416.57142857142856,416.47767857142856,1017.3,587.5714285714286,558.4776785714286,1117.3,719.5714285714286,663.4776785714286,1218,757.5714285714286,681.4776785714286,1319.7,760.5714285714286,683.4776785714286,1422.9,760.5714285714286,683.4776785714286,1523.3,760.5714285714286,683.4776785714286,1627.6,760.5714285714286,728.4776785714286,1727.9,762.5714285714286,735.4776785714286,1828.6,762.5714285714286,735.4776785714286,1932.5,762.5714285714286,735.4776785714286,2032.8,762.5714285714286,735.4776785714286,2133.1,762.5714285714286,735.4776785714286,2238.1,762.5714285714286,735.4776785714286,2342.5,762.5714285714286,735.4776785714286,2443.7,938.5714285714286,658.4776785714286,2547.5,981.5714285714286,639.4776785714286,2647.9,981.5714285714286,639.4776785714286,2752.2,981.5714285714286,639.4776785714286,2852.3,981.5714285714286,639.4776785714286,2957.5,981.5714285714286,639.4776785714286,3057.6,981.5714285714286,639.4776785714286,3162.8,981.5714285714286,639.4776785714286,3263.5,981.5714285714286,639.4776785714286,3368.1,981.5714285714286,639.4776785714286,3472,981.5714285714286,639.4776785714286,3573.1,981.5714285714286,639.4776785714286,3677.5,981.5714285714286,639.4776785714286,3783.1,981.5714285714286,639.4776785714286,3888.2,981.5714285714286,639.4776785714286,3992.4,981.5714285714286,639.4776785714286,4092.5,981.5714285714286,639.4776785714286,4196.9,981.5714285714286,639.4776785714286,4298.4,981.5714285714286,639.4776785714286,4402.3,981.5714285714286,639.4776785714286,4502.5,981.5714285714286,639.4776785714286,4608.4,981.5714285714286,639.4776785714286,4712.8,981.5714285714286,639.4776785714286,4817.4,981.5714285714286,639.4776785714286,4923.3]","[1413.4,1413.4,1000,0,413.4,""smooth"",""down"",""down"",""good_move"",7689,6275.3,2858.4,4410.1,420.5,""oops"",""right"",""down"",""good_move"",10744.1,3054.6,2650.7,7689.5,403.9,""oops"",""right"",""right"",""good_move"",13568.6,2824.2,2502.5,10744.4,321.7,""oops"",""right"",""up"",""bad_move"",16360.6,2791.7,2338.7,13568.9,453,""smooth"",""right"",""right"",""good_move"",18891.2,2530.5,2192,16360.7,338.5,""oops"",""down"",""down"",""good_move""]","",""
"3291","","<div style=""width:500px;"">
  <p>What determined the result of this run?</p>
  </div>","50","html-slider-response","50","732659","0.0-5.0-1.8","94","1","2025-07-16 09:52:23","1f75c3e559b7213887762d5229550c2b","93.39.141.5","Mozilla/5.0 (Windows NT 10.0; Win64; x64) AppleWebKit/537.36 (KHTML, like Gecko) Chrome/138.0.0.0 Safari/537.36","WebKit","Chrome","138.0.0.0","Windows","10.0","https://app.prolific.com/","it-IT,it;q=0.9,en-US;q=0.8,en;q=0.7","5daae19f8a06b60016d1bc32","686e379bc37a29ffa5cdc956","6877764ef99ad94248d99458","1","1","5daae19f8a06b60016d1bc32","1","1","2025-07-16T10:04:38.079Z","","","","","","","","","","","AttribQ","","50","","","","","","","","","","","","","","","","","","","","","","","","","","","","",""
"3283","","<div style=""width:500px;"">
  <p>How much control did you have over the ball?</p>
  </div>","50","html-slider-response","51","735943","0.0-5.0-2.8","94","1","2025-07-16 09:52:23","1f75c3e559b7213887762d5229550c2b","93.39.141.5","Mozilla/5.0 (Windows NT 10.0; Win64; x64) AppleWebKit/537.36 (KHTML, like Gecko) Chrome/138.0.0.0 Safari/537.36","WebKit","Chrome","138.0.0.0","Windows","10.0","https://app.prolific.com/","it-IT,it;q=0.9,en-US;q=0.8,en;q=0.7","5daae19f8a06b60016d1bc32","686e379bc37a29ffa5cdc956","6877764ef99ad94248d99458","1","1","5daae19f8a06b60016d1bc32","1","1","2025-07-16T10:04:41.363Z","","","","","","","","","","","ControlQ","","50","","","","","","","","","","","","","","","","","","","","","","","","","","","","",""
"3492","","<div style=""width:500px;"">
  <p>How would you describe your current emotional state?</p>
  </div>","100","html-slider-response","52","739435","0.0-5.0-3.8","94","1","2025-07-16 09:52:23","1f75c3e559b7213887762d5229550c2b","93.39.141.5","Mozilla/5.0 (Windows NT 10.0; Win64; x64) AppleWebKit/537.36 (KHTML, like Gecko) Chrome/138.0.0.0 Safari/537.36","WebKit","Chrome","138.0.0.0","Windows","10.0","https://app.prolific.com/","it-IT,it;q=0.9,en-US;q=0.8,en;q=0.7","5daae19f8a06b60016d1bc32","686e379bc37a29ffa5cdc956","6877764ef99ad94248d99458","1","1","5daae19f8a06b60016d1bc32","1","1","2025-07-16T10:04:44.856Z","","","","","","","","","","","StressQ","","50","","","","","","","","","","","","","","","","","","","","","","","","","","","","",""
"2164","","<div style=""width:500px;"">
  <p>What best describes how you currently feel?</p>
  </div>","26","html-slider-response","53","741601","0.0-5.0-4.8","94","1","2025-07-16 09:52:23","1f75c3e559b7213887762d5229550c2b","93.39.141.5","Mozilla/5.0 (Windows NT 10.0; Win64; x64) AppleWebKit/537.36 (KHTML, like Gecko) Chrome/138.0.0.0 Safari/537.36","WebKit","Chrome","138.0.0.0","Windows","10.0","https://app.prolific.com/","it-IT,it;q=0.9,en-US;q=0.8,en;q=0.7","5daae19f8a06b60016d1bc32","686e379bc37a29ffa5cdc956","6877764ef99ad94248d99458","1","1","5daae19f8a06b60016d1bc32","1","1","2025-07-16T10:04:47.021Z","","","","","","","","","","","MotivationQ","","50","","","","","","","","","","","","","","","","","","","","","","","","","","","","",""
"","","","","ctl-task-cpt","54","784446","0.0-5.0-0.9","94","1","2025-07-16 09:52:23","1f75c3e559b7213887762d5229550c2b","93.39.141.5","Mozilla/5.0 (Windows NT 10.0; Win64; x64) AppleWebKit/537.36 (KHTML, like Gecko) Chrome/138.0.0.0 Safari/537.36","WebKit","Chrome","138.0.0.0","Windows","10.0","https://app.prolific.com/","it-IT,it;q=0.9,en-US;q=0.8,en;q=0.7","5daae19f8a06b60016d1bc32","686e379bc37a29ffa5cdc956","6877764ef99ad94248d99458","1","1","5daae19f8a06b60016d1bc32","1","1","2025-07-16T10:05:29.866Z","","","","","","","","","","","","","","win-only","1","g1:NE,g2:SW","0.4","10","0","742991.7","1257.6","6260.1","39835.5","1","4","8","6","2","8","8","18","10","0.13636363636363635","1331.6","3000","230","[""down"",""left""]","{""num_key_presses"":8,""num_perfect"":4,""num_errors"":0,""num_randdir"":4,""num_randdir_good_moves"":3,""num_whilered"":0,""num_whileblue"":0,""num_blue"":4,""num_good_moves"":7}","[414.57142857142856,422.47767857142856,0.2,414.57142857142856,422.47767857142856,103,414.57142857142856,422.47767857142856,207.5,414.57142857142856,422.47767857142856,308.4,414.57142857142856,422.47767857142856,416.1,414.57142857142856,422.47767857142856,516.4,414.57142857142856,422.47767857142856,616.9,414.57142857142856,422.47767857142856,717.8,414.57142857142856,422.47767857142856,819.1,240.57142857142856,557.4776785714286,923.8,120.57142857142857,679.4776785714286,1029.4,93.57142857142857,706.4776785714286,1133.1,78.57142857142857,720.4776785714286,1233.2,72.57142857142857,727.4776785714286,1333.4,72.57142857142857,727.4776785714286,1435.4,72.57142857142857,727.4776785714286,1538.4,-8.42857142857143,723.4776785714286,1644.5,-30.42857142857143,719.4776785714286,1750.1,-30.42857142857143,719.4776785714286,1852.1,-84.42857142857143,684.4776785714286,1952.7,-145.42857142857144,618.4776785714286,2053,-145.42857142857144,617.4776785714286,2158.8,-145.42857142857144,617.4776785714286,2268.1,-145.42857142857144,617.4776785714286,2372.6,-145.42857142857144,617.4776785714286,2473,-145.42857142857144,617.4776785714286,2579.1,-145.42857142857144,617.4776785714286,2684.9,-145.42857142857144,617.4776785714286,2785.3,-145.42857142857144,617.4776785714286,2890,-145.42857142857144,617.4776785714286,2992.9,-145.42857142857144,617.4776785714286,3092.9,-145.42857142857144,617.4776785714286,3193.8,-145.42857142857144,617.4776785714286,3294.1,-145.42857142857144,617.4776785714286,3400.5,-145.42857142857144,617.4776785714286,3500.8,-145.42857142857144,617.4776785714286,3601.9,-145.42857142857144,617.4776785714286,3702,-145.42857142857144,617.4776785714286,3803.3,-145.42857142857144,617.4776785714286,3908.4,-145.42857142857144,617.4776785714286,4014.5,-145.42857142857144,617.4776785714286,4117.4,-145.42857142857144,617.4776785714286,4218.4,-145.42857142857144,617.4776785714286,4322.5,-145.42857142857144,617.4776785714286,4422.8,-145.42857142857144,617.4776785714286,4528.3,-145.42857142857144,617.4776785714286,4629.5,-145.42857142857144,617.4776785714286,4734.3,-145.42857142857144,617.4776785714286,4836.2,-145.42857142857144,617.4776785714286,4937.7]","[1468,1468,1000,0,468,""smooth"",""down"",""down"",""good_move"",7718.5,6250,2266.1,5103.3,349.1,""oops"",""left"",""down"",""good_move"",13826.2,6107.6,2681.4,10772.2,372.6,""smooth"",""left"",""left"",""good_move"",15556.7,1730.2,1219.1,13826.5,511.1,""smooth"",""left"",""left"",""good_move"",18257.9,2701,2320.7,15556.9,380.3,""oops"",""down"",""right"",""bad_move"",25129.1,6870.8,2995.9,21810.7,322.5,""oops"",""left"",""down"",""good_move"",31264,6134.8,2790.3,28155.2,318.5,""smooth"",""left"",""left"",""good_move"",33481.1,2216.8,1810,31264.3,406.8,""oops"",""left"",""left"",""good_move""]","",""
"3673","","<div style=""width:500px;"">
  <p>What determined the result of this run?</p>
  </div>","50","html-slider-response","55","788119","0.0-5.0-1.9","94","1","2025-07-16 09:52:23","1f75c3e559b7213887762d5229550c2b","93.39.141.5","Mozilla/5.0 (Windows NT 10.0; Win64; x64) AppleWebKit/537.36 (KHTML, like Gecko) Chrome/138.0.0.0 Safari/537.36","WebKit","Chrome","138.0.0.0","Windows","10.0","https://app.prolific.com/","it-IT,it;q=0.9,en-US;q=0.8,en;q=0.7","5daae19f8a06b60016d1bc32","686e379bc37a29ffa5cdc956","6877764ef99ad94248d99458","1","1","5daae19f8a06b60016d1bc32","1","1","2025-07-16T10:05:33.540Z","","","","","","","","","","","AttribQ","","50","","","","","","","","","","","","","","","","","","","","","","","","","","","","",""
"5562","","<div style=""width:500px;"">
  <p>How much control did you have over the ball?</p>
  </div>","50","html-slider-response","56","793682","0.0-5.0-2.9","94","1","2025-07-16 09:52:23","1f75c3e559b7213887762d5229550c2b","93.39.141.5","Mozilla/5.0 (Windows NT 10.0; Win64; x64) AppleWebKit/537.36 (KHTML, like Gecko) Chrome/138.0.0.0 Safari/537.36","WebKit","Chrome","138.0.0.0","Windows","10.0","https://app.prolific.com/","it-IT,it;q=0.9,en-US;q=0.8,en;q=0.7","5daae19f8a06b60016d1bc32","686e379bc37a29ffa5cdc956","6877764ef99ad94248d99458","1","1","5daae19f8a06b60016d1bc32","1","1","2025-07-16T10:05:39.103Z","","","","","","","","","","","ControlQ","","50","","","","","","","","","","","","","","","","","","","","","","","","","","","","",""
"8623","","<div style=""width:500px;"">
  <p>How would you describe your current emotional state?</p>
  </div>","91","html-slider-response","57","802306","0.0-5.0-3.9","94","1","2025-07-16 09:52:23","1f75c3e559b7213887762d5229550c2b","93.39.141.5","Mozilla/5.0 (Windows NT 10.0; Win64; x64) AppleWebKit/537.36 (KHTML, like Gecko) Chrome/138.0.0.0 Safari/537.36","WebKit","Chrome","138.0.0.0","Windows","10.0","https://app.prolific.com/","it-IT,it;q=0.9,en-US;q=0.8,en;q=0.7","5daae19f8a06b60016d1bc32","686e379bc37a29ffa5cdc956","6877764ef99ad94248d99458","1","1","5daae19f8a06b60016d1bc32","1","1","2025-07-16T10:05:47.726Z","","","","","","","","","","","StressQ","","50","","","","","","","","","","","","","","","","","","","","","","","","","","","","",""
"5950","","<div style=""width:500px;"">
  <p>What best describes how you currently feel?</p>
  </div>","47","html-slider-response","58","808257","0.0-5.0-4.9","94","1","2025-07-16 09:52:23","1f75c3e559b7213887762d5229550c2b","93.39.141.5","Mozilla/5.0 (Windows NT 10.0; Win64; x64) AppleWebKit/537.36 (KHTML, like Gecko) Chrome/138.0.0.0 Safari/537.36","WebKit","Chrome","138.0.0.0","Windows","10.0","https://app.prolific.com/","it-IT,it;q=0.9,en-US;q=0.8,en;q=0.7","5daae19f8a06b60016d1bc32","686e379bc37a29ffa5cdc956","6877764ef99ad94248d99458","1","1","5daae19f8a06b60016d1bc32","1","1","2025-07-16T10:05:53.677Z","","","","","","","","","","","MotivationQ","","50","","","","","","","","","","","","","","","","","","","","","","","","","","","","",""
"","","","","ctl-task-cpt","59","846810","0.0-5.0-0.10","94","1","2025-07-16 09:52:23","1f75c3e559b7213887762d5229550c2b","93.39.141.5","Mozilla/5.0 (Windows NT 10.0; Win64; x64) AppleWebKit/537.36 (KHTML, like Gecko) Chrome/138.0.0.0 Safari/537.36","WebKit","Chrome","138.0.0.0","Windows","10.0","https://app.prolific.com/","it-IT,it;q=0.9,en-US;q=0.8,en;q=0.7","5daae19f8a06b60016d1bc32","686e379bc37a29ffa5cdc956","6877764ef99ad94248d99458","1","1","5daae19f8a06b60016d1bc32","1","1","2025-07-16T10:06:32.230Z","","","","","","","","","","","","","","win-only","3","g1:SW,g2:NE","0.5","11","0","809647.8","1028.6","6031.7","35535.5","1","4","8","6","2","-8","-8","10","18","0.07575757575757576","1000.7","3000","-3005","[""up"",""right""]","{""num_key_presses"":8,""num_perfect"":4,""num_errors"":0,""num_randdir"":4,""num_randdir_good_moves"":2,""num_whilered"":0,""num_whileblue"":0,""num_blue"":1,""num_good_moves"":6}","[417.57142857142856,422.47767857142856,0.2,417.57142857142856,422.47767857142856,102.3,417.57142857142856,422.47767857142856,206.8,417.57142857142856,422.47767857142856,307,417.57142857142856,422.47767857142856,407.3,417.57142857142856,422.47767857142856,507.9,484.57142857142856,349.47767857142856,613.5,689.5714285714286,166.47767857142856,717.6,714.5714285714286,139.47767857142856,817.8,741.5714285714286,115.47767857142857,921.7,746.5714285714286,111.47767857142857,1021.7,746.5714285714286,111.47767857142857,1122.3,746.5714285714286,111.47767857142857,1227.7,767.5714285714286,122.47767857142857,1332.7,984.5714285714286,262.47767857142856,1437.5,1017.5714285714286,320.47767857142856,1542,1017.5714285714286,320.47767857142856,1642.4,1017.5714285714286,320.47767857142856,1742.9,1017.5714285714286,320.47767857142856,1847,1017.5714285714286,320.47767857142856,1951.8,1017.5714285714286,320.47767857142856,2052.5,1017.5714285714286,320.47767857142856,2157.8,1017.5714285714286,320.47767857142856,2258.3,1017.5714285714286,320.47767857142856,2361.9,1017.5714285714286,320.47767857142856,2462.1,1017.5714285714286,320.47767857142856,2562.1,1017.5714285714286,320.47767857142856,2663.5,1017.5714285714286,320.47767857142856,2766.6,1017.5714285714286,320.47767857142856,2867.4,1017.5714285714286,320.47767857142856,2967.8,1017.5714285714286,320.47767857142856,3072.6,1017.5714285714286,320.47767857142856,3178,1017.5714285714286,320.47767857142856,3281.8,1017.5714285714286,320.47767857142856,3382.4,1017.5714285714286,320.47767857142856,3487,1017.5714285714286,320.47767857142856,3587.5,1017.5714285714286,320.47767857142856,3691.9,1017.5714285714286,320.47767857142856,3796.6,1017.5714285714286,320.47767857142856,3897.5,1017.5714285714286,320.47767857142856,4002.7,1017.5714285714286,320.47767857142856,4106.7,1017.5714285714286,320.47767857142856,4207.5,1017.5714285714286,320.47767857142856,4311.6,1017.5714285714286,320.47767857142856,4413.7,1017.5714285714286,320.47767857142856,4516.8,1017.5714285714286,320.47767857142856,4617.4,1017.5714285714286,320.47767857142856,4722.4,1017.5714285714286,320.47767857142856,4822.8,1017.5714285714286,320.47767857142856,4927.5]","[1402.2,1402.2,1000,0,402.2,""smooth"",""right"",""right"",""good_move"",3742.9,2340.4,1976.9,1402.5,363.5,""smooth"",""right"",""right"",""good_move"",7238,3495,3078.5,3743,416.5,""oops"",""up"",""right"",""good_move"",14429.7,7191.5,2881.4,11204.2,344.1,""oops"",""up"",""down"",""bad_move"",17709.6,3279.5,2884.6,14430.1,394.9,""oops"",""up"",""left"",""bad_move"",20560.6,2850.9,2478.2,17709.7,372.7,""smooth"",""up"",""up"",""good_move"",24256.2,3695.4,3393.7,20560.8,301.7,""oops"",""up"",""right"",""good_move"",27085.7,2829.2,2440.2,24256.5,389,""smooth"",""up"",""up"",""good_move""]","",""
"4761","","<div style=""width:500px;"">
  <p>What determined the result of this run?</p>
  </div>","6","html-slider-response","60","851571","0.0-5.0-1.10","94","1","2025-07-16 09:52:23","1f75c3e559b7213887762d5229550c2b","93.39.141.5","Mozilla/5.0 (Windows NT 10.0; Win64; x64) AppleWebKit/537.36 (KHTML, like Gecko) Chrome/138.0.0.0 Safari/537.36","WebKit","Chrome","138.0.0.0","Windows","10.0","https://app.prolific.com/","it-IT,it;q=0.9,en-US;q=0.8,en;q=0.7","5daae19f8a06b60016d1bc32","686e379bc37a29ffa5cdc956","6877764ef99ad94248d99458","1","1","5daae19f8a06b60016d1bc32","1","1","2025-07-16T10:06:36.991Z","","","","","","","","","","","AttribQ","","50","","","","","","","","","","","","","","","","","","","","","","","","","","","","",""
"1959","","<div style=""width:500px;"">
  <p>How much control did you have over the ball?</p>
  </div>","16","html-slider-response","61","853532","0.0-5.0-2.10","94","1","2025-07-16 09:52:23","1f75c3e559b7213887762d5229550c2b","93.39.141.5","Mozilla/5.0 (Windows NT 10.0; Win64; x64) AppleWebKit/537.36 (KHTML, like Gecko) Chrome/138.0.0.0 Safari/537.36","WebKit","Chrome","138.0.0.0","Windows","10.0","https://app.prolific.com/","it-IT,it;q=0.9,en-US;q=0.8,en;q=0.7","5daae19f8a06b60016d1bc32","686e379bc37a29ffa5cdc956","6877764ef99ad94248d99458","1","1","5daae19f8a06b60016d1bc32","1","1","2025-07-16T10:06:38.952Z","","","","","","","","","","","ControlQ","","50","","","","","","","","","","","","","","","","","","","","","","","","","","","","",""
"2925","","<div style=""width:500px;"">
  <p>How would you describe your current emotional state?</p>
  </div>","100","html-slider-response","62","856457","0.0-5.0-3.10","94","1","2025-07-16 09:52:23","1f75c3e559b7213887762d5229550c2b","93.39.141.5","Mozilla/5.0 (Windows NT 10.0; Win64; x64) AppleWebKit/537.36 (KHTML, like Gecko) Chrome/138.0.0.0 Safari/537.36","WebKit","Chrome","138.0.0.0","Windows","10.0","https://app.prolific.com/","it-IT,it;q=0.9,en-US;q=0.8,en;q=0.7","5daae19f8a06b60016d1bc32","686e379bc37a29ffa5cdc956","6877764ef99ad94248d99458","1","1","5daae19f8a06b60016d1bc32","1","1","2025-07-16T10:06:41.877Z","","","","","","","","","","","StressQ","","50","","","","","","","","","","","","","","","","","","","","","","","","","","","","",""
"2244","","<div style=""width:500px;"">
  <p>What best describes how you currently feel?</p>
  </div>","12","html-slider-response","63","858702","0.0-5.0-4.10","94","1","2025-07-16 09:52:23","1f75c3e559b7213887762d5229550c2b","93.39.141.5","Mozilla/5.0 (Windows NT 10.0; Win64; x64) AppleWebKit/537.36 (KHTML, like Gecko) Chrome/138.0.0.0 Safari/537.36","WebKit","Chrome","138.0.0.0","Windows","10.0","https://app.prolific.com/","it-IT,it;q=0.9,en-US;q=0.8,en;q=0.7","5daae19f8a06b60016d1bc32","686e379bc37a29ffa5cdc956","6877764ef99ad94248d99458","1","1","5daae19f8a06b60016d1bc32","1","1","2025-07-16T10:06:44.122Z","","","","","","","","","","","MotivationQ","","50","","","","","","","","","","","","","","","","","","","","","","","","","","","","",""
"","","","","ctl-task-cpt","64","896801","0.0-5.0-0.11","94","1","2025-07-16 09:52:23","1f75c3e559b7213887762d5229550c2b","93.39.141.5","Mozilla/5.0 (Windows NT 10.0; Win64; x64) AppleWebKit/537.36 (KHTML, like Gecko) Chrome/138.0.0.0 Safari/537.36","WebKit","Chrome","138.0.0.0","Windows","10.0","https://app.prolific.com/","it-IT,it;q=0.9,en-US;q=0.8,en;q=0.7","5daae19f8a06b60016d1bc32","686e379bc37a29ffa5cdc956","6877764ef99ad94248d99458","1","1","5daae19f8a06b60016d1bc32","1","1","2025-07-16T10:07:22.221Z","","","","","","","","","","","","","","win-only","0","g1:NW,g2:SE","0.6","12","0","860093.1","1067.4","6070.6","35081.4","1","4","4","6","2","-4","-4","6","10","0.045454545454545456","1408.6","3000","-3010","[""down"",""right""]","{""num_key_presses"":7,""num_perfect"":4,""num_errors"":0,""num_randdir"":3,""num_randdir_good_moves"":0,""num_whilered"":0,""num_whileblue"":0,""num_blue"":2,""num_good_moves"":4}","[414.57142857142856,421.47767857142856,0.1,414.57142857142856,421.47767857142856,107.9,414.57142857142856,421.47767857142856,208.5,414.57142857142856,421.47767857142856,314.3,414.57142857142856,421.47767857142856,418.8,414.57142857142856,421.47767857142856,524,414.57142857142856,421.47767857142856,627.7,414.57142857142856,421.47767857142856,729.8,414.57142857142856,421.47767857142856,830,414.57142857142856,421.47767857142856,934.1,519.5714285714286,532.4776785714286,1038.1,670.5714285714286,673.4776785714286,1139,728.5714285714286,721.4776785714286,1242.9,750.5714285714286,733.4776785714286,1343.1,753.5714285714286,735.4776785714286,1444.2,753.5714285714286,735.4776785714286,1548.1,753.5714285714286,735.4776785714286,1655,987.5714285714286,625.4776785714286,1758.4,1037.5714285714287,596.4776785714286,1863.8,1037.5714285714287,596.4776785714286,1969.7,1037.5714285714287,596.4776785714286,2073.6,1037.5714285714287,596.4776785714286,2174.1,1037.5714285714287,596.4776785714286,2278.4,1037.5714285714287,596.4776785714286,2383.8,1037.5714285714287,596.4776785714286,2488.5,1037.5714285714287,596.4776785714286,2594.4,1037.5714285714287,596.4776785714286,2698,1037.5714285714287,596.4776785714286,2799.1,1037.5714285714287,596.4776785714286,2903.1,1037.5714285714287,596.4776785714286,3004.1,1037.5714285714287,596.4776785714286,3108.2,1037.5714285714287,596.4776785714286,3209.6,1037.5714285714287,596.4776785714286,3313.5,1037.5714285714287,596.4776785714286,3414,1037.5714285714287,596.4776785714286,3518.7,1037.5714285714287,596.4776785714286,3623.5,1037.5714285714287,596.4776785714286,3724,1037.5714285714287,596.4776785714286,3824.2,1037.5714285714287,596.4776785714286,3924.4,1037.5714285714287,596.4776785714286,4024.5,1037.5714285714287,596.4776785714286,4127.7,1037.5714285714287,596.4776785714286,4228.4,1037.5714285714287,596.4776785714286,4334.2,1037.5714285714287,596.4776785714286,4434.4,1037.5714285714287,596.4776785714286,4538.7,1037.5714285714287,596.4776785714286,4639.7,1037.5714285714287,596.4776785714286,4743.1,1037.5714285714287,596.4776785714286,4843.9,1037.5714285714287,596.4776785714286,4948.2]","[1426.9,1426.9,1000,0,426.9,""oops"",""down"",""up"",""bad_move"",4800.1,3372.9,3057.5,1427.2,315.4,""oops"",""down"",""up"",""bad_move"",11880.4,7080.2,3084.7,8359.6,436.1,""oops"",""right"",""left"",""bad_move"",15117.2,3236.5,2611,11880.7,625.5,""smooth"",""down"",""down"",""good_move"",17664.4,2547,2210,15117.5,336.9,""smooth"",""down"",""down"",""good_move"",23966.4,6301.8,2441.1,21109.7,415.6,""smooth"",""right"",""right"",""good_move"",26483.1,2516.3,2118.1,23966.8,398.2,""smooth"",""right"",""right"",""good_move""]","",""
"3653","","<div style=""width:500px;"">
  <p>What determined the result of this run?</p>
  </div>","2","html-slider-response","65","900455","0.0-5.0-1.11","94","1","2025-07-16 09:52:23","1f75c3e559b7213887762d5229550c2b","93.39.141.5","Mozilla/5.0 (Windows NT 10.0; Win64; x64) AppleWebKit/537.36 (KHTML, like Gecko) Chrome/138.0.0.0 Safari/537.36","WebKit","Chrome","138.0.0.0","Windows","10.0","https://app.prolific.com/","it-IT,it;q=0.9,en-US;q=0.8,en;q=0.7","5daae19f8a06b60016d1bc32","686e379bc37a29ffa5cdc956","6877764ef99ad94248d99458","1","1","5daae19f8a06b60016d1bc32","1","1","2025-07-16T10:07:25.875Z","","","","","","","","","","","AttribQ","","50","","","","","","","","","","","","","","","","","","","","","","","","","","","","",""
"2479","","<div style=""width:500px;"">
  <p>How much control did you have over the ball?</p>
  </div>","7","html-slider-response","66","902934","0.0-5.0-2.11","94","1","2025-07-16 09:52:23","1f75c3e559b7213887762d5229550c2b","93.39.141.5","Mozilla/5.0 (Windows NT 10.0; Win64; x64) AppleWebKit/537.36 (KHTML, like Gecko) Chrome/138.0.0.0 Safari/537.36","WebKit","Chrome","138.0.0.0","Windows","10.0","https://app.prolific.com/","it-IT,it;q=0.9,en-US;q=0.8,en;q=0.7","5daae19f8a06b60016d1bc32","686e379bc37a29ffa5cdc956","6877764ef99ad94248d99458","1","1","5daae19f8a06b60016d1bc32","1","1","2025-07-16T10:07:28.355Z","","","","","","","","","","","ControlQ","","50","","","","","","","","","","","","","","","","","","","","","","","","","","","","",""
"3774","","<div style=""width:500px;"">
  <p>How would you describe your current emotional state?</p>
  </div>","100","html-slider-response","67","906709","0.0-5.0-3.11","94","1","2025-07-16 09:52:23","1f75c3e559b7213887762d5229550c2b","93.39.141.5","Mozilla/5.0 (Windows NT 10.0; Win64; x64) AppleWebKit/537.36 (KHTML, like Gecko) Chrome/138.0.0.0 Safari/537.36","WebKit","Chrome","138.0.0.0","Windows","10.0","https://app.prolific.com/","it-IT,it;q=0.9,en-US;q=0.8,en;q=0.7","5daae19f8a06b60016d1bc32","686e379bc37a29ffa5cdc956","6877764ef99ad94248d99458","1","1","5daae19f8a06b60016d1bc32","1","1","2025-07-16T10:07:32.129Z","","","","","","","","","","","StressQ","","50","","","","","","","","","","","","","","","","","","","","","","","","","","","","",""
"1965","","<div style=""width:500px;"">
  <p>What best describes how you currently feel?</p>
  </div>","10","html-slider-response","68","908675","0.0-5.0-4.11","94","1","2025-07-16 09:52:23","1f75c3e559b7213887762d5229550c2b","93.39.141.5","Mozilla/5.0 (Windows NT 10.0; Win64; x64) AppleWebKit/537.36 (KHTML, like Gecko) Chrome/138.0.0.0 Safari/537.36","WebKit","Chrome","138.0.0.0","Windows","10.0","https://app.prolific.com/","it-IT,it;q=0.9,en-US;q=0.8,en;q=0.7","5daae19f8a06b60016d1bc32","686e379bc37a29ffa5cdc956","6877764ef99ad94248d99458","1","1","5daae19f8a06b60016d1bc32","1","1","2025-07-16T10:07:34.096Z","","","","","","","","","","","MotivationQ","","50","","","","","","","","","","","","","","","","","","","","","","","","","","","","",""
"","","","","ctl-task-cpt","69","938559","0.0-5.0-0.12","94","1","2025-07-16 09:52:23","1f75c3e559b7213887762d5229550c2b","93.39.141.5","Mozilla/5.0 (Windows NT 10.0; Win64; x64) AppleWebKit/537.36 (KHTML, like Gecko) Chrome/138.0.0.0 Safari/537.36","WebKit","Chrome","138.0.0.0","Windows","10.0","https://app.prolific.com/","it-IT,it;q=0.9,en-US;q=0.8,en;q=0.7","5daae19f8a06b60016d1bc32","686e379bc37a29ffa5cdc956","6877764ef99ad94248d99458","1","1","5daae19f8a06b60016d1bc32","1","1","2025-07-16T10:08:03.979Z","","","","","","","","","","","","","","win-only","3","g1:SW,g2:NE","0.7","13","0","910066.6","1079.7","6082","26865.5","1","4","8","6","2","8","8","14","6","0.10606060606060606","1172.6","3000","330","[""up"",""right""]","{""num_key_presses"":8,""num_perfect"":5,""num_errors"":0,""num_randdir"":3,""num_randdir_good_moves"":2,""num_whilered"":0,""num_whileblue"":0,""num_blue"":0,""num_good_moves"":7}","[420.57142857142856,418.47767857142856,0.3,420.57142857142856,418.47767857142856,114.1,420.57142857142856,418.47767857142856,215.8,420.57142857142856,418.47767857142856,321.3,418.57142857142856,423.47767857142856,421.9,412.57142857142856,439.47767857142856,525.6,464.57142857142856,406.47767857142856,626,762.5714285714286,203.47767857142856,731.9,796.5714285714286,180.47767857142856,835.9,796.5714285714286,180.47767857142856,936.6,791.5714285714286,137.47767857142856,1040.8,789.5714285714286,101.47767857142857,1142.4,789.5714285714286,99.47767857142857,1246.5,789.5714285714286,99.47767857142857,1350.9,900.5714285714286,206.47767857142856,1455.7,1080.5714285714287,376.47767857142856,1557.4,1080.5714285714287,376.47767857142856,1660.8,1080.5714285714287,376.47767857142856,1761.5,1080.5714285714287,376.47767857142856,1866.4,1080.5714285714287,376.47767857142856,1967.3,1080.5714285714287,376.47767857142856,2070.8,1080.5714285714287,376.47767857142856,2175.8,1080.5714285714287,376.47767857142856,2280.9,1080.5714285714287,376.47767857142856,2380.9,1080.5714285714287,376.47767857142856,2486.5,1080.5714285714287,376.47767857142856,2591,1080.5714285714287,376.47767857142856,2691.7,1080.5714285714287,376.47767857142856,2791.7,1080.5714285714287,376.47767857142856,2891.9,1080.5714285714287,376.47767857142856,2997.4,1080.5714285714287,376.47767857142856,3101.7,1080.5714285714287,376.47767857142856,3201.7,1080.5714285714287,376.47767857142856,3301.7,1080.5714285714287,376.47767857142856,3402.3,1080.5714285714287,376.47767857142856,3505.6,1080.5714285714287,376.47767857142856,3605.8,1080.5714285714287,376.47767857142856,3711.3,1080.5714285714287,376.47767857142856,3817.1,1080.5714285714287,376.47767857142856,3921.7,1080.5714285714287,376.47767857142856,4022.4,1080.5714285714287,376.47767857142856,4125.8,1080.5714285714287,376.47767857142856,4225.8,1080.5714285714287,376.47767857142856,4326.1,1080.5714285714287,376.47767857142856,4432,1080.5714285714287,376.47767857142856,4532.8,1080.5714285714287,376.47767857142856,4635.5,1080.5714285714287,376.47767857142856,4736,1080.5714285714287,376.47767857142856,4836,1080.5714285714287,376.47767857142856,4936.4]","[1398.1,1398.1,1000,0,398.1,""smooth"",""right"",""right"",""good_move"",4659.6,3261.3,2902.9,1398.3,358.4,""smooth"",""right"",""right"",""good_move"",6974.8,2314.9,1969.7,4659.9,345.2,""oops"",""up"",""up"",""good_move"",9793.1,2818,2511.7,6975.1,306.3,""oops"",""up"",""down"",""bad_move"",12594.9,2801.6,2470.7,9793.3,330.9,""oops"",""up"",""up"",""good_move"",15345.4,2750.2,2445.9,12595.2,304.3,""smooth"",""up"",""up"",""good_move"",17693.2,2347.8,1989.9,15345.4,357.9,""smooth"",""right"",""right"",""good_move"",20687.4,2993.9,2672,17693.5,321.9,""smooth"",""up"",""up"",""good_move""]","",""
"2938","","<div style=""width:500px;"">
  <p>What determined the result of this run?</p>
  </div>","60","html-slider-response","70","941497","0.0-5.0-1.12","94","1","2025-07-16 09:52:23","1f75c3e559b7213887762d5229550c2b","93.39.141.5","Mozilla/5.0 (Windows NT 10.0; Win64; x64) AppleWebKit/537.36 (KHTML, like Gecko) Chrome/138.0.0.0 Safari/537.36","WebKit","Chrome","138.0.0.0","Windows","10.0","https://app.prolific.com/","it-IT,it;q=0.9,en-US;q=0.8,en;q=0.7","5daae19f8a06b60016d1bc32","686e379bc37a29ffa5cdc956","6877764ef99ad94248d99458","1","1","5daae19f8a06b60016d1bc32","1","1","2025-07-16T10:08:06.918Z","","","","","","","","","","","AttribQ","","50","","","","","","","","","","","","","","","","","","","","","","","","","","","","",""
"3263","","<div style=""width:500px;"">
  <p>How much control did you have over the ball?</p>
  </div>","70","html-slider-response","71","944761","0.0-5.0-2.12","94","1","2025-07-16 09:52:23","1f75c3e559b7213887762d5229550c2b","93.39.141.5","Mozilla/5.0 (Windows NT 10.0; Win64; x64) AppleWebKit/537.36 (KHTML, like Gecko) Chrome/138.0.0.0 Safari/537.36","WebKit","Chrome","138.0.0.0","Windows","10.0","https://app.prolific.com/","it-IT,it;q=0.9,en-US;q=0.8,en;q=0.7","5daae19f8a06b60016d1bc32","686e379bc37a29ffa5cdc956","6877764ef99ad94248d99458","1","1","5daae19f8a06b60016d1bc32","1","1","2025-07-16T10:08:10.181Z","","","","","","","","","","","ControlQ","","50","","","","","","","","","","","","","","","","","","","","","","","","","","","","",""
"4309","","<div style=""width:500px;"">
  <p>How would you describe your current emotional state?</p>
  </div>","85","html-slider-response","72","949071","0.0-5.0-3.12","94","1","2025-07-16 09:52:23","1f75c3e559b7213887762d5229550c2b","93.39.141.5","Mozilla/5.0 (Windows NT 10.0; Win64; x64) AppleWebKit/537.36 (KHTML, like Gecko) Chrome/138.0.0.0 Safari/537.36","WebKit","Chrome","138.0.0.0","Windows","10.0","https://app.prolific.com/","it-IT,it;q=0.9,en-US;q=0.8,en;q=0.7","5daae19f8a06b60016d1bc32","686e379bc37a29ffa5cdc956","6877764ef99ad94248d99458","1","1","5daae19f8a06b60016d1bc32","1","1","2025-07-16T10:08:14.491Z","","","","","","","","","","","StressQ","","50","","","","","","","","","","","","","","","","","","","","","","","","","","","","",""
"2513","","<div style=""width:500px;"">
  <p>What best describes how you currently feel?</p>
  </div>","31","html-slider-response","73","951585","0.0-5.0-4.12","94","1","2025-07-16 09:52:23","1f75c3e559b7213887762d5229550c2b","93.39.141.5","Mozilla/5.0 (Windows NT 10.0; Win64; x64) AppleWebKit/537.36 (KHTML, like Gecko) Chrome/138.0.0.0 Safari/537.36","WebKit","Chrome","138.0.0.0","Windows","10.0","https://app.prolific.com/","it-IT,it;q=0.9,en-US;q=0.8,en;q=0.7","5daae19f8a06b60016d1bc32","686e379bc37a29ffa5cdc956","6877764ef99ad94248d99458","1","1","5daae19f8a06b60016d1bc32","1","1","2025-07-16T10:08:17.005Z","","","","","","","","","","","MotivationQ","","50","","","","","","","","","","","","","","","","","","","","","","","","","","","","",""
