"rt","response_timestamp","stimulus","response","trial_type","trial_index","time_elapsed","internal_node_id","run_id","condition","recorded_at","source_code_version","ip","user_agent","device","browser","browser_version","platform","platform_version","referer","accept_language","PROLIFIC_PID","STUDY_ID","SESSION_ID","WEEK","BATCH","prolific_id","week","batch","realtime","success","responses","item_order","radio_event_ids","radio_event_times","key_event_times","mouse_event_times","straightlining","zigzagging","honeypot","eventType","view_history","slider_start","which_type","canvas_config","goals_layout","control_level","trial_number","tutorial_trial_number","trial_start_time","phase1_start_time","phase2_start_time","phase3_start_time","goal_1_value","goal_1_distance","goal_2_value","goal_2_distance","goal_selected","outcome","outcome_total","participant_final_score","participant_initial_score","participant_final_score_prop","goal_choice_rt","allocated_time","allocated_time_remaining","goal_direction","counts","mouse_movements","key_presses","question_order","question_id"
"1927","1752662389666","<p style='font-size:40px;line-height:1.25'><strong>Welcome to the experiment!</strong></p><p style='font-size:1.1em;line-height:1.25'>Thank you for participanting in our experiment again! You will be asked to play the Dysfunctional Ball Game again. We will briefly recap the rules before we start.</p><p style='font-size:1.1em;line-height:1.25'>Press <strong>Next</strong> to continue.</p>","0","custom-html-button-response","0","1929","0.0-0.0","102","1","2025-07-16 10:39:46","1f75c3e559b7213887762d5229550c2b","78.33.241.66","Mozilla/5.0 (Windows NT 10.0; Win64; x64) AppleWebKit/537.36 (KHTML, like Gecko) Chrome/138.0.0.0 Safari/537.36","WebKit","Chrome","138.0.0.0","Windows","10.0","https://app.prolific.com/","en-GB,en;q=0.9","5e203085ac30fa331b586690","686e379bc37a29ffa5cdc956","687781615efb8fd6787302af","1","1","5e203085ac30fa331b586690","1","1","2025-07-16T10:39:49.667Z","","","","","","","","","","","","","","","","","","","","","","","","","","","","","","","","","","","","","","","","","",""
"3021","","","","fullscreen","1","5967","0.0-1.0","102","1","2025-07-16 10:39:46","1f75c3e559b7213887762d5229550c2b","78.33.241.66","Mozilla/5.0 (Windows NT 10.0; Win64; x64) AppleWebKit/537.36 (KHTML, like Gecko) Chrome/138.0.0.0 Safari/537.36","WebKit","Chrome","138.0.0.0","Windows","10.0","https://app.prolific.com/","en-GB,en;q=0.9","5e203085ac30fa331b586690","686e379bc37a29ffa5cdc956","687781615efb8fd6787302af","1","1","5e203085ac30fa331b586690","1","1","","true","","","","","","","","","","","","","","","","","","","","","","","","","","","","","","","","","","","","","","","","",""
"1565","1752662395270","<p style='font-size:1.1em;line-height:1.25'>In the following, we will ask you a few questions relating to your feelings in the last 24 hours.<br></p><p style='font-size:1.1em;line-height:1.25'>Press the <strong>Next</strong> button to continue.</p>","0","custom-html-button-response","2","7533","0.0-2.0-0.0","102","1","2025-07-16 10:39:46","1f75c3e559b7213887762d5229550c2b","78.33.241.66","Mozilla/5.0 (Windows NT 10.0; Win64; x64) AppleWebKit/537.36 (KHTML, like Gecko) Chrome/138.0.0.0 Safari/537.36","WebKit","Chrome","138.0.0.0","Windows","10.0","https://app.prolific.com/","en-GB,en;q=0.9","5e203085ac30fa331b586690","686e379bc37a29ffa5cdc956","687781615efb8fd6787302af","1","1","5e203085ac30fa331b586690","1","1","2025-07-16T10:39:55.271Z","","","","","","","","","","","","","","","","","","","","","","","","","","","","","","","","","","","","","","","","","",""
"42605.09999999963","","","","survey-template","3","50142","0.0-2.0-1.0","102","1","2025-07-16 10:39:46","1f75c3e559b7213887762d5229550c2b","78.33.241.66","Mozilla/5.0 (Windows NT 10.0; Win64; x64) AppleWebKit/537.36 (KHTML, like Gecko) Chrome/138.0.0.0 Safari/537.36","WebKit","Chrome","138.0.0.0","Windows","10.0","https://app.prolific.com/","en-GB,en;q=0.9","5e203085ac30fa331b586690","686e379bc37a29ffa5cdc956","687781615efb8fd6787302af","1","1","5e203085ac30fa331b586690","1","1","2025-07-16T10:40:37.880Z","","{""Q01"":""0"",""Q02"":""0"",""Q03"":""0"",""Q04"":""0"",""Q05"":""1"",""Q06"":""0"",""Q07"":""1"",""Q08"":""1"",""Q09"":""0"",""Q10"":""0"",""Q11"":""1"",""Q12"":""1"",""Q13"":""5"",""Q14"":""0"",""Q15"":""1"",""Q16"":""0"",""Q17"":""0"",""Q18"":""0"",""Q19"":""0"",""Q20"":""0"",""Q21"":""0"",""Q22"":""0""}","[0,1,2,3,4,5,6,7,8,9,10,11,12,13,14,15,16,17,18,19,20,21]","[""Q01"",""Q02"",""Q03"",""Q04"",""Q05"",""Q06"",""Q07"",""Q08"",""Q09"",""Q10"",""Q11"",""Q12"",""Q13"",""Q14"",""Q15"",""Q16"",""Q17"",""Q17"",""Q18"",""Q19"",""Q20"",""Q21"",""Q22""]","[3945.2000000011176,6979.0999999996275,7939.4000000003725,9388.300000000745,11671,12661.200000001118,14255.200000001118,16193.400000000373,17708.5,18531,20844.099999999627,22309.400000000373,23147.200000001118,25385.900000000373,26720.700000001118,30803.900000000373,32676.200000001118,34457.90000000037,35690,37135.300000000745,38197.20000000112,40049.59999999963,41692.800000000745]","[]","[0.09999999962747097,2996.0999999996275,3945.2000000011176,6979.0999999996275,7939.4000000003725,9388.300000000745,11671,12661.200000001118,14255.200000001118,16193.400000000373,17708.5,18531,20844.099999999627,22309.400000000373,23147.200000001118,24508.099999999627,25385.900000000373,26720.700000001118,30803.900000000373,32676.200000001118,34457.90000000037,35690,36588.40000000037,37135.300000000745,38197.20000000112,40049.59999999963,41692.800000000745,42602]","0.6818181818181818","0.38095238095238093","0","drsp","","","","","","","","","","","","","","","","","","","","","","","","","","","","","","",""
"7341.299999998882","","","","survey-template","4","57485","0.0-2.0-2.0","102","1","2025-07-16 10:39:46","1f75c3e559b7213887762d5229550c2b","78.33.241.66","Mozilla/5.0 (Windows NT 10.0; Win64; x64) AppleWebKit/537.36 (KHTML, like Gecko) Chrome/138.0.0.0 Safari/537.36","WebKit","Chrome","138.0.0.0","Windows","10.0","https://app.prolific.com/","en-GB,en;q=0.9","5e203085ac30fa331b586690","686e379bc37a29ffa5cdc956","687781615efb8fd6787302af","1","1","5e203085ac30fa331b586690","1","1","2025-07-16T10:40:45.223Z","","{""Q01"":""1"",""Q02"":""2"",""Q03"":""1""}","[0,1,2]","[""Q01"",""Q02"",""Q03""]","[2919.5,4963.699999999255,6532.5]","[]","[2919.5,4963.699999999255,6532.5,7339.799999998882]","0.6666666666666666","0","0","stress","","","","","","","","","","","","","","","","","","","","","","","","","","","","","","",""
"8469","","","","instructions","5","65954","0.0-3.0-0.0","102","1","2025-07-16 10:39:46","1f75c3e559b7213887762d5229550c2b","78.33.241.66","Mozilla/5.0 (Windows NT 10.0; Win64; x64) AppleWebKit/537.36 (KHTML, like Gecko) Chrome/138.0.0.0 Safari/537.36","WebKit","Chrome","138.0.0.0","Windows","10.0","https://app.prolific.com/","en-GB,en;q=0.9","5e203085ac30fa331b586690","686e379bc37a29ffa5cdc956","687781615efb8fd6787302af","1","1","5e203085ac30fa331b586690","1","1","","","","","","","","","","","","","[{""page_index"":0,""viewing_time"":8468}]","","","","","","","","","","","","","","","","","","","","","","","","","","","","","",""
"2574","","<p>Before you start with this game please answer the following three questions yourself. </p>
  <p>Through this game, we measure several aspects of your cognitive performance, such as reaction times, multi-tasking capabilities </p>
  <p>and the ability to assess the situation you are in.</p>
  <p></p>
  <p><b>How good do you usually are in such tasks?</b></p>","56","html-slider-response","6","68531","0.0-4.0-0.0","102","1","2025-07-16 10:39:46","1f75c3e559b7213887762d5229550c2b","78.33.241.66","Mozilla/5.0 (Windows NT 10.0; Win64; x64) AppleWebKit/537.36 (KHTML, like Gecko) Chrome/138.0.0.0 Safari/537.36","WebKit","Chrome","138.0.0.0","Windows","10.0","https://app.prolific.com/","en-GB,en;q=0.9","5e203085ac30fa331b586690","686e379bc37a29ffa5cdc956","687781615efb8fd6787302af","1","1","5e203085ac30fa331b586690","1","1","2025-07-16T10:40:56.269Z","","","","","","","","","","","PreSkillQ","","50","","","","","","","","","","","","","","","","","","","","","","","","","","","","",""
"4262","","<div style=""width:500px;"">
  <p>How well do you think you will perform in this task compared to other participants?</p>
  </div>","55","html-slider-response","7","72795","0.0-4.0-1.0","102","1","2025-07-16 10:39:46","1f75c3e559b7213887762d5229550c2b","78.33.241.66","Mozilla/5.0 (Windows NT 10.0; Win64; x64) AppleWebKit/537.36 (KHTML, like Gecko) Chrome/138.0.0.0 Safari/537.36","WebKit","Chrome","138.0.0.0","Windows","10.0","https://app.prolific.com/","en-GB,en;q=0.9","5e203085ac30fa331b586690","686e379bc37a29ffa5cdc956","687781615efb8fd6787302af","1","1","5e203085ac30fa331b586690","1","1","2025-07-16T10:41:00.533Z","","","","","","","","","","","PrePerfQ","","50","","","","","","","","","","","","","","","","","","","","","","","","","","","","",""
"2339","","<div style=""width:500px;"">
  <p>What best describes how you currently feel?</p>
  </div>","73","html-slider-response","8","75136","0.0-4.0-2.0","102","1","2025-07-16 10:39:46","1f75c3e559b7213887762d5229550c2b","78.33.241.66","Mozilla/5.0 (Windows NT 10.0; Win64; x64) AppleWebKit/537.36 (KHTML, like Gecko) Chrome/138.0.0.0 Safari/537.36","WebKit","Chrome","138.0.0.0","Windows","10.0","https://app.prolific.com/","en-GB,en;q=0.9","5e203085ac30fa331b586690","686e379bc37a29ffa5cdc956","687781615efb8fd6787302af","1","1","5e203085ac30fa331b586690","1","1","2025-07-16T10:41:02.874Z","","","","","","","","","","","PreMotivationQ","","50","","","","","","","","","","","","","","","","","","","","","","","","","","","","",""
"","","","","ctl-task-cpt","9","106657","0.0-5.0-0.0","102","1","2025-07-16 10:39:46","1f75c3e559b7213887762d5229550c2b","78.33.241.66","Mozilla/5.0 (Windows NT 10.0; Win64; x64) AppleWebKit/537.36 (KHTML, like Gecko) Chrome/138.0.0.0 Safari/537.36","WebKit","Chrome","138.0.0.0","Windows","10.0","https://app.prolific.com/","en-GB,en;q=0.9","5e203085ac30fa331b586690","686e379bc37a29ffa5cdc956","687781615efb8fd6787302af","1","1","5e203085ac30fa331b586690","1","1","2025-07-16T10:41:34.395Z","","","","","","","","","","","","","","win-only","1","g1:NE,g2:SW","1","1","0","76492.3","1683.9","6686.4","28513.8","1","4","8","6","2","8","7","7","0","0.05303030303030303","1341.7","3000","350","[""down"",""left""]","{""num_key_presses"":8,""num_perfect"":7,""num_errors"":1,""num_randdir"":0,""num_randdir_good_moves"":0,""num_whilered"":0,""num_whileblue"":1,""num_blue"":1,""num_good_moves"":7}","[412.57142857142856,412.47767857142856,0.2,412.57142857142856,412.47767857142856,100,412.57142857142856,412.47767857142856,200.5,546.5714285714286,298.47767857142856,301.8,677.5714285714286,175.47767857142856,401.8,655.5714285714286,187.47767857142856,506.9,595.5714285714286,215.47767857142856,608.1,338.57142857142856,439.47767857142856,716.9,293.57142857142856,534.4776785714286,817.1,239.57142857142856,614.4776785714286,922.1,188.57142857142856,657.4776785714286,1022.4,102.57142857142857,720.4776785714286,1129,94.57142857142857,737.4776785714286,1229.1,78.57142857142857,754.4776785714286,1334,77.57142857142857,754.4776785714286,1439,79.57142857142857,750.4776785714286,1542.7,95.57142857142857,752.4776785714286,1650.4,95.57142857142857,752.4776785714286,1752.4,95.57142857142857,752.4776785714286,1858,95.57142857142857,752.4776785714286,1958.1,95.57142857142857,752.4776785714286,2058.6,95.57142857142857,752.4776785714286,2167,95.57142857142857,752.4776785714286,2272.8,95.57142857142857,752.4776785714286,2382.6,95.57142857142857,752.4776785714286,2483.5,95.57142857142857,752.4776785714286,2583.5,95.57142857142857,752.4776785714286,2683.5,95.57142857142857,752.4776785714286,2783.6,95.57142857142857,752.4776785714286,2887.7,95.57142857142857,752.4776785714286,2987.8,95.57142857142857,752.4776785714286,3089,95.57142857142857,752.4776785714286,3191.8,95.57142857142857,752.4776785714286,3292.3,95.57142857142857,752.4776785714286,3399.8,95.57142857142857,752.4776785714286,3499.9,95.57142857142857,752.4776785714286,3600.4,95.57142857142857,752.4776785714286,3700.6,95.57142857142857,752.4776785714286,3802.1,95.57142857142857,752.4776785714286,3902.7,95.57142857142857,752.4776785714286,4007.4,95.57142857142857,752.4776785714286,4116.6,95.57142857142857,752.4776785714286,4216.7,95.57142857142857,752.4776785714286,4322.3,95.57142857142857,752.4776785714286,4427.6,95.57142857142857,752.4776785714286,4533.6,95.57142857142857,752.4776785714286,4637.6,95.57142857142857,752.4776785714286,4742.7,95.57142857142857,752.4776785714286,4850.3,95.57142857142857,752.4776785714286,4951.6]","[1950,1950,1000,0,950,""smooth"",""down"",""down"",""good_move"",5280.6,3330.3,3035,1950.3,295.3,""smooth"",""down"",""down"",""good_move"",8274.6,2993.9,2708.6,5280.7,285.3,""smooth"",""down"",""down"",""good_move"",11453.9,3178.9,2788.9,8275,390.1,""smooth"",""left"",""left"",""good_move"",13700,2245.6,1858.1,11454.4,387.5,""smooth"",""left"",""left"",""good_move"",16430.6,2730.3,2440.5,13700.3,289.8,""while_blue"",""left"",""right"",""bad_move"",19363.9,2932.9,2611.9,16431,321,""smooth"",""left"",""left"",""good_move"",21717.6,2353.5,1996.6,19364.1,356.9,""smooth"",""left"",""left"",""good_move""]","",""
"2612","","<div style=""width:500px;"">
  <p>What determined the result of this run?</p>
  </div>","100","html-slider-response","10","109271","0.0-5.0-1.0","102","1","2025-07-16 10:39:46","1f75c3e559b7213887762d5229550c2b","78.33.241.66","Mozilla/5.0 (Windows NT 10.0; Win64; x64) AppleWebKit/537.36 (KHTML, like Gecko) Chrome/138.0.0.0 Safari/537.36","WebKit","Chrome","138.0.0.0","Windows","10.0","https://app.prolific.com/","en-GB,en;q=0.9","5e203085ac30fa331b586690","686e379bc37a29ffa5cdc956","687781615efb8fd6787302af","1","1","5e203085ac30fa331b586690","1","1","2025-07-16T10:41:37.009Z","","","","","","","","","","","AttribQ","","50","","","","","","","","","","","","","","","","","","","","","","","","","","","","",""
"1859","","<div style=""width:500px;"">
  <p>How much control did you have over the ball?</p>
  </div>","100","html-slider-response","11","111132","0.0-5.0-2.0","102","1","2025-07-16 10:39:46","1f75c3e559b7213887762d5229550c2b","78.33.241.66","Mozilla/5.0 (Windows NT 10.0; Win64; x64) AppleWebKit/537.36 (KHTML, like Gecko) Chrome/138.0.0.0 Safari/537.36","WebKit","Chrome","138.0.0.0","Windows","10.0","https://app.prolific.com/","en-GB,en;q=0.9","5e203085ac30fa331b586690","686e379bc37a29ffa5cdc956","687781615efb8fd6787302af","1","1","5e203085ac30fa331b586690","1","1","2025-07-16T10:41:38.870Z","","","","","","","","","","","ControlQ","","50","","","","","","","","","","","","","","","","","","","","","","","","","","","","",""
"3328","","<div style=""width:500px;"">
  <p>How would you describe your current emotional state?</p>
  </div>","6","html-slider-response","12","114462","0.0-5.0-3.0","102","1","2025-07-16 10:39:46","1f75c3e559b7213887762d5229550c2b","78.33.241.66","Mozilla/5.0 (Windows NT 10.0; Win64; x64) AppleWebKit/537.36 (KHTML, like Gecko) Chrome/138.0.0.0 Safari/537.36","WebKit","Chrome","138.0.0.0","Windows","10.0","https://app.prolific.com/","en-GB,en;q=0.9","5e203085ac30fa331b586690","686e379bc37a29ffa5cdc956","687781615efb8fd6787302af","1","1","5e203085ac30fa331b586690","1","1","2025-07-16T10:41:42.200Z","","","","","","","","","","","StressQ","","50","","","","","","","","","","","","","","","","","","","","","","","","","","","","",""
"2827","","<div style=""width:500px;"">
  <p>What best describes how you currently feel?</p>
  </div>","85","html-slider-response","13","117290","0.0-5.0-4.0","102","1","2025-07-16 10:39:46","1f75c3e559b7213887762d5229550c2b","78.33.241.66","Mozilla/5.0 (Windows NT 10.0; Win64; x64) AppleWebKit/537.36 (KHTML, like Gecko) Chrome/138.0.0.0 Safari/537.36","WebKit","Chrome","138.0.0.0","Windows","10.0","https://app.prolific.com/","en-GB,en;q=0.9","5e203085ac30fa331b586690","686e379bc37a29ffa5cdc956","687781615efb8fd6787302af","1","1","5e203085ac30fa331b586690","1","1","2025-07-16T10:41:45.028Z","","","","","","","","","","","MotivationQ","","50","","","","","","","","","","","","","","","","","","","","","","","","","","","","",""
"","","","","ctl-task-cpt","14","141126","0.0-5.0-0.1","102","1","2025-07-16 10:39:46","1f75c3e559b7213887762d5229550c2b","78.33.241.66","Mozilla/5.0 (Windows NT 10.0; Win64; x64) AppleWebKit/537.36 (KHTML, like Gecko) Chrome/138.0.0.0 Safari/537.36","WebKit","Chrome","138.0.0.0","Windows","10.0","https://app.prolific.com/","en-GB,en;q=0.9","5e203085ac30fa331b586690","686e379bc37a29ffa5cdc956","687781615efb8fd6787302af","1","1","5e203085ac30fa331b586690","1","1","2025-07-16T10:42:08.864Z","","","","","","","","","","","","","","win-only","0","g1:NW,g2:SE","0.9","2","0","118643.1","923.4","5925.9","20831.6","1","4","4","6","2","4","4","11","7","0.08333333333333333","821.8","3000","1275","[""down"",""right""]","{""num_key_presses"":6,""num_perfect"":5,""num_errors"":0,""num_randdir"":1,""num_randdir_good_moves"":1,""num_whilered"":0,""num_whileblue"":0,""num_blue"":0,""num_good_moves"":6}","[415.57142857142856,408.47767857142856,0.2,415.57142857142856,408.47767857142856,102.7,415.57142857142856,408.47767857142856,202.7,416.57142857142856,406.47767857142856,308.1,417.57142857142856,408.47767857142856,413.7,638.5714285714286,617.4776785714286,516.8,731.5714285714286,723.4776785714286,617.8,747.5714285714286,738.4776785714286,719,749.5714285714286,740.4776785714286,824.7,749.5714285714286,740.4776785714286,927.3,750.5714285714286,739.4776785714286,1028.6,755.5714285714286,739.4776785714286,1132.5,773.5714285714286,747.4776785714286,1233.2,773.5714285714286,747.4776785714286,1333.5,773.5714285714286,747.4776785714286,1433.5,773.5714285714286,747.4776785714286,1533.9,773.5714285714286,747.4776785714286,1636.9,773.5714285714286,747.4776785714286,1737.4,773.5714285714286,747.4776785714286,1838.5,773.5714285714286,747.4776785714286,1943.5,773.5714285714286,747.4776785714286,2047,773.5714285714286,747.4776785714286,2147.3,773.5714285714286,747.4776785714286,2252.4,773.5714285714286,747.4776785714286,2357,773.5714285714286,747.4776785714286,2457.7,773.5714285714286,747.4776785714286,2557.9,773.5714285714286,747.4776785714286,2662.3,773.5714285714286,747.4776785714286,2762.8,773.5714285714286,747.4776785714286,2863.1,773.5714285714286,747.4776785714286,2968.2,773.5714285714286,747.4776785714286,3073.1,773.5714285714286,747.4776785714286,3177.6,773.5714285714286,747.4776785714286,3282.8,773.5714285714286,747.4776785714286,3387.2,773.5714285714286,747.4776785714286,3488.6,773.5714285714286,747.4776785714286,3592,773.5714285714286,747.4776785714286,3695,773.5714285714286,747.4776785714286,3798.6,773.5714285714286,747.4776785714286,3902.4,773.5714285714286,747.4776785714286,4002.9,773.5714285714286,747.4776785714286,4108.2,773.5714285714286,747.4776785714286,4208.3,773.5714285714286,747.4776785714286,4313,773.5714285714286,747.4776785714286,4413.6,773.5714285714286,747.4776785714286,4516.8,773.5714285714286,747.4776785714286,4617.9,773.5714285714286,747.4776785714286,4722.2,773.5714285714286,747.4776785714286,4822.6,773.5714285714286,747.4776785714286,4927.5]","[1323.1,1323.1,1000,0,323.1,""oops"",""down"",""right"",""good_move"",3723,2399.2,2079,1323.8,320.2,""smooth"",""down"",""down"",""good_move"",6569,2845,2551.9,3724,293.1,""smooth"",""down"",""down"",""good_move"",9909.4,3340.1,3106.6,6569.3,233.5,""smooth"",""down"",""down"",""good_move"",11869,1959.3,1630.2,9909.7,329.1,""smooth"",""right"",""right"",""good_move"",14819.6,2950.4,2687.6,11869.2,262.8,""smooth"",""right"",""right"",""good_move""]","",""
"2313","","<div style=""width:500px;"">
  <p>What determined the result of this run?</p>
  </div>","84","html-slider-response","15","143441","0.0-5.0-1.1","102","1","2025-07-16 10:39:46","1f75c3e559b7213887762d5229550c2b","78.33.241.66","Mozilla/5.0 (Windows NT 10.0; Win64; x64) AppleWebKit/537.36 (KHTML, like Gecko) Chrome/138.0.0.0 Safari/537.36","WebKit","Chrome","138.0.0.0","Windows","10.0","https://app.prolific.com/","en-GB,en;q=0.9","5e203085ac30fa331b586690","686e379bc37a29ffa5cdc956","687781615efb8fd6787302af","1","1","5e203085ac30fa331b586690","1","1","2025-07-16T10:42:11.179Z","","","","","","","","","","","AttribQ","","50","","","","","","","","","","","","","","","","","","","","","","","","","","","","",""
"2087","","<div style=""width:500px;"">
  <p>How much control did you have over the ball?</p>
  </div>","87","html-slider-response","16","145528","0.0-5.0-2.1","102","1","2025-07-16 10:39:46","1f75c3e559b7213887762d5229550c2b","78.33.241.66","Mozilla/5.0 (Windows NT 10.0; Win64; x64) AppleWebKit/537.36 (KHTML, like Gecko) Chrome/138.0.0.0 Safari/537.36","WebKit","Chrome","138.0.0.0","Windows","10.0","https://app.prolific.com/","en-GB,en;q=0.9","5e203085ac30fa331b586690","686e379bc37a29ffa5cdc956","687781615efb8fd6787302af","1","1","5e203085ac30fa331b586690","1","1","2025-07-16T10:42:13.266Z","","","","","","","","","","","ControlQ","","50","","","","","","","","","","","","","","","","","","","","","","","","","","","","",""
"2469","","<div style=""width:500px;"">
  <p>How would you describe your current emotional state?</p>
  </div>","11","html-slider-response","17","147999","0.0-5.0-3.1","102","1","2025-07-16 10:39:46","1f75c3e559b7213887762d5229550c2b","78.33.241.66","Mozilla/5.0 (Windows NT 10.0; Win64; x64) AppleWebKit/537.36 (KHTML, like Gecko) Chrome/138.0.0.0 Safari/537.36","WebKit","Chrome","138.0.0.0","Windows","10.0","https://app.prolific.com/","en-GB,en;q=0.9","5e203085ac30fa331b586690","686e379bc37a29ffa5cdc956","687781615efb8fd6787302af","1","1","5e203085ac30fa331b586690","1","1","2025-07-16T10:42:15.737Z","","","","","","","","","","","StressQ","","50","","","","","","","","","","","","","","","","","","","","","","","","","","","","",""
"2801","","<div style=""width:500px;"">
  <p>What best describes how you currently feel?</p>
  </div>","87","html-slider-response","18","150802","0.0-5.0-4.1","102","1","2025-07-16 10:39:46","1f75c3e559b7213887762d5229550c2b","78.33.241.66","Mozilla/5.0 (Windows NT 10.0; Win64; x64) AppleWebKit/537.36 (KHTML, like Gecko) Chrome/138.0.0.0 Safari/537.36","WebKit","Chrome","138.0.0.0","Windows","10.0","https://app.prolific.com/","en-GB,en;q=0.9","5e203085ac30fa331b586690","686e379bc37a29ffa5cdc956","687781615efb8fd6787302af","1","1","5e203085ac30fa331b586690","1","1","2025-07-16T10:42:18.540Z","","","","","","","","","","","MotivationQ","","50","","","","","","","","","","","","","","","","","","","","","","","","","","","","",""
"","","","","ctl-task-cpt","19","191323","0.0-5.0-0.2","102","1","2025-07-16 10:39:46","1f75c3e559b7213887762d5229550c2b","78.33.241.66","Mozilla/5.0 (Windows NT 10.0; Win64; x64) AppleWebKit/537.36 (KHTML, like Gecko) Chrome/138.0.0.0 Safari/537.36","WebKit","Chrome","138.0.0.0","Windows","10.0","https://app.prolific.com/","en-GB,en;q=0.9","5e203085ac30fa331b586690","686e379bc37a29ffa5cdc956","687781615efb8fd6787302af","1","1","5e203085ac30fa331b586690","1","1","2025-07-16T10:42:59.061Z","","","","","","","","","","","","","","win-only","1","g1:NE,g2:SW","0.8","3","0","152158.4","5453.6","10456.6","37511.2","1","4","4","6","2","4","4","15","11","0.11363636363636363","865.2","3000","100","[""down"",""left""]","{""num_key_presses"":10,""num_perfect"":8,""num_errors"":0,""num_randdir"":2,""num_randdir_good_moves"":0,""num_whilered"":0,""num_whileblue"":0,""num_blue"":0,""num_good_moves"":8}","[421.57142857142856,420.47767857142856,0.3,421.57142857142856,420.47767857142856,100.2,422.57142857142856,411.47767857142856,200.7,435.57142857142856,409.47767857142856,303.1,435.57142857142856,409.47767857142856,407.7,461.57142857142856,413.47767857142856,507.9,154.57142857142856,748.4776785714286,613.1,118.57142857142857,776.4776785714286,715.9,111.57142857142857,780.4776785714286,816.6,111.57142857142857,780.4776785714286,921.1,111.57142857142857,780.4776785714286,1022.1,111.57142857142857,780.4776785714286,1128.5,111.57142857142857,780.4776785714286,1231.3,111.57142857142857,780.4776785714286,1333.2,111.57142857142857,780.4776785714286,1437.9,111.57142857142857,780.4776785714286,1542.3,111.57142857142857,780.4776785714286,1642.5,111.57142857142857,780.4776785714286,1748.7,111.57142857142857,780.4776785714286,1853.1,111.57142857142857,780.4776785714286,1953.7,111.57142857142857,780.4776785714286,2057.5,111.57142857142857,780.4776785714286,2166.3,111.57142857142857,780.4776785714286,2267,111.57142857142857,780.4776785714286,2367.3,111.57142857142857,780.4776785714286,2467.9,111.57142857142857,780.4776785714286,2573,111.57142857142857,780.4776785714286,2673,111.57142857142857,780.4776785714286,2773.1,111.57142857142857,780.4776785714286,2873.4,111.57142857142857,780.4776785714286,2978.1,111.57142857142857,780.4776785714286,3079.8,111.57142857142857,780.4776785714286,3183.9,111.57142857142857,780.4776785714286,3287.7,111.57142857142857,780.4776785714286,3388.5,111.57142857142857,780.4776785714286,3491.6,111.57142857142857,780.4776785714286,3592.9,111.57142857142857,780.4776785714286,3700.1,111.57142857142857,780.4776785714286,3802.2,111.57142857142857,780.4776785714286,3906.8,111.57142857142857,780.4776785714286,4007.2,111.57142857142857,780.4776785714286,4108.3,111.57142857142857,780.4776785714286,4213.3,111.57142857142857,780.4776785714286,4315.5,111.57142857142857,780.4776785714286,4417.5,111.57142857142857,780.4776785714286,4523.5,111.57142857142857,780.4776785714286,4626.9,111.57142857142857,780.4776785714286,4727.5,111.57142857142857,780.4776785714286,4829.8,111.57142857142857,780.4776785714286,4932.9]","[1347.8,1347.8,1000,0,347.8,""smooth"",""down"",""down"",""good_move"",4596.6,3248.4,2985.9,1348.2,262.5,""smooth"",""down"",""down"",""good_move"",7554.3,2957,2685.5,4597.3,271.5,""oops"",""down"",""right"",""bad_move"",10299.1,2744.3,2451.3,7554.8,293,""smooth"",""down"",""down"",""good_move"",12324.3,2025,1690.2,10299.3,334.8,""smooth"",""left"",""left"",""good_move"",14985.6,2660.5,2420.9,12325.1,239.6,""smooth"",""left"",""left"",""good_move"",18397.8,3412.1,3016.2,14985.7,395.9,""oops"",""left"",""up"",""bad_move"",20761.8,2363.2,1987.8,18398.7,375.4,""smooth"",""left"",""left"",""good_move"",23470.5,2708.3,2444.6,20762.2,263.7,""smooth"",""left"",""left"",""good_move"",26963.3,3492.6,3259.2,23470.7,233.4,""smooth"",""down"",""down"",""good_move""]","",""
"3104","","<div style=""width:500px;"">
  <p>What determined the result of this run?</p>
  </div>","88","html-slider-response","20","194428","0.0-5.0-1.2","102","1","2025-07-16 10:39:46","1f75c3e559b7213887762d5229550c2b","78.33.241.66","Mozilla/5.0 (Windows NT 10.0; Win64; x64) AppleWebKit/537.36 (KHTML, like Gecko) Chrome/138.0.0.0 Safari/537.36","WebKit","Chrome","138.0.0.0","Windows","10.0","https://app.prolific.com/","en-GB,en;q=0.9","5e203085ac30fa331b586690","686e379bc37a29ffa5cdc956","687781615efb8fd6787302af","1","1","5e203085ac30fa331b586690","1","1","2025-07-16T10:43:02.166Z","","","","","","","","","","","AttribQ","","50","","","","","","","","","","","","","","","","","","","","","","","","","","","","",""
"2392","","<div style=""width:500px;"">
  <p>How much control did you have over the ball?</p>
  </div>","87","html-slider-response","21","196820","0.0-5.0-2.2","102","1","2025-07-16 10:39:46","1f75c3e559b7213887762d5229550c2b","78.33.241.66","Mozilla/5.0 (Windows NT 10.0; Win64; x64) AppleWebKit/537.36 (KHTML, like Gecko) Chrome/138.0.0.0 Safari/537.36","WebKit","Chrome","138.0.0.0","Windows","10.0","https://app.prolific.com/","en-GB,en;q=0.9","5e203085ac30fa331b586690","686e379bc37a29ffa5cdc956","687781615efb8fd6787302af","1","1","5e203085ac30fa331b586690","1","1","2025-07-16T10:43:04.559Z","","","","","","","","","","","ControlQ","","50","","","","","","","","","","","","","","","","","","","","","","","","","","","","",""
"3310","","<div style=""width:500px;"">
  <p>How would you describe your current emotional state?</p>
  </div>","12","html-slider-response","22","200132","0.0-5.0-3.2","102","1","2025-07-16 10:39:46","1f75c3e559b7213887762d5229550c2b","78.33.241.66","Mozilla/5.0 (Windows NT 10.0; Win64; x64) AppleWebKit/537.36 (KHTML, like Gecko) Chrome/138.0.0.0 Safari/537.36","WebKit","Chrome","138.0.0.0","Windows","10.0","https://app.prolific.com/","en-GB,en;q=0.9","5e203085ac30fa331b586690","686e379bc37a29ffa5cdc956","687781615efb8fd6787302af","1","1","5e203085ac30fa331b586690","1","1","2025-07-16T10:43:07.871Z","","","","","","","","","","","StressQ","","50","","","","","","","","","","","","","","","","","","","","","","","","","","","","",""
"2145","","<div style=""width:500px;"">
  <p>What best describes how you currently feel?</p>
  </div>","88","html-slider-response","23","202279","0.0-5.0-4.2","102","1","2025-07-16 10:39:46","1f75c3e559b7213887762d5229550c2b","78.33.241.66","Mozilla/5.0 (Windows NT 10.0; Win64; x64) AppleWebKit/537.36 (KHTML, like Gecko) Chrome/138.0.0.0 Safari/537.36","WebKit","Chrome","138.0.0.0","Windows","10.0","https://app.prolific.com/","en-GB,en;q=0.9","5e203085ac30fa331b586690","686e379bc37a29ffa5cdc956","687781615efb8fd6787302af","1","1","5e203085ac30fa331b586690","1","1","2025-07-16T10:43:10.018Z","","","","","","","","","","","MotivationQ","","50","","","","","","","","","","","","","","","","","","","","","","","","","","","","",""
"","","","","ctl-task-cpt","24","232077","0.0-5.0-0.3","102","1","2025-07-16 10:39:46","1f75c3e559b7213887762d5229550c2b","78.33.241.66","Mozilla/5.0 (Windows NT 10.0; Win64; x64) AppleWebKit/537.36 (KHTML, like Gecko) Chrome/138.0.0.0 Safari/537.36","WebKit","Chrome","138.0.0.0","Windows","10.0","https://app.prolific.com/","en-GB,en;q=0.9","5e203085ac30fa331b586690","686e379bc37a29ffa5cdc956","687781615efb8fd6787302af","1","1","5e203085ac30fa331b586690","1","1","2025-07-16T10:43:39.815Z","","","","","","","","","","","","","","win-only","1","g1:NE,g2:SW","0.7","4","0","203634.3","1012.6","6015.7","26780.3","1","4","8","6","2","8","7","22","15","0.16666666666666666","721.4","3000","1130","[""down"",""left""]","{""num_key_presses"":8,""num_perfect"":5,""num_errors"":1,""num_randdir"":2,""num_randdir_good_moves"":2,""num_whilered"":0,""num_whileblue"":1,""num_blue"":1,""num_good_moves"":7}","[420.57142857142856,422.47767857142856,0.2,420.57142857142856,422.47767857142856,103.7,420.57142857142856,422.47767857142856,208.1,420.57142857142856,422.47767857142856,317,361.57142857142856,469.47767857142856,417.6,39.57142857142857,777.4776785714286,517.8,27.57142857142857,794.4776785714286,618.9,24.57142857142857,798.4776785714286,728.4,24.57142857142857,798.4776785714286,833,24.57142857142857,798.4776785714286,934.3,25.57142857142857,797.4776785714286,1037.6,25.57142857142857,797.4776785714286,1137.7,25.57142857142857,797.4776785714286,1239.6,25.57142857142857,797.4776785714286,1339.9,25.57142857142857,797.4776785714286,1446.9,25.57142857142857,797.4776785714286,1550.3,25.57142857142857,797.4776785714286,1653.1,25.57142857142857,797.4776785714286,1759.1,25.57142857142857,797.4776785714286,1862.9,25.57142857142857,797.4776785714286,1967.2,25.57142857142857,797.4776785714286,2067.2,25.57142857142857,797.4776785714286,2168,25.57142857142857,797.4776785714286,2272.8,25.57142857142857,797.4776785714286,2373,25.57142857142857,797.4776785714286,2478.2,25.57142857142857,797.4776785714286,2580.8,25.57142857142857,797.4776785714286,2682.5,25.57142857142857,797.4776785714286,2783,25.57142857142857,797.4776785714286,2883.5,25.57142857142857,797.4776785714286,2983.7,25.57142857142857,797.4776785714286,3087.7,25.57142857142857,797.4776785714286,3187.8,25.57142857142857,797.4776785714286,3287.9,25.57142857142857,797.4776785714286,3388.8,25.57142857142857,797.4776785714286,3494.9,25.57142857142857,797.4776785714286,3598.1,25.57142857142857,797.4776785714286,3700.4,25.57142857142857,797.4776785714286,3803.1,25.57142857142857,797.4776785714286,3911.2,25.57142857142857,797.4776785714286,4014.5,25.57142857142857,797.4776785714286,4115.4,25.57142857142857,797.4776785714286,4216.5,25.57142857142857,797.4776785714286,4320,25.57142857142857,797.4776785714286,4423.8,25.57142857142857,797.4776785714286,4527.9,25.57142857142857,797.4776785714286,4632.7,25.57142857142857,797.4776785714286,4733.3,25.57142857142857,797.4776785714286,4837.8,25.57142857142857,797.4776785714286,4937.9]","[1313.3,1313.3,1000,0,313.3,""smooth"",""down"",""down"",""good_move"",4041.9,2728.3,2433,1313.6,295.3,""smooth"",""down"",""down"",""good_move"",7282.1,3239.8,2988.5,4042.3,251.3,""oops"",""down"",""left"",""good_move"",9879.9,2597.5,2280.5,7282.4,317,""while_blue"",""down"",""up"",""bad_move"",12514.2,2633.6,2234.8,9880.6,398.8,""oops"",""down"",""left"",""good_move"",15325.7,2811.3,2501.1,12514.4,310.2,""smooth"",""down"",""down"",""good_move"",17622,2296,2010.3,15326,285.7,""smooth"",""down"",""down"",""good_move"",20662.3,3040.2,2699,17622.1,341.2,""smooth"",""left"",""left"",""good_move""]","",""
"2488","","<div style=""width:500px;"">
  <p>What determined the result of this run?</p>
  </div>","84","html-slider-response","25","234567","0.0-5.0-1.3","102","1","2025-07-16 10:39:46","1f75c3e559b7213887762d5229550c2b","78.33.241.66","Mozilla/5.0 (Windows NT 10.0; Win64; x64) AppleWebKit/537.36 (KHTML, like Gecko) Chrome/138.0.0.0 Safari/537.36","WebKit","Chrome","138.0.0.0","Windows","10.0","https://app.prolific.com/","en-GB,en;q=0.9","5e203085ac30fa331b586690","686e379bc37a29ffa5cdc956","687781615efb8fd6787302af","1","1","5e203085ac30fa331b586690","1","1","2025-07-16T10:43:42.305Z","","","","","","","","","","","AttribQ","","50","","","","","","","","","","","","","","","","","","","","","","","","","","","","",""
"2712","","<div style=""width:500px;"">
  <p>How much control did you have over the ball?</p>
  </div>","84","html-slider-response","26","237280","0.0-5.0-2.3","102","1","2025-07-16 10:39:46","1f75c3e559b7213887762d5229550c2b","78.33.241.66","Mozilla/5.0 (Windows NT 10.0; Win64; x64) AppleWebKit/537.36 (KHTML, like Gecko) Chrome/138.0.0.0 Safari/537.36","WebKit","Chrome","138.0.0.0","Windows","10.0","https://app.prolific.com/","en-GB,en;q=0.9","5e203085ac30fa331b586690","686e379bc37a29ffa5cdc956","687781615efb8fd6787302af","1","1","5e203085ac30fa331b586690","1","1","2025-07-16T10:43:45.019Z","","","","","","","","","","","ControlQ","","50","","","","","","","","","","","","","","","","","","","","","","","","","","","","",""
"2531","","<div style=""width:500px;"">
  <p>How would you describe your current emotional state?</p>
  </div>","14","html-slider-response","27","239813","0.0-5.0-3.3","102","1","2025-07-16 10:39:46","1f75c3e559b7213887762d5229550c2b","78.33.241.66","Mozilla/5.0 (Windows NT 10.0; Win64; x64) AppleWebKit/537.36 (KHTML, like Gecko) Chrome/138.0.0.0 Safari/537.36","WebKit","Chrome","138.0.0.0","Windows","10.0","https://app.prolific.com/","en-GB,en;q=0.9","5e203085ac30fa331b586690","686e379bc37a29ffa5cdc956","687781615efb8fd6787302af","1","1","5e203085ac30fa331b586690","1","1","2025-07-16T10:43:47.551Z","","","","","","","","","","","StressQ","","50","","","","","","","","","","","","","","","","","","","","","","","","","","","","",""
"2346","","<div style=""width:500px;"">
  <p>What best describes how you currently feel?</p>
  </div>","84","html-slider-response","28","242160","0.0-5.0-4.3","102","1","2025-07-16 10:39:46","1f75c3e559b7213887762d5229550c2b","78.33.241.66","Mozilla/5.0 (Windows NT 10.0; Win64; x64) AppleWebKit/537.36 (KHTML, like Gecko) Chrome/138.0.0.0 Safari/537.36","WebKit","Chrome","138.0.0.0","Windows","10.0","https://app.prolific.com/","en-GB,en;q=0.9","5e203085ac30fa331b586690","686e379bc37a29ffa5cdc956","687781615efb8fd6787302af","1","1","5e203085ac30fa331b586690","1","1","2025-07-16T10:43:49.898Z","","","","","","","","","","","MotivationQ","","50","","","","","","","","","","","","","","","","","","","","","","","","","","","","",""
"","","","","ctl-task-cpt","29","287630","0.0-5.0-0.4","102","1","2025-07-16 10:39:46","1f75c3e559b7213887762d5229550c2b","78.33.241.66","Mozilla/5.0 (Windows NT 10.0; Win64; x64) AppleWebKit/537.36 (KHTML, like Gecko) Chrome/138.0.0.0 Safari/537.36","WebKit","Chrome","138.0.0.0","Windows","10.0","https://app.prolific.com/","en-GB,en;q=0.9","5e203085ac30fa331b586690","686e379bc37a29ffa5cdc956","687781615efb8fd6787302af","1","1","5e203085ac30fa331b586690","1","1","2025-07-16T10:44:35.368Z","","","","","","","","","","","","","","win-only","2","g1:SE,g2:NW","0.6","5","0","243515.7","886.9","5891.6","42450.7","1","4","4","6","2","4","2","24","22","0.18181818181818182","1093.2","3000","40","[""left"",""up""]","{""num_key_presses"":14,""num_perfect"":8,""num_errors"":2,""num_randdir"":4,""num_randdir_good_moves"":1,""num_whilered"":0,""num_whileblue"":2,""num_blue"":2,""num_good_moves"":10}","[419.57142857142856,419.47767857142856,0.1,419.57142857142856,419.47767857142856,111.9,419.57142857142856,419.47767857142856,214.1,436.57142857142856,496.47767857142856,314.4,665.5714285714286,708.4776785714286,418.5,766.5714285714286,811.4776785714286,518.8,702.5714285714286,732.4776785714286,619.2,198.57142857142856,289.47767857142856,728.6,152.57142857142856,229.47767857142856,828.7,119.57142857142857,176.47767857142856,934.4,67.57142857142857,104.47767857142857,1038.5,62.57142857142857,99.47767857142857,1147.1,63.57142857142857,98.47767857142857,1249.3,63.57142857142857,98.47767857142857,1349.9,63.57142857142857,98.47767857142857,1462.2,63.57142857142857,98.47767857142857,1563.5,63.57142857142857,98.47767857142857,1663.6,63.57142857142857,98.47767857142857,1764.5,63.57142857142857,98.47767857142857,1864.6,63.57142857142857,98.47767857142857,1964.6,63.57142857142857,98.47767857142857,2077.9,63.57142857142857,98.47767857142857,2178.1,63.57142857142857,98.47767857142857,2279.5,63.57142857142857,98.47767857142857,2383.5,63.57142857142857,98.47767857142857,2484.4,63.57142857142857,98.47767857142857,2588.9,63.57142857142857,98.47767857142857,2696.7,63.57142857142857,98.47767857142857,2798.6,63.57142857142857,98.47767857142857,2898.8,63.57142857142857,98.47767857142857,2999.7,63.57142857142857,98.47767857142857,3103.6,63.57142857142857,98.47767857142857,3203.8,63.57142857142857,98.47767857142857,3312.1,63.57142857142857,98.47767857142857,3412.4,63.57142857142857,98.47767857142857,3513.4,63.57142857142857,98.47767857142857,3614.1,63.57142857142857,98.47767857142857,3714.4,63.57142857142857,98.47767857142857,3819,63.57142857142857,98.47767857142857,3919.7,63.57142857142857,98.47767857142857,4019.8,63.57142857142857,98.47767857142857,4127.6,63.57142857142857,98.47767857142857,4227.8,63.57142857142857,98.47767857142857,4328.8,63.57142857142857,98.47767857142857,4434.6,63.57142857142857,98.47767857142857,4538.7,63.57142857142857,98.47767857142857,4644.8,63.57142857142857,98.47767857142857,4748.9,63.57142857142857,98.47767857142857,4849.5,63.57142857142857,98.47767857142857,4961.5]","[1298.9,1298.9,1000,0,298.9,""smooth"",""left"",""left"",""good_move"",4923.1,3623.5,3339.5,1299.7,284,""oops"",""left"",""up"",""good_move"",7105.8,2182.4,1848.6,4923.4,333.8,""smooth"",""left"",""left"",""good_move"",10134.2,3028.2,2751,7106,277.2,""smooth"",""left"",""left"",""good_move"",13005.9,2871.4,2543.5,10134.5,327.9,""smooth"",""up"",""up"",""good_move"",15540.6,2534.5,2248.1,13006.1,286.4,""oops"",""up"",""down"",""bad_move"",18093.9,2552,2266.4,15541.9,285.6,""while_blue"",""up"",""right"",""bad_move"",20789.3,2695.1,2405,18094.2,290.1,""smooth"",""left"",""left"",""good_move"",23869.8,3080,2797.6,20790,282.4,""oops"",""up"",""right"",""bad_move"",26706.3,2835.5,2552.3,23870.8,283.2,""while_blue"",""left"",""up"",""good_move"",28319.7,1613.1,1163.9,26706.6,449.2,""smooth"",""left"",""left"",""good_move"",30613.1,2292.6,1983.3,28320.5,309.3,""oops"",""up"",""down"",""bad_move"",33443.6,2830.3,2545.9,30613.3,284.4,""smooth"",""up"",""up"",""good_move"",36459.4,3015.8,2729.4,33443.6,286.4,""smooth"",""up"",""up"",""good_move""]","",""
"3404","","<div style=""width:500px;"">
  <p>What determined the result of this run?</p>
  </div>","78","html-slider-response","30","291038","0.0-5.0-1.4","102","1","2025-07-16 10:39:46","1f75c3e559b7213887762d5229550c2b","78.33.241.66","Mozilla/5.0 (Windows NT 10.0; Win64; x64) AppleWebKit/537.36 (KHTML, like Gecko) Chrome/138.0.0.0 Safari/537.36","WebKit","Chrome","138.0.0.0","Windows","10.0","https://app.prolific.com/","en-GB,en;q=0.9","5e203085ac30fa331b586690","686e379bc37a29ffa5cdc956","687781615efb8fd6787302af","1","1","5e203085ac30fa331b586690","1","1","2025-07-16T10:44:38.776Z","","","","","","","","","","","AttribQ","","50","","","","","","","","","","","","","","","","","","","","","","","","","","","","",""
"1670","","<div style=""width:500px;"">
  <p>How much control did you have over the ball?</p>
  </div>","74","html-slider-response","31","292713","0.0-5.0-2.4","102","1","2025-07-16 10:39:46","1f75c3e559b7213887762d5229550c2b","78.33.241.66","Mozilla/5.0 (Windows NT 10.0; Win64; x64) AppleWebKit/537.36 (KHTML, like Gecko) Chrome/138.0.0.0 Safari/537.36","WebKit","Chrome","138.0.0.0","Windows","10.0","https://app.prolific.com/","en-GB,en;q=0.9","5e203085ac30fa331b586690","686e379bc37a29ffa5cdc956","687781615efb8fd6787302af","1","1","5e203085ac30fa331b586690","1","1","2025-07-16T10:44:40.452Z","","","","","","","","","","","ControlQ","","50","","","","","","","","","","","","","","","","","","","","","","","","","","","","",""
"2326","","<div style=""width:500px;"">
  <p>How would you describe your current emotional state?</p>
  </div>","20","html-slider-response","32","295047","0.0-5.0-3.4","102","1","2025-07-16 10:39:46","1f75c3e559b7213887762d5229550c2b","78.33.241.66","Mozilla/5.0 (Windows NT 10.0; Win64; x64) AppleWebKit/537.36 (KHTML, like Gecko) Chrome/138.0.0.0 Safari/537.36","WebKit","Chrome","138.0.0.0","Windows","10.0","https://app.prolific.com/","en-GB,en;q=0.9","5e203085ac30fa331b586690","686e379bc37a29ffa5cdc956","687781615efb8fd6787302af","1","1","5e203085ac30fa331b586690","1","1","2025-07-16T10:44:42.786Z","","","","","","","","","","","StressQ","","50","","","","","","","","","","","","","","","","","","","","","","","","","","","","",""
"1965","","<div style=""width:500px;"">
  <p>What best describes how you currently feel?</p>
  </div>","78","html-slider-response","33","297020","0.0-5.0-4.4","102","1","2025-07-16 10:39:46","1f75c3e559b7213887762d5229550c2b","78.33.241.66","Mozilla/5.0 (Windows NT 10.0; Win64; x64) AppleWebKit/537.36 (KHTML, like Gecko) Chrome/138.0.0.0 Safari/537.36","WebKit","Chrome","138.0.0.0","Windows","10.0","https://app.prolific.com/","en-GB,en;q=0.9","5e203085ac30fa331b586690","686e379bc37a29ffa5cdc956","687781615efb8fd6787302af","1","1","5e203085ac30fa331b586690","1","1","2025-07-16T10:44:44.758Z","","","","","","","","","","","MotivationQ","","50","","","","","","","","","","","","","","","","","","","","","","","","","","","","",""
"","","","","ctl-task-cpt","34","352612","0.0-5.0-0.5","102","1","2025-07-16 10:39:46","1f75c3e559b7213887762d5229550c2b","78.33.241.66","Mozilla/5.0 (Windows NT 10.0; Win64; x64) AppleWebKit/537.36 (KHTML, like Gecko) Chrome/138.0.0.0 Safari/537.36","WebKit","Chrome","138.0.0.0","Windows","10.0","https://app.prolific.com/","en-GB,en;q=0.9","5e203085ac30fa331b586690","686e379bc37a29ffa5cdc956","687781615efb8fd6787302af","1","1","5e203085ac30fa331b586690","1","1","2025-07-16T10:45:40.350Z","","","","","","","","","","","","","","win-only","1","g1:NE,g2:SW","0.5","6","0","298375.5","955.1","5956","52560.2","1","4","8","6","2","-8","-10","14","24","0.10606060606060606","872.6","3000","-2370","[""down"",""left""]","{""num_key_presses"":13,""num_perfect"":5,""num_errors"":2,""num_randdir"":6,""num_randdir_good_moves"":2,""num_whilered"":0,""num_whileblue"":2,""num_blue"":4,""num_good_moves"":8}","[417.57142857142856,413.47767857142856,0.2,417.57142857142856,413.47767857142856,101.3,417.57142857142856,413.47767857142856,205.4,417.57142857142856,413.47767857142856,305.6,417.57142857142856,413.47767857142856,405.8,303.57142857142856,506.47767857142856,512.5,97.57142857142857,680.4776785714286,615.8,98.57142857142857,693.4776785714286,716.8,108.57142857142857,716.4776785714286,820.3,111.57142857142857,726.4776785714286,935.2,112.57142857142857,726.4776785714286,1035.6,127.57142857142857,743.4776785714286,1141.3,129.57142857142856,753.4776785714286,1246.7,129.57142857142856,753.4776785714286,1346.7,129.57142857142856,753.4776785714286,1450.1,129.57142857142856,753.4776785714286,1551.2,129.57142857142856,753.4776785714286,1655.9,129.57142857142856,753.4776785714286,1756.3,129.57142857142856,753.4776785714286,1869.9,129.57142857142856,753.4776785714286,1970.4,129.57142857142856,753.4776785714286,2071.2,129.57142857142856,753.4776785714286,2171.6,129.57142857142856,753.4776785714286,2275.2,129.57142857142856,753.4776785714286,2384.9,129.57142857142856,753.4776785714286,2484.9,129.57142857142856,753.4776785714286,2585.2,129.57142857142856,753.4776785714286,2685.3,129.57142857142856,753.4776785714286,2786.5,129.57142857142856,753.4776785714286,2890.8,129.57142857142856,753.4776785714286,2990.9,129.57142857142856,753.4776785714286,3091.2,129.57142857142856,753.4776785714286,3201.2,129.57142857142856,753.4776785714286,3306.5,129.57142857142856,753.4776785714286,3406.7,129.57142857142856,753.4776785714286,3510.4,129.57142857142856,753.4776785714286,3618.8,129.57142857142856,753.4776785714286,3720.4,129.57142857142856,753.4776785714286,3826,129.57142857142856,753.4776785714286,3935.5,129.57142857142856,753.4776785714286,4040.9,129.57142857142856,753.4776785714286,4141.5,129.57142857142856,753.4776785714286,4241.9,129.57142857142856,753.4776785714286,4350.4,129.57142857142856,753.4776785714286,4452.7,129.57142857142856,753.4776785714286,4556.5,129.57142857142856,753.4776785714286,4660.4,129.57142857142856,753.4776785714286,4769.5,129.57142857142856,753.4776785714286,4870.6,129.57142857142856,753.4776785714286,4971]","[1349,1349,1000,0,349,""smooth"",""down"",""down"",""good_move"",4951.5,3602.2,3296.6,1349.3,305.7,""smooth"",""down"",""down"",""good_move"",8099.8,3148,2846.8,4951.8,301.2,""oops"",""down"",""left"",""good_move"",10768.4,2668.3,2359.8,8100.1,308.5,""while_blue"",""down"",""down"",""good_move"",16849.7,6081.1,2488.3,14018.5,342.9,""smooth"",""left"",""left"",""good_move"",23095.6,6245.7,2411.8,20239.4,444.5,""oops"",""left"",""right"",""bad_move"",25617.9,2520,2203.3,23097.9,316.7,""oops"",""left"",""left"",""good_move"",27702.3,2084.3,1771.9,25618.1,312.3,""while_blue"",""left"",""right"",""bad_move"",30719.9,3017.5,2603.1,27702.4,414.4,""smooth"",""left"",""left"",""good_move"",34189.3,3469.3,3113.1,30720.1,356.2,""oops"",""left"",""right"",""bad_move"",37232.8,3043.2,2678.4,34189.6,364.8,""oops"",""left"",""up"",""bad_move"",40819,3585.9,3336.9,37233.1,249,""smooth"",""left"",""left"",""good_move"",44198.8,3379.7,2963.7,40819.1,416.1,""oops"",""left"",""up"",""bad_move""]","",""
"5643","","<div style=""width:500px;"">
  <p>What determined the result of this run?</p>
  </div>","50","html-slider-response","35","358257","0.0-5.0-1.5","102","1","2025-07-16 10:39:46","1f75c3e559b7213887762d5229550c2b","78.33.241.66","Mozilla/5.0 (Windows NT 10.0; Win64; x64) AppleWebKit/537.36 (KHTML, like Gecko) Chrome/138.0.0.0 Safari/537.36","WebKit","Chrome","138.0.0.0","Windows","10.0","https://app.prolific.com/","en-GB,en;q=0.9","5e203085ac30fa331b586690","686e379bc37a29ffa5cdc956","687781615efb8fd6787302af","1","1","5e203085ac30fa331b586690","1","1","2025-07-16T10:45:45.996Z","","","","","","","","","","","AttribQ","","50","","","","","","","","","","","","","","","","","","","","","","","","","","","","",""
"5812","","<div style=""width:500px;"">
  <p>How much control did you have over the ball?</p>
  </div>","54","html-slider-response","36","364077","0.0-5.0-2.5","102","1","2025-07-16 10:39:46","1f75c3e559b7213887762d5229550c2b","78.33.241.66","Mozilla/5.0 (Windows NT 10.0; Win64; x64) AppleWebKit/537.36 (KHTML, like Gecko) Chrome/138.0.0.0 Safari/537.36","WebKit","Chrome","138.0.0.0","Windows","10.0","https://app.prolific.com/","en-GB,en;q=0.9","5e203085ac30fa331b586690","686e379bc37a29ffa5cdc956","687781615efb8fd6787302af","1","1","5e203085ac30fa331b586690","1","1","2025-07-16T10:45:51.815Z","","","","","","","","","","","ControlQ","","50","","","","","","","","","","","","","","","","","","","","","","","","","","","","",""
"3143","","<div style=""width:500px;"">
  <p>How would you describe your current emotional state?</p>
  </div>","31","html-slider-response","37","367221","0.0-5.0-3.5","102","1","2025-07-16 10:39:46","1f75c3e559b7213887762d5229550c2b","78.33.241.66","Mozilla/5.0 (Windows NT 10.0; Win64; x64) AppleWebKit/537.36 (KHTML, like Gecko) Chrome/138.0.0.0 Safari/537.36","WebKit","Chrome","138.0.0.0","Windows","10.0","https://app.prolific.com/","en-GB,en;q=0.9","5e203085ac30fa331b586690","686e379bc37a29ffa5cdc956","687781615efb8fd6787302af","1","1","5e203085ac30fa331b586690","1","1","2025-07-16T10:45:54.960Z","","","","","","","","","","","StressQ","","50","","","","","","","","","","","","","","","","","","","","","","","","","","","","",""
"2129","","<div style=""width:500px;"">
  <p>What best describes how you currently feel?</p>
  </div>","77","html-slider-response","38","369353","0.0-5.0-4.5","102","1","2025-07-16 10:39:46","1f75c3e559b7213887762d5229550c2b","78.33.241.66","Mozilla/5.0 (Windows NT 10.0; Win64; x64) AppleWebKit/537.36 (KHTML, like Gecko) Chrome/138.0.0.0 Safari/537.36","WebKit","Chrome","138.0.0.0","Windows","10.0","https://app.prolific.com/","en-GB,en;q=0.9","5e203085ac30fa331b586690","686e379bc37a29ffa5cdc956","687781615efb8fd6787302af","1","1","5e203085ac30fa331b586690","1","1","2025-07-16T10:45:57.092Z","","","","","","","","","","","MotivationQ","","50","","","","","","","","","","","","","","","","","","","","","","","","","","","","",""
"","","","","ctl-task-cpt","39","429443","0.0-5.0-0.6","102","1","2025-07-16 10:39:46","1f75c3e559b7213887762d5229550c2b","78.33.241.66","Mozilla/5.0 (Windows NT 10.0; Win64; x64) AppleWebKit/537.36 (KHTML, like Gecko) Chrome/138.0.0.0 Safari/537.36","WebKit","Chrome","138.0.0.0","Windows","10.0","https://app.prolific.com/","en-GB,en;q=0.9","5e203085ac30fa331b586690","686e379bc37a29ffa5cdc956","687781615efb8fd6787302af","1","1","5e203085ac30fa331b586690","1","1","2025-07-16T10:46:57.181Z","","","","","","","","","","","","","","win-only","1","g1:NE,g2:SW","0.4","7","0","370720","850.3","5858.9","57057.5","1","4","4","6","2","-4","-6","8","14","0.06060606060606061","1798.2","3000","-2180","[""down"",""left""]","{""num_key_presses"":14,""num_perfect"":6,""num_errors"":2,""num_randdir"":6,""num_randdir_good_moves"":3,""num_whilered"":0,""num_whileblue"":1,""num_blue"":3,""num_good_moves"":9}","[411.57142857142856,415.47767857142856,0.1,411.57142857142856,415.47767857142856,106.5,411.57142857142856,415.47767857142856,206.8,411.57142857142856,415.47767857142856,307.1,411.57142857142856,415.47767857142856,408.8,411.57142857142856,415.47767857142856,509.6,411.57142857142856,415.47767857142856,611.4,411.57142857142856,415.47767857142856,714,411.57142857142856,415.47767857142856,816.1,411.57142857142856,415.47767857142856,920.2,411.57142857142856,415.47767857142856,1026.1,411.57142857142856,415.47767857142856,1130.4,411.57142857142856,415.47767857142856,1246,302.57142857142856,528.4776785714286,1350.5,229.57142857142856,595.4776785714286,1455.4,217.57142857142856,615.4776785714286,1557.1,141.57142857142856,705.4776785714286,1662,105.57142857142857,734.4776785714286,1766.2,105.57142857142857,735.4776785714286,1870.1,112.57142857142857,732.4776785714286,1970.2,112.57142857142857,732.4776785714286,2071,112.57142857142857,732.4776785714286,2176,112.57142857142857,732.4776785714286,2277.6,112.57142857142857,732.4776785714286,2380.2,112.57142857142857,732.4776785714286,2480.4,112.57142857142857,732.4776785714286,2596.3,112.57142857142857,732.4776785714286,2697.6,112.57142857142857,732.4776785714286,2800.8,112.57142857142857,732.4776785714286,2906.6,112.57142857142857,732.4776785714286,3036.2,112.57142857142857,732.4776785714286,3144.6,112.57142857142857,732.4776785714286,3247.4,112.57142857142857,732.4776785714286,3350.8,112.57142857142857,732.4776785714286,3451.7,112.57142857142857,732.4776785714286,3556.9,112.57142857142857,732.4776785714286,3657.3,112.57142857142857,732.4776785714286,3760.3,112.57142857142857,732.4776785714286,3865.5,112.57142857142857,732.4776785714286,3980.9,112.57142857142857,732.4776785714286,4081.7,112.57142857142857,732.4776785714286,4184.9,112.57142857142857,732.4776785714286,4285.3,112.57142857142857,732.4776785714286,4385.7,112.57142857142857,732.4776785714286,4485.9,112.57142857142857,732.4776785714286,4596.1,112.57142857142857,732.4776785714286,4700.6,112.57142857142857,732.4776785714286,4800.6,112.57142857142857,732.4776785714286,4905.8]","[368.3,368.3,1000,0,-631.7,""error"",""-"",""-"",""no_move"",4020.7,3652.1,2283.8,1372.2,364.7,""smooth"",""down"",""down"",""good_move"",10637.4,6616.4,2412.8,7932.1,292.5,""smooth"",""down"",""down"",""good_move"",13918.4,3280.7,2919,10637.7,361.7,""while_blue"",""left"",""up"",""bad_move"",16823.3,2904.3,2560.2,13919,344.1,""oops"",""down"",""down"",""good_move"",19436.5,2613,2131.4,16823.5,481.6,""oops"",""down"",""up"",""bad_move"",22639.3,3202.6,2750.9,19436.7,451.7,""smooth"",""down"",""down"",""good_move"",26286.5,3647,3324.8,22639.5,322.2,""smooth"",""down"",""down"",""good_move"",33683.6,7397.1,2932.3,30383.4,367.9,""oops"",""left"",""up"",""bad_move"",36836.2,3151.6,2819.9,33684.6,331.7,""oops"",""down"",""left"",""good_move"",39886.4,3049.8,2737.1,36836.6,312.7,""oops"",""down"",""left"",""good_move"",43280.8,3394.2,3038,39886.6,356.2,""oops"",""down"",""right"",""bad_move"",45870.4,2588.5,2239.2,43281.9,349.3,""smooth"",""down"",""down"",""good_move"",48454.5,2583.8,2295.8,45870.7,288,""smooth"",""left"",""left"",""good_move""]","",""
"2850","","<div style=""width:500px;"">
  <p>What determined the result of this run?</p>
  </div>","44","html-slider-response","40","432296","0.0-5.0-1.6","102","1","2025-07-16 10:39:46","1f75c3e559b7213887762d5229550c2b","78.33.241.66","Mozilla/5.0 (Windows NT 10.0; Win64; x64) AppleWebKit/537.36 (KHTML, like Gecko) Chrome/138.0.0.0 Safari/537.36","WebKit","Chrome","138.0.0.0","Windows","10.0","https://app.prolific.com/","en-GB,en;q=0.9","5e203085ac30fa331b586690","686e379bc37a29ffa5cdc956","687781615efb8fd6787302af","1","1","5e203085ac30fa331b586690","1","1","2025-07-16T10:47:00.035Z","","","","","","","","","","","AttribQ","","50","","","","","","","","","","","","","","","","","","","","","","","","","","","","",""
"2392","","<div style=""width:500px;"">
  <p>How much control did you have over the ball?</p>
  </div>","44","html-slider-response","41","434695","0.0-5.0-2.6","102","1","2025-07-16 10:39:46","1f75c3e559b7213887762d5229550c2b","78.33.241.66","Mozilla/5.0 (Windows NT 10.0; Win64; x64) AppleWebKit/537.36 (KHTML, like Gecko) Chrome/138.0.0.0 Safari/537.36","WebKit","Chrome","138.0.0.0","Windows","10.0","https://app.prolific.com/","en-GB,en;q=0.9","5e203085ac30fa331b586690","686e379bc37a29ffa5cdc956","687781615efb8fd6787302af","1","1","5e203085ac30fa331b586690","1","1","2025-07-16T10:47:02.434Z","","","","","","","","","","","ControlQ","","50","","","","","","","","","","","","","","","","","","","","","","","","","","","","",""
"2378","","<div style=""width:500px;"">
  <p>How would you describe your current emotional state?</p>
  </div>","37","html-slider-response","42","437080","0.0-5.0-3.6","102","1","2025-07-16 10:39:46","1f75c3e559b7213887762d5229550c2b","78.33.241.66","Mozilla/5.0 (Windows NT 10.0; Win64; x64) AppleWebKit/537.36 (KHTML, like Gecko) Chrome/138.0.0.0 Safari/537.36","WebKit","Chrome","138.0.0.0","Windows","10.0","https://app.prolific.com/","en-GB,en;q=0.9","5e203085ac30fa331b586690","686e379bc37a29ffa5cdc956","687781615efb8fd6787302af","1","1","5e203085ac30fa331b586690","1","1","2025-07-16T10:47:04.819Z","","","","","","","","","","","StressQ","","50","","","","","","","","","","","","","","","","","","","","","","","","","","","","",""
"2799","","<div style=""width:500px;"">
  <p>What best describes how you currently feel?</p>
  </div>","65","html-slider-response","43","439886","0.0-5.0-4.6","102","1","2025-07-16 10:39:46","1f75c3e559b7213887762d5229550c2b","78.33.241.66","Mozilla/5.0 (Windows NT 10.0; Win64; x64) AppleWebKit/537.36 (KHTML, like Gecko) Chrome/138.0.0.0 Safari/537.36","WebKit","Chrome","138.0.0.0","Windows","10.0","https://app.prolific.com/","en-GB,en;q=0.9","5e203085ac30fa331b586690","686e379bc37a29ffa5cdc956","687781615efb8fd6787302af","1","1","5e203085ac30fa331b586690","1","1","2025-07-16T10:47:07.624Z","","","","","","","","","","","MotivationQ","","50","","","","","","","","","","","","","","","","","","","","","","","","","","","","",""
"","","","","ctl-task-cpt","44","500780","0.0-5.0-0.7","102","1","2025-07-16 10:39:46","1f75c3e559b7213887762d5229550c2b","78.33.241.66","Mozilla/5.0 (Windows NT 10.0; Win64; x64) AppleWebKit/537.36 (KHTML, like Gecko) Chrome/138.0.0.0 Safari/537.36","WebKit","Chrome","138.0.0.0","Windows","10.0","https://app.prolific.com/","en-GB,en;q=0.9","5e203085ac30fa331b586690","686e379bc37a29ffa5cdc956","687781615efb8fd6787302af","1","1","5e203085ac30fa331b586690","1","1","2025-07-16T10:48:08.519Z","","","","","","","","","","","","","","win-only","2","g1:SE,g2:NW","0.3","8","0","441250.6","934.3","5936","57851.4","1","4","8","6","2","-8","-11","0","8","0","765.9","3000","-2105","[""left"",""up""]","{""num_key_presses"":15,""num_perfect"":3,""num_errors"":3,""num_randdir"":9,""num_randdir_good_moves"":2,""num_whilered"":0,""num_whileblue"":3,""num_blue"":5,""num_good_moves"":8}","[413.57142857142856,403.47767857142856,0.1,413.57142857142856,403.47767857142856,100.6,413.57142857142856,403.47767857142856,201.3,413.57142857142856,404.47767857142856,305.5,276.57142857142856,283.47767857142856,417.5,137.57142857142856,151.47767857142856,518.9,111.57142857142857,124.47767857142857,633.6,71.57142857142857,83.47767857142857,737.3,71.57142857142857,83.47767857142857,844.3,71.57142857142857,83.47767857142857,947,71.57142857142857,83.47767857142857,1047.3,71.57142857142857,83.47767857142857,1151.5,71.57142857142857,83.47767857142857,1252.2,71.57142857142857,83.47767857142857,1367,71.57142857142857,83.47767857142857,1471.1,71.57142857142857,83.47767857142857,1571.1,71.57142857142857,83.47767857142857,1671.4,71.57142857142857,83.47767857142857,1771.9,71.57142857142857,83.47767857142857,1876.5,71.57142857142857,83.47767857142857,1976.9,71.57142857142857,83.47767857142857,2078.3,71.57142857142857,83.47767857142857,2181.6,71.57142857142857,83.47767857142857,2287.9,71.57142857142857,83.47767857142857,2401.5,71.57142857142857,83.47767857142857,2502,71.57142857142857,83.47767857142857,2602.2,71.57142857142857,83.47767857142857,2706.7,71.57142857142857,83.47767857142857,2806.9,71.57142857142857,83.47767857142857,2911.2,71.57142857142857,83.47767857142857,3012.5,71.57142857142857,83.47767857142857,3116.8,71.57142857142857,83.47767857142857,3217,71.57142857142857,83.47767857142857,3317,71.57142857142857,83.47767857142857,3417.1,71.57142857142857,83.47767857142857,3517.4,71.57142857142857,83.47767857142857,3633,71.57142857142857,83.47767857142857,3733.8,71.57142857142857,83.47767857142857,3837,71.57142857142857,83.47767857142857,3941.2,71.57142857142857,83.47767857142857,4044.7,71.57142857142857,83.47767857142857,4146.7,71.57142857142857,83.47767857142857,4250.3,71.57142857142857,83.47767857142857,4353.6,71.57142857142857,83.47767857142857,4456.5,71.57142857142857,83.47767857142857,4556.5,71.57142857142857,83.47767857142857,4656.5,71.57142857142857,83.47767857142857,4762.1,71.57142857142857,83.47767857142857,4862.5,71.57142857142857,83.47767857142857,4962.6]","[1350.7,1350.7,1000,0,350.7,""smooth"",""left"",""left"",""good_move"",3881.7,2530.7,2191.8,1351,338.9,""oops"",""left"",""up"",""good_move"",6615.4,2733,2412.4,3882.4,320.6,""oops"",""left"",""up"",""good_move"",9745.3,3129.8,2831.6,6615.6,298.2,""oops"",""left"",""right"",""bad_move"",12995,3248.5,2916.9,9746.5,331.6,""smooth"",""left"",""left"",""good_move"",15868.3,2872.9,2559.4,12995.5,313.4,""while_blue"",""left"",""up"",""good_move"",18814.5,2945.8,2633.2,15868.7,312.6,""oops"",""left"",""down"",""bad_move"",21515.1,2700.4,2431.4,18814.7,269,""while_blue"",""left"",""left"",""good_move"",27836.3,6321.1,2569,24981.8,285.5,""oops"",""left"",""right"",""bad_move"",30967.2,3130.3,2784.7,27836.9,345.6,""smooth"",""left"",""left"",""good_move"",33565.2,2597.9,2148.7,30967.4,449.2,""while_blue"",""left"",""left"",""good_move"",36827.6,3262.3,2887.6,33565.3,374.7,""oops"",""up"",""right"",""bad_move"",39530.9,2702.7,2366.5,36828.3,336.2,""oops"",""left"",""right"",""bad_move"",46048.8,6517.5,2534.6,43196.5,317.7,""oops"",""left"",""right"",""bad_move"",48696.3,2647.4,2178,46049,469.3,""oops"",""left"",""right"",""bad_move""]","",""
"3559","","<div style=""width:500px;"">
  <p>What determined the result of this run?</p>
  </div>","17","html-slider-response","45","504342","0.0-5.0-1.7","102","1","2025-07-16 10:39:46","1f75c3e559b7213887762d5229550c2b","78.33.241.66","Mozilla/5.0 (Windows NT 10.0; Win64; x64) AppleWebKit/537.36 (KHTML, like Gecko) Chrome/138.0.0.0 Safari/537.36","WebKit","Chrome","138.0.0.0","Windows","10.0","https://app.prolific.com/","en-GB,en;q=0.9","5e203085ac30fa331b586690","686e379bc37a29ffa5cdc956","687781615efb8fd6787302af","1","1","5e203085ac30fa331b586690","1","1","2025-07-16T10:48:12.081Z","","","","","","","","","","","AttribQ","","50","","","","","","","","","","","","","","","","","","","","","","","","","","","","",""
"2864","","<div style=""width:500px;"">
  <p>How much control did you have over the ball?</p>
  </div>","32","html-slider-response","46","507213","0.0-5.0-2.7","102","1","2025-07-16 10:39:46","1f75c3e559b7213887762d5229550c2b","78.33.241.66","Mozilla/5.0 (Windows NT 10.0; Win64; x64) AppleWebKit/537.36 (KHTML, like Gecko) Chrome/138.0.0.0 Safari/537.36","WebKit","Chrome","138.0.0.0","Windows","10.0","https://app.prolific.com/","en-GB,en;q=0.9","5e203085ac30fa331b586690","686e379bc37a29ffa5cdc956","687781615efb8fd6787302af","1","1","5e203085ac30fa331b586690","1","1","2025-07-16T10:48:14.951Z","","","","","","","","","","","ControlQ","","50","","","","","","","","","","","","","","","","","","","","","","","","","","","","",""
"2809","","<div style=""width:500px;"">
  <p>How would you describe your current emotional state?</p>
  </div>","44","html-slider-response","47","510024","0.0-5.0-3.7","102","1","2025-07-16 10:39:46","1f75c3e559b7213887762d5229550c2b","78.33.241.66","Mozilla/5.0 (Windows NT 10.0; Win64; x64) AppleWebKit/537.36 (KHTML, like Gecko) Chrome/138.0.0.0 Safari/537.36","WebKit","Chrome","138.0.0.0","Windows","10.0","https://app.prolific.com/","en-GB,en;q=0.9","5e203085ac30fa331b586690","686e379bc37a29ffa5cdc956","687781615efb8fd6787302af","1","1","5e203085ac30fa331b586690","1","1","2025-07-16T10:48:17.763Z","","","","","","","","","","","StressQ","","50","","","","","","","","","","","","","","","","","","","","","","","","","","","","",""
"2087","","<div style=""width:500px;"">
  <p>What best describes how you currently feel?</p>
  </div>","63","html-slider-response","48","512118","0.0-5.0-4.7","102","1","2025-07-16 10:39:46","1f75c3e559b7213887762d5229550c2b","78.33.241.66","Mozilla/5.0 (Windows NT 10.0; Win64; x64) AppleWebKit/537.36 (KHTML, like Gecko) Chrome/138.0.0.0 Safari/537.36","WebKit","Chrome","138.0.0.0","Windows","10.0","https://app.prolific.com/","en-GB,en;q=0.9","5e203085ac30fa331b586690","686e379bc37a29ffa5cdc956","687781615efb8fd6787302af","1","1","5e203085ac30fa331b586690","1","1","2025-07-16T10:48:19.857Z","","","","","","","","","","","MotivationQ","","50","","","","","","","","","","","","","","","","","","","","","","","","","","","","",""
"","","","","ctl-task-cpt","49","572934","0.0-5.0-0.8","102","1","2025-07-16 10:39:46","1f75c3e559b7213887762d5229550c2b","78.33.241.66","Mozilla/5.0 (Windows NT 10.0; Win64; x64) AppleWebKit/537.36 (KHTML, like Gecko) Chrome/138.0.0.0 Safari/537.36","WebKit","Chrome","138.0.0.0","Windows","10.0","https://app.prolific.com/","en-GB,en;q=0.9","5e203085ac30fa331b586690","686e379bc37a29ffa5cdc956","687781615efb8fd6787302af","1","1","5e203085ac30fa331b586690","1","1","2025-07-16T10:49:20.672Z","","","","","","","","","","","","","","win-only","2","g1:SE,g2:NW","0.2","9","0","513475.5","975.1","5976.4","57796.5","1","4","4","6","2","-4","-8","0","0","0","1482.9","3000","-2145","[""left"",""up""]","{""num_key_presses"":16,""num_perfect"":3,""num_errors"":4,""num_randdir"":9,""num_randdir_good_moves"":4,""num_whilered"":0,""num_whileblue"":3,""num_blue"":5,""num_good_moves"":7}","[416.57142857142856,406.47767857142856,0.1,416.57142857142856,406.47767857142856,100.1,416.57142857142856,406.47767857142856,201.3,416.57142857142856,406.47767857142856,317.7,416.57142857142856,406.47767857142856,417.7,416.57142857142856,407.47767857142856,520.9,420.57142857142856,419.47767857142856,621.1,420.57142857142856,419.47767857142856,721.2,420.57142857142856,419.47767857142856,828.3,420.57142857142856,419.47767857142856,931.9,420.57142857142856,419.47767857142856,1036.4,4.571428571428569,143.47767857142856,1152.1,-7.428571428571431,126.47767857142857,1252.9,8.57142857142857,112.47767857142857,1355.2,29.57142857142857,108.47767857142857,1467.7,29.57142857142857,108.47767857142857,1570.8,29.57142857142857,108.47767857142857,1686.4,29.57142857142857,108.47767857142857,1790.7,29.57142857142857,108.47767857142857,1895.2,29.57142857142857,108.47767857142857,1996.8,29.57142857142857,108.47767857142857,2101.2,29.57142857142857,108.47767857142857,2204.7,29.57142857142857,108.47767857142857,2305,29.57142857142857,108.47767857142857,2406.7,29.57142857142857,108.47767857142857,2510.4,29.57142857142857,108.47767857142857,2614.1,29.57142857142857,108.47767857142857,2715.6,29.57142857142857,108.47767857142857,2818.8,29.57142857142857,108.47767857142857,2918.8,29.57142857142857,108.47767857142857,3020.2,29.57142857142857,108.47767857142857,3121.2,29.57142857142857,108.47767857142857,3225.7,29.57142857142857,108.47767857142857,3327.1,29.57142857142857,108.47767857142857,3431.4,29.57142857142857,108.47767857142857,3535.3,29.57142857142857,108.47767857142857,3636.3,29.57142857142857,108.47767857142857,3753,29.57142857142857,108.47767857142857,3853.4,29.57142857142857,108.47767857142857,3957.2,29.57142857142857,108.47767857142857,4061.4,29.57142857142857,108.47767857142857,4162.9,29.57142857142857,108.47767857142857,4265.6,29.57142857142857,108.47767857142857,4365.9,29.57142857142857,108.47767857142857,4470.4,29.57142857142857,108.47767857142857,4571.1,29.57142857142857,108.47767857142857,4686.8,29.57142857142857,108.47767857142857,4790.2,29.57142857142857,108.47767857142857,4890.9,29.57142857142857,108.47767857142857,4995.8]","[1364.4,1364.4,1000,0,364.4,""oops"",""left"",""right"",""bad_move"",5188.1,3823.4,3498.3,1364.8,325.1,""oops"",""left"",""right"",""bad_move"",11000.3,5812,2599.6,8067.3,333.4,""while_blue"",""up"",""down"",""bad_move"",16527.1,5526.4,2105.4,14080.2,341.6,""oops"",""up"",""up"",""good_move"",19267.1,2739.3,2409.4,16527.8,329.9,""oops"",""up"",""down"",""bad_move"",22373.9,3106.3,2749.4,19267.6,356.9,""oops"",""up"",""left"",""good_move"",25131.8,2757.6,2490.7,22374.2,266.9,""while_blue"",""up"",""down"",""bad_move"",28462.7,3330.8,3014.5,25131.9,316.3,""smooth"",""up"",""up"",""good_move"",31045.9,2582.8,2269.4,28463.1,313.4,""while_blue"",""up"",""down"",""bad_move"",33714.7,2668.4,2233.9,31046.3,434.5,""oops"",""up"",""right"",""bad_move"",36466,2751.1,2377.6,33714.9,373.5,""oops"",""up"",""left"",""good_move"",39210.4,2744.1,2420.3,36466.3,323.8,""oops"",""up"",""right"",""bad_move"",39828.1,617.5,2682.4,39210.6,-2064.9,""error"",""-"",""-"",""no_move"",44149.1,4320.5,2997.9,40831.5,319.7,""smooth"",""up"",""up"",""good_move"",46713.2,2563.9,2129.5,44149.3,434.4,""smooth"",""up"",""up"",""good_move"",49298.8,2585.4,2260,46713.4,325.4,""oops"",""up"",""left"",""good_move""]","",""
"9648","","<div style=""width:500px;"">
  <p>What determined the result of this run?</p>
  </div>","4","html-slider-response","50","582584","0.0-5.0-1.8","102","1","2025-07-16 10:39:46","1f75c3e559b7213887762d5229550c2b","78.33.241.66","Mozilla/5.0 (Windows NT 10.0; Win64; x64) AppleWebKit/537.36 (KHTML, like Gecko) Chrome/138.0.0.0 Safari/537.36","WebKit","Chrome","138.0.0.0","Windows","10.0","https://app.prolific.com/","en-GB,en;q=0.9","5e203085ac30fa331b586690","686e379bc37a29ffa5cdc956","687781615efb8fd6787302af","1","1","5e203085ac30fa331b586690","1","1","2025-07-16T10:49:30.323Z","","","","","","","","","","","AttribQ","","50","","","","","","","","","","","","","","","","","","","","","","","","","","","","",""
"5121","","<div style=""width:500px;"">
  <p>How much control did you have over the ball?</p>
  </div>","9","html-slider-response","51","587714","0.0-5.0-2.8","102","1","2025-07-16 10:39:46","1f75c3e559b7213887762d5229550c2b","78.33.241.66","Mozilla/5.0 (Windows NT 10.0; Win64; x64) AppleWebKit/537.36 (KHTML, like Gecko) Chrome/138.0.0.0 Safari/537.36","WebKit","Chrome","138.0.0.0","Windows","10.0","https://app.prolific.com/","en-GB,en;q=0.9","5e203085ac30fa331b586690","686e379bc37a29ffa5cdc956","687781615efb8fd6787302af","1","1","5e203085ac30fa331b586690","1","1","2025-07-16T10:49:35.453Z","","","","","","","","","","","ControlQ","","50","","","","","","","","","","","","","","","","","","","","","","","","","","","","",""
"3273","","<div style=""width:500px;"">
  <p>How would you describe your current emotional state?</p>
  </div>","46","html-slider-response","52","590994","0.0-5.0-3.8","102","1","2025-07-16 10:39:46","1f75c3e559b7213887762d5229550c2b","78.33.241.66","Mozilla/5.0 (Windows NT 10.0; Win64; x64) AppleWebKit/537.36 (KHTML, like Gecko) Chrome/138.0.0.0 Safari/537.36","WebKit","Chrome","138.0.0.0","Windows","10.0","https://app.prolific.com/","en-GB,en;q=0.9","5e203085ac30fa331b586690","686e379bc37a29ffa5cdc956","687781615efb8fd6787302af","1","1","5e203085ac30fa331b586690","1","1","2025-07-16T10:49:38.732Z","","","","","","","","","","","StressQ","","50","","","","","","","","","","","","","","","","","","","","","","","","","","","","",""
"2824","","<div style=""width:500px;"">
  <p>What best describes how you currently feel?</p>
  </div>","56","html-slider-response","53","593828","0.0-5.0-4.8","102","1","2025-07-16 10:39:46","1f75c3e559b7213887762d5229550c2b","78.33.241.66","Mozilla/5.0 (Windows NT 10.0; Win64; x64) AppleWebKit/537.36 (KHTML, like Gecko) Chrome/138.0.0.0 Safari/537.36","WebKit","Chrome","138.0.0.0","Windows","10.0","https://app.prolific.com/","en-GB,en;q=0.9","5e203085ac30fa331b586690","686e379bc37a29ffa5cdc956","687781615efb8fd6787302af","1","1","5e203085ac30fa331b586690","1","1","2025-07-16T10:49:41.566Z","","","","","","","","","","","MotivationQ","","50","","","","","","","","","","","","","","","","","","","","","","","","","","","","",""
"","","","","ctl-task-cpt","54","652866","0.0-5.0-0.9","102","1","2025-07-16 10:39:46","1f75c3e559b7213887762d5229550c2b","78.33.241.66","Mozilla/5.0 (Windows NT 10.0; Win64; x64) AppleWebKit/537.36 (KHTML, like Gecko) Chrome/138.0.0.0 Safari/537.36","WebKit","Chrome","138.0.0.0","Windows","10.0","https://app.prolific.com/","en-GB,en;q=0.9","5e203085ac30fa331b586690","686e379bc37a29ffa5cdc956","687781615efb8fd6787302af","1","1","5e203085ac30fa331b586690","1","1","2025-07-16T10:50:40.604Z","","","","","","","","","","","","","","win-only","3","g1:SW,g2:NE","0.4","10","0","595192.5","1245.4","6260.1","56026","1","4","8","6","2","-8","-9","0","0","0","1018","3000","-1895","[""up"",""right""]","{""num_key_presses"":13,""num_perfect"":5,""num_errors"":1,""num_randdir"":7,""num_randdir_good_moves"":3,""num_whilered"":0,""num_whileblue"":1,""num_blue"":4,""num_good_moves"":8}","[408.57142857142856,415.47767857142856,0.2,408.57142857142856,415.47767857142856,112.2,408.57142857142856,415.47767857142856,215.1,408.57142857142856,415.47767857142856,323.5,408.57142857142856,415.47767857142856,427.7,585.5714285714286,247.47767857142856,534.2,810.5714285714286,49.47767857142857,640.9,812.5714285714286,47.47767857142857,749.8,812.5714285714286,47.47767857142857,850.2,790.5714285714286,65.47767857142857,950.8,788.5714285714286,67.47767857142857,1051.1,788.5714285714286,67.47767857142857,1171,788.5714285714286,67.47767857142857,1284.2,788.5714285714286,73.47767857142857,1384.4,788.5714285714286,83.47767857142857,1485,788.5714285714286,83.47767857142857,1588.9,788.5714285714286,83.47767857142857,1690.5,788.5714285714286,83.47767857142857,1792.6,788.5714285714286,83.47767857142857,1898,788.5714285714286,83.47767857142857,2014.3,788.5714285714286,83.47767857142857,2114.6,788.5714285714286,83.47767857142857,2215.6,788.5714285714286,83.47767857142857,2315.9,788.5714285714286,83.47767857142857,2417.9,788.5714285714286,83.47767857142857,2533.2,788.5714285714286,83.47767857142857,2637,788.5714285714286,83.47767857142857,2743.1,788.5714285714286,83.47767857142857,2845.9,788.5714285714286,83.47767857142857,2964.1,788.5714285714286,83.47767857142857,3066.8,788.5714285714286,83.47767857142857,3168.3,788.5714285714286,83.47767857142857,3273.3,788.5714285714286,83.47767857142857,3386.1,788.5714285714286,83.47767857142857,3492,788.5714285714286,83.47767857142857,3592,788.5714285714286,83.47767857142857,3698.6,788.5714285714286,83.47767857142857,3801.3,788.5714285714286,83.47767857142857,3916.8,788.5714285714286,83.47767857142857,4020.5,788.5714285714286,83.47767857142857,4133.8,788.5714285714286,83.47767857142857,4238.2,788.5714285714286,83.47767857142857,4340.4,788.5714285714286,83.47767857142857,4442,788.5714285714286,83.47767857142857,4542.5,788.5714285714286,83.47767857142857,4644,788.5714285714286,83.47767857142857,4747.5,788.5714285714286,83.47767857142857,4852,788.5714285714286,83.47767857142857,4957.8]","[1467.8,1467.8,1000,0,467.8,""smooth"",""right"",""right"",""good_move"",4217.6,2749.3,2432.9,1468.3,316.4,""while_blue"",""right"",""down"",""bad_move"",6753.4,2535.5,2171.5,4218,364,""smooth"",""right"",""right"",""good_move"",9414.2,2660.2,2249.4,6754,410.8,""oops"",""right"",""up"",""good_move"",16121.4,6706.9,2935.3,12870.2,316,""oops"",""right"",""down"",""bad_move"",18885.7,2762.7,2364,16123.1,398.7,""oops"",""right"",""right"",""good_move"",24786.9,5900.4,1578.3,22913.5,295.1,""smooth"",""up"",""up"",""good_move"",27980.2,3192.7,2875,24787.5,317.7,""oops"",""up"",""left"",""bad_move"",34850.2,6869.8,2197,32344.4,308.8,""smooth"",""up"",""up"",""good_move"",38184.6,3334.2,2898.9,34850.4,435.3,""oops"",""up"",""up"",""good_move"",41281.7,3096.7,2715.6,38185,381.1,""oops"",""up"",""left"",""bad_move"",43960.7,2678.7,2354.2,41282,324.5,""oops"",""up"",""down"",""bad_move"",46954.9,2993.2,2686.8,43961.7,306.4,""smooth"",""up"",""up"",""good_move""]","",""
"2922","","<div style=""width:500px;"">
  <p>What determined the result of this run?</p>
  </div>","13","html-slider-response","55","655791","0.0-5.0-1.9","102","1","2025-07-16 10:39:46","1f75c3e559b7213887762d5229550c2b","78.33.241.66","Mozilla/5.0 (Windows NT 10.0; Win64; x64) AppleWebKit/537.36 (KHTML, like Gecko) Chrome/138.0.0.0 Safari/537.36","WebKit","Chrome","138.0.0.0","Windows","10.0","https://app.prolific.com/","en-GB,en;q=0.9","5e203085ac30fa331b586690","686e379bc37a29ffa5cdc956","687781615efb8fd6787302af","1","1","5e203085ac30fa331b586690","1","1","2025-07-16T10:50:43.530Z","","","","","","","","","","","AttribQ","","50","","","","","","","","","","","","","","","","","","","","","","","","","","","","",""
"2597","","<div style=""width:500px;"">
  <p>How much control did you have over the ball?</p>
  </div>","17","html-slider-response","56","658395","0.0-5.0-2.9","102","1","2025-07-16 10:39:46","1f75c3e559b7213887762d5229550c2b","78.33.241.66","Mozilla/5.0 (Windows NT 10.0; Win64; x64) AppleWebKit/537.36 (KHTML, like Gecko) Chrome/138.0.0.0 Safari/537.36","WebKit","Chrome","138.0.0.0","Windows","10.0","https://app.prolific.com/","en-GB,en;q=0.9","5e203085ac30fa331b586690","686e379bc37a29ffa5cdc956","687781615efb8fd6787302af","1","1","5e203085ac30fa331b586690","1","1","2025-07-16T10:50:46.134Z","","","","","","","","","","","ControlQ","","50","","","","","","","","","","","","","","","","","","","","","","","","","","","","",""
"3266","","<div style=""width:500px;"">
  <p>How would you describe your current emotional state?</p>
  </div>","46","html-slider-response","57","661671","0.0-5.0-3.9","102","1","2025-07-16 10:39:46","1f75c3e559b7213887762d5229550c2b","78.33.241.66","Mozilla/5.0 (Windows NT 10.0; Win64; x64) AppleWebKit/537.36 (KHTML, like Gecko) Chrome/138.0.0.0 Safari/537.36","WebKit","Chrome","138.0.0.0","Windows","10.0","https://app.prolific.com/","en-GB,en;q=0.9","5e203085ac30fa331b586690","686e379bc37a29ffa5cdc956","687781615efb8fd6787302af","1","1","5e203085ac30fa331b586690","1","1","2025-07-16T10:50:49.410Z","","","","","","","","","","","StressQ","","50","","","","","","","","","","","","","","","","","","","","","","","","","","","","",""
"2462","","<div style=""width:500px;"">
  <p>What best describes how you currently feel?</p>
  </div>","55","html-slider-response","58","664142","0.0-5.0-4.9","102","1","2025-07-16 10:39:46","1f75c3e559b7213887762d5229550c2b","78.33.241.66","Mozilla/5.0 (Windows NT 10.0; Win64; x64) AppleWebKit/537.36 (KHTML, like Gecko) Chrome/138.0.0.0 Safari/537.36","WebKit","Chrome","138.0.0.0","Windows","10.0","https://app.prolific.com/","en-GB,en;q=0.9","5e203085ac30fa331b586690","686e379bc37a29ffa5cdc956","687781615efb8fd6787302af","1","1","5e203085ac30fa331b586690","1","1","2025-07-16T10:50:51.881Z","","","","","","","","","","","MotivationQ","","50","","","","","","","","","","","","","","","","","","","","","","","","","","","","",""
"","","","","ctl-task-cpt","59","702864","0.0-5.0-0.10","102","1","2025-07-16 10:39:46","1f75c3e559b7213887762d5229550c2b","78.33.241.66","Mozilla/5.0 (Windows NT 10.0; Win64; x64) AppleWebKit/537.36 (KHTML, like Gecko) Chrome/138.0.0.0 Safari/537.36","WebKit","Chrome","138.0.0.0","Windows","10.0","https://app.prolific.com/","en-GB,en;q=0.9","5e203085ac30fa331b586690","686e379bc37a29ffa5cdc956","687781615efb8fd6787302af","1","1","5e203085ac30fa331b586690","1","1","2025-07-16T10:51:30.602Z","","","","","","","","","","","","","","win-only","0","g1:NW,g2:SE","0.5","11","0","665507.9","1295.8","6305.1","35691.9","1","4","4","6","2","4","4","4","0","0.030303030303030304","959.6","3000","1130","[""down"",""right""]","{""num_key_presses"":8,""num_perfect"":5,""num_errors"":0,""num_randdir"":3,""num_randdir_good_moves"":2,""num_whilered"":0,""num_whileblue"":0,""num_blue"":2,""num_good_moves"":7}","[424.57142857142856,417.47767857142856,0.2,424.57142857142856,417.47767857142856,122.8,424.57142857142856,417.47767857142856,224,424.57142857142856,417.47767857142856,343.9,349.57142857142856,337.47767857142856,446.5,534.5714285714286,510.47767857142856,554.7,821.5714285714286,763.4776785714286,658.8,821.5714285714286,763.4776785714286,759,802.5714285714286,757.4776785714286,861.7,788.5714285714286,754.4776785714286,965.1,788.5714285714286,754.4776785714286,1080.1,790.5714285714286,754.4776785714286,1180.4,805.5714285714286,754.4776785714286,1290.4,805.5714285714286,754.4776785714286,1391.4,805.5714285714286,754.4776785714286,1491.9,805.5714285714286,754.4776785714286,1597.2,805.5714285714286,754.4776785714286,1708.9,805.5714285714286,754.4776785714286,1812,805.5714285714286,754.4776785714286,1915.2,805.5714285714286,754.4776785714286,2015.2,805.5714285714286,754.4776785714286,2117.6,805.5714285714286,754.4776785714286,2220.3,805.5714285714286,754.4776785714286,2321.3,805.5714285714286,754.4776785714286,2423.3,805.5714285714286,754.4776785714286,2533.3,805.5714285714286,754.4776785714286,2633.8,805.5714285714286,754.4776785714286,2735.7,805.5714285714286,754.4776785714286,2844.7,805.5714285714286,754.4776785714286,2945.1,805.5714285714286,754.4776785714286,3049,805.5714285714286,754.4776785714286,3150.7,805.5714285714286,754.4776785714286,3252,805.5714285714286,754.4776785714286,3355.8,805.5714285714286,754.4776785714286,3459.8,805.5714285714286,754.4776785714286,3568.2,805.5714285714286,754.4776785714286,3668.7,805.5714285714286,754.4776785714286,3770.6,805.5714285714286,754.4776785714286,3871.4,805.5714285714286,754.4776785714286,3978.2,805.5714285714286,754.4776785714286,4080.1,805.5714285714286,754.4776785714286,4199.7,805.5714285714286,754.4776785714286,4299.9,805.5714285714286,754.4776785714286,4406,805.5714285714286,754.4776785714286,4517.5,805.5714285714286,754.4776785714286,4621,805.5714285714286,754.4776785714286,4721.2,805.5714285714286,754.4776785714286,4827.4,805.5714285714286,754.4776785714286,4930.6]","[1387.7,1387.7,1000,0,387.7,""oops"",""down"",""up"",""bad_move"",3968.5,2580.5,2174.6,1388,405.9,""smooth"",""down"",""down"",""good_move"",7208.2,3239.3,2899.6,3968.9,339.7,""smooth"",""down"",""down"",""good_move"",9969.4,2761,2406.9,7208.4,354.1,""smooth"",""down"",""down"",""good_move"",16208.2,6238.5,2254.5,13626,327.7,""oops"",""down"",""right"",""good_move"",19022.8,2814.4,2424.1,16208.4,390.3,""oops"",""down"",""down"",""good_move"",22225.2,3202.3,2820.1,19023,382.2,""smooth"",""right"",""right"",""good_move"",29251.4,7025.3,3248.5,25659.8,343.1,""smooth"",""right"",""right"",""good_move""]","",""
"9022","","<div style=""width:500px;"">
  <p>What determined the result of this run?</p>
  </div>","62","html-slider-response","60","711888","0.0-5.0-1.10","102","1","2025-07-16 10:39:46","1f75c3e559b7213887762d5229550c2b","78.33.241.66","Mozilla/5.0 (Windows NT 10.0; Win64; x64) AppleWebKit/537.36 (KHTML, like Gecko) Chrome/138.0.0.0 Safari/537.36","WebKit","Chrome","138.0.0.0","Windows","10.0","https://app.prolific.com/","en-GB,en;q=0.9","5e203085ac30fa331b586690","686e379bc37a29ffa5cdc956","687781615efb8fd6787302af","1","1","5e203085ac30fa331b586690","1","1","2025-07-16T10:51:39.627Z","","","","","","","","","","","AttribQ","","50","","","","","","","","","","","","","","","","","","","","","","","","","","","","",""
"3891","","<div style=""width:500px;"">
  <p>How much control did you have over the ball?</p>
  </div>","57","html-slider-response","61","715788","0.0-5.0-2.10","102","1","2025-07-16 10:39:46","1f75c3e559b7213887762d5229550c2b","78.33.241.66","Mozilla/5.0 (Windows NT 10.0; Win64; x64) AppleWebKit/537.36 (KHTML, like Gecko) Chrome/138.0.0.0 Safari/537.36","WebKit","Chrome","138.0.0.0","Windows","10.0","https://app.prolific.com/","en-GB,en;q=0.9","5e203085ac30fa331b586690","686e379bc37a29ffa5cdc956","687781615efb8fd6787302af","1","1","5e203085ac30fa331b586690","1","1","2025-07-16T10:51:43.527Z","","","","","","","","","","","ControlQ","","50","","","","","","","","","","","","","","","","","","","","","","","","","","","","",""
"9667","","<div style=""width:500px;"">
  <p>How would you describe your current emotional state?</p>
  </div>","39","html-slider-response","62","725460","0.0-5.0-3.10","102","1","2025-07-16 10:39:46","1f75c3e559b7213887762d5229550c2b","78.33.241.66","Mozilla/5.0 (Windows NT 10.0; Win64; x64) AppleWebKit/537.36 (KHTML, like Gecko) Chrome/138.0.0.0 Safari/537.36","WebKit","Chrome","138.0.0.0","Windows","10.0","https://app.prolific.com/","en-GB,en;q=0.9","5e203085ac30fa331b586690","686e379bc37a29ffa5cdc956","687781615efb8fd6787302af","1","1","5e203085ac30fa331b586690","1","1","2025-07-16T10:51:53.198Z","","","","","","","","","","","StressQ","","50","","","","","","","","","","","","","","","","","","","","","","","","","","","","",""
"2789","","<div style=""width:500px;"">
  <p>What best describes how you currently feel?</p>
  </div>","60","html-slider-response","63","728250","0.0-5.0-4.10","102","1","2025-07-16 10:39:46","1f75c3e559b7213887762d5229550c2b","78.33.241.66","Mozilla/5.0 (Windows NT 10.0; Win64; x64) AppleWebKit/537.36 (KHTML, like Gecko) Chrome/138.0.0.0 Safari/537.36","WebKit","Chrome","138.0.0.0","Windows","10.0","https://app.prolific.com/","en-GB,en;q=0.9","5e203085ac30fa331b586690","686e379bc37a29ffa5cdc956","687781615efb8fd6787302af","1","1","5e203085ac30fa331b586690","1","1","2025-07-16T10:51:55.988Z","","","","","","","","","","","MotivationQ","","50","","","","","","","","","","","","","","","","","","","","","","","","","","","","",""
"","","","","ctl-task-cpt","64","758616","0.0-5.0-0.11","102","1","2025-07-16 10:39:46","1f75c3e559b7213887762d5229550c2b","78.33.241.66","Mozilla/5.0 (Windows NT 10.0; Win64; x64) AppleWebKit/537.36 (KHTML, like Gecko) Chrome/138.0.0.0 Safari/537.36","WebKit","Chrome","138.0.0.0","Windows","10.0","https://app.prolific.com/","en-GB,en;q=0.9","5e203085ac30fa331b586690","686e379bc37a29ffa5cdc956","687781615efb8fd6787302af","1","1","5e203085ac30fa331b586690","1","1","2025-07-16T10:52:26.354Z","","","","","","","","","","","","","","win-only","1","g1:NE,g2:SW","0.6","12","0","729609.6","2378.7","7379.6","27344.6","1","4","8","6","2","8","8","12","4","0.09090909090909091","1055.9","3000","2025","[""down"",""left""]","{""num_key_presses"":6,""num_perfect"":4,""num_errors"":0,""num_randdir"":2,""num_randdir_good_moves"":2,""num_whilered"":0,""num_whileblue"":0,""num_blue"":1,""num_good_moves"":6}","[417.57142857142856,412.47767857142856,0.2,417.57142857142856,412.47767857142856,102.2,417.57142857142856,412.47767857142856,214.2,419.57142857142856,394.47767857142856,315.4,515.5714285714286,273.47767857142856,431.5,669.5714285714286,155.47767857142856,534,424.57142857142856,402.47767857142856,649.8,332.57142857142856,548.4776785714286,752.6,118.57142857142857,721.4776785714286,853.5,110.57142857142857,726.4776785714286,965.6,109.57142857142857,727.4776785714286,1067.7,109.57142857142857,727.4776785714286,1175.1,109.57142857142857,727.4776785714286,1281,114.57142857142857,727.4776785714286,1393.1,114.57142857142857,727.4776785714286,1496.6,114.57142857142857,727.4776785714286,1598.9,114.57142857142857,727.4776785714286,1700.5,114.57142857142857,727.4776785714286,1804,114.57142857142857,727.4776785714286,1913.3,114.57142857142857,727.4776785714286,2018.5,114.57142857142857,727.4776785714286,2124.6,114.57142857142857,727.4776785714286,2236.4,114.57142857142857,727.4776785714286,2353.4,114.57142857142857,727.4776785714286,2459.6,114.57142857142857,727.4776785714286,2575.1,114.57142857142857,727.4776785714286,2680.4,114.57142857142857,727.4776785714286,2781.1,114.57142857142857,727.4776785714286,2894.5,114.57142857142857,727.4776785714286,3008.8,114.57142857142857,727.4776785714286,3110.1,114.57142857142857,727.4776785714286,3221.6,114.57142857142857,727.4776785714286,3333.4,114.57142857142857,727.4776785714286,3436.3,114.57142857142857,727.4776785714286,3544.8,114.57142857142857,727.4776785714286,3652.6,114.57142857142857,727.4776785714286,3755.2,114.57142857142857,727.4776785714286,3861.3,114.57142857142857,727.4776785714286,3965.6,114.57142857142857,727.4776785714286,4074,114.57142857142857,727.4776785714286,4179.7,114.57142857142857,727.4776785714286,4282.1,114.57142857142857,727.4776785714286,4390.9,114.57142857142857,727.4776785714286,4492.9,114.57142857142857,727.4776785714286,4599,114.57142857142857,727.4776785714286,4708,114.57142857142857,727.4776785714286,4816.2,114.57142857142857,727.4776785714286,4919.4]","[1355,1355,1000,0,355,""smooth"",""down"",""down"",""good_move"",7332.2,5976.8,2484.2,4469.7,378.3,""smooth"",""down"",""down"",""good_move"",10395.1,3062.8,2755.7,7332.3,307.1,""oops"",""down"",""left"",""good_move"",14797.1,4401.7,4112.8,10395.4,288.9,""oops"",""down"",""left"",""good_move"",17014.1,2216.8,1703.5,14797.3,513.3,""smooth"",""down"",""down"",""good_move"",19729.1,2714.7,2336,17014.4,378.7,""smooth"",""left"",""left"",""good_move""]","",""
"1808","","<div style=""width:500px;"">
  <p>What determined the result of this run?</p>
  </div>","95","html-slider-response","65","760425","0.0-5.0-1.11","102","1","2025-07-16 10:39:46","1f75c3e559b7213887762d5229550c2b","78.33.241.66","Mozilla/5.0 (Windows NT 10.0; Win64; x64) AppleWebKit/537.36 (KHTML, like Gecko) Chrome/138.0.0.0 Safari/537.36","WebKit","Chrome","138.0.0.0","Windows","10.0","https://app.prolific.com/","en-GB,en;q=0.9","5e203085ac30fa331b586690","686e379bc37a29ffa5cdc956","687781615efb8fd6787302af","1","1","5e203085ac30fa331b586690","1","1","2025-07-16T10:52:28.163Z","","","","","","","","","","","AttribQ","","50","","","","","","","","","","","","","","","","","","","","","","","","","","","","",""
"2234","","<div style=""width:500px;"">
  <p>How much control did you have over the ball?</p>
  </div>","92","html-slider-response","66","762659","0.0-5.0-2.11","102","1","2025-07-16 10:39:46","1f75c3e559b7213887762d5229550c2b","78.33.241.66","Mozilla/5.0 (Windows NT 10.0; Win64; x64) AppleWebKit/537.36 (KHTML, like Gecko) Chrome/138.0.0.0 Safari/537.36","WebKit","Chrome","138.0.0.0","Windows","10.0","https://app.prolific.com/","en-GB,en;q=0.9","5e203085ac30fa331b586690","686e379bc37a29ffa5cdc956","687781615efb8fd6787302af","1","1","5e203085ac30fa331b586690","1","1","2025-07-16T10:52:30.397Z","","","","","","","","","","","ControlQ","","50","","","","","","","","","","","","","","","","","","","","","","","","","","","","",""
"2450","","<div style=""width:500px;"">
  <p>How would you describe your current emotional state?</p>
  </div>","34","html-slider-response","67","765110","0.0-5.0-3.11","102","1","2025-07-16 10:39:46","1f75c3e559b7213887762d5229550c2b","78.33.241.66","Mozilla/5.0 (Windows NT 10.0; Win64; x64) AppleWebKit/537.36 (KHTML, like Gecko) Chrome/138.0.0.0 Safari/537.36","WebKit","Chrome","138.0.0.0","Windows","10.0","https://app.prolific.com/","en-GB,en;q=0.9","5e203085ac30fa331b586690","686e379bc37a29ffa5cdc956","687781615efb8fd6787302af","1","1","5e203085ac30fa331b586690","1","1","2025-07-16T10:52:32.848Z","","","","","","","","","","","StressQ","","50","","","","","","","","","","","","","","","","","","","","","","","","","","","","",""
"1627","","<div style=""width:500px;"">
  <p>What best describes how you currently feel?</p>
  </div>","66","html-slider-response","68","766737","0.0-5.0-4.11","102","1","2025-07-16 10:39:46","1f75c3e559b7213887762d5229550c2b","78.33.241.66","Mozilla/5.0 (Windows NT 10.0; Win64; x64) AppleWebKit/537.36 (KHTML, like Gecko) Chrome/138.0.0.0 Safari/537.36","WebKit","Chrome","138.0.0.0","Windows","10.0","https://app.prolific.com/","en-GB,en;q=0.9","5e203085ac30fa331b586690","686e379bc37a29ffa5cdc956","687781615efb8fd6787302af","1","1","5e203085ac30fa331b586690","1","1","2025-07-16T10:52:34.476Z","","","","","","","","","","","MotivationQ","","50","","","","","","","","","","","","","","","","","","","","","","","","","","","","",""
"","","","","ctl-task-cpt","69","825297","0.0-5.0-0.12","102","1","2025-07-16 10:39:46","1f75c3e559b7213887762d5229550c2b","78.33.241.66","Mozilla/5.0 (Windows NT 10.0; Win64; x64) AppleWebKit/537.36 (KHTML, like Gecko) Chrome/138.0.0.0 Safari/537.36","WebKit","Chrome","138.0.0.0","Windows","10.0","https://app.prolific.com/","en-GB,en;q=0.9","5e203085ac30fa331b586690","686e379bc37a29ffa5cdc956","687781615efb8fd6787302af","1","1","5e203085ac30fa331b586690","1","1","2025-07-16T10:53:33.035Z","","","","","","","","","","","","","","win-only","0","g1:NW,g2:SE","0.7","13","0","768096.3","1086.2","6108.8","55526.3","1","4","4","6","2","4","1","13","12","0.09848484848484848","910.9","3000","2250","[""down"",""right""]","{""num_key_presses"":12,""num_perfect"":6,""num_errors"":3,""num_randdir"":3,""num_randdir_good_moves"":2,""num_whilered"":0,""num_whileblue"":3,""num_blue"":5,""num_good_moves"":9}","[409.57142857142856,419.47767857142856,0.2,409.57142857142856,419.47767857142856,103.9,409.57142857142856,419.47767857142856,216.8,409.57142857142856,419.47767857142856,326.4,404.57142857142856,408.47767857142856,431.4,497.57142857142856,459.47767857142856,538,671.5714285714286,652.4776785714286,645.6,705.5714285714286,710.4776785714286,751.5,728.5714285714286,740.4776785714286,854.7,729.5714285714286,741.4776785714286,964.1,729.5714285714286,741.4776785714286,1075.1,729.5714285714286,741.4776785714286,1177.9,729.5714285714286,741.4776785714286,1292.1,729.5714285714286,741.4776785714286,1394.9,729.5714285714286,741.4776785714286,1498.7,729.5714285714286,741.4776785714286,1602.7,729.5714285714286,741.4776785714286,1709.7,729.5714285714286,741.4776785714286,1809.7,729.5714285714286,741.4776785714286,1923.4,729.5714285714286,741.4776785714286,2033.7,729.5714285714286,741.4776785714286,2148.7,729.5714285714286,741.4776785714286,2257.3,729.5714285714286,741.4776785714286,2370.8,729.5714285714286,741.4776785714286,2483.5,729.5714285714286,741.4776785714286,2595.8,729.5714285714286,741.4776785714286,2699.4,729.5714285714286,741.4776785714286,2799.9,729.5714285714286,741.4776785714286,2914.8,729.5714285714286,741.4776785714286,3016.1,729.5714285714286,741.4776785714286,3120.9,729.5714285714286,741.4776785714286,3232,729.5714285714286,741.4776785714286,3334,729.5714285714286,741.4776785714286,3445,729.5714285714286,741.4776785714286,3559.4,729.5714285714286,741.4776785714286,3662.4,729.5714285714286,741.4776785714286,3766.2,729.5714285714286,741.4776785714286,3873.2,729.5714285714286,741.4776785714286,3992.7,729.5714285714286,741.4776785714286,4099.3,729.5714285714286,741.4776785714286,4206.4,729.5714285714286,741.4776785714286,4311.5,729.5714285714286,741.4776785714286,4413.3,729.5714285714286,741.4776785714286,4520.4,729.5714285714286,741.4776785714286,4626,729.5714285714286,741.4776785714286,4730.6,729.5714285714286,741.4776785714286,4834.2,729.5714285714286,741.4776785714286,4943.2]","[1421.5,1421.5,1000,0,421.5,""smooth"",""down"",""down"",""good_move"",4398.2,2976.5,2609.9,1421.8,366.6,""smooth"",""down"",""down"",""good_move"",7645.3,3246.8,2883.8,4398.5,363,""smooth"",""down"",""down"",""good_move"",11480.2,3834.6,3530.8,7645.6,303.8,""while_blue"",""right"",""up"",""bad_move"",15333.1,3852.6,2965.7,11480.5,886.9,""smooth"",""down"",""down"",""good_move"",20489.5,5156.3,1839.7,18246.5,403.3,""oops"",""right"",""right"",""good_move"",23826.5,3336.7,3014.6,20489.8,322.1,""while_blue"",""right"",""right"",""good_move"",27188.3,3361.6,3020.9,23826.7,340.7,""oops"",""right"",""up"",""bad_move"",32783.9,5595.3,5262.5,27188.6,332.8,""while_blue"",""right"",""up"",""bad_move"",38742,5957.8,2301.5,32784.2,3656.3,""smooth"",""right"",""right"",""good_move"",46144.4,7402.2,2834,42871.2,439.2,""oops"",""down"",""down"",""good_move"",48742.9,2598.3,1874.9,46144.6,723.4,""smooth"",""down"",""down"",""good_move""]","",""
"2173","","<div style=""width:500px;"">
  <p>What determined the result of this run?</p>
  </div>","57","html-slider-response","70","827473","0.0-5.0-1.12","102","1","2025-07-16 10:39:46","1f75c3e559b7213887762d5229550c2b","78.33.241.66","Mozilla/5.0 (Windows NT 10.0; Win64; x64) AppleWebKit/537.36 (KHTML, like Gecko) Chrome/138.0.0.0 Safari/537.36","WebKit","Chrome","138.0.0.0","Windows","10.0","https://app.prolific.com/","en-GB,en;q=0.9","5e203085ac30fa331b586690","686e379bc37a29ffa5cdc956","687781615efb8fd6787302af","1","1","5e203085ac30fa331b586690","1","1","2025-07-16T10:53:35.211Z","","","","","","","","","","","AttribQ","","50","","","","","","","","","","","","","","","","","","","","","","","","","","","","",""
"2138","","<div style=""width:500px;"">
  <p>How much control did you have over the ball?</p>
  </div>","57","html-slider-response","71","829611","0.0-5.0-2.12","102","1","2025-07-16 10:39:46","1f75c3e559b7213887762d5229550c2b","78.33.241.66","Mozilla/5.0 (Windows NT 10.0; Win64; x64) AppleWebKit/537.36 (KHTML, like Gecko) Chrome/138.0.0.0 Safari/537.36","WebKit","Chrome","138.0.0.0","Windows","10.0","https://app.prolific.com/","en-GB,en;q=0.9","5e203085ac30fa331b586690","686e379bc37a29ffa5cdc956","687781615efb8fd6787302af","1","1","5e203085ac30fa331b586690","1","1","2025-07-16T10:53:37.349Z","","","","","","","","","","","ControlQ","","50","","","","","","","","","","","","","","","","","","","","","","","","","","","","",""
"2169","","<div style=""width:500px;"">
  <p>How would you describe your current emotional state?</p>
  </div>","41","html-slider-response","72","831781","0.0-5.0-3.12","102","1","2025-07-16 10:39:46","1f75c3e559b7213887762d5229550c2b","78.33.241.66","Mozilla/5.0 (Windows NT 10.0; Win64; x64) AppleWebKit/537.36 (KHTML, like Gecko) Chrome/138.0.0.0 Safari/537.36","WebKit","Chrome","138.0.0.0","Windows","10.0","https://app.prolific.com/","en-GB,en;q=0.9","5e203085ac30fa331b586690","686e379bc37a29ffa5cdc956","687781615efb8fd6787302af","1","1","5e203085ac30fa331b586690","1","1","2025-07-16T10:53:39.519Z","","","","","","","","","","","StressQ","","50","","","","","","","","","","","","","","","","","","","","","","","","","","","","",""
"1678","","<div style=""width:500px;"">
  <p>What best describes how you currently feel?</p>
  </div>","60","html-slider-response","73","833460","0.0-5.0-4.12","102","1","2025-07-16 10:39:46","1f75c3e559b7213887762d5229550c2b","78.33.241.66","Mozilla/5.0 (Windows NT 10.0; Win64; x64) AppleWebKit/537.36 (KHTML, like Gecko) Chrome/138.0.0.0 Safari/537.36","WebKit","Chrome","138.0.0.0","Windows","10.0","https://app.prolific.com/","en-GB,en;q=0.9","5e203085ac30fa331b586690","686e379bc37a29ffa5cdc956","687781615efb8fd6787302af","1","1","5e203085ac30fa331b586690","1","1","2025-07-16T10:53:41.198Z","","","","","","","","","","","MotivationQ","","50","","","","","","","","","","","","","","","","","","","","","","","","","","","","",""
