"rt","response_timestamp","stimulus","response","trial_type","trial_index","time_elapsed","internal_node_id","run_id","condition","recorded_at","source_code_version","ip","user_agent","device","browser","browser_version","platform","platform_version","referer","accept_language","PROLIFIC_PID","STUDY_ID","SESSION_ID","WEEK","BATCH","prolific_id","week","batch","realtime","success","responses","item_order","radio_event_ids","radio_event_times","key_event_times","mouse_event_times","straightlining","zigzagging","honeypot","eventType","view_history","slider_start","which_type","canvas_config","goals_layout","control_level","trial_number","tutorial_trial_number","trial_start_time","phase1_start_time","phase2_start_time","phase3_start_time","goal_1_value","goal_1_distance","goal_2_value","goal_2_distance","goal_selected","outcome","outcome_total","participant_final_score","participant_initial_score","participant_final_score_prop","goal_choice_rt","allocated_time","allocated_time_remaining","goal_direction","counts","mouse_movements","key_presses","question_order","question_id"
"41842","1753864684632","<p style='font-size:40px;line-height:1.25'><strong>Welcome to the experiment!</strong></p><p style='font-size:1.1em;line-height:1.25'>Thank you for participanting in our experiment again! You will be asked to play the Dysfunctional Ball Game again. We will briefly recap the rules before we start.</p><p style='font-size:1.1em;line-height:1.25'>Press <strong>Next</strong> to continue.</p>","0","custom-html-button-response","0","41845","0.0-0.0","253","1","2025-07-30 08:37:21","1f75c3e559b7213887762d5229550c2b","93.39.139.75","Mozilla/5.0 (Windows NT 10.0; Win64; x64) AppleWebKit/537.36 (KHTML, like Gecko) Chrome/138.0.0.0 Safari/537.36","WebKit","Chrome","138.0.0.0","Windows","10.0","https://app.prolific.com/","it-IT,it;q=0.9,en-US;q=0.8,en;q=0.7","5daae19f8a06b60016d1bc32","6877631c9844ddd5501205fc","6889d9bc53c549d819cba6bc","3","1","5daae19f8a06b60016d1bc32","3","1","2025-07-30T08:38:04.633Z","","","","","","","","","","","","","","","","","","","","","","","","","","","","","","","","","","","","","","","","","",""
"5820","","","","fullscreen","1","48675","0.0-1.0","253","1","2025-07-30 08:37:21","1f75c3e559b7213887762d5229550c2b","93.39.139.75","Mozilla/5.0 (Windows NT 10.0; Win64; x64) AppleWebKit/537.36 (KHTML, like Gecko) Chrome/138.0.0.0 Safari/537.36","WebKit","Chrome","138.0.0.0","Windows","10.0","https://app.prolific.com/","it-IT,it;q=0.9,en-US;q=0.8,en;q=0.7","5daae19f8a06b60016d1bc32","6877631c9844ddd5501205fc","6889d9bc53c549d819cba6bc","3","1","5daae19f8a06b60016d1bc32","3","1","","true","","","","","","","","","","","","","","","","","","","","","","","","","","","","","","","","","","","","","","","","",""
"2905","1753864694369","<p style='font-size:1.1em;line-height:1.25'>In the following, we will ask you a few questions relating to your feelings in the last 24 hours.<br></p><p style='font-size:1.1em;line-height:1.25'>Press the <strong>Next</strong> button to continue.</p>","0","custom-html-button-response","2","51581","0.0-2.0-0.0","253","1","2025-07-30 08:37:21","1f75c3e559b7213887762d5229550c2b","93.39.139.75","Mozilla/5.0 (Windows NT 10.0; Win64; x64) AppleWebKit/537.36 (KHTML, like Gecko) Chrome/138.0.0.0 Safari/537.36","WebKit","Chrome","138.0.0.0","Windows","10.0","https://app.prolific.com/","it-IT,it;q=0.9,en-US;q=0.8,en;q=0.7","5daae19f8a06b60016d1bc32","6877631c9844ddd5501205fc","6889d9bc53c549d819cba6bc","3","1","5daae19f8a06b60016d1bc32","3","1","2025-07-30T08:38:14.369Z","","","","","","","","","","","","","","","","","","","","","","","","","","","","","","","","","","","","","","","","","",""
"142457.89999961853","","","","survey-template","3","194043","0.0-2.0-1.0","253","1","2025-07-30 08:37:21","1f75c3e559b7213887762d5229550c2b","93.39.139.75","Mozilla/5.0 (Windows NT 10.0; Win64; x64) AppleWebKit/537.36 (KHTML, like Gecko) Chrome/138.0.0.0 Safari/537.36","WebKit","Chrome","138.0.0.0","Windows","10.0","https://app.prolific.com/","it-IT,it;q=0.9,en-US;q=0.8,en;q=0.7","5daae19f8a06b60016d1bc32","6877631c9844ddd5501205fc","6889d9bc53c549d819cba6bc","3","1","5daae19f8a06b60016d1bc32","3","1","2025-07-30T08:40:36.831Z","","{""Q01"":""3"",""Q02"":""4"",""Q03"":""4"",""Q04"":""4"",""Q05"":""3"",""Q06"":""5"",""Q07"":""2"",""Q08"":""0"",""Q09"":""3"",""Q10"":""3"",""Q11"":""3"",""Q12"":""0"",""Q13"":""5"",""Q14"":""0"",""Q15"":""4"",""Q16"":""1"",""Q17"":""5"",""Q18"":""5"",""Q19"":""0"",""Q20"":""0"",""Q21"":""0"",""Q22"":""0""}","[0,1,2,3,4,5,6,7,8,9,10,11,12,13,14,15,16,17,18,19,20,21]","[""Q01"",""Q02"",""Q03"",""Q04"",""Q05"",""Q05"",""Q06"",""Q07"",""Q08"",""Q09"",""Q10"",""Q11"",""Q12"",""Q13"",""Q14"",""Q15"",""Q15"",""Q15"",""Q16"",""Q16"",""Q17"",""Q18"",""Q19"",""Q20"",""Q21"",""Q22""]","[6631.099998474121,8431.29999923706,10880.79999923706,18787.59999847412,35338.19999885559,39689,41899,52594.19999885559,57187,59371,63102.19999885559,69059.09999847412,71345.19999885559,75206.59999847412,77217.59999847412,90115.29999923706,93043,96306.59999847412,99428.29999923706,101477.79999923706,104555.79999923706,108208.5,130278.69999885559,134353.6999988556,137077.29999923706,140412.59999847412]","[]","[0.09999847412109375,5075.89999961853,6631.099998474121,8431.29999923706,10880.79999923706,18787.59999847412,35338.19999885559,39689,41899,52594.19999885559,57187,59371,63102.19999885559,69059.09999847412,71345.19999885559,75206.59999847412,77217.59999847412,90115.29999923706,93043,96306.59999847412,99428.29999923706,101477.79999923706,104555.79999923706,108208.5,130278.69999885559,134353.6999988556,137077.29999923706,140412.59999847412,142455.29999923706]","0.3181818181818182","0.23809523809523808","0","drsp","","","","","","","","","","","","","","","","","","","","","","","","","","","","","","",""
"12927.80000114441","","","","survey-template","4","206972","0.0-2.0-2.0","253","1","2025-07-30 08:37:21","1f75c3e559b7213887762d5229550c2b","93.39.139.75","Mozilla/5.0 (Windows NT 10.0; Win64; x64) AppleWebKit/537.36 (KHTML, like Gecko) Chrome/138.0.0.0 Safari/537.36","WebKit","Chrome","138.0.0.0","Windows","10.0","https://app.prolific.com/","it-IT,it;q=0.9,en-US;q=0.8,en;q=0.7","5daae19f8a06b60016d1bc32","6877631c9844ddd5501205fc","6889d9bc53c549d819cba6bc","3","1","5daae19f8a06b60016d1bc32","3","1","2025-07-30T08:40:49.760Z","","{""Q01"":""4"",""Q02"":""5"",""Q03"":""5""}","[0,1,2]","[""Q01"",""Q02"",""Q03""]","[5421.60000038147,8882.80000114441,11909.10000038147]","[]","[5421.60000038147,8882.80000114441,11909.10000038147,12927.10000038147]","0.3333333333333333","0.5","0","stress","","","","","","","","","","","","","","","","","","","","","","","","","","","","","","",""
"28970","","","","instructions","5","235942","0.0-3.0-0.0","253","1","2025-07-30 08:37:21","1f75c3e559b7213887762d5229550c2b","93.39.139.75","Mozilla/5.0 (Windows NT 10.0; Win64; x64) AppleWebKit/537.36 (KHTML, like Gecko) Chrome/138.0.0.0 Safari/537.36","WebKit","Chrome","138.0.0.0","Windows","10.0","https://app.prolific.com/","it-IT,it;q=0.9,en-US;q=0.8,en;q=0.7","5daae19f8a06b60016d1bc32","6877631c9844ddd5501205fc","6889d9bc53c549d819cba6bc","3","1","5daae19f8a06b60016d1bc32","3","1","","","","","","","","","","","","","[{""page_index"":0,""viewing_time"":28970}]","","","","","","","","","","","","","","","","","","","","","","","","","","","","","",""
"11116","","<p>Before you start with this game please answer the following three questions yourself. </p>
  <p>Through this game, we measure several aspects of your cognitive performance, such as reaction times, multi-tasking capabilities </p>
  <p>and the ability to assess the situation you are in.</p>
  <p></p>
  <p><b>How good do you usually are in such tasks?</b></p>","55","html-slider-response","6","247060","0.0-4.0-0.0","253","1","2025-07-30 08:37:21","1f75c3e559b7213887762d5229550c2b","93.39.139.75","Mozilla/5.0 (Windows NT 10.0; Win64; x64) AppleWebKit/537.36 (KHTML, like Gecko) Chrome/138.0.0.0 Safari/537.36","WebKit","Chrome","138.0.0.0","Windows","10.0","https://app.prolific.com/","it-IT,it;q=0.9,en-US;q=0.8,en;q=0.7","5daae19f8a06b60016d1bc32","6877631c9844ddd5501205fc","6889d9bc53c549d819cba6bc","3","1","5daae19f8a06b60016d1bc32","3","1","2025-07-30T08:41:29.848Z","","","","","","","","","","","PreSkillQ","","50","","","","","","","","","","","","","","","","","","","","","","","","","","","","",""
"3980","","<div style=""width:500px;"">
  <p>How well do you think you will perform in this task compared to other participants?</p>
  </div>","50","html-slider-response","7","251041","0.0-4.0-1.0","253","1","2025-07-30 08:37:21","1f75c3e559b7213887762d5229550c2b","93.39.139.75","Mozilla/5.0 (Windows NT 10.0; Win64; x64) AppleWebKit/537.36 (KHTML, like Gecko) Chrome/138.0.0.0 Safari/537.36","WebKit","Chrome","138.0.0.0","Windows","10.0","https://app.prolific.com/","it-IT,it;q=0.9,en-US;q=0.8,en;q=0.7","5daae19f8a06b60016d1bc32","6877631c9844ddd5501205fc","6889d9bc53c549d819cba6bc","3","1","5daae19f8a06b60016d1bc32","3","1","2025-07-30T08:41:33.829Z","","","","","","","","","","","PrePerfQ","","50","","","","","","","","","","","","","","","","","","","","","","","","","","","","",""
"6454","","<div style=""width:500px;"">
  <p>What best describes how you currently feel?</p>
  </div>","43","html-slider-response","8","257496","0.0-4.0-2.0","253","1","2025-07-30 08:37:21","1f75c3e559b7213887762d5229550c2b","93.39.139.75","Mozilla/5.0 (Windows NT 10.0; Win64; x64) AppleWebKit/537.36 (KHTML, like Gecko) Chrome/138.0.0.0 Safari/537.36","WebKit","Chrome","138.0.0.0","Windows","10.0","https://app.prolific.com/","it-IT,it;q=0.9,en-US;q=0.8,en;q=0.7","5daae19f8a06b60016d1bc32","6877631c9844ddd5501205fc","6889d9bc53c549d819cba6bc","3","1","5daae19f8a06b60016d1bc32","3","1","2025-07-30T08:41:40.284Z","","","","","","","","","","","PreMotivationQ","","50","","","","","","","","","","","","","","","","","","","","","","","","","","","","",""
"","","","","ctl-task-cpt","9","288711","0.0-5.0-0.0","253","1","2025-07-30 08:37:21","1f75c3e559b7213887762d5229550c2b","93.39.139.75","Mozilla/5.0 (Windows NT 10.0; Win64; x64) AppleWebKit/537.36 (KHTML, like Gecko) Chrome/138.0.0.0 Safari/537.36","WebKit","Chrome","138.0.0.0","Windows","10.0","https://app.prolific.com/","it-IT,it;q=0.9,en-US;q=0.8,en;q=0.7","5daae19f8a06b60016d1bc32","6877631c9844ddd5501205fc","6889d9bc53c549d819cba6bc","3","1","5daae19f8a06b60016d1bc32","3","1","2025-07-30T08:42:11.499Z","","","","","","","","","","","","","","win-only","2","g1:SE,g2:NW","1","1","0","258937.4","2985.8","7987.7","28205.5","1","4","4","6","2","4","4","4","0","0.030303030303030304","1226.3","3000","1020","[""left"",""up""]","{""num_key_presses"":6,""num_perfect"":6,""num_errors"":0,""num_randdir"":0,""num_randdir_good_moves"":0,""num_whilered"":0,""num_whileblue"":0,""num_blue"":1,""num_good_moves"":6}","[414.57142857142856,410.47767857142856,0.5,414.57142857142856,410.47767857142856,104.4,414.57142857142856,410.47767857142856,211,414.57142857142856,410.47767857142856,316.8,414.57142857142856,410.47767857142856,420.6,414.57142857142856,410.47767857142856,529,414.57142857142856,410.47767857142856,629.8,240.57142857142856,281.47767857142856,730.2,193.57142857142856,249.47767857142856,835.2,193.57142857142856,249.47767857142856,935.2,134.57142857142856,147.47767857142856,1039.4,104.57142857142857,106.47767857142857,1139.7,100.57142857142857,103.47767857142857,1245.7,100.57142857142857,103.47767857142857,1346.5,100.57142857142857,103.47767857142857,1446.5,100.57142857142857,103.47767857142857,1554.2,21.57142857142857,174.47767857142856,1658.8,-37.42857142857143,241.47767857142856,1759.7,-37.42857142857143,241.47767857142856,1865,-37.42857142857143,241.47767857142856,1972.3,-37.42857142857143,241.47767857142856,2072.5,-37.42857142857143,241.47767857142856,2180.8,-37.42857142857143,241.47767857142856,2281.2,-37.42857142857143,241.47767857142856,2388.7,-37.42857142857143,241.47767857142856,2488.7,-37.42857142857143,241.47767857142856,2596.8,-37.42857142857143,241.47767857142856,2703.9,-37.42857142857143,241.47767857142856,2804.1,-37.42857142857143,241.47767857142856,2911.8,-37.42857142857143,241.47767857142856,3011.8,-37.42857142857143,241.47767857142856,3114.6,-37.42857142857143,241.47767857142856,3214.6,-37.42857142857143,241.47767857142856,3314.9,-37.42857142857143,241.47767857142856,3415.2,-37.42857142857143,241.47767857142856,3516.8,-37.42857142857143,241.47767857142856,3622.1,-37.42857142857143,241.47767857142856,3730.1,-37.42857142857143,241.47767857142856,3830.9,-37.42857142857143,241.47767857142856,3931.5,-37.42857142857143,241.47767857142856,4038.8,-37.42857142857143,241.47767857142856,4146.1,-37.42857142857143,241.47767857142856,4247.3,-37.42857142857143,241.47767857142856,4353.5,-37.42857142857143,241.47767857142856,4453.7,-37.42857142857143,241.47767857142856,4562.1,-37.42857142857143,241.47767857142856,4662.2,-37.42857142857143,241.47767857142856,4765,-37.42857142857143,241.47767857142856,4865.2,-37.42857142857143,241.47767857142856,4977.6]","[1894.5,1894.4,1000,0.1,894.4,""smooth"",""up"",""up"",""good_move"",3976.7,2081.9,1759.4,1894.9,322.4,""smooth"",""left"",""left"",""good_move"",11400.6,7423.5,3559.1,7532.7,308.8,""smooth"",""left"",""left"",""good_move"",14476.1,3075.2,2679.7,11400.9,395.5,""smooth"",""up"",""up"",""good_move"",17121.1,2644.7,2299.8,14476.4,344.9,""smooth"",""left"",""left"",""good_move"",20096,2974.8,2621,17121.2,353.8,""smooth"",""up"",""up"",""good_move""]","",""
"4034","","<div style=""width:500px;"">
  <p>What determined the result of this run?</p>
  </div>","100","html-slider-response","10","292746","0.0-5.0-1.0","253","1","2025-07-30 08:37:21","1f75c3e559b7213887762d5229550c2b","93.39.139.75","Mozilla/5.0 (Windows NT 10.0; Win64; x64) AppleWebKit/537.36 (KHTML, like Gecko) Chrome/138.0.0.0 Safari/537.36","WebKit","Chrome","138.0.0.0","Windows","10.0","https://app.prolific.com/","it-IT,it;q=0.9,en-US;q=0.8,en;q=0.7","5daae19f8a06b60016d1bc32","6877631c9844ddd5501205fc","6889d9bc53c549d819cba6bc","3","1","5daae19f8a06b60016d1bc32","3","1","2025-07-30T08:42:15.534Z","","","","","","","","","","","AttribQ","","50","","","","","","","","","","","","","","","","","","","","","","","","","","","","",""
"2873","","<div style=""width:500px;"">
  <p>How much control did you have over the ball?</p>
  </div>","100","html-slider-response","11","295619","0.0-5.0-2.0","253","1","2025-07-30 08:37:21","1f75c3e559b7213887762d5229550c2b","93.39.139.75","Mozilla/5.0 (Windows NT 10.0; Win64; x64) AppleWebKit/537.36 (KHTML, like Gecko) Chrome/138.0.0.0 Safari/537.36","WebKit","Chrome","138.0.0.0","Windows","10.0","https://app.prolific.com/","it-IT,it;q=0.9,en-US;q=0.8,en;q=0.7","5daae19f8a06b60016d1bc32","6877631c9844ddd5501205fc","6889d9bc53c549d819cba6bc","3","1","5daae19f8a06b60016d1bc32","3","1","2025-07-30T08:42:18.407Z","","","","","","","","","","","ControlQ","","50","","","","","","","","","","","","","","","","","","","","","","","","","","","","",""
"8272","","<div style=""width:500px;"">
  <p>How would you describe your current emotional state?</p>
  </div>","33","html-slider-response","12","303892","0.0-5.0-3.0","253","1","2025-07-30 08:37:21","1f75c3e559b7213887762d5229550c2b","93.39.139.75","Mozilla/5.0 (Windows NT 10.0; Win64; x64) AppleWebKit/537.36 (KHTML, like Gecko) Chrome/138.0.0.0 Safari/537.36","WebKit","Chrome","138.0.0.0","Windows","10.0","https://app.prolific.com/","it-IT,it;q=0.9,en-US;q=0.8,en;q=0.7","5daae19f8a06b60016d1bc32","6877631c9844ddd5501205fc","6889d9bc53c549d819cba6bc","3","1","5daae19f8a06b60016d1bc32","3","1","2025-07-30T08:42:26.681Z","","","","","","","","","","","StressQ","","50","","","","","","","","","","","","","","","","","","","","","","","","","","","","",""
"3860","","<div style=""width:500px;"">
  <p>What best describes how you currently feel?</p>
  </div>","57","html-slider-response","13","307753","0.0-5.0-4.0","253","1","2025-07-30 08:37:21","1f75c3e559b7213887762d5229550c2b","93.39.139.75","Mozilla/5.0 (Windows NT 10.0; Win64; x64) AppleWebKit/537.36 (KHTML, like Gecko) Chrome/138.0.0.0 Safari/537.36","WebKit","Chrome","138.0.0.0","Windows","10.0","https://app.prolific.com/","it-IT,it;q=0.9,en-US;q=0.8,en;q=0.7","5daae19f8a06b60016d1bc32","6877631c9844ddd5501205fc","6889d9bc53c549d819cba6bc","3","1","5daae19f8a06b60016d1bc32","3","1","2025-07-30T08:42:30.542Z","","","","","","","","","","","MotivationQ","","50","","","","","","","","","","","","","","","","","","","","","","","","","","","","",""
"","","","","ctl-task-cpt","14","334086","0.0-5.0-0.1","253","1","2025-07-30 08:37:21","1f75c3e559b7213887762d5229550c2b","93.39.139.75","Mozilla/5.0 (Windows NT 10.0; Win64; x64) AppleWebKit/537.36 (KHTML, like Gecko) Chrome/138.0.0.0 Safari/537.36","WebKit","Chrome","138.0.0.0","Windows","10.0","https://app.prolific.com/","it-IT,it;q=0.9,en-US;q=0.8,en;q=0.7","5daae19f8a06b60016d1bc32","6877631c9844ddd5501205fc","6889d9bc53c549d819cba6bc","3","1","5daae19f8a06b60016d1bc32","3","1","2025-07-30T08:42:56.874Z","","","","","","","","","","","","","","win-only","1","g1:NE,g2:SW","0.9","2","0","309193.5","1222.8","6223.7","23327.5","1","4","8","6","2","8","7","11","4","0.08333333333333333","1143.3","3000","1470","[""down"",""left""]","{""num_key_presses"":7,""num_perfect"":6,""num_errors"":1,""num_randdir"":0,""num_randdir_good_moves"":0,""num_whilered"":0,""num_whileblue"":0,""num_blue"":0,""num_good_moves"":6}","[423.57142857142856,418.47767857142856,0.2,423.57142857142856,418.47767857142856,108.6,423.57142857142856,418.47767857142856,209.9,423.57142857142856,418.47767857142856,316.2,423.57142857142856,418.47767857142856,423.1,423.57142857142856,418.47767857142856,530.2,415.57142857142856,420.47767857142856,637.6,203.57142857142856,591.4776785714286,743.6,171.57142857142856,651.4776785714286,843.9,171.57142857142856,651.4776785714286,944.3,106.57142857142857,738.4776785714286,1048.9,88.57142857142857,764.4776785714286,1152.1,88.57142857142857,764.4776785714286,1259.3,88.57142857142857,764.4776785714286,1365.3,-44.42857142857143,767.4776785714286,1468,-44.42857142857143,767.4776785714286,1573.6,-56.42857142857143,759.4776785714286,1678,-171.42857142857144,630.4776785714286,1780.3,-169.42857142857144,625.4776785714286,1883.2,-169.42857142857144,625.4776785714286,1991.3,-169.42857142857144,625.4776785714286,2093.1,-169.42857142857144,625.4776785714286,2193.2,-169.42857142857144,625.4776785714286,2293.7,-169.42857142857144,625.4776785714286,2394.6,-169.42857142857144,625.4776785714286,2502.6,-169.42857142857144,625.4776785714286,2602.7,-169.42857142857144,625.4776785714286,2709.3,-169.42857142857144,625.4776785714286,2816.1,-169.42857142857144,625.4776785714286,2923.9,-169.42857142857144,625.4776785714286,3028.3,-169.42857142857144,625.4776785714286,3128.6,-169.42857142857144,625.4776785714286,3236.7,-169.42857142857144,625.4776785714286,3337.5,-169.42857142857144,625.4776785714286,3444.9,-169.42857142857144,625.4776785714286,3548.5,-169.42857142857144,625.4776785714286,3652.9,-169.42857142857144,625.4776785714286,3752.9,-169.42857142857144,625.4776785714286,3853,-169.42857142857144,625.4776785714286,3960.7,-169.42857142857144,625.4776785714286,4062.7,-169.42857142857144,625.4776785714286,4169.3,-169.42857142857144,625.4776785714286,4276.4,-169.42857142857144,625.4776785714286,4377.9,-169.42857142857144,625.4776785714286,4478.9,-169.42857142857144,625.4776785714286,4579.5,-169.42857142857144,625.4776785714286,4686.9,-169.42857142857144,625.4776785714286,4794.4,-169.42857142857144,625.4776785714286,4894.4]","[1362.8,1362.8,1000,0,362.8,""smooth"",""down"",""down"",""good_move"",4048,2684.9,2312.8,1363.2,372,""smooth"",""left"",""left"",""good_move"",6950.4,2902.2,2541.5,4048.3,360.7,""smooth"",""down"",""down"",""good_move"",7095.9,145.2,2843.5,6950.7,-2698.3,""error"",""-"",""-"",""no_move"",11042.2,3946,2563.8,8098.6,379.8,""smooth"",""left"",""left"",""good_move"",14168.2,3125.7,2783.2,11042.5,342.5,""smooth"",""down"",""down"",""good_move"",16974.3,2805.9,2480.4,14168.4,325.5,""smooth"",""left"",""left"",""good_move""]","",""
"3934","","<div style=""width:500px;"">
  <p>What determined the result of this run?</p>
  </div>","100","html-slider-response","15","338022","0.0-5.0-1.1","253","1","2025-07-30 08:37:21","1f75c3e559b7213887762d5229550c2b","93.39.139.75","Mozilla/5.0 (Windows NT 10.0; Win64; x64) AppleWebKit/537.36 (KHTML, like Gecko) Chrome/138.0.0.0 Safari/537.36","WebKit","Chrome","138.0.0.0","Windows","10.0","https://app.prolific.com/","it-IT,it;q=0.9,en-US;q=0.8,en;q=0.7","5daae19f8a06b60016d1bc32","6877631c9844ddd5501205fc","6889d9bc53c549d819cba6bc","3","1","5daae19f8a06b60016d1bc32","3","1","2025-07-30T08:43:00.810Z","","","","","","","","","","","AttribQ","","50","","","","","","","","","","","","","","","","","","","","","","","","","","","","",""
"2443","","<div style=""width:500px;"">
  <p>How much control did you have over the ball?</p>
  </div>","100","html-slider-response","16","340466","0.0-5.0-2.1","253","1","2025-07-30 08:37:21","1f75c3e559b7213887762d5229550c2b","93.39.139.75","Mozilla/5.0 (Windows NT 10.0; Win64; x64) AppleWebKit/537.36 (KHTML, like Gecko) Chrome/138.0.0.0 Safari/537.36","WebKit","Chrome","138.0.0.0","Windows","10.0","https://app.prolific.com/","it-IT,it;q=0.9,en-US;q=0.8,en;q=0.7","5daae19f8a06b60016d1bc32","6877631c9844ddd5501205fc","6889d9bc53c549d819cba6bc","3","1","5daae19f8a06b60016d1bc32","3","1","2025-07-30T08:43:03.254Z","","","","","","","","","","","ControlQ","","50","","","","","","","","","","","","","","","","","","","","","","","","","","","","",""
"6506","","<div style=""width:500px;"">
  <p>How would you describe your current emotional state?</p>
  </div>","42","html-slider-response","17","346973","0.0-5.0-3.1","253","1","2025-07-30 08:37:21","1f75c3e559b7213887762d5229550c2b","93.39.139.75","Mozilla/5.0 (Windows NT 10.0; Win64; x64) AppleWebKit/537.36 (KHTML, like Gecko) Chrome/138.0.0.0 Safari/537.36","WebKit","Chrome","138.0.0.0","Windows","10.0","https://app.prolific.com/","it-IT,it;q=0.9,en-US;q=0.8,en;q=0.7","5daae19f8a06b60016d1bc32","6877631c9844ddd5501205fc","6889d9bc53c549d819cba6bc","3","1","5daae19f8a06b60016d1bc32","3","1","2025-07-30T08:43:09.761Z","","","","","","","","","","","StressQ","","50","","","","","","","","","","","","","","","","","","","","","","","","","","","","",""
"2971","","<div style=""width:500px;"">
  <p>What best describes how you currently feel?</p>
  </div>","66","html-slider-response","18","349944","0.0-5.0-4.1","253","1","2025-07-30 08:37:21","1f75c3e559b7213887762d5229550c2b","93.39.139.75","Mozilla/5.0 (Windows NT 10.0; Win64; x64) AppleWebKit/537.36 (KHTML, like Gecko) Chrome/138.0.0.0 Safari/537.36","WebKit","Chrome","138.0.0.0","Windows","10.0","https://app.prolific.com/","it-IT,it;q=0.9,en-US;q=0.8,en;q=0.7","5daae19f8a06b60016d1bc32","6877631c9844ddd5501205fc","6889d9bc53c549d819cba6bc","3","1","5daae19f8a06b60016d1bc32","3","1","2025-07-30T08:43:12.733Z","","","","","","","","","","","MotivationQ","","50","","","","","","","","","","","","","","","","","","","","","","","","","","","","",""
"","","","","ctl-task-cpt","19","376395","0.0-5.0-0.2","253","1","2025-07-30 08:37:21","1f75c3e559b7213887762d5229550c2b","93.39.139.75","Mozilla/5.0 (Windows NT 10.0; Win64; x64) AppleWebKit/537.36 (KHTML, like Gecko) Chrome/138.0.0.0 Safari/537.36","WebKit","Chrome","138.0.0.0","Windows","10.0","https://app.prolific.com/","it-IT,it;q=0.9,en-US;q=0.8,en;q=0.7","5daae19f8a06b60016d1bc32","6877631c9844ddd5501205fc","6889d9bc53c549d819cba6bc","3","1","5daae19f8a06b60016d1bc32","3","1","2025-07-30T08:43:39.184Z","","","","","","","","","","","","","","win-only","0","g1:NW,g2:SE","0.8","3","0","351385.3","1143.2","6146.8","23440.7","1","4","4","6","2","4","4","15","11","0.11363636363636363","1052.9","3000","1415","[""down"",""right""]","{""num_key_presses"":6,""num_perfect"":6,""num_errors"":0,""num_randdir"":0,""num_randdir_good_moves"":0,""num_whilered"":0,""num_whileblue"":0,""num_blue"":1,""num_good_moves"":6}","[419.57142857142856,416.47767857142856,0.1,419.57142857142856,416.47767857142856,104.4,419.57142857142856,416.47767857142856,209.9,419.57142857142856,416.47767857142856,310.7,419.57142857142856,416.47767857142856,418,419.57142857142856,416.47767857142856,518,438.57142857142856,432.47767857142856,624.2,661.5714285714286,618.4776785714286,726.8,729.5714285714286,699.4776785714286,832.8,748.5714285714286,729.4776785714286,938.9,756.5714285714286,743.4776785714286,1042.7,756.5714285714286,743.4776785714286,1151.4,756.5714285714286,743.4776785714286,1253.6,919.5714285714286,741.4776785714286,1353.9,1057.5714285714287,728.4776785714286,1458.7,1057.5714285714287,728.4776785714286,1564.5,1057.5714285714287,728.4776785714286,1667.2,1057.5714285714287,728.4776785714286,1767.2,1057.5714285714287,728.4776785714286,1870.7,1057.5714285714287,728.4776785714286,1972.2,1057.5714285714287,728.4776785714286,2074.4,1057.5714285714287,728.4776785714286,2179.9,1057.5714285714287,728.4776785714286,2286.2,1057.5714285714287,728.4776785714286,2387,1057.5714285714287,728.4776785714286,2488.7,1057.5714285714287,728.4776785714286,2597.1,1057.5714285714287,728.4776785714286,2702.3,1057.5714285714287,728.4776785714286,2802.3,1057.5714285714287,728.4776785714286,2902.4,1057.5714285714287,728.4776785714286,3002.4,1057.5714285714287,728.4776785714286,3103.2,1057.5714285714287,728.4776785714286,3204.5,1057.5714285714287,728.4776785714286,3308.8,1057.5714285714287,728.4776785714286,3414.3,1057.5714285714287,728.4776785714286,3520.6,1057.5714285714287,728.4776785714286,3627.8,1057.5714285714287,728.4776785714286,3734.6,1057.5714285714287,728.4776785714286,3834.6,1057.5714285714287,728.4776785714286,3939.8,1057.5714285714287,728.4776785714286,4046.3,1057.5714285714287,728.4776785714286,4147.1,1057.5714285714287,728.4776785714286,4247.2,1057.5714285714287,728.4776785714286,4351.2,1057.5714285714287,728.4776785714286,4453.1,1057.5714285714287,728.4776785714286,4554.1,1057.5714285714287,728.4776785714286,4662.5,1057.5714285714287,728.4776785714286,4770.4,1057.5714285714287,728.4776785714286,4877.3,1057.5714285714287,728.4776785714286,4980.1]","[1362,1362,1000,0,362,""smooth"",""down"",""down"",""good_move"",4047,2684.7,2327.4,1362.3,357.3,""smooth"",""right"",""right"",""good_move"",6686.2,2639,2297,4047.2,342,""smooth"",""down"",""down"",""good_move"",9781.3,3094.8,2732.5,6686.5,362.3,""smooth"",""right"",""right"",""good_move"",12293.6,2512,2148.8,9781.6,363.2,""smooth"",""down"",""down"",""good_move"",17167.3,4873.4,771.3,16008.7,387.3,""smooth"",""right"",""right"",""good_move""]","",""
"2584","","<div style=""width:500px;"">
  <p>What determined the result of this run?</p>
  </div>","100","html-slider-response","20","378981","0.0-5.0-1.2","253","1","2025-07-30 08:37:21","1f75c3e559b7213887762d5229550c2b","93.39.139.75","Mozilla/5.0 (Windows NT 10.0; Win64; x64) AppleWebKit/537.36 (KHTML, like Gecko) Chrome/138.0.0.0 Safari/537.36","WebKit","Chrome","138.0.0.0","Windows","10.0","https://app.prolific.com/","it-IT,it;q=0.9,en-US;q=0.8,en;q=0.7","5daae19f8a06b60016d1bc32","6877631c9844ddd5501205fc","6889d9bc53c549d819cba6bc","3","1","5daae19f8a06b60016d1bc32","3","1","2025-07-30T08:43:41.769Z","","","","","","","","","","","AttribQ","","50","","","","","","","","","","","","","","","","","","","","","","","","","","","","",""
"1916","","<div style=""width:500px;"">
  <p>How much control did you have over the ball?</p>
  </div>","100","html-slider-response","21","380898","0.0-5.0-2.2","253","1","2025-07-30 08:37:21","1f75c3e559b7213887762d5229550c2b","93.39.139.75","Mozilla/5.0 (Windows NT 10.0; Win64; x64) AppleWebKit/537.36 (KHTML, like Gecko) Chrome/138.0.0.0 Safari/537.36","WebKit","Chrome","138.0.0.0","Windows","10.0","https://app.prolific.com/","it-IT,it;q=0.9,en-US;q=0.8,en;q=0.7","5daae19f8a06b60016d1bc32","6877631c9844ddd5501205fc","6889d9bc53c549d819cba6bc","3","1","5daae19f8a06b60016d1bc32","3","1","2025-07-30T08:43:43.687Z","","","","","","","","","","","ControlQ","","50","","","","","","","","","","","","","","","","","","","","","","","","","","","","",""
"3285","","<div style=""width:500px;"">
  <p>How would you describe your current emotional state?</p>
  </div>","35","html-slider-response","22","384184","0.0-5.0-3.2","253","1","2025-07-30 08:37:21","1f75c3e559b7213887762d5229550c2b","93.39.139.75","Mozilla/5.0 (Windows NT 10.0; Win64; x64) AppleWebKit/537.36 (KHTML, like Gecko) Chrome/138.0.0.0 Safari/537.36","WebKit","Chrome","138.0.0.0","Windows","10.0","https://app.prolific.com/","it-IT,it;q=0.9,en-US;q=0.8,en;q=0.7","5daae19f8a06b60016d1bc32","6877631c9844ddd5501205fc","6889d9bc53c549d819cba6bc","3","1","5daae19f8a06b60016d1bc32","3","1","2025-07-30T08:43:46.972Z","","","","","","","","","","","StressQ","","50","","","","","","","","","","","","","","","","","","","","","","","","","","","","",""
"2421","","<div style=""width:500px;"">
  <p>What best describes how you currently feel?</p>
  </div>","70","html-slider-response","23","386606","0.0-5.0-4.2","253","1","2025-07-30 08:37:21","1f75c3e559b7213887762d5229550c2b","93.39.139.75","Mozilla/5.0 (Windows NT 10.0; Win64; x64) AppleWebKit/537.36 (KHTML, like Gecko) Chrome/138.0.0.0 Safari/537.36","WebKit","Chrome","138.0.0.0","Windows","10.0","https://app.prolific.com/","it-IT,it;q=0.9,en-US;q=0.8,en;q=0.7","5daae19f8a06b60016d1bc32","6877631c9844ddd5501205fc","6889d9bc53c549d819cba6bc","3","1","5daae19f8a06b60016d1bc32","3","1","2025-07-30T08:43:49.395Z","","","","","","","","","","","MotivationQ","","50","","","","","","","","","","","","","","","","","","","","","","","","","","","","",""
"","","","","ctl-task-cpt","24","432885","0.0-5.0-0.3","253","1","2025-07-30 08:37:21","1f75c3e559b7213887762d5229550c2b","93.39.139.75","Mozilla/5.0 (Windows NT 10.0; Win64; x64) AppleWebKit/537.36 (KHTML, like Gecko) Chrome/138.0.0.0 Safari/537.36","WebKit","Chrome","138.0.0.0","Windows","10.0","https://app.prolific.com/","it-IT,it;q=0.9,en-US;q=0.8,en;q=0.7","5daae19f8a06b60016d1bc32","6877631c9844ddd5501205fc","6889d9bc53c549d819cba6bc","3","1","5daae19f8a06b60016d1bc32","3","1","2025-07-30T08:44:35.673Z","","","","","","","","","","","","","","win-only","2","g1:SE,g2:NW","0.7","4","0","388047.5","1137.3","6146.4","43270.4","1","4","8","6","2","8","8","23","15","0.17424242424242425","1188.5","3000","90","[""left"",""up""]","{""num_key_presses"":10,""num_perfect"":7,""num_errors"":0,""num_randdir"":3,""num_randdir_good_moves"":1,""num_whilered"":0,""num_whileblue"":0,""num_blue"":3,""num_good_moves"":8}","[408.57142857142856,411.47767857142856,0.2,408.57142857142856,411.47767857142856,103,408.57142857142856,411.47767857142856,208.8,408.57142857142856,411.47767857142856,312.9,408.57142857142856,411.47767857142856,412.9,408.57142857142856,411.47767857142856,513.3,408.57142857142856,411.47767857142856,619.6,408.57142857142856,411.47767857142856,719.6,119.57142857142857,183.47767857142856,826.3,67.57142857142857,142.47767857142856,930.9,67.57142857142857,142.47767857142856,1034.8,68.57142857142857,75.47767857142857,1140.6,68.57142857142857,66.47767857142857,1246.6,68.57142857142857,66.47767857142857,1346.6,-115.42857142857143,164.47767857142856,1447.2,-239.42857142857144,248.47767857142856,1557.2,-239.42857142857144,248.47767857142856,1659.5,-239.42857142857144,248.47767857142856,1764,-264.42857142857144,261.47767857142856,1874.6,-264.42857142857144,261.47767857142856,1980.5,-264.42857142857144,261.47767857142856,2082.2,-264.42857142857144,261.47767857142856,2188.8,-264.42857142857144,261.47767857142856,2296.8,-264.42857142857144,261.47767857142856,2397.1,-264.42857142857144,261.47767857142856,2497.9,-264.42857142857144,261.47767857142856,2607.3,-264.42857142857144,261.47767857142856,2708.2,-264.42857142857144,261.47767857142856,2808.3,-264.42857142857144,261.47767857142856,2915,-264.42857142857144,261.47767857142856,3015.1,-264.42857142857144,261.47767857142856,3124.6,-264.42857142857144,261.47767857142856,3224.9,-264.42857142857144,261.47767857142856,3328.1,-264.42857142857144,261.47767857142856,3431.8,-264.42857142857144,261.47767857142856,3533.3,-264.42857142857144,261.47767857142856,3633.4,-264.42857142857144,261.47767857142856,3736.2,-264.42857142857144,261.47767857142856,3844.5,-264.42857142857144,261.47767857142856,3945.9,-264.42857142857144,261.47767857142856,4046.5,-264.42857142857144,261.47767857142856,4149.5,-264.42857142857144,261.47767857142856,4251.5,-264.42857142857144,261.47767857142856,4356.3,-264.42857142857144,261.47767857142856,4456.3,-264.42857142857144,261.47767857142856,4557.4,-264.42857142857144,261.47767857142856,4658,-264.42857142857144,261.47767857142856,4758.4,-264.42857142857144,261.47767857142856,4866.1,-264.42857142857144,261.47767857142856,4976.2]","[8045.5,8045.5,2232.5,5480,333,""smooth"",""left"",""left"",""good_move"",11547.4,3501.5,3062.2,8045.9,439.3,""smooth"",""up"",""up"",""good_move"",13801.7,2254,1828,11547.8,426,""smooth"",""left"",""left"",""good_move"",16976.4,3174.4,2791.8,13802,382.6,""oops"",""up"",""left"",""good_move"",23322.2,6345.6,2439.1,20333.2,549.9,""oops"",""up"",""down"",""bad_move"",25479.1,2156.7,1687.1,23322.5,469.5,""smooth"",""up"",""up"",""good_move"",28293.9,2814.6,2442.2,25479.3,372.4,""smooth"",""up"",""up"",""good_move"",31404.5,3110.3,2764.4,28294.2,345.9,""oops"",""up"",""right"",""bad_move"",34367.8,2963,2582.7,31404.8,380.3,""smooth"",""up"",""up"",""good_move"",37012.7,2644.7,2297.1,34368,347.6,""smooth"",""left"",""left"",""good_move""]","",""
"5867","","<div style=""width:500px;"">
  <p>What determined the result of this run?</p>
  </div>","55","html-slider-response","25","438753","0.0-5.0-1.3","253","1","2025-07-30 08:37:21","1f75c3e559b7213887762d5229550c2b","93.39.139.75","Mozilla/5.0 (Windows NT 10.0; Win64; x64) AppleWebKit/537.36 (KHTML, like Gecko) Chrome/138.0.0.0 Safari/537.36","WebKit","Chrome","138.0.0.0","Windows","10.0","https://app.prolific.com/","it-IT,it;q=0.9,en-US;q=0.8,en;q=0.7","5daae19f8a06b60016d1bc32","6877631c9844ddd5501205fc","6889d9bc53c549d819cba6bc","3","1","5daae19f8a06b60016d1bc32","3","1","2025-07-30T08:44:41.541Z","","","","","","","","","","","AttribQ","","50","","","","","","","","","","","","","","","","","","","","","","","","","","","","",""
"6608","","<div style=""width:500px;"">
  <p>How much control did you have over the ball?</p>
  </div>","52","html-slider-response","26","445361","0.0-5.0-2.3","253","1","2025-07-30 08:37:21","1f75c3e559b7213887762d5229550c2b","93.39.139.75","Mozilla/5.0 (Windows NT 10.0; Win64; x64) AppleWebKit/537.36 (KHTML, like Gecko) Chrome/138.0.0.0 Safari/537.36","WebKit","Chrome","138.0.0.0","Windows","10.0","https://app.prolific.com/","it-IT,it;q=0.9,en-US;q=0.8,en;q=0.7","5daae19f8a06b60016d1bc32","6877631c9844ddd5501205fc","6889d9bc53c549d819cba6bc","3","1","5daae19f8a06b60016d1bc32","3","1","2025-07-30T08:44:48.149Z","","","","","","","","","","","ControlQ","","50","","","","","","","","","","","","","","","","","","","","","","","","","","","","",""
"3929","","<div style=""width:500px;"">
  <p>How would you describe your current emotional state?</p>
  </div>","40","html-slider-response","27","449291","0.0-5.0-3.3","253","1","2025-07-30 08:37:21","1f75c3e559b7213887762d5229550c2b","93.39.139.75","Mozilla/5.0 (Windows NT 10.0; Win64; x64) AppleWebKit/537.36 (KHTML, like Gecko) Chrome/138.0.0.0 Safari/537.36","WebKit","Chrome","138.0.0.0","Windows","10.0","https://app.prolific.com/","it-IT,it;q=0.9,en-US;q=0.8,en;q=0.7","5daae19f8a06b60016d1bc32","6877631c9844ddd5501205fc","6889d9bc53c549d819cba6bc","3","1","5daae19f8a06b60016d1bc32","3","1","2025-07-30T08:44:52.080Z","","","","","","","","","","","StressQ","","50","","","","","","","","","","","","","","","","","","","","","","","","","","","","",""
"3719","","<div style=""width:500px;"">
  <p>What best describes how you currently feel?</p>
  </div>","64","html-slider-response","28","453011","0.0-5.0-4.3","253","1","2025-07-30 08:37:21","1f75c3e559b7213887762d5229550c2b","93.39.139.75","Mozilla/5.0 (Windows NT 10.0; Win64; x64) AppleWebKit/537.36 (KHTML, like Gecko) Chrome/138.0.0.0 Safari/537.36","WebKit","Chrome","138.0.0.0","Windows","10.0","https://app.prolific.com/","it-IT,it;q=0.9,en-US;q=0.8,en;q=0.7","5daae19f8a06b60016d1bc32","6877631c9844ddd5501205fc","6889d9bc53c549d819cba6bc","3","1","5daae19f8a06b60016d1bc32","3","1","2025-07-30T08:44:55.799Z","","","","","","","","","","","MotivationQ","","50","","","","","","","","","","","","","","","","","","","","","","","","","","","","",""
"","","","","ctl-task-cpt","29","514183","0.0-5.0-0.4","253","1","2025-07-30 08:37:21","1f75c3e559b7213887762d5229550c2b","93.39.139.75","Mozilla/5.0 (Windows NT 10.0; Win64; x64) AppleWebKit/537.36 (KHTML, like Gecko) Chrome/138.0.0.0 Safari/537.36","WebKit","Chrome","138.0.0.0","Windows","10.0","https://app.prolific.com/","it-IT,it;q=0.9,en-US;q=0.8,en;q=0.7","5daae19f8a06b60016d1bc32","6877631c9844ddd5501205fc","6889d9bc53c549d819cba6bc","3","1","5daae19f8a06b60016d1bc32","3","1","2025-07-30T08:45:56.971Z","","","","","","","","","","","","","","win-only","0","g1:NW,g2:SE","0.6","5","0","454451.8","1324.3","6329.7","58162.6","1","4","4","6","2","-4","-4","19","23","0.14393939393939395","1053","3000","-2305","[""down"",""right""]","{""num_key_presses"":10,""num_perfect"":6,""num_errors"":0,""num_randdir"":4,""num_randdir_good_moves"":1,""num_whilered"":0,""num_whileblue"":0,""num_blue"":6,""num_good_moves"":7}","[417.57142857142856,413.47767857142856,0.1,417.57142857142856,413.47767857142856,104,417.57142857142856,413.47767857142856,213.2,417.57142857142856,413.47767857142856,314.4,417.57142857142856,413.47767857142856,420.2,417.57142857142856,413.47767857142856,521,417.57142857142856,413.47767857142856,621.5,640.5714285714286,607.4776785714286,728.1,743.5714285714286,727.4776785714286,834,773.5714285714286,783.4776785714286,938.1,777.5714285714286,786.4776785714286,1048,777.5714285714286,786.4776785714286,1154,777.5714285714286,786.4776785714286,1260.6,853.5714285714286,747.4776785714286,1360.7,1006.5714285714286,648.4776785714286,1460.7,1020.5714285714286,639.4776785714286,1561.2,1020.5714285714286,639.4776785714286,1667.9,1020.5714285714286,639.4776785714286,1768.1,1020.5714285714286,639.4776785714286,1871.4,1020.5714285714286,639.4776785714286,1971.5,1020.5714285714286,639.4776785714286,2081.7,1020.5714285714286,639.4776785714286,2182.4,1020.5714285714286,639.4776785714286,2282.9,1020.5714285714286,639.4776785714286,2383,1020.5714285714286,639.4776785714286,2483.1,1020.5714285714286,639.4776785714286,2588.5,1020.5714285714286,639.4776785714286,2698.9,1020.5714285714286,639.4776785714286,2805.4,1020.5714285714286,639.4776785714286,2907.6,1020.5714285714286,639.4776785714286,3017.8,1020.5714285714286,639.4776785714286,3122.4,1020.5714285714286,639.4776785714286,3233.8,1020.5714285714286,639.4776785714286,3338.8,1020.5714285714286,639.4776785714286,3442.4,1020.5714285714286,639.4776785714286,3545.8,1020.5714285714286,639.4776785714286,3647.6,1020.5714285714286,639.4776785714286,3748,1020.5714285714286,639.4776785714286,3855.3,1020.5714285714286,639.4776785714286,3956,1020.5714285714286,639.4776785714286,4056.5,1020.5714285714286,639.4776785714286,4164.2,1020.5714285714286,639.4776785714286,4264.7,1020.5714285714286,639.4776785714286,4370.7,1020.5714285714286,639.4776785714286,4471.1,1020.5714285714286,639.4776785714286,4572.2,1020.5714285714286,639.4776785714286,4678,1020.5714285714286,639.4776785714286,4787.7,1020.5714285714286,639.4776785714286,4888.8,1020.5714285714286,639.4776785714286,4996.2]","[4768.3,4768.3,2425,2002.1,341.2,""smooth"",""down"",""down"",""good_move"",7319.6,2550.9,2217.1,4768.7,333.8,""smooth"",""right"",""right"",""good_move"",9985.9,2665.9,2280.5,7320.1,385.4,""smooth"",""down"",""down"",""good_move"",19720.7,9734.6,2404.8,16921,394.9,""oops"",""right"",""up"",""bad_move"",23041.7,3320.7,2921.4,19721,399.3,""oops"",""right"",""right"",""good_move"",29946.6,6904.5,2739.4,26779,428.2,""oops"",""down"",""left"",""bad_move"",39916.7,9969.8,2460.9,37051.4,404.4,""smooth"",""right"",""right"",""good_move"",42496.5,2579.8,2201.8,39916.7,378,""smooth"",""down"",""down"",""good_move"",45224.8,2728.1,2321,42496.7,407.1,""oops"",""right"",""left"",""bad_move"",49235.2,4010.2,3637.5,45225,372.7,""smooth"",""right"",""right"",""good_move""]","",""
"5241","","<div style=""width:500px;"">
  <p>What determined the result of this run?</p>
  </div>","20","html-slider-response","30","519424","0.0-5.0-1.4","253","1","2025-07-30 08:37:21","1f75c3e559b7213887762d5229550c2b","93.39.139.75","Mozilla/5.0 (Windows NT 10.0; Win64; x64) AppleWebKit/537.36 (KHTML, like Gecko) Chrome/138.0.0.0 Safari/537.36","WebKit","Chrome","138.0.0.0","Windows","10.0","https://app.prolific.com/","it-IT,it;q=0.9,en-US;q=0.8,en;q=0.7","5daae19f8a06b60016d1bc32","6877631c9844ddd5501205fc","6889d9bc53c549d819cba6bc","3","1","5daae19f8a06b60016d1bc32","3","1","2025-07-30T08:46:02.213Z","","","","","","","","","","","AttribQ","","50","","","","","","","","","","","","","","","","","","","","","","","","","","","","",""
"2512","","<div style=""width:500px;"">
  <p>How much control did you have over the ball?</p>
  </div>","17","html-slider-response","31","521938","0.0-5.0-2.4","253","1","2025-07-30 08:37:21","1f75c3e559b7213887762d5229550c2b","93.39.139.75","Mozilla/5.0 (Windows NT 10.0; Win64; x64) AppleWebKit/537.36 (KHTML, like Gecko) Chrome/138.0.0.0 Safari/537.36","WebKit","Chrome","138.0.0.0","Windows","10.0","https://app.prolific.com/","it-IT,it;q=0.9,en-US;q=0.8,en;q=0.7","5daae19f8a06b60016d1bc32","6877631c9844ddd5501205fc","6889d9bc53c549d819cba6bc","3","1","5daae19f8a06b60016d1bc32","3","1","2025-07-30T08:46:04.726Z","","","","","","","","","","","ControlQ","","50","","","","","","","","","","","","","","","","","","","","","","","","","","","","",""
"6077","","<div style=""width:500px;"">
  <p>How would you describe your current emotional state?</p>
  </div>","54","html-slider-response","32","528016","0.0-5.0-3.4","253","1","2025-07-30 08:37:21","1f75c3e559b7213887762d5229550c2b","93.39.139.75","Mozilla/5.0 (Windows NT 10.0; Win64; x64) AppleWebKit/537.36 (KHTML, like Gecko) Chrome/138.0.0.0 Safari/537.36","WebKit","Chrome","138.0.0.0","Windows","10.0","https://app.prolific.com/","it-IT,it;q=0.9,en-US;q=0.8,en;q=0.7","5daae19f8a06b60016d1bc32","6877631c9844ddd5501205fc","6889d9bc53c549d819cba6bc","3","1","5daae19f8a06b60016d1bc32","3","1","2025-07-30T08:46:10.804Z","","","","","","","","","","","StressQ","","50","","","","","","","","","","","","","","","","","","","","","","","","","","","","",""
"3550","","<div style=""width:500px;"">
  <p>What best describes how you currently feel?</p>
  </div>","57","html-slider-response","33","531567","0.0-5.0-4.4","253","1","2025-07-30 08:37:21","1f75c3e559b7213887762d5229550c2b","93.39.139.75","Mozilla/5.0 (Windows NT 10.0; Win64; x64) AppleWebKit/537.36 (KHTML, like Gecko) Chrome/138.0.0.0 Safari/537.36","WebKit","Chrome","138.0.0.0","Windows","10.0","https://app.prolific.com/","it-IT,it;q=0.9,en-US;q=0.8,en;q=0.7","5daae19f8a06b60016d1bc32","6877631c9844ddd5501205fc","6889d9bc53c549d819cba6bc","3","1","5daae19f8a06b60016d1bc32","3","1","2025-07-30T08:46:14.355Z","","","","","","","","","","","MotivationQ","","50","","","","","","","","","","","","","","","","","","","","","","","","","","","","",""
"","","","","ctl-task-cpt","34","578743","0.0-5.0-0.5","253","1","2025-07-30 08:37:21","1f75c3e559b7213887762d5229550c2b","93.39.139.75","Mozilla/5.0 (Windows NT 10.0; Win64; x64) AppleWebKit/537.36 (KHTML, like Gecko) Chrome/138.0.0.0 Safari/537.36","WebKit","Chrome","138.0.0.0","Windows","10.0","https://app.prolific.com/","it-IT,it;q=0.9,en-US;q=0.8,en;q=0.7","5daae19f8a06b60016d1bc32","6877631c9844ddd5501205fc","6889d9bc53c549d819cba6bc","3","1","5daae19f8a06b60016d1bc32","3","1","2025-07-30T08:47:01.531Z","","","","","","","","","","","","","","win-only","0","g1:NW,g2:SE","0.5","6","0","533007.9","970.7","5971.4","44160.6","1","4","8","6","2","-8","-8","11","19","0.08333333333333333","1048.6","3000","-2300","[""down"",""right""]","{""num_key_presses"":10,""num_perfect"":5,""num_errors"":0,""num_randdir"":5,""num_randdir_good_moves"":1,""num_whilered"":0,""num_whileblue"":0,""num_blue"":2,""num_good_moves"":6}","[417.57142857142856,419.47767857142856,0.1,417.57142857142856,419.47767857142856,100.5,417.57142857142856,419.47767857142856,205.1,417.57142857142856,419.47767857142856,305.9,417.57142857142856,419.47767857142856,411.9,417.57142857142856,419.47767857142856,520.6,425.57142857142856,425.47767857142856,621.7,681.5714285714286,640.4776785714286,728.2,752.5714285714286,752.4776785714286,833.7,767.5714285714286,763.4776785714286,934.4,773.5714285714286,764.4776785714286,1039.7,773.5714285714286,764.4776785714286,1140.1,773.5714285714286,764.4776785714286,1240.4,949.5714285714286,666.4776785714286,1345.7,1029.5714285714287,636.4776785714286,1447.3,1029.5714285714287,636.4776785714286,1554.6,1029.5714285714287,636.4776785714286,1656.9,1029.5714285714287,636.4776785714286,1762.8,1029.5714285714287,636.4776785714286,1863.7,1029.5714285714287,636.4776785714286,1963.8,1029.5714285714287,636.4776785714286,2065.7,1029.5714285714287,636.4776785714286,2172.5,1029.5714285714287,636.4776785714286,2273.7,1029.5714285714287,636.4776785714286,2374.6,1029.5714285714287,636.4776785714286,2474.6,1029.5714285714287,636.4776785714286,2574.8,1029.5714285714287,636.4776785714286,2680.3,1029.5714285714287,636.4776785714286,2790.2,1029.5714285714287,636.4776785714286,2893.4,1029.5714285714287,636.4776785714286,2996,1029.5714285714287,636.4776785714286,3103.3,1029.5714285714287,636.4776785714286,3208.3,1029.5714285714287,636.4776785714286,3310.6,1029.5714285714287,636.4776785714286,3412.2,1029.5714285714287,636.4776785714286,3519.5,1029.5714285714287,636.4776785714286,3625.4,1029.5714285714287,636.4776785714286,3734.9,1029.5714285714287,636.4776785714286,3835.4,1029.5714285714287,636.4776785714286,3942.1,1029.5714285714287,636.4776785714286,4051.6,1029.5714285714287,636.4776785714286,4158.3,1029.5714285714287,636.4776785714286,4266.2,1029.5714285714287,636.4776785714286,4373.3,1029.5714285714287,636.4776785714286,4475.1,1029.5714285714287,636.4776785714286,4575.2,1029.5714285714287,636.4776785714286,4675.9,1029.5714285714287,636.4776785714286,4783.9,1029.5714285714287,636.4776785714286,4884.7,1029.5714285714287,636.4776785714286,4992.3]","[1409.1,1409.1,1000,0,409.1,""smooth"",""down"",""down"",""good_move"",3850.1,2440.7,2022.6,1409.4,418.1,""smooth"",""right"",""right"",""good_move"",10297.9,6447.4,2532.6,7392.2,373.1,""oops"",""down"",""left"",""bad_move"",12914.1,2615.9,2221.2,10298.2,394.7,""oops"",""right"",""down"",""good_move"",15691.6,2777.3,2424.3,12914.3,353,""smooth"",""right"",""right"",""good_move"",19368.7,3677,3260.8,15691.7,416.2,""oops"",""right"",""up"",""bad_move"",22131.7,2762.6,2378.2,19369.1,384.4,""smooth"",""right"",""right"",""good_move"",25976,3844.1,3498.1,22131.9,346,""oops"",""down"",""up"",""bad_move"",32665.2,6688.9,2377,29828.7,459.5,""oops"",""down"",""left"",""bad_move"",35398.1,2732.5,2264.3,32665.6,468.2,""smooth"",""down"",""down"",""good_move""]","",""
"2838","","<div style=""width:500px;"">
  <p>What determined the result of this run?</p>
  </div>","0","html-slider-response","35","581582","0.0-5.0-1.5","253","1","2025-07-30 08:37:21","1f75c3e559b7213887762d5229550c2b","93.39.139.75","Mozilla/5.0 (Windows NT 10.0; Win64; x64) AppleWebKit/537.36 (KHTML, like Gecko) Chrome/138.0.0.0 Safari/537.36","WebKit","Chrome","138.0.0.0","Windows","10.0","https://app.prolific.com/","it-IT,it;q=0.9,en-US;q=0.8,en;q=0.7","5daae19f8a06b60016d1bc32","6877631c9844ddd5501205fc","6889d9bc53c549d819cba6bc","3","1","5daae19f8a06b60016d1bc32","3","1","2025-07-30T08:47:04.370Z","","","","","","","","","","","AttribQ","","50","","","","","","","","","","","","","","","","","","","","","","","","","","","","",""
"2783","","<div style=""width:500px;"">
  <p>How much control did you have over the ball?</p>
  </div>","18","html-slider-response","36","584366","0.0-5.0-2.5","253","1","2025-07-30 08:37:21","1f75c3e559b7213887762d5229550c2b","93.39.139.75","Mozilla/5.0 (Windows NT 10.0; Win64; x64) AppleWebKit/537.36 (KHTML, like Gecko) Chrome/138.0.0.0 Safari/537.36","WebKit","Chrome","138.0.0.0","Windows","10.0","https://app.prolific.com/","it-IT,it;q=0.9,en-US;q=0.8,en;q=0.7","5daae19f8a06b60016d1bc32","6877631c9844ddd5501205fc","6889d9bc53c549d819cba6bc","3","1","5daae19f8a06b60016d1bc32","3","1","2025-07-30T08:47:07.154Z","","","","","","","","","","","ControlQ","","50","","","","","","","","","","","","","","","","","","","","","","","","","","","","",""
"3481","","<div style=""width:500px;"">
  <p>How would you describe your current emotional state?</p>
  </div>","82","html-slider-response","37","587848","0.0-5.0-3.5","253","1","2025-07-30 08:37:21","1f75c3e559b7213887762d5229550c2b","93.39.139.75","Mozilla/5.0 (Windows NT 10.0; Win64; x64) AppleWebKit/537.36 (KHTML, like Gecko) Chrome/138.0.0.0 Safari/537.36","WebKit","Chrome","138.0.0.0","Windows","10.0","https://app.prolific.com/","it-IT,it;q=0.9,en-US;q=0.8,en;q=0.7","5daae19f8a06b60016d1bc32","6877631c9844ddd5501205fc","6889d9bc53c549d819cba6bc","3","1","5daae19f8a06b60016d1bc32","3","1","2025-07-30T08:47:10.636Z","","","","","","","","","","","StressQ","","50","","","","","","","","","","","","","","","","","","","","","","","","","","","","",""
"3413","","<div style=""width:500px;"">
  <p>What best describes how you currently feel?</p>
  </div>","45","html-slider-response","38","591261","0.0-5.0-4.5","253","1","2025-07-30 08:37:21","1f75c3e559b7213887762d5229550c2b","93.39.139.75","Mozilla/5.0 (Windows NT 10.0; Win64; x64) AppleWebKit/537.36 (KHTML, like Gecko) Chrome/138.0.0.0 Safari/537.36","WebKit","Chrome","138.0.0.0","Windows","10.0","https://app.prolific.com/","it-IT,it;q=0.9,en-US;q=0.8,en;q=0.7","5daae19f8a06b60016d1bc32","6877631c9844ddd5501205fc","6889d9bc53c549d819cba6bc","3","1","5daae19f8a06b60016d1bc32","3","1","2025-07-30T08:47:14.050Z","","","","","","","","","","","MotivationQ","","50","","","","","","","","","","","","","","","","","","","","","","","","","","","","",""
"","","","","ctl-task-cpt","39","643750","0.0-5.0-0.6","253","1","2025-07-30 08:37:21","1f75c3e559b7213887762d5229550c2b","93.39.139.75","Mozilla/5.0 (Windows NT 10.0; Win64; x64) AppleWebKit/537.36 (KHTML, like Gecko) Chrome/138.0.0.0 Safari/537.36","WebKit","Chrome","138.0.0.0","Windows","10.0","https://app.prolific.com/","it-IT,it;q=0.9,en-US;q=0.8,en;q=0.7","5daae19f8a06b60016d1bc32","6877631c9844ddd5501205fc","6889d9bc53c549d819cba6bc","3","1","5daae19f8a06b60016d1bc32","3","1","2025-07-30T08:48:06.538Z","","","","","","","","","","","","","","win-only","3","g1:SW,g2:NE","0.4","7","0","592702.2","1148.1","6158","49482","1","4","8","6","2","-8","-9","2","11","0.015151515151515152","941.8","3000","-2345","[""up"",""right""]","{""num_key_presses"":11,""num_perfect"":4,""num_errors"":1,""num_randdir"":6,""num_randdir_good_moves"":3,""num_whilered"":0,""num_whileblue"":1,""num_blue"":4,""num_good_moves"":7}","[423.57142857142856,420.47767857142856,0.1,423.57142857142856,420.47767857142856,108.6,423.57142857142856,420.47767857142856,208.6,423.57142857142856,420.47767857142856,312.5,423.57142857142856,420.47767857142856,413.4,423.57142857142856,420.47767857142856,520.2,589.5714285714286,245.47767857142856,621.5,780.5714285714286,95.47767857142857,726.8,783.5714285714286,90.47767857142857,829.8,783.5714285714286,89.47767857142857,934.7,783.5714285714286,89.47767857142857,1038.1,783.5714285714286,89.47767857142857,1147.6,783.5714285714286,89.47767857142857,1253.4,789.5714285714286,93.47767857142857,1354.7,995.5714285714286,278.47767857142856,1461.9,1026.5714285714287,369.47767857142856,1562.3,1026.5714285714287,369.47767857142856,1664.5,1026.5714285714287,369.47767857142856,1771.7,1026.5714285714287,369.47767857142856,1872,1026.5714285714287,369.47767857142856,1978.3,1026.5714285714287,369.47767857142856,2079.9,1026.5714285714287,369.47767857142856,2180.8,1026.5714285714287,369.47767857142856,2280.7,1026.5714285714287,369.47767857142856,2387.8,1026.5714285714287,369.47767857142856,2497.2,1026.5714285714287,369.47767857142856,2605.1,1026.5714285714287,369.47767857142856,2705.1,1026.5714285714287,369.47767857142856,2809.9,1026.5714285714287,369.47767857142856,2914.5,1026.5714285714287,369.47767857142856,3025,1026.5714285714287,369.47767857142856,3131.2,1026.5714285714287,369.47767857142856,3231.2,1026.5714285714287,369.47767857142856,3331.3,1026.5714285714287,369.47767857142856,3431.7,1026.5714285714287,369.47767857142856,3539.6,1026.5714285714287,369.47767857142856,3640.9,1026.5714285714287,369.47767857142856,3745.6,1026.5714285714287,369.47767857142856,3847.3,1026.5714285714287,369.47767857142856,3952,1026.5714285714287,369.47767857142856,4060.3,1026.5714285714287,369.47767857142856,4164.9,1026.5714285714287,369.47767857142856,4265.4,1026.5714285714287,369.47767857142856,4365.4,1026.5714285714287,369.47767857142856,4465.7,1026.5714285714287,369.47767857142856,4567.6,1026.5714285714287,369.47767857142856,4677.8,1026.5714285714287,369.47767857142856,4782.7,1026.5714285714287,369.47767857142856,4894.3,1026.5714285714287,369.47767857142856,4999.5]","[4796,4796,2417.9,2007.5,370.6,""oops"",""right"",""up"",""good_move"",7669.5,2873.2,2457.2,4796.3,416,""smooth"",""right"",""right"",""good_move"",10640,2970.1,2611.5,7669.9,358.6,""smooth"",""right"",""right"",""good_move"",13215.8,2575.5,2208.6,10640.3,366.9,""smooth"",""up"",""up"",""good_move"",16316.2,3100.1,2729.2,13216.1,370.9,""oops"",""up"",""down"",""bad_move"",22739.1,6422.5,2509.7,19782.1,447.3,""oops"",""up"",""up"",""good_move"",25958.5,3219.2,2841.2,22739.3,378,""smooth"",""up"",""up"",""good_move"",29026.9,3068.2,2736.6,25958.7,331.6,""while_blue"",""right"",""left"",""bad_move"",31714.9,2687.5,2294.7,29027.4,392.8,""oops"",""right"",""down"",""bad_move"",34986.3,3271.2,2866.5,31715.1,404.7,""oops"",""right"",""right"",""good_move"",41309.3,6322.5,2222,38740.7,346.6,""oops"",""right"",""down"",""bad_move""]","",""
"3094","","<div style=""width:500px;"">
  <p>What determined the result of this run?</p>
  </div>","5","html-slider-response","40","646844","0.0-5.0-1.6","253","1","2025-07-30 08:37:21","1f75c3e559b7213887762d5229550c2b","93.39.139.75","Mozilla/5.0 (Windows NT 10.0; Win64; x64) AppleWebKit/537.36 (KHTML, like Gecko) Chrome/138.0.0.0 Safari/537.36","WebKit","Chrome","138.0.0.0","Windows","10.0","https://app.prolific.com/","it-IT,it;q=0.9,en-US;q=0.8,en;q=0.7","5daae19f8a06b60016d1bc32","6877631c9844ddd5501205fc","6889d9bc53c549d819cba6bc","3","1","5daae19f8a06b60016d1bc32","3","1","2025-07-30T08:48:09.633Z","","","","","","","","","","","AttribQ","","50","","","","","","","","","","","","","","","","","","","","","","","","","","","","",""
"3901","","<div style=""width:500px;"">
  <p>How much control did you have over the ball?</p>
  </div>","7","html-slider-response","41","650746","0.0-5.0-2.6","253","1","2025-07-30 08:37:21","1f75c3e559b7213887762d5229550c2b","93.39.139.75","Mozilla/5.0 (Windows NT 10.0; Win64; x64) AppleWebKit/537.36 (KHTML, like Gecko) Chrome/138.0.0.0 Safari/537.36","WebKit","Chrome","138.0.0.0","Windows","10.0","https://app.prolific.com/","it-IT,it;q=0.9,en-US;q=0.8,en;q=0.7","5daae19f8a06b60016d1bc32","6877631c9844ddd5501205fc","6889d9bc53c549d819cba6bc","3","1","5daae19f8a06b60016d1bc32","3","1","2025-07-30T08:48:13.535Z","","","","","","","","","","","ControlQ","","50","","","","","","","","","","","","","","","","","","","","","","","","","","","","",""
"2304","","<div style=""width:500px;"">
  <p>How would you describe your current emotional state?</p>
  </div>","100","html-slider-response","42","653052","0.0-5.0-3.6","253","1","2025-07-30 08:37:21","1f75c3e559b7213887762d5229550c2b","93.39.139.75","Mozilla/5.0 (Windows NT 10.0; Win64; x64) AppleWebKit/537.36 (KHTML, like Gecko) Chrome/138.0.0.0 Safari/537.36","WebKit","Chrome","138.0.0.0","Windows","10.0","https://app.prolific.com/","it-IT,it;q=0.9,en-US;q=0.8,en;q=0.7","5daae19f8a06b60016d1bc32","6877631c9844ddd5501205fc","6889d9bc53c549d819cba6bc","3","1","5daae19f8a06b60016d1bc32","3","1","2025-07-30T08:48:15.840Z","","","","","","","","","","","StressQ","","50","","","","","","","","","","","","","","","","","","","","","","","","","","","","",""
"2286","","<div style=""width:500px;"">
  <p>What best describes how you currently feel?</p>
  </div>","20","html-slider-response","43","655339","0.0-5.0-4.6","253","1","2025-07-30 08:37:21","1f75c3e559b7213887762d5229550c2b","93.39.139.75","Mozilla/5.0 (Windows NT 10.0; Win64; x64) AppleWebKit/537.36 (KHTML, like Gecko) Chrome/138.0.0.0 Safari/537.36","WebKit","Chrome","138.0.0.0","Windows","10.0","https://app.prolific.com/","it-IT,it;q=0.9,en-US;q=0.8,en;q=0.7","5daae19f8a06b60016d1bc32","6877631c9844ddd5501205fc","6889d9bc53c549d819cba6bc","3","1","5daae19f8a06b60016d1bc32","3","1","2025-07-30T08:48:18.127Z","","","","","","","","","","","MotivationQ","","50","","","","","","","","","","","","","","","","","","","","","","","","","","","","",""
"","","","","ctl-task-cpt","44","698843","0.0-5.0-0.7","253","1","2025-07-30 08:37:21","1f75c3e559b7213887762d5229550c2b","93.39.139.75","Mozilla/5.0 (Windows NT 10.0; Win64; x64) AppleWebKit/537.36 (KHTML, like Gecko) Chrome/138.0.0.0 Safari/537.36","WebKit","Chrome","138.0.0.0","Windows","10.0","https://app.prolific.com/","it-IT,it;q=0.9,en-US;q=0.8,en;q=0.7","5daae19f8a06b60016d1bc32","6877631c9844ddd5501205fc","6889d9bc53c549d819cba6bc","3","1","5daae19f8a06b60016d1bc32","3","1","2025-07-30T08:49:01.631Z","","","","","","","","","","","","","","win-only","1","g1:NE,g2:SW","0.3","8","0","656780.1","990.9","5994.3","40499.9","1","4","4","6","2","4","4","6","2","0.045454545454545456","1252","3000","585","[""down"",""left""]","{""num_key_presses"":8,""num_perfect"":3,""num_errors"":0,""num_randdir"":5,""num_randdir_good_moves"":4,""num_whilered"":0,""num_whileblue"":0,""num_blue"":3,""num_good_moves"":7}","[412.57142857142856,413.47767857142856,0.1,412.57142857142856,413.47767857142856,105.9,412.57142857142856,413.47767857142856,211,412.57142857142856,413.47767857142856,311.2,412.57142857142856,413.47767857142856,414.7,412.57142857142856,413.47767857142856,515.1,412.57142857142856,413.47767857142856,623.7,210.57142857142856,598.4776785714286,725,134.57142857142856,699.4776785714286,827.6,134.57142857142856,699.4776785714286,933.5,134.57142857142856,699.4776785714286,1039.8,84.57142857142857,734.4776785714286,1139.9,70.57142857142857,746.4776785714286,1240.3,70.57142857142857,746.4776785714286,1349.5,70.57142857142857,746.4776785714286,1450.9,70.57142857142857,746.4776785714286,1557.6,-97.42857142857143,683.4776785714286,1661.1,-125.42857142857143,666.4776785714286,1764.4,-125.42857142857143,666.4776785714286,1865.8,-125.42857142857143,666.4776785714286,1974.3,-125.42857142857143,666.4776785714286,2077.1,-125.42857142857143,666.4776785714286,2189,-125.42857142857143,666.4776785714286,2290.5,-125.42857142857143,666.4776785714286,2401.1,-125.42857142857143,666.4776785714286,2504.5,-125.42857142857143,666.4776785714286,2607.2,-125.42857142857143,666.4776785714286,2707.3,-125.42857142857143,666.4776785714286,2808,-125.42857142857143,666.4776785714286,2908.1,-125.42857142857143,666.4776785714286,3008.4,-125.42857142857143,666.4776785714286,3109.8,-125.42857142857143,666.4776785714286,3211.8,-125.42857142857143,666.4776785714286,3320,-125.42857142857143,666.4776785714286,3423.7,-125.42857142857143,666.4776785714286,3524,-125.42857142857143,666.4776785714286,3625,-125.42857142857143,666.4776785714286,3725.6,-125.42857142857143,666.4776785714286,3834.8,-125.42857142857143,666.4776785714286,3935.4,-125.42857142857143,666.4776785714286,4036.1,-125.42857142857143,666.4776785714286,4142.1,-125.42857142857143,666.4776785714286,4245.8,-125.42857142857143,666.4776785714286,4354,-125.42857142857143,666.4776785714286,4458.3,-125.42857142857143,666.4776785714286,4563.4,-125.42857142857143,666.4776785714286,4670.5,-125.42857142857143,666.4776785714286,4771.1,-125.42857142857143,666.4776785714286,4875.5,-125.42857142857143,666.4776785714286,4975.7]","[4374.6,4374.6,2008.4,2007.2,359,""smooth"",""down"",""down"",""good_move"",8010,3635,3232.7,4375,402.3,""oops"",""left"",""left"",""good_move"",11010.3,2999.9,2617.8,8010.4,382.1,""smooth"",""left"",""left"",""good_move"",14426.6,3416,3011.8,11010.6,404.2,""oops"",""down"",""right"",""bad_move"",24956.7,10529.7,3121.3,21331.6,503.8,""oops"",""down"",""left"",""good_move"",28022.3,3065.4,2631.1,24956.9,434.3,""oops"",""down"",""down"",""good_move"",31693.3,3670.7,3167.3,28022.7,503.3,""oops"",""down"",""left"",""good_move"",34370.9,2677.5,2294.9,31693.5,382.6,""smooth"",""down"",""down"",""good_move""]","",""
"4819","","<div style=""width:500px;"">
  <p>What determined the result of this run?</p>
  </div>","50","html-slider-response","45","703663","0.0-5.0-1.7","253","1","2025-07-30 08:37:21","1f75c3e559b7213887762d5229550c2b","93.39.139.75","Mozilla/5.0 (Windows NT 10.0; Win64; x64) AppleWebKit/537.36 (KHTML, like Gecko) Chrome/138.0.0.0 Safari/537.36","WebKit","Chrome","138.0.0.0","Windows","10.0","https://app.prolific.com/","it-IT,it;q=0.9,en-US;q=0.8,en;q=0.7","5daae19f8a06b60016d1bc32","6877631c9844ddd5501205fc","6889d9bc53c549d819cba6bc","3","1","5daae19f8a06b60016d1bc32","3","1","2025-07-30T08:49:06.451Z","","","","","","","","","","","AttribQ","","50","","","","","","","","","","","","","","","","","","","","","","","","","","","","",""
"3510","","<div style=""width:500px;"">
  <p>How much control did you have over the ball?</p>
  </div>","53","html-slider-response","46","707174","0.0-5.0-2.7","253","1","2025-07-30 08:37:21","1f75c3e559b7213887762d5229550c2b","93.39.139.75","Mozilla/5.0 (Windows NT 10.0; Win64; x64) AppleWebKit/537.36 (KHTML, like Gecko) Chrome/138.0.0.0 Safari/537.36","WebKit","Chrome","138.0.0.0","Windows","10.0","https://app.prolific.com/","it-IT,it;q=0.9,en-US;q=0.8,en;q=0.7","5daae19f8a06b60016d1bc32","6877631c9844ddd5501205fc","6889d9bc53c549d819cba6bc","3","1","5daae19f8a06b60016d1bc32","3","1","2025-07-30T08:49:09.962Z","","","","","","","","","","","ControlQ","","50","","","","","","","","","","","","","","","","","","","","","","","","","","","","",""
"5531","","<div style=""width:500px;"">
  <p>How would you describe your current emotional state?</p>
  </div>","97","html-slider-response","47","712705","0.0-5.0-3.7","253","1","2025-07-30 08:37:21","1f75c3e559b7213887762d5229550c2b","93.39.139.75","Mozilla/5.0 (Windows NT 10.0; Win64; x64) AppleWebKit/537.36 (KHTML, like Gecko) Chrome/138.0.0.0 Safari/537.36","WebKit","Chrome","138.0.0.0","Windows","10.0","https://app.prolific.com/","it-IT,it;q=0.9,en-US;q=0.8,en;q=0.7","5daae19f8a06b60016d1bc32","6877631c9844ddd5501205fc","6889d9bc53c549d819cba6bc","3","1","5daae19f8a06b60016d1bc32","3","1","2025-07-30T08:49:15.494Z","","","","","","","","","","","StressQ","","50","","","","","","","","","","","","","","","","","","","","","","","","","","","","",""
"3084","","<div style=""width:500px;"">
  <p>What best describes how you currently feel?</p>
  </div>","16","html-slider-response","48","715790","0.0-5.0-4.7","253","1","2025-07-30 08:37:21","1f75c3e559b7213887762d5229550c2b","93.39.139.75","Mozilla/5.0 (Windows NT 10.0; Win64; x64) AppleWebKit/537.36 (KHTML, like Gecko) Chrome/138.0.0.0 Safari/537.36","WebKit","Chrome","138.0.0.0","Windows","10.0","https://app.prolific.com/","it-IT,it;q=0.9,en-US;q=0.8,en;q=0.7","5daae19f8a06b60016d1bc32","6877631c9844ddd5501205fc","6889d9bc53c549d819cba6bc","3","1","5daae19f8a06b60016d1bc32","3","1","2025-07-30T08:49:18.578Z","","","","","","","","","","","MotivationQ","","50","","","","","","","","","","","","","","","","","","","","","","","","","","","","",""
"","","","","ctl-task-cpt","49","759134","0.0-5.0-0.8","253","1","2025-07-30 08:37:21","1f75c3e559b7213887762d5229550c2b","93.39.139.75","Mozilla/5.0 (Windows NT 10.0; Win64; x64) AppleWebKit/537.36 (KHTML, like Gecko) Chrome/138.0.0.0 Safari/537.36","WebKit","Chrome","138.0.0.0","Windows","10.0","https://app.prolific.com/","it-IT,it;q=0.9,en-US;q=0.8,en;q=0.7","5daae19f8a06b60016d1bc32","6877631c9844ddd5501205fc","6889d9bc53c549d819cba6bc","3","1","5daae19f8a06b60016d1bc32","3","1","2025-07-30T08:50:01.922Z","","","","","","","","","","","","","","win-only","1","g1:NE,g2:SW","0.2","9","0","717231.3","1059.9","6061.5","40327","1","4","4","6","2","4","4","10","6","0.07575757575757576","1040.1","3000","155","[""down"",""left""]","{""num_key_presses"":10,""num_perfect"":2,""num_errors"":0,""num_randdir"":8,""num_randdir_good_moves"":6,""num_whilered"":0,""num_whileblue"":0,""num_blue"":2,""num_good_moves"":8}","[419.57142857142856,422.47767857142856,0.2,419.57142857142856,422.47767857142856,101.4,419.57142857142856,422.47767857142856,205.1,419.57142857142856,422.47767857142856,311.6,419.57142857142856,422.47767857142856,413.8,419.57142857142856,422.47767857142856,515.3,419.57142857142856,422.47767857142856,615.3,230.57142857142856,580.4776785714286,719.9,80.57142857142857,753.4776785714286,820.2,67.57142857142857,760.4776785714286,923.5,65.57142857142857,760.4776785714286,1030.8,65.57142857142857,760.4776785714286,1138.9,65.57142857142857,760.4776785714286,1245.7,-67.42857142857143,731.4776785714286,1351.9,-192.42857142857144,691.4776785714286,1459,-192.42857142857144,691.4776785714286,1564.3,-192.42857142857144,691.4776785714286,1665.6,-192.42857142857144,691.4776785714286,1766.4,-192.42857142857144,691.4776785714286,1867.2,-192.42857142857144,691.4776785714286,1967.5,-192.42857142857144,691.4776785714286,2075.5,-192.42857142857144,691.4776785714286,2181.6,-192.42857142857144,691.4776785714286,2283.8,-192.42857142857144,691.4776785714286,2385.3,-192.42857142857144,691.4776785714286,2490.4,-192.42857142857144,691.4776785714286,2590.7,-192.42857142857144,691.4776785714286,2697.2,-192.42857142857144,691.4776785714286,2798.4,-192.42857142857144,691.4776785714286,2899.8,-192.42857142857144,691.4776785714286,3000.5,-192.42857142857144,691.4776785714286,3100.6,-192.42857142857144,691.4776785714286,3205,-192.42857142857144,691.4776785714286,3305.3,-192.42857142857144,691.4776785714286,3409,-192.42857142857144,691.4776785714286,3509.7,-192.42857142857144,691.4776785714286,3615.5,-192.42857142857144,691.4776785714286,3717.4,-192.42857142857144,691.4776785714286,3820.4,-192.42857142857144,691.4776785714286,3926.1,-192.42857142857144,691.4776785714286,4026.2,-192.42857142857144,691.4776785714286,4131.2,-192.42857142857144,691.4776785714286,4236.8,-192.42857142857144,691.4776785714286,4338.1,-192.42857142857144,691.4776785714286,4446.1,-192.42857142857144,691.4776785714286,4546.5,-192.42857142857144,691.4776785714286,4650.9,-192.42857142857144,691.4776785714286,4751.3,-192.42857142857144,691.4776785714286,4857.8,-192.42857142857144,691.4776785714286,4961.5]","[4696.9,4696.9,2227.5,2016.5,452.9,""smooth"",""down"",""down"",""good_move"",7821.9,3124.6,2718,4697.3,406.6,""oops"",""left"",""down"",""good_move"",10672.8,2850.7,2476.4,7822.1,374.3,""smooth"",""left"",""left"",""good_move"",13059.3,2386.2,2019.5,10673.1,366.7,""oops"",""left"",""left"",""good_move"",15774.2,2714.6,2297.6,13059.6,417,""oops"",""down"",""down"",""good_move"",18573.4,2799,2473.6,15774.4,325.4,""oops"",""left"",""up"",""bad_move"",21573,2999.4,2643.8,18573.6,355.6,""oops"",""down"",""down"",""good_move"",24428.3,2855,2468.4,21573.3,386.6,""oops"",""left"",""up"",""bad_move"",27619.7,3191.3,2733.7,24428.4,457.6,""oops"",""left"",""left"",""good_move"",34138.4,6518.2,2328.7,31449,360.7,""oops"",""down"",""down"",""good_move""]","",""
"3946","","<div style=""width:500px;"">
  <p>What determined the result of this run?</p>
  </div>","50","html-slider-response","50","763081","0.0-5.0-1.8","253","1","2025-07-30 08:37:21","1f75c3e559b7213887762d5229550c2b","93.39.139.75","Mozilla/5.0 (Windows NT 10.0; Win64; x64) AppleWebKit/537.36 (KHTML, like Gecko) Chrome/138.0.0.0 Safari/537.36","WebKit","Chrome","138.0.0.0","Windows","10.0","https://app.prolific.com/","it-IT,it;q=0.9,en-US;q=0.8,en;q=0.7","5daae19f8a06b60016d1bc32","6877631c9844ddd5501205fc","6889d9bc53c549d819cba6bc","3","1","5daae19f8a06b60016d1bc32","3","1","2025-07-30T08:50:05.869Z","","","","","","","","","","","AttribQ","","50","","","","","","","","","","","","","","","","","","","","","","","","","","","","",""
"3386","","<div style=""width:500px;"">
  <p>How much control did you have over the ball?</p>
  </div>","50","html-slider-response","51","766468","0.0-5.0-2.8","253","1","2025-07-30 08:37:21","1f75c3e559b7213887762d5229550c2b","93.39.139.75","Mozilla/5.0 (Windows NT 10.0; Win64; x64) AppleWebKit/537.36 (KHTML, like Gecko) Chrome/138.0.0.0 Safari/537.36","WebKit","Chrome","138.0.0.0","Windows","10.0","https://app.prolific.com/","it-IT,it;q=0.9,en-US;q=0.8,en;q=0.7","5daae19f8a06b60016d1bc32","6877631c9844ddd5501205fc","6889d9bc53c549d819cba6bc","3","1","5daae19f8a06b60016d1bc32","3","1","2025-07-30T08:50:09.256Z","","","","","","","","","","","ControlQ","","50","","","","","","","","","","","","","","","","","","","","","","","","","","","","",""
"4287","","<div style=""width:500px;"">
  <p>How would you describe your current emotional state?</p>
  </div>","93","html-slider-response","52","770756","0.0-5.0-3.8","253","1","2025-07-30 08:37:21","1f75c3e559b7213887762d5229550c2b","93.39.139.75","Mozilla/5.0 (Windows NT 10.0; Win64; x64) AppleWebKit/537.36 (KHTML, like Gecko) Chrome/138.0.0.0 Safari/537.36","WebKit","Chrome","138.0.0.0","Windows","10.0","https://app.prolific.com/","it-IT,it;q=0.9,en-US;q=0.8,en;q=0.7","5daae19f8a06b60016d1bc32","6877631c9844ddd5501205fc","6889d9bc53c549d819cba6bc","3","1","5daae19f8a06b60016d1bc32","3","1","2025-07-30T08:50:13.544Z","","","","","","","","","","","StressQ","","50","","","","","","","","","","","","","","","","","","","","","","","","","","","","",""
"2678","","<div style=""width:500px;"">
  <p>What best describes how you currently feel?</p>
  </div>","23","html-slider-response","53","773435","0.0-5.0-4.8","253","1","2025-07-30 08:37:21","1f75c3e559b7213887762d5229550c2b","93.39.139.75","Mozilla/5.0 (Windows NT 10.0; Win64; x64) AppleWebKit/537.36 (KHTML, like Gecko) Chrome/138.0.0.0 Safari/537.36","WebKit","Chrome","138.0.0.0","Windows","10.0","https://app.prolific.com/","it-IT,it;q=0.9,en-US;q=0.8,en;q=0.7","5daae19f8a06b60016d1bc32","6877631c9844ddd5501205fc","6889d9bc53c549d819cba6bc","3","1","5daae19f8a06b60016d1bc32","3","1","2025-07-30T08:50:16.223Z","","","","","","","","","","","MotivationQ","","50","","","","","","","","","","","","","","","","","","","","","","","","","","","","",""
"","","","","ctl-task-cpt","54","825032","0.0-5.0-0.9","253","1","2025-07-30 08:37:21","1f75c3e559b7213887762d5229550c2b","93.39.139.75","Mozilla/5.0 (Windows NT 10.0; Win64; x64) AppleWebKit/537.36 (KHTML, like Gecko) Chrome/138.0.0.0 Safari/537.36","WebKit","Chrome","138.0.0.0","Windows","10.0","https://app.prolific.com/","it-IT,it;q=0.9,en-US;q=0.8,en;q=0.7","5daae19f8a06b60016d1bc32","6877631c9844ddd5501205fc","6889d9bc53c549d819cba6bc","3","1","5daae19f8a06b60016d1bc32","3","1","2025-07-30T08:51:07.821Z","","","","","","","","","","","","","","win-only","2","g1:SE,g2:NW","0.4","10","0","774876.1","849.3","5851.7","48581.2","1","4","8","6","2","-8","-10","0","10","0","1247.9","3000","-2340","[""left"",""up""]","{""num_key_presses"":12,""num_perfect"":4,""num_errors"":2,""num_randdir"":6,""num_randdir_good_moves"":3,""num_whilered"":0,""num_whileblue"":1,""num_blue"":3,""num_good_moves"":8}","[410.57142857142856,427.47767857142856,0.2,410.57142857142856,427.47767857142856,100.2,410.57142857142856,427.47767857142856,205.8,410.57142857142856,427.47767857142856,306.7,410.57142857142856,427.47767857142856,407.2,410.57142857142856,427.47767857142856,515.1,410.57142857142856,427.47767857142856,616,410.57142857142856,427.47767857142856,716.8,216.57142857142856,277.47767857142856,823.8,65.57142857142857,142.47767857142856,926,65.57142857142857,142.47767857142856,1027,65.57142857142857,142.47767857142856,1136.9,65.57142857142857,111.47767857142857,1241,65.57142857142857,111.47767857142857,1341.2,65.57142857142857,111.47767857142857,1442.7,-66.42857142857143,155.47767857142856,1553.9,-157.42857142857144,193.47767857142856,1656.8,-157.42857142857144,193.47767857142856,1758.8,-157.42857142857144,193.47767857142856,1860.4,-157.42857142857144,193.47767857142856,1961.7,-157.42857142857144,193.47767857142856,2061.9,-157.42857142857144,193.47767857142856,2171.9,-157.42857142857144,193.47767857142856,2274.6,-157.42857142857144,193.47767857142856,2375.7,-157.42857142857144,193.47767857142856,2476.6,-157.42857142857144,193.47767857142856,2577.3,-157.42857142857144,193.47767857142856,2682.8,-157.42857142857144,193.47767857142856,2790.4,-157.42857142857144,193.47767857142856,2892.6,-157.42857142857144,193.47767857142856,2993.4,-157.42857142857144,193.47767857142856,3093.7,-157.42857142857144,193.47767857142856,3196.9,-157.42857142857144,193.47767857142856,3305.8,-157.42857142857144,193.47767857142856,3411.8,-157.42857142857144,193.47767857142856,3521.5,-157.42857142857144,193.47767857142856,3627,-157.42857142857144,193.47767857142856,3736.9,-157.42857142857144,193.47767857142856,3845.3,-157.42857142857144,193.47767857142856,3952.6,-157.42857142857144,193.47767857142856,4061.3,-157.42857142857144,193.47767857142856,4169.1,-157.42857142857144,193.47767857142856,4269.4,-157.42857142857144,193.47767857142856,4377.9,-157.42857142857144,193.47767857142856,4478,-157.42857142857144,193.47767857142856,4585.5,-157.42857142857144,193.47767857142856,4686.4,-157.42857142857144,193.47767857142856,4794.6,-157.42857142857144,193.47767857142856,4901.8]","[1433.1,1433.1,1000,0,433.1,""smooth"",""left"",""left"",""good_move"",5212.8,3779.3,3393.9,1433.5,385.4,""smooth"",""up"",""up"",""good_move"",7776.8,2563.7,2176.3,5213.1,387.4,""oops"",""left"",""up"",""good_move"",10511.4,2734.3,2374.9,7777.1,359.4,""oops"",""left"",""down"",""bad_move"",13542.4,3030.7,2663.7,10511.7,367,""oops"",""left"",""down"",""bad_move"",19147.7,5605,2173.7,16549.7,424.3,""oops"",""up"",""down"",""bad_move"",25225.6,6077.7,2553.9,22237.4,434.3,""oops"",""up"",""left"",""good_move"",27039.6,1813.7,1364.4,25225.9,449.3,""oops"",""up"",""up"",""good_move"",29717.9,2678,2294.7,27039.9,383.3,""smooth"",""up"",""up"",""good_move"",33099.9,3381.7,3131.5,29718.2,250.2,""while_blue"",""up"",""up"",""good_move"",36062.5,2962.4,2568.4,33100.2,394,""smooth"",""left"",""left"",""good_move"",38529.9,2466.9,2801.2,36063,-334.3,""error"",""-"",""-"",""no_move""]","",""
"3706","","<div style=""width:500px;"">
  <p>What determined the result of this run?</p>
  </div>","25","html-slider-response","55","828740","0.0-5.0-1.9","253","1","2025-07-30 08:37:21","1f75c3e559b7213887762d5229550c2b","93.39.139.75","Mozilla/5.0 (Windows NT 10.0; Win64; x64) AppleWebKit/537.36 (KHTML, like Gecko) Chrome/138.0.0.0 Safari/537.36","WebKit","Chrome","138.0.0.0","Windows","10.0","https://app.prolific.com/","it-IT,it;q=0.9,en-US;q=0.8,en;q=0.7","5daae19f8a06b60016d1bc32","6877631c9844ddd5501205fc","6889d9bc53c549d819cba6bc","3","1","5daae19f8a06b60016d1bc32","3","1","2025-07-30T08:51:11.528Z","","","","","","","","","","","AttribQ","","50","","","","","","","","","","","","","","","","","","","","","","","","","","","","",""
"3554","","<div style=""width:500px;"">
  <p>How much control did you have over the ball?</p>
  </div>","13","html-slider-response","56","832295","0.0-5.0-2.9","253","1","2025-07-30 08:37:21","1f75c3e559b7213887762d5229550c2b","93.39.139.75","Mozilla/5.0 (Windows NT 10.0; Win64; x64) AppleWebKit/537.36 (KHTML, like Gecko) Chrome/138.0.0.0 Safari/537.36","WebKit","Chrome","138.0.0.0","Windows","10.0","https://app.prolific.com/","it-IT,it;q=0.9,en-US;q=0.8,en;q=0.7","5daae19f8a06b60016d1bc32","6877631c9844ddd5501205fc","6889d9bc53c549d819cba6bc","3","1","5daae19f8a06b60016d1bc32","3","1","2025-07-30T08:51:15.083Z","","","","","","","","","","","ControlQ","","50","","","","","","","","","","","","","","","","","","","","","","","","","","","","",""
"2216","","<div style=""width:500px;"">
  <p>How would you describe your current emotional state?</p>
  </div>","100","html-slider-response","57","834512","0.0-5.0-3.9","253","1","2025-07-30 08:37:21","1f75c3e559b7213887762d5229550c2b","93.39.139.75","Mozilla/5.0 (Windows NT 10.0; Win64; x64) AppleWebKit/537.36 (KHTML, like Gecko) Chrome/138.0.0.0 Safari/537.36","WebKit","Chrome","138.0.0.0","Windows","10.0","https://app.prolific.com/","it-IT,it;q=0.9,en-US;q=0.8,en;q=0.7","5daae19f8a06b60016d1bc32","6877631c9844ddd5501205fc","6889d9bc53c549d819cba6bc","3","1","5daae19f8a06b60016d1bc32","3","1","2025-07-30T08:51:17.301Z","","","","","","","","","","","StressQ","","50","","","","","","","","","","","","","","","","","","","","","","","","","","","","",""
"2310","","<div style=""width:500px;"">
  <p>What best describes how you currently feel?</p>
  </div>","4","html-slider-response","58","836824","0.0-5.0-4.9","253","1","2025-07-30 08:37:21","1f75c3e559b7213887762d5229550c2b","93.39.139.75","Mozilla/5.0 (Windows NT 10.0; Win64; x64) AppleWebKit/537.36 (KHTML, like Gecko) Chrome/138.0.0.0 Safari/537.36","WebKit","Chrome","138.0.0.0","Windows","10.0","https://app.prolific.com/","it-IT,it;q=0.9,en-US;q=0.8,en;q=0.7","5daae19f8a06b60016d1bc32","6877631c9844ddd5501205fc","6889d9bc53c549d819cba6bc","3","1","5daae19f8a06b60016d1bc32","3","1","2025-07-30T08:51:19.612Z","","","","","","","","","","","MotivationQ","","50","","","","","","","","","","","","","","","","","","","","","","","","","","","","",""
"","","","","ctl-task-cpt","59","883316","0.0-5.0-0.10","253","1","2025-07-30 08:37:21","1f75c3e559b7213887762d5229550c2b","93.39.139.75","Mozilla/5.0 (Windows NT 10.0; Win64; x64) AppleWebKit/537.36 (KHTML, like Gecko) Chrome/138.0.0.0 Safari/537.36","WebKit","Chrome","138.0.0.0","Windows","10.0","https://app.prolific.com/","it-IT,it;q=0.9,en-US;q=0.8,en;q=0.7","5daae19f8a06b60016d1bc32","6877631c9844ddd5501205fc","6889d9bc53c549d819cba6bc","3","1","5daae19f8a06b60016d1bc32","3","1","2025-07-30T08:52:06.104Z","","","","","","","","","","","","","","win-only","0","g1:NW,g2:SE","0.5","11","0","838264.6","833.6","5836.3","43481.4","1","4","8","6","2","-8","-8","0","0","0","1138.3","3000","-2310","[""down"",""right""]","{""num_key_presses"":9,""num_perfect"":5,""num_errors"":0,""num_randdir"":4,""num_randdir_good_moves"":0,""num_whilered"":0,""num_whileblue"":0,""num_blue"":2,""num_good_moves"":5}","[419.57142857142856,408.47767857142856,0.3,419.57142857142856,408.47767857142856,101.8,419.57142857142856,408.47767857142856,206,419.57142857142856,408.47767857142856,306.9,419.57142857142856,408.47767857142856,406.9,419.57142857142856,408.47767857142856,512.3,603.5714285714286,641.4776785714286,618,611.5714285714286,690.4776785714286,718.6,611.5714285714286,690.4776785714286,829.1,728.5714285714286,721.4776785714286,933.5,778.5714285714286,738.4776785714286,1037.4,778.5714285714286,738.4776785714286,1137.8,778.5714285714286,738.4776785714286,1239.5,778.5714285714286,738.4776785714286,1346.9,969.5714285714286,739.4776785714286,1447.9,1033.5714285714287,737.4776785714286,1551.7,1033.5714285714287,737.4776785714286,1653.2,1033.5714285714287,737.4776785714286,1763.4,1033.5714285714287,737.4776785714286,1868.6,1033.5714285714287,737.4776785714286,1978.8,1033.5714285714287,737.4776785714286,2081.4,1033.5714285714287,737.4776785714286,2182.7,1033.5714285714287,737.4776785714286,2284.3,1033.5714285714287,737.4776785714286,2385.4,1033.5714285714287,737.4776785714286,2490.9,1033.5714285714287,737.4776785714286,2597.9,1033.5714285714287,737.4776785714286,2703.9,1033.5714285714287,737.4776785714286,2812.1,1033.5714285714287,737.4776785714286,2919.2,1033.5714285714287,737.4776785714286,3028.6,1033.5714285714287,737.4776785714286,3129.6,1033.5714285714287,737.4776785714286,3229.6,1033.5714285714287,737.4776785714286,3334.1,1033.5714285714287,737.4776785714286,3436.5,1033.5714285714287,737.4776785714286,3536.9,1033.5714285714287,737.4776785714286,3638.8,1033.5714285714287,737.4776785714286,3748.1,1033.5714285714287,737.4776785714286,3851.7,1033.5714285714287,737.4776785714286,3958.5,1033.5714285714287,737.4776785714286,4067.4,1033.5714285714287,737.4776785714286,4168.5,1033.5714285714287,737.4776785714286,4272.1,1033.5714285714287,737.4776785714286,4372.9,1033.5714285714287,737.4776785714286,4474.8,1033.5714285714287,737.4776785714286,4582.5,1033.5714285714287,737.4776785714286,4685.8,1033.5714285714287,737.4776785714286,4787.6,1033.5714285714287,737.4776785714286,4898.9]","[1440.3,1440.3,1000,0,440.3,""oops"",""down"",""left"",""bad_move"",4088.1,2647.4,2138.2,1440.7,509.2,""oops"",""down"",""up"",""bad_move"",7529.6,3441.1,2974.2,4088.5,466.9,""oops"",""right"",""up"",""bad_move"",14898.3,7368.4,2661.9,11854,382.4,""smooth"",""right"",""right"",""good_move"",18843.1,3944.6,3551.5,14898.6,393.1,""oops"",""right"",""left"",""bad_move"",21834.4,2990.9,2538.6,18843.5,452.3,""smooth"",""right"",""right"",""good_move"",24830.4,2995.8,2663.9,21834.6,331.9,""smooth"",""right"",""right"",""good_move"",27436.1,2605.5,2224,24830.6,381.5,""smooth"",""down"",""down"",""good_move"",33673.5,6237.1,2792.6,30480,400.9,""smooth"",""down"",""down"",""good_move""]","",""
"3084","","<div style=""width:500px;"">
  <p>What determined the result of this run?</p>
  </div>","9","html-slider-response","60","886401","0.0-5.0-1.10","253","1","2025-07-30 08:37:21","1f75c3e559b7213887762d5229550c2b","93.39.139.75","Mozilla/5.0 (Windows NT 10.0; Win64; x64) AppleWebKit/537.36 (KHTML, like Gecko) Chrome/138.0.0.0 Safari/537.36","WebKit","Chrome","138.0.0.0","Windows","10.0","https://app.prolific.com/","it-IT,it;q=0.9,en-US;q=0.8,en;q=0.7","5daae19f8a06b60016d1bc32","6877631c9844ddd5501205fc","6889d9bc53c549d819cba6bc","3","1","5daae19f8a06b60016d1bc32","3","1","2025-07-30T08:52:09.189Z","","","","","","","","","","","AttribQ","","50","","","","","","","","","","","","","","","","","","","","","","","","","","","","",""
"2591","","<div style=""width:500px;"">
  <p>How much control did you have over the ball?</p>
  </div>","7","html-slider-response","61","888992","0.0-5.0-2.10","253","1","2025-07-30 08:37:21","1f75c3e559b7213887762d5229550c2b","93.39.139.75","Mozilla/5.0 (Windows NT 10.0; Win64; x64) AppleWebKit/537.36 (KHTML, like Gecko) Chrome/138.0.0.0 Safari/537.36","WebKit","Chrome","138.0.0.0","Windows","10.0","https://app.prolific.com/","it-IT,it;q=0.9,en-US;q=0.8,en;q=0.7","5daae19f8a06b60016d1bc32","6877631c9844ddd5501205fc","6889d9bc53c549d819cba6bc","3","1","5daae19f8a06b60016d1bc32","3","1","2025-07-30T08:52:11.780Z","","","","","","","","","","","ControlQ","","50","","","","","","","","","","","","","","","","","","","","","","","","","","","","",""
"2082","","<div style=""width:500px;"">
  <p>How would you describe your current emotional state?</p>
  </div>","100","html-slider-response","62","891075","0.0-5.0-3.10","253","1","2025-07-30 08:37:21","1f75c3e559b7213887762d5229550c2b","93.39.139.75","Mozilla/5.0 (Windows NT 10.0; Win64; x64) AppleWebKit/537.36 (KHTML, like Gecko) Chrome/138.0.0.0 Safari/537.36","WebKit","Chrome","138.0.0.0","Windows","10.0","https://app.prolific.com/","it-IT,it;q=0.9,en-US;q=0.8,en;q=0.7","5daae19f8a06b60016d1bc32","6877631c9844ddd5501205fc","6889d9bc53c549d819cba6bc","3","1","5daae19f8a06b60016d1bc32","3","1","2025-07-30T08:52:13.863Z","","","","","","","","","","","StressQ","","50","","","","","","","","","","","","","","","","","","","","","","","","","","","","",""
"2215","","<div style=""width:500px;"">
  <p>What best describes how you currently feel?</p>
  </div>","0","html-slider-response","63","893291","0.0-5.0-4.10","253","1","2025-07-30 08:37:21","1f75c3e559b7213887762d5229550c2b","93.39.139.75","Mozilla/5.0 (Windows NT 10.0; Win64; x64) AppleWebKit/537.36 (KHTML, like Gecko) Chrome/138.0.0.0 Safari/537.36","WebKit","Chrome","138.0.0.0","Windows","10.0","https://app.prolific.com/","it-IT,it;q=0.9,en-US;q=0.8,en;q=0.7","5daae19f8a06b60016d1bc32","6877631c9844ddd5501205fc","6889d9bc53c549d819cba6bc","3","1","5daae19f8a06b60016d1bc32","3","1","2025-07-30T08:52:16.079Z","","","","","","","","","","","MotivationQ","","50","","","","","","","","","","","","","","","","","","","","","","","","","","","","",""
"","","","","ctl-task-cpt","64","937252","0.0-5.0-0.11","253","1","2025-07-30 08:37:21","1f75c3e559b7213887762d5229550c2b","93.39.139.75","Mozilla/5.0 (Windows NT 10.0; Win64; x64) AppleWebKit/537.36 (KHTML, like Gecko) Chrome/138.0.0.0 Safari/537.36","WebKit","Chrome","138.0.0.0","Windows","10.0","https://app.prolific.com/","it-IT,it;q=0.9,en-US;q=0.8,en;q=0.7","5daae19f8a06b60016d1bc32","6877631c9844ddd5501205fc","6889d9bc53c549d819cba6bc","3","1","5daae19f8a06b60016d1bc32","3","1","2025-07-30T08:53:00.040Z","","","","","","","","","","","","","","win-only","1","g1:NE,g2:SW","0.6","12","0","894732.1","849.9","5850.7","40944.4","1","4","4","6","2","-4","-4","0","0","0","1408.8","3000","-2310","[""down"",""left""]","{""num_key_presses"":9,""num_perfect"":5,""num_errors"":0,""num_randdir"":4,""num_randdir_good_moves"":1,""num_whilered"":0,""num_whileblue"":0,""num_blue"":2,""num_good_moves"":6}","[415.57142857142856,413.47767857142856,0.1,415.57142857142856,413.47767857142856,105.4,415.57142857142856,413.47767857142856,210.1,415.57142857142856,413.47767857142856,314.8,415.57142857142856,413.47767857142856,415.6,415.57142857142856,413.47767857142856,523.5,415.57142857142856,413.47767857142856,627.4,415.57142857142856,413.47767857142856,728.6,415.57142857142856,413.47767857142856,829.2,236.57142857142856,537.4776785714286,938.5,55.57142857142857,713.4776785714286,1038.9,42.57142857142857,727.4776785714286,1143.9,43.57142857142857,733.4776785714286,1244.8,82.57142857142857,759.4776785714286,1346.8,82.57142857142857,759.4776785714286,1456.6,82.57142857142857,759.4776785714286,1558.3,82.57142857142857,759.4776785714286,1661.2,-69.42857142857143,673.4776785714286,1771.8,-167.42857142857144,611.4776785714286,1875.2,-167.42857142857144,611.4776785714286,1978.6,-167.42857142857144,611.4776785714286,2082.8,-167.42857142857144,611.4776785714286,2190.2,-167.42857142857144,611.4776785714286,2290.9,-167.42857142857144,611.4776785714286,2395.6,-167.42857142857144,611.4776785714286,2495.6,-167.42857142857144,611.4776785714286,2606.7,-167.42857142857144,611.4776785714286,2707,-167.42857142857144,611.4776785714286,2811.7,-167.42857142857144,611.4776785714286,2912.4,-167.42857142857144,611.4776785714286,3023.5,-167.42857142857144,611.4776785714286,3129,-167.42857142857144,611.4776785714286,3231.2,-167.42857142857144,611.4776785714286,3340.3,-167.42857142857144,611.4776785714286,3445.8,-167.42857142857144,611.4776785714286,3552.3,-167.42857142857144,611.4776785714286,3658.5,-167.42857142857144,611.4776785714286,3758.9,-167.42857142857144,611.4776785714286,3859.8,-167.42857142857144,611.4776785714286,3960.8,-167.42857142857144,611.4776785714286,4061.3,-167.42857142857144,611.4776785714286,4161.6,-167.42857142857144,611.4776785714286,4263.1,-167.42857142857144,611.4776785714286,4373.5,-167.42857142857144,611.4776785714286,4480.1,-167.42857142857144,611.4776785714286,4584.1,-167.42857142857144,611.4776785714286,4691.3,-167.42857142857144,611.4776785714286,4791.9,-167.42857142857144,611.4776785714286,4896.5]","[1438.7,1438.7,1000,0,438.7,""oops"",""down"",""up"",""bad_move"",4494.8,3055.9,2588.7,1439,467.1,""oops"",""down"",""down"",""good_move"",11002.7,6507.6,2420.8,8216.7,365.2,""oops"",""left"",""up"",""bad_move"",14186.3,3183.3,2645.5,11003,537.8,""oops"",""down"",""right"",""bad_move"",17760.6,3574.1,3081.1,14186.5,493,""smooth"",""down"",""down"",""good_move"",20358.2,2597.1,2068,17761.1,529.1,""smooth"",""down"",""down"",""good_move"",23282.3,2923.8,2546.6,20358.5,377.2,""smooth"",""down"",""down"",""good_move"",25924.9,2642.3,2278.5,23282.6,363.8,""smooth"",""left"",""left"",""good_move"",28567.8,2642.5,2259.6,25925.3,382.9,""smooth"",""left"",""left"",""good_move""]","",""
"3090","","<div style=""width:500px;"">
  <p>What determined the result of this run?</p>
  </div>","0","html-slider-response","65","940343","0.0-5.0-1.11","253","1","2025-07-30 08:37:21","1f75c3e559b7213887762d5229550c2b","93.39.139.75","Mozilla/5.0 (Windows NT 10.0; Win64; x64) AppleWebKit/537.36 (KHTML, like Gecko) Chrome/138.0.0.0 Safari/537.36","WebKit","Chrome","138.0.0.0","Windows","10.0","https://app.prolific.com/","it-IT,it;q=0.9,en-US;q=0.8,en;q=0.7","5daae19f8a06b60016d1bc32","6877631c9844ddd5501205fc","6889d9bc53c549d819cba6bc","3","1","5daae19f8a06b60016d1bc32","3","1","2025-07-30T08:53:03.132Z","","","","","","","","","","","AttribQ","","50","","","","","","","","","","","","","","","","","","","","","","","","","","","","",""
"1966","","<div style=""width:500px;"">
  <p>How much control did you have over the ball?</p>
  </div>","0","html-slider-response","66","942311","0.0-5.0-2.11","253","1","2025-07-30 08:37:21","1f75c3e559b7213887762d5229550c2b","93.39.139.75","Mozilla/5.0 (Windows NT 10.0; Win64; x64) AppleWebKit/537.36 (KHTML, like Gecko) Chrome/138.0.0.0 Safari/537.36","WebKit","Chrome","138.0.0.0","Windows","10.0","https://app.prolific.com/","it-IT,it;q=0.9,en-US;q=0.8,en;q=0.7","5daae19f8a06b60016d1bc32","6877631c9844ddd5501205fc","6889d9bc53c549d819cba6bc","3","1","5daae19f8a06b60016d1bc32","3","1","2025-07-30T08:53:05.099Z","","","","","","","","","","","ControlQ","","50","","","","","","","","","","","","","","","","","","","","","","","","","","","","",""
"2084","","<div style=""width:500px;"">
  <p>How would you describe your current emotional state?</p>
  </div>","100","html-slider-response","67","944395","0.0-5.0-3.11","253","1","2025-07-30 08:37:21","1f75c3e559b7213887762d5229550c2b","93.39.139.75","Mozilla/5.0 (Windows NT 10.0; Win64; x64) AppleWebKit/537.36 (KHTML, like Gecko) Chrome/138.0.0.0 Safari/537.36","WebKit","Chrome","138.0.0.0","Windows","10.0","https://app.prolific.com/","it-IT,it;q=0.9,en-US;q=0.8,en;q=0.7","5daae19f8a06b60016d1bc32","6877631c9844ddd5501205fc","6889d9bc53c549d819cba6bc","3","1","5daae19f8a06b60016d1bc32","3","1","2025-07-30T08:53:07.183Z","","","","","","","","","","","StressQ","","50","","","","","","","","","","","","","","","","","","","","","","","","","","","","",""
"1611","","<div style=""width:500px;"">
  <p>What best describes how you currently feel?</p>
  </div>","0","html-slider-response","68","946007","0.0-5.0-4.11","253","1","2025-07-30 08:37:21","1f75c3e559b7213887762d5229550c2b","93.39.139.75","Mozilla/5.0 (Windows NT 10.0; Win64; x64) AppleWebKit/537.36 (KHTML, like Gecko) Chrome/138.0.0.0 Safari/537.36","WebKit","Chrome","138.0.0.0","Windows","10.0","https://app.prolific.com/","it-IT,it;q=0.9,en-US;q=0.8,en;q=0.7","5daae19f8a06b60016d1bc32","6877631c9844ddd5501205fc","6889d9bc53c549d819cba6bc","3","1","5daae19f8a06b60016d1bc32","3","1","2025-07-30T08:53:08.795Z","","","","","","","","","","","MotivationQ","","50","","","","","","","","","","","","","","","","","","","","","","","","","","","","",""
"","","","","ctl-task-cpt","69","982596","0.0-5.0-0.12","253","1","2025-07-30 08:37:21","1f75c3e559b7213887762d5229550c2b","93.39.139.75","Mozilla/5.0 (Windows NT 10.0; Win64; x64) AppleWebKit/537.36 (KHTML, like Gecko) Chrome/138.0.0.0 Safari/537.36","WebKit","Chrome","138.0.0.0","Windows","10.0","https://app.prolific.com/","it-IT,it;q=0.9,en-US;q=0.8,en;q=0.7","5daae19f8a06b60016d1bc32","6877631c9844ddd5501205fc","6889d9bc53c549d819cba6bc","3","1","5daae19f8a06b60016d1bc32","3","1","2025-07-30T08:53:45.384Z","","","","","","","","","","","","","","win-only","0","g1:NW,g2:SE","0.7","13","0","947447.8","746.2","5753.1","33578","1","4","8","6","2","8","8","8","0","0.06060606060606061","1439.5","3000","1315","[""down"",""right""]","{""num_key_presses"":6,""num_perfect"":5,""num_errors"":0,""num_randdir"":1,""num_randdir_good_moves"":1,""num_whilered"":0,""num_whileblue"":0,""num_blue"":3,""num_good_moves"":6}","[415.57142857142856,420.47767857142856,0.1,415.57142857142856,420.47767857142856,111.6,415.57142857142856,420.47767857142856,214.3,415.57142857142856,420.47767857142856,318.6,415.57142857142856,420.47767857142856,420.3,415.57142857142856,420.47767857142856,521.1,415.57142857142856,420.47767857142856,624.6,422.57142857142856,424.47767857142856,727.7,629.5714285714286,602.4776785714286,835.7,714.5714285714286,718.4776785714286,941.2,714.5714285714286,718.4776785714286,1041.3,714.5714285714286,718.4776785714286,1146,714.5714285714286,718.4776785714286,1248,726.5714285714286,724.4776785714286,1349.7,731.5714285714286,728.4776785714286,1449.9,731.5714285714286,728.4776785714286,1550.2,731.5714285714286,728.4776785714286,1659.4,817.5714285714286,615.4776785714286,1762.1,959.5714285714286,439.47767857142856,1862.7,959.5714285714286,439.47767857142856,1967.7,959.5714285714286,439.47767857142856,2074.6,959.5714285714286,439.47767857142856,2175.2,959.5714285714286,439.47767857142856,2282.3,959.5714285714286,439.47767857142856,2390.4,959.5714285714286,439.47767857142856,2491.7,959.5714285714286,439.47767857142856,2591.9,959.5714285714286,439.47767857142856,2692.6,959.5714285714286,439.47767857142856,2799.9,959.5714285714286,439.47767857142856,2901.3,959.5714285714286,439.47767857142856,3012.7,959.5714285714286,439.47767857142856,3120.4,959.5714285714286,439.47767857142856,3229.4,959.5714285714286,439.47767857142856,3335.1,959.5714285714286,439.47767857142856,3442.8,959.5714285714286,439.47767857142856,3543.3,959.5714285714286,439.47767857142856,3646.5,959.5714285714286,439.47767857142856,3750.9,959.5714285714286,439.47767857142856,3858.5,959.5714285714286,439.47767857142856,3964.6,959.5714285714286,439.47767857142856,4066.7,959.5714285714286,439.47767857142856,4167.4,959.5714285714286,439.47767857142856,4267.9,959.5714285714286,439.47767857142856,4376.6,959.5714285714286,439.47767857142856,4479.9,959.5714285714286,439.47767857142856,4585.3,959.5714285714286,439.47767857142856,4690.7,959.5714285714286,439.47767857142856,4797.4,959.5714285714286,439.47767857142856,4901.4]","[1422.7,1422.7,1000,0,422.7,""smooth"",""down"",""down"",""good_move"",3971.2,2548.1,2159.8,1423.1,388.3,""oops"",""right"",""right"",""good_move"",7329.6,3358.1,2994,3971.6,364.1,""smooth"",""down"",""down"",""good_move"",13415.7,6085.4,2320.3,10675.8,419.6,""smooth"",""right"",""right"",""good_move"",20777.1,7361.1,3143.7,17163,470.4,""smooth"",""down"",""down"",""good_move"",27688.7,6911.3,3080.5,24196,412.2,""smooth"",""right"",""right"",""good_move""]","",""
"6283","","<div style=""width:500px;"">
  <p>What determined the result of this run?</p>
  </div>","89","html-slider-response","70","988879","0.0-5.0-1.12","253","1","2025-07-30 08:37:21","1f75c3e559b7213887762d5229550c2b","93.39.139.75","Mozilla/5.0 (Windows NT 10.0; Win64; x64) AppleWebKit/537.36 (KHTML, like Gecko) Chrome/138.0.0.0 Safari/537.36","WebKit","Chrome","138.0.0.0","Windows","10.0","https://app.prolific.com/","it-IT,it;q=0.9,en-US;q=0.8,en;q=0.7","5daae19f8a06b60016d1bc32","6877631c9844ddd5501205fc","6889d9bc53c549d819cba6bc","3","1","5daae19f8a06b60016d1bc32","3","1","2025-07-30T08:53:51.667Z","","","","","","","","","","","AttribQ","","50","","","","","","","","","","","","","","","","","","","","","","","","","","","","",""
"2981","","<div style=""width:500px;"">
  <p>How much control did you have over the ball?</p>
  </div>","84","html-slider-response","71","991861","0.0-5.0-2.12","253","1","2025-07-30 08:37:21","1f75c3e559b7213887762d5229550c2b","93.39.139.75","Mozilla/5.0 (Windows NT 10.0; Win64; x64) AppleWebKit/537.36 (KHTML, like Gecko) Chrome/138.0.0.0 Safari/537.36","WebKit","Chrome","138.0.0.0","Windows","10.0","https://app.prolific.com/","it-IT,it;q=0.9,en-US;q=0.8,en;q=0.7","5daae19f8a06b60016d1bc32","6877631c9844ddd5501205fc","6889d9bc53c549d819cba6bc","3","1","5daae19f8a06b60016d1bc32","3","1","2025-07-30T08:53:54.650Z","","","","","","","","","","","ControlQ","","50","","","","","","","","","","","","","","","","","","","","","","","","","","","","",""
"2865","","<div style=""width:500px;"">
  <p>How would you describe your current emotional state?</p>
  </div>","100","html-slider-response","72","994727","0.0-5.0-3.12","253","1","2025-07-30 08:37:21","1f75c3e559b7213887762d5229550c2b","93.39.139.75","Mozilla/5.0 (Windows NT 10.0; Win64; x64) AppleWebKit/537.36 (KHTML, like Gecko) Chrome/138.0.0.0 Safari/537.36","WebKit","Chrome","138.0.0.0","Windows","10.0","https://app.prolific.com/","it-IT,it;q=0.9,en-US;q=0.8,en;q=0.7","5daae19f8a06b60016d1bc32","6877631c9844ddd5501205fc","6889d9bc53c549d819cba6bc","3","1","5daae19f8a06b60016d1bc32","3","1","2025-07-30T08:53:57.515Z","","","","","","","","","","","StressQ","","50","","","","","","","","","","","","","","","","","","","","","","","","","","","","",""
"2099","","<div style=""width:500px;"">
  <p>What best describes how you currently feel?</p>
  </div>","0","html-slider-response","73","996827","0.0-5.0-4.12","253","1","2025-07-30 08:37:21","1f75c3e559b7213887762d5229550c2b","93.39.139.75","Mozilla/5.0 (Windows NT 10.0; Win64; x64) AppleWebKit/537.36 (KHTML, like Gecko) Chrome/138.0.0.0 Safari/537.36","WebKit","Chrome","138.0.0.0","Windows","10.0","https://app.prolific.com/","it-IT,it;q=0.9,en-US;q=0.8,en;q=0.7","5daae19f8a06b60016d1bc32","6877631c9844ddd5501205fc","6889d9bc53c549d819cba6bc","3","1","5daae19f8a06b60016d1bc32","3","1","2025-07-30T08:53:59.615Z","","","","","","","","","","","MotivationQ","","50","","","","","","","","","","","","","","","","","","","","","","","","","","","","",""
